Block1_Old,Num_Source3,Num_Source2,Num_Source1,valence1,valence2,valence3,Num_Old2,Corr_S1,Num_Old1,Corr_S3,Corr_S2,Block3_Old,Block2_Old,Source_2,Source_3,Source_1,domain3,domain2,domain1,Num_Old3,math,Num_All2,valence_all1,All_Words3,Num_All1,valence_all2,Num_All3,All_Words1,valence_all3,Corr_Rec2,Corr_Rec3,Corr_Rec1,domian_all3,domian_all2,domian_all1,All_Words2,trials.thisRepN,trials.thisTrialN,trials.thisN,trials.thisIndex,trials_2.thisRepN,trials_2.thisTrialN,trials_2.thisN,trials_2.thisIndex,trials_4.thisRepN,trials_4.thisTrialN,trials_4.thisN,trials_4.thisIndex,trials_3.thisRepN,trials_3.thisTrialN,trials_3.thisN,trials_3.thisIndex,block_resp_1.keys,block_resp_1.rt,words_rating.keys,words_rating.rt,block_resp_2.keys,block_resp_2.rt,Rec_resp.keys,Rec_resp.corr,Rec_resp.rt,Source_resp.keys,Source_resp.corr,Source_resp.rt,expName,participant,Age,frameRate,Sex,session,date,
,,,,,,,,,,,,,,,,,,,,,,,,,,,,,,,,,,,,,,,,,,,,,,,,,,,,,2,2.2251830101,,,,,,,,,,,moral_self_bias,02,20,60.0528036928,m,001,2018_Apr_02_0921,
怠惰,material/instr2_2.png,material/instr2_2.png,material/instr2_2.png,2,2,2,material/181.png,j,material/180.png,j,j,怠惰,犹豫,friend,friend,friend,2,2,2,material/180.png,,,,,,,,,,,,,,,,,0,0,0,79,,,,,,,,,,,,,,,1,2.84226703644,,,,,,,,,moral_self_bias,02,20,60.0528036928,m,001,2018_Apr_02_0921,
正直,material/instr2_2.png,material/instr2_2.png,material/instr2_2.png,1,1,1,material/9.png,j,material/109.png,j,j,正直,秉直,friend,friend,friend,1,1,1,material/109.png,,,,,,,,,,,,,,,,,0,1,1,8,,,,,,,,,,,,,,,5,2.02529287338,,,,,,,,,moral_self_bias,02,20,60.0528036928,m,001,2018_Apr_02_0921,
残虐,material/instr2_1.png,material/instr2_1.png,material/instr2_1.png,2,2,2,material/175.png,f,material/73.png,f,f,残虐,无情,self,self,self,1,1,1,material/73.png,,,,,,,,,,,,,,,,,0,2,2,85,,,,,,,,,,,,,,,3,1.74210381508,,,,,,,,,moral_self_bias,02,20,60.0528036928,m,001,2018_Apr_02_0921,
机灵,material/instr2_2.png,material/instr2_2.png,material/instr2_2.png,1,1,1,material/19.png,j,material/119.png,j,j,灵活,灵活,friend,friend,friend,2,2,2,material/19.png,,,,,,,,,,,,,,,,,0,3,3,18,,,,,,,,,,,,,,,2,1.69137907028,,,,,,,,,moral_self_bias,02,20,60.0528036928,m,001,2018_Apr_02_0921,
高效,material/instr2_1.png,material/instr2_1.png,material/instr2_1.png,1,1,1,material/169.png,f,material/171.png,f,f,颖悟,颖悟,self,self,self,2,2,2,material/169.png,,,,,,,,,,,,,,,,,0,4,4,70,,,,,,,,,,,,,,,5,1.95855283737,,,,,,,,,moral_self_bias,02,20,60.0528036928,m,001,2018_Apr_02_0921,
坚毅,material/instr2_2.png,material/instr2_2.png,material/instr2_2.png,1,1,1,material/10.png,j,material/110.png,j,j,坚毅,顽强,friend,friend,friend,1,1,1,material/110.png,,,,,,,,,,,,,,,,,0,5,5,9,,,,,,,,,,,,,,,5,1.95847201347,,,,,,,,,moral_self_bias,02,20,60.0528036928,m,001,2018_Apr_02_0921,
鲁钝,material/instr2_2.png,material/instr2_2.png,material/instr2_2.png,2,2,2,material/50.png,j,material/150.png,j,j,愚笨,愚笨,friend,friend,friend,2,2,2,material/50.png,,,,,,,,,,,,,,,,,0,6,6,49,,,,,,,,,,,,,,,3,1.64232397079,,,,,,,,,moral_self_bias,02,20,60.0528036928,m,001,2018_Apr_02_0921,
忠心,material/instr2_1.png,material/instr2_1.png,material/instr2_1.png,1,1,1,material/12.png,f,material/112.png,f,f,忠心,忠诚,self,self,self,1,1,1,material/112.png,,,,,,,,,,,,,,,,,0,7,7,11,,,,,,,,,,,,,,,3,1.7582461834,,,,,,,,,moral_self_bias,02,20,60.0528036928,m,001,2018_Apr_02_0921,
孝顺,material/instr2_1.png,material/instr2_1.png,material/instr2_1.png,1,1,1,material/161.png,f,material/164.png,f,f,奉献,勇敢,self,self,self,1,1,1,material/64.png,,,,,,,,,,,,,,,,,0,8,8,63,,,,,,,,,,,,,,,2,1.73299789429,,,,,,,,,moral_self_bias,02,20,60.0528036928,m,001,2018_Apr_02_0921,
卑鄙,material/instr2_2.png,material/instr2_2.png,material/instr2_2.png,2,2,2,material/37.png,j,material/137.png,j,j,卑鄙,无耻,friend,friend,friend,1,1,1,material/137.png,,,,,,,,,,,,,,,,,0,9,9,36,,,,,,,,,,,,,,,1,1.12439703941,,,,,,,,,moral_self_bias,02,20,60.0528036928,m,001,2018_Apr_02_0921,
诚信,material/instr2_1.png,material/instr2_1.png,material/instr2_1.png,1,1,1,material/5.png,f,material/105.png,f,f,诚信,守信,self,self,self,1,1,1,material/105.png,,,,,,,,,,,,,,,,,0,10,10,4,,,,,,,,,,,,,,,4,2.22522497177,,,,,,,,,moral_self_bias,02,20,60.0528036928,m,001,2018_Apr_02_0921,
自私,material/instr2_2.png,material/instr2_2.png,material/instr2_2.png,2,2,2,material/46.png,j,material/146.png,j,j,自私,小气,friend,friend,friend,1,1,1,material/146.png,,,,,,,,,,,,,,,,,0,11,11,45,,,,,,,,,,,,,,,1,1.42479205132,,,,,,,,,moral_self_bias,02,20,60.0528036928,m,001,2018_Apr_02_0921,
迟钝,material/instr2_1.png,material/instr2_1.png,material/instr2_1.png,2,2,2,material/53.png,f,material/153.png,f,f,迟缓,迟缓,self,self,self,2,2,2,material/53.png,,,,,,,,,,,,,,,,,0,12,12,52,,,,,,,,,,,,,,,1,2.57545495033,,,,,,,,,moral_self_bias,02,20,60.0528036928,m,001,2018_Apr_02_0921,
冷静,material/instr2_1.png,material/instr2_1.png,material/instr2_1.png,1,1,1,material/24.png,f,material/124.png,f,f,理智,理智,self,self,self,2,2,2,material/24.png,,,,,,,,,,,,,,,,,0,13,13,23,,,,,,,,,,,,,,,5,1.22529578209,,,,,,,,,moral_self_bias,02,20,60.0528036928,m,001,2018_Apr_02_0921,
盲目,material/instr2_1.png,material/instr2_1.png,material/instr2_1.png,2,2,2,material/55.png,f,material/155.png,f,f,盲从,盲从,self,self,self,2,2,2,material/55.png,,,,,,,,,,,,,,,,,0,14,14,54,,,,,,,,,,,,,,,1,1.64225697517,,,,,,,,,moral_self_bias,02,20,60.0528036928,m,001,2018_Apr_02_0921,
奸诈,material/instr2_1.png,material/instr2_1.png,material/instr2_1.png,2,2,2,material/42.png,f,material/142.png,f,f,奸诈,阴险,self,self,self,1,1,1,material/142.png,,,,,,,,,,,,,,,,,0,15,15,41,,,,,,,,,,,,,,,1,1.47511792183,,,,,,,,,moral_self_bias,02,20,60.0528036928,m,001,2018_Apr_02_0921,
无情,material/instr2_1.png,material/instr2_1.png,material/instr2_1.png,2,2,2,material/172.png,f,material/175.png,f,f,无情,浮夸,self,self,self,1,1,1,material/175.png,,,,,,,,,,,,,,,,,0,16,16,74,,,,,,,,,,,,,,,None,,,,,,,,,,moral_self_bias,02,20,60.0528036928,m,001,2018_Apr_02_0921,
爱心,material/instr2_1.png,material/instr2_1.png,material/instr2_1.png,1,1,1,material/2.png,f,material/102.png,f,f,爱心,善心,self,self,self,1,1,1,material/102.png,,,,,,,,,,,,,,,,,0,17,17,1,,,,,,,,,,,,,,,4,1.83919000626,,,,,,,,,moral_self_bias,02,20,60.0528036928,m,001,2018_Apr_02_0921,
无私,material/instr2_2.png,material/instr2_2.png,material/instr2_2.png,1,1,1,material/8.png,j,material/108.png,j,j,无私,公道,friend,friend,friend,1,1,1,material/108.png,,,,,,,,,,,,,,,,,0,18,18,7,,,,,,,,,,,,,,,5,1.77521586418,,,,,,,,,moral_self_bias,02,20,60.0528036928,m,001,2018_Apr_02_0921,
博爱,material/instr2_1.png,material/instr2_1.png,material/instr2_1.png,1,1,1,material/1.png,f,material/101.png,f,f,博爱,善良,self,self,self,1,1,1,material/101.png,,,,,,,,,,,,,,,,,0,19,19,0,,,,,,,,,,,,,,,4,1.97514605522,,,,,,,,,moral_self_bias,02,20,60.0528036928,m,001,2018_Apr_02_0921,
敬业,material/instr2_2.png,material/instr2_2.png,material/instr2_2.png,1,1,1,material/62.png,j,material/162.png,j,j,坚韧,坚韧,friend,friend,friend,1,1,1,material/62.png,,,,,,,,,,,,,,,,,0,20,20,61,,,,,,,,,,,,,,,5,0.992006063461,,,,,,,,,moral_self_bias,02,20,60.0528036928,m,001,2018_Apr_02_0921,
毛糙,material/instr2_2.png,material/instr2_2.png,material/instr2_2.png,2,2,2,material/179.png,j,material/178.png,j,j,顽愚,差生,friend,friend,friend,2,2,2,material/84.png,,,,,,,,,,,,,,,,,0,21,21,77,,,,,,,,,,,,,,,2,2.36688303947,,,,,,,,,moral_self_bias,02,20,60.0528036928,m,001,2018_Apr_02_0921,
独立,material/instr2_1.png,material/instr2_1.png,material/instr2_1.png,1,1,1,material/64.png,f,material/165.png,f,f,谦虚,奉献,self,self,self,1,1,1,material/65.png,,,,,,,,,,,,,,,,,0,22,22,64,,,,,,,,,,,,,,,3,1.87530994415,,,,,,,,,moral_self_bias,02,20,60.0528036928,m,001,2018_Apr_02_0921,
廉明,material/instr2_2.png,material/instr2_2.png,material/instr2_2.png,1,1,1,material/13.png,j,material/113.png,j,j,廉明,廉洁,friend,friend,friend,1,1,1,material/113.png,,,,,,,,,,,,,,,,,0,23,23,12,,,,,,,,,,,,,,,3,2.1251001358,,,,,,,,,moral_self_bias,02,20,60.0528036928,m,001,2018_Apr_02_0921,
进取,material/instr2_1.png,material/instr2_1.png,material/instr2_1.png,1,1,1,material/30.png,f,material/130.png,f,f,上进,上进,self,self,self,2,2,2,material/30.png,,,,,,,,,,,,,,,,,0,24,24,29,,,,,,,,,,,,,,,5,1.92530894279,,,,,,,,,moral_self_bias,02,20,60.0528036928,m,001,2018_Apr_02_0921,
纯洁,material/instr2_2.png,material/instr2_2.png,material/instr2_2.png,1,1,1,material/15.png,j,material/115.png,j,j,纯洁,清白,friend,friend,friend,1,1,1,material/115.png,,,,,,,,,,,,,,,,,0,25,25,14,,,,,,,,,,,,,,,5,1.96712803841,,,,,,,,,moral_self_bias,02,20,60.0528036928,m,001,2018_Apr_02_0921,
宽容,material/instr2_2.png,material/instr2_2.png,material/instr2_2.png,1,1,1,material/163.png,j,material/163.png,j,j,文明,宽容,friend,friend,friend,1,1,1,material/63.png,,,,,,,,,,,,,,,,,0,26,26,62,,,,,,,,,,,,,,,5,1.40895080566,,,,,,,,,moral_self_bias,02,20,60.0528036928,m,001,2018_Apr_02_0921,
仗义,material/instr2_1.png,material/instr2_1.png,material/instr2_1.png,1,1,1,material/63.png,f,material/166.png,f,f,正义,文明,self,self,self,1,1,1,material/66.png,,,,,,,,,,,,,,,,,0,27,27,65,,,,,,,,,,,,,,,4,1.90816712379,,,,,,,,,moral_self_bias,02,20,60.0528036928,m,001,2018_Apr_02_0921,
黑心,material/instr2_2.png,material/instr2_2.png,material/instr2_2.png,2,2,2,material/74.png,j,material/173.png,j,j,黑心,卑劣,friend,friend,friend,1,1,1,material/173.png,,,,,,,,,,,,,,,,,0,28,28,72,,,,,,,,,,,,,,,1,1.05887889862,,,,,,,,,moral_self_bias,02,20,60.0528036928,m,001,2018_Apr_02_0921,
冷血,material/instr2_1.png,material/instr2_1.png,material/instr2_1.png,2,2,2,material/35.png,f,material/135.png,f,f,冷血,冷漠,self,self,self,1,1,1,material/135.png,,,,,,,,,,,,,,,,,0,29,29,34,,,,,,,,,,,,,,,4,2.84206485748,,,,,,,,,moral_self_bias,02,20,60.0528036928,m,001,2018_Apr_02_0921,
缓慢,material/instr2_1.png,material/instr2_1.png,material/instr2_1.png,2,2,2,material/52.png,f,material/152.png,f,f,拖延,拖延,self,self,self,2,2,2,material/52.png,,,,,,,,,,,,,,,,,0,30,30,51,,,,,,,,,,,,,,,None,,,,,,,,,,moral_self_bias,02,20,60.0528036928,m,001,2018_Apr_02_0921,
犹豫,material/instr2_1.png,material/instr2_1.png,material/instr2_1.png,2,2,2,material/78.png,f,material/181.png,f,f,厌学,草率,self,self,self,2,2,2,material/184.png,,,,,,,,,,,,,,,,,0,31,31,80,,,,,,,,,,,,,,,4,1.97629094124,,,,,,,,,moral_self_bias,02,20,60.0528036928,m,001,2018_Apr_02_0921,
白痴,material/instr2_2.png,material/instr2_2.png,material/instr2_2.png,2,2,2,material/49.png,j,material/149.png,j,j,痴呆,痴呆,friend,friend,friend,2,2,2,material/49.png,,,,,,,,,,,,,,,,,0,32,32,48,,,,,,,,,,,,,,,4,1.84203600883,,,,,,,,,moral_self_bias,02,20,60.0528036928,m,001,2018_Apr_02_0921,
厌学,material/instr2_2.png,material/instr2_2.png,material/instr2_2.png,2,2,2,material/182.png,j,material/184.png,j,j,健忘,才尽,friend,friend,friend,2,2,2,material/80.png,,,,,,,,,,,,,,,,,0,33,33,83,,,,,,,,,,,,,,,3,2.68397402763,,,,,,,,,moral_self_bias,02,20,60.0528036928,m,001,2018_Apr_02_0921,
弱智,material/instr2_1.png,material/instr2_1.png,material/instr2_1.png,2,2,2,material/59.png,f,material/159.png,f,f,智障,智障,self,self,self,2,2,2,material/59.png,,,,,,,,,,,,,,,,,0,34,34,58,,,,,,,,,,,,,,,3,2.34147000313,,,,,,,,,moral_self_bias,02,20,60.0528036928,m,001,2018_Apr_02_0921,
浅薄,material/instr2_2.png,material/instr2_2.png,material/instr2_2.png,2,2,2,material/58.png,j,material/158.png,j,j,肤浅,肤浅,friend,friend,friend,2,2,2,material/58.png,,,,,,,,,,,,,,,,,0,35,35,57,,,,,,,,,,,,,,,2,1.99205589294,,,,,,,,,moral_self_bias,02,20,60.0528036928,m,001,2018_Apr_02_0921,
爽约,material/instr2_2.png,material/instr2_2.png,material/instr2_2.png,2,2,2,material/44.png,j,material/144.png,j,j,爽约,失信,friend,friend,friend,1,1,1,material/144.png,,,,,,,,,,,,,,,,,0,36,36,43,,,,,,,,,,,,,,,2,1.20906209946,,,,,,,,,moral_self_bias,02,20,60.0528036928,m,001,2018_Apr_02_0921,
无能,material/instr2_2.png,material/instr2_2.png,material/instr2_2.png,2,2,2,material/57.png,j,material/157.png,j,j,无知,无知,friend,friend,friend,2,2,2,material/57.png,,,,,,,,,,,,,,,,,0,37,37,56,,,,,,,,,,,,,,,1,1.10789585114,,,,,,,,,moral_self_bias,02,20,60.0528036928,m,001,2018_Apr_02_0921,
残忍,material/instr2_2.png,material/instr2_2.png,material/instr2_2.png,2,2,2,material/41.png,j,material/141.png,j,j,残忍,歹毒,friend,friend,friend,1,1,1,material/141.png,,,,,,,,,,,,,,,,,0,38,38,40,,,,,,,,,,,,,,,1,0.742354154587,,,,,,,,,moral_self_bias,02,20,60.0528036928,m,001,2018_Apr_02_0921,
机智,material/instr2_2.png,material/instr2_2.png,material/instr2_2.png,1,1,1,material/16.png,j,material/116.png,j,j,睿智,睿智,friend,friend,friend,2,2,2,material/16.png,,,,,,,,,,,,,,,,,0,39,39,15,,,,,,,,,,,,,,,3,2.02508091927,,,,,,,,,moral_self_bias,02,20,60.0528036928,m,001,2018_Apr_02_0921,
勇敢,material/instr2_2.png,material/instr2_2.png,material/instr2_2.png,1,1,1,material/165.png,j,material/161.png,j,j,平等,独立,friend,friend,friend,1,1,1,material/61.png,,,,,,,,,,,,,,,,,0,40,40,60,,,,,,,,,,,,,,,3,2.0083899498,,,,,,,,,moral_self_bias,02,20,60.0528036928,m,001,2018_Apr_02_0921,
可恶,material/instr2_1.png,material/instr2_1.png,material/instr2_1.png,2,2,2,material/34.png,f,material/134.png,f,f,可恶,可恨,self,self,self,1,1,1,material/134.png,,,,,,,,,,,,,,,,,0,41,41,33,,,,,,,,,,,,,,,1,1.67515516281,,,,,,,,,moral_self_bias,02,20,60.0528036928,m,001,2018_Apr_02_0921,
忠贞,material/instr2_2.png,material/instr2_2.png,material/instr2_2.png,1,1,1,material/14.png,j,material/114.png,j,j,忠贞,爱国,friend,friend,friend,1,1,1,material/114.png,,,,,,,,,,,,,,,,,0,42,42,13,,,,,,,,,,,,,,,5,1.12520003319,,,,,,,,,moral_self_bias,02,20,60.0528036928,m,001,2018_Apr_02_0921,
高手,material/instr2_2.png,material/instr2_2.png,material/instr2_2.png,1,1,1,material/68.png,j,material/167.png,j,j,广博,广博,friend,friend,friend,2,2,2,material/68.png,,,,,,,,,,,,,,,,,0,43,43,66,,,,,,,,,,,,,,,2,1.59317803383,,,,,,,,,moral_self_bias,02,20,60.0528036928,m,001,2018_Apr_02_0921,
勤快,material/instr2_2.png,material/instr2_2.png,material/instr2_2.png,1,1,1,material/26.png,j,material/126.png,j,j,刻苦,刻苦,friend,friend,friend,2,2,2,material/26.png,,,,,,,,,,,,,,,,,0,44,44,25,,,,,,,,,,,,,,,4,1.64205408096,,,,,,,,,moral_self_bias,02,20,60.0528036928,m,001,2018_Apr_02_0921,
超群,material/instr2_2.png,material/instr2_2.png,material/instr2_2.png,1,1,1,material/27.png,j,material/127.png,j,j,卓越,卓越,friend,friend,friend,2,2,2,material/27.png,,,,,,,,,,,,,,,,,0,45,45,26,,,,,,,,,,,,,,,1,1.1755168438,,,,,,,,,moral_self_bias,02,20,60.0528036928,m,001,2018_Apr_02_0921,
机敏,material/instr2_2.png,material/instr2_2.png,material/instr2_2.png,1,1,1,material/18.png,j,material/118.png,j,j,敏锐,敏锐,friend,friend,friend,2,2,2,material/18.png,,,,,,,,,,,,,,,,,0,46,46,17,,,,,,,,,,,,,,,2,1.8587911129,,,,,,,,,moral_self_bias,02,20,60.0528036928,m,001,2018_Apr_02_0921,
小人,material/instr2_2.png,material/instr2_2.png,material/instr2_2.png,2,2,2,material/45.png,j,material/145.png,j,j,小人,下流,friend,friend,friend,1,1,1,material/145.png,,,,,,,,,,,,,,,,,0,47,47,44,,,,,,,,,,,,,,,1,1.90824794769,,,,,,,,,moral_self_bias,02,20,60.0528036928,m,001,2018_Apr_02_0921,
才尽,material/instr2_1.png,material/instr2_1.png,material/instr2_1.png,2,2,2,material/183.png,f,material/182.png,f,f,颓废,薄弱,self,self,self,2,2,2,material/79.png,,,,,,,,,,,,,,,,,0,48,48,81,,,,,,,,,,,,,,,1,2.20873403549,,,,,,,,,moral_self_bias,02,20,60.0528036928,m,001,2018_Apr_02_0921,
博学,material/instr2_1.png,material/instr2_1.png,material/instr2_1.png,1,1,1,material/22.png,f,material/122.png,f,f,才学,才学,self,self,self,2,2,2,material/22.png,,,,,,,,,,,,,,,,,0,49,49,21,,,,,,,,,,,,,,,5,1.19126987457,,,,,,,,,moral_self_bias,02,20,60.0528036928,m,001,2018_Apr_02_0921,
笃行,material/instr2_1.png,material/instr2_1.png,material/instr2_1.png,1,1,1,material/31.png,f,material/131.png,f,f,笃学,笃学,self,self,self,2,2,2,material/31.png,,,,,,,,,,,,,,,,,0,50,50,30,,,,,,,,,,,,,,,2,1.74235701561,,,,,,,,,moral_self_bias,02,20,60.0528036928,m,001,2018_Apr_02_0921,
颖悟,material/instr2_2.png,material/instr2_2.png,material/instr2_2.png,1,1,1,material/167.png,j,material/169.png,j,j,高手,高手,friend,friend,friend,2,2,2,material/167.png,,,,,,,,,,,,,,,,,0,51,51,68,,,,,,,,,,,,,,,3,2.34999203682,,,,,,,,,moral_self_bias,02,20,60.0528036928,m,001,2018_Apr_02_0921,
机变,material/instr2_2.png,material/instr2_2.png,material/instr2_2.png,1,1,1,material/70.png,j,material/168.png,j,j,全面,全面,friend,friend,friend,2,2,2,material/70.png,,,,,,,,,,,,,,,,,0,52,52,67,,,,,,,,,,,,,,,2,1.9245569706,,,,,,,,,moral_self_bias,02,20,60.0528036928,m,001,2018_Apr_02_0921,
果敢,material/instr2_1.png,material/instr2_1.png,material/instr2_1.png,1,1,1,material/25.png,f,material/125.png,f,f,果断,果断,self,self,self,2,2,2,material/25.png,,,,,,,,,,,,,,,,,0,53,53,24,,,,,,,,,,,,,,,3,1.87586188316,,,,,,,,,moral_self_bias,02,20,60.0528036928,m,001,2018_Apr_02_0921,
迷糊,material/instr2_2.png,material/instr2_2.png,material/instr2_2.png,2,2,2,material/51.png,j,material/151.png,j,j,糊涂,糊涂,friend,friend,friend,2,2,2,material/51.png,,,,,,,,,,,,,,,,,0,54,54,50,,,,,,,,,,,,,,,4,1.40881991386,,,,,,,,,moral_self_bias,02,20,60.0528036928,m,001,2018_Apr_02_0921,
不义,material/instr2_2.png,material/instr2_2.png,material/instr2_2.png,2,2,2,material/173.png,j,material/174.png,j,j,不义,黑心,friend,friend,friend,1,1,1,material/174.png,,,,,,,,,,,,,,,,,0,55,55,73,,,,,,,,,,,,,,,1,1.65887999535,,,,,,,,,moral_self_bias,02,20,60.0528036928,m,001,2018_Apr_02_0921,
高明,material/instr2_1.png,material/instr2_1.png,material/instr2_1.png,1,1,1,material/69.png,f,material/69.png,f,f,高明,高明,self,self,self,2,2,2,material/69.png,,,,,,,,,,,,,,,,,0,56,56,86,,,,,,,,,,,,,,,3,1.18353796005,,,,,,,,,moral_self_bias,02,20,60.0528036928,m,001,2018_Apr_02_0921,
薄弱,material/instr2_1.png,material/instr2_1.png,material/instr2_1.png,2,2,2,material/82.png,f,material/183.png,f,f,毛糙,窝囊,self,self,self,2,2,2,material/178.png,,,,,,,,,,,,,,,,,0,57,57,82,,,,,,,,,,,,,,,2,1.00861096382,,,,,,,,,moral_self_bias,02,20,60.0528036928,m,001,2018_Apr_02_0921,
恶心,material/instr2_1.png,material/instr2_1.png,material/instr2_1.png,2,2,2,material/73.png,f,material/177.png,f,f,恶心,残虐,self,self,self,1,1,1,material/177.png,,,,,,,,,,,,,,,,,0,58,58,76,,,,,,,,,,,,,,,1,2.09233498573,,,,,,,,,moral_self_bias,02,20,60.0528036928,m,001,2018_Apr_02_0921,
好问,material/instr2_1.png,material/instr2_1.png,material/instr2_1.png,1,1,1,material/29.png,f,material/129.png,f,f,好学,好学,self,self,self,2,2,2,material/29.png,,,,,,,,,,,,,,,,,0,59,59,28,,,,,,,,,,,,,,,3,1.358907938,,,,,,,,,moral_self_bias,02,20,60.0528036928,m,001,2018_Apr_02_0921,
顽愚,material/instr2_1.png,material/instr2_1.png,material/instr2_1.png,2,2,2,material/84.png,f,material/84.png,f,f,犹豫,顽愚,self,self,self,2,2,2,material/181.png,,,,,,,,,,,,,,,,,0,60,60,87,,,,,,,,,,,,,,,4,1.75878405571,,,,,,,,,moral_self_bias,02,20,60.0528036928,m,001,2018_Apr_02_0921,
刻板,material/instr2_2.png,material/instr2_2.png,material/instr2_2.png,2,2,2,material/47.png,j,material/147.png,j,j,死板,死板,friend,friend,friend,2,2,2,material/47.png,,,,,,,,,,,,,,,,,0,61,61,46,,,,,,,,,,,,,,,2,1.60866689682,,,,,,,,,moral_self_bias,02,20,60.0528036928,m,001,2018_Apr_02_0921,
愚钝,material/instr2_1.png,material/instr2_1.png,material/instr2_1.png,2,2,2,material/56.png,f,material/156.png,f,f,愚昧,愚昧,self,self,self,2,2,2,material/56.png,,,,,,,,,,,,,,,,,0,62,62,55,,,,,,,,,,,,,,,2,1.80906701088,,,,,,,,,moral_self_bias,02,20,60.0528036928,m,001,2018_Apr_02_0921,
背叛,material/instr2_1.png,material/instr2_1.png,material/instr2_1.png,2,2,2,material/32.png,f,material/132.png,f,f,背叛,不忠,self,self,self,1,1,1,material/132.png,,,,,,,,,,,,,,,,,0,63,63,31,,,,,,,,,,,,,,,2,1.60865712166,,,,,,,,,moral_self_bias,02,20,60.0528036928,m,001,2018_Apr_02_0921,
公平,material/instr2_2.png,material/instr2_2.png,material/instr2_2.png,1,1,1,material/7.png,j,material/107.png,j,j,公平,公正,friend,friend,friend,1,1,1,material/107.png,,,,,,,,,,,,,,,,,0,64,64,6,,,,,,,,,,,,,,,4,1.20826196671,,,,,,,,,moral_self_bias,02,20,60.0528036928,m,001,2018_Apr_02_0921,
浮夸,material/instr2_2.png,material/instr2_2.png,material/instr2_2.png,2,2,2,material/77.png,j,material/172.png,j,j,浮夸,软弱,friend,friend,friend,1,1,1,material/172.png,,,,,,,,,,,,,,,,,0,65,65,71,,,,,,,,,,,,,,,2,1.07561588287,,,,,,,,,moral_self_bias,02,20,60.0528036928,m,001,2018_Apr_02_0921,
精干,material/instr2_1.png,material/instr2_1.png,material/instr2_1.png,1,1,1,material/21.png,f,material/121.png,f,f,干练,干练,self,self,self,2,2,2,material/21.png,,,,,,,,,,,,,,,,,0,66,66,20,,,,,,,,,,,,,,,3,1.30957603455,,,,,,,,,moral_self_bias,02,20,60.0528036928,m,001,2018_Apr_02_0921,
坚忍,material/instr2_1.png,material/instr2_1.png,material/instr2_1.png,1,1,1,material/168.png,f,material/170.png,f,f,机变,机变,self,self,self,2,2,2,material/168.png,,,,,,,,,,,,,,,,,0,67,67,69,,,,,,,,,,,,,,,2,1.3090929985,,,,,,,,,moral_self_bias,02,20,60.0528036928,m,001,2018_Apr_02_0921,
缺德,material/instr2_2.png,material/instr2_2.png,material/instr2_2.png,2,2,2,material/38.png,j,material/138.png,j,j,缺德,无德,friend,friend,friend,1,1,1,material/138.png,,,,,,,,,,,,,,,,,0,68,68,37,,,,,,,,,,,,,,,1,1.30868506432,,,,,,,,,moral_self_bias,02,20,60.0528036928,m,001,2018_Apr_02_0921,
笨拙,material/instr2_1.png,material/instr2_1.png,material/instr2_1.png,2,2,2,material/60.png,f,material/160.png,f,f,粗拙,粗拙,self,self,self,2,2,2,material/60.png,,,,,,,,,,,,,,,,,0,69,69,59,,,,,,,,,,,,,,,1,2.52526688576,,,,,,,,,moral_self_bias,02,20,60.0528036928,m,001,2018_Apr_02_0921,
狠毒,material/instr2_2.png,material/instr2_2.png,material/instr2_2.png,2,2,2,material/40.png,j,material/140.png,j,j,狠毒,邪恶,friend,friend,friend,1,1,1,material/140.png,,,,,,,,,,,,,,,,,0,70,70,39,,,,,,,,,,,,,,,1,1.4414639473,,,,,,,,,moral_self_bias,02,20,60.0528036928,m,001,2018_Apr_02_0921,
贪污,material/instr2_1.png,material/instr2_1.png,material/instr2_1.png,2,2,2,material/33.png,f,material/133.png,f,f,贪污,腐败,self,self,self,1,1,1,material/133.png,,,,,,,,,,,,,,,,,0,71,71,32,,,,,,,,,,,,,,,1,1.07575297356,,,,,,,,,moral_self_bias,02,20,60.0528036928,m,001,2018_Apr_02_0921,
虚荣,material/instr2_1.png,material/instr2_1.png,material/instr2_1.png,2,2,2,material/43.png,f,material/143.png,f,f,虚荣,拜金,self,self,self,1,1,1,material/143.png,,,,,,,,,,,,,,,,,0,72,72,42,,,,,,,,,,,,,,,1,0.916882038116,,,,,,,,,moral_self_bias,02,20,60.0528036928,m,001,2018_Apr_02_0921,
友善,material/instr2_1.png,material/instr2_1.png,material/instr2_1.png,1,1,1,material/4.png,f,material/104.png,f,f,友善,友爱,self,self,self,1,1,1,material/104.png,,,,,,,,,,,,,,,,,0,73,73,3,,,,,,,,,,,,,,,3,1.75851678848,,,,,,,,,moral_self_bias,02,20,60.0528036928,m,001,2018_Apr_02_0921,
放纵,material/instr2_1.png,material/instr2_1.png,material/instr2_1.png,2,2,2,material/76.png,f,material/176.png,f,f,放纵,虚伪,self,self,self,1,1,1,material/176.png,,,,,,,,,,,,,,,,,0,74,74,75,,,,,,,,,,,,,,,3,1.82385110855,,,,,,,,,moral_self_bias,02,20,60.0528036928,m,001,2018_Apr_02_0921,
撒谎,material/instr2_1.png,material/instr2_1.png,material/instr2_1.png,2,2,2,material/36.png,f,material/136.png,f,f,撒谎,说谎,self,self,self,1,1,1,material/136.png,,,,,,,,,,,,,,,,,0,75,75,35,,,,,,,,,,,,,,,3,1.15872693062,,,,,,,,,moral_self_bias,02,20,60.0528036928,m,001,2018_Apr_02_0921,
差生,material/instr2_2.png,material/instr2_2.png,material/instr2_2.png,2,2,2,material/81.png,j,material/179.png,j,j,呆笨,无助,friend,friend,friend,2,2,2,material/83.png,,,,,,,,,,,,,,,,,0,76,76,78,,,,,,,,,,,,,,,3,1.64231705666,,,,,,,,,moral_self_bias,02,20,60.0528036928,m,001,2018_Apr_02_0921,
笨蛋,material/instr2_2.png,material/instr2_2.png,material/instr2_2.png,2,2,2,material/48.png,j,material/148.png,j,j,愚蠢,愚蠢,friend,friend,friend,2,2,2,material/48.png,,,,,,,,,,,,,,,,,0,77,77,47,,,,,,,,,,,,,,,4,2.12547588348,,,,,,,,,moral_self_bias,02,20,60.0528036928,m,001,2018_Apr_02_0921,
仁厚,material/instr2_1.png,material/instr2_1.png,material/instr2_1.png,1,1,1,material/3.png,f,material/103.png,f,f,仁厚,仁慈,self,self,self,1,1,1,material/103.png,,,,,,,,,,,,,,,,,0,78,78,2,,,,,,,,,,,,,,,4,2.02537298203,,,,,,,,,moral_self_bias,02,20,60.0528036928,m,001,2018_Apr_02_0921,
多才,material/instr2_1.png,material/instr2_1.png,material/instr2_1.png,1,1,1,material/23.png,f,material/123.png,f,f,有才,有才,self,self,self,2,2,2,material/23.png,,,,,,,,,,,,,,,,,0,79,79,22,,,,,,,,,,,,,,,4,0.892292976379,,,,,,,,,moral_self_bias,02,20,60.0528036928,m,001,2018_Apr_02_0921,
自律,material/instr2_2.png,material/instr2_2.png,material/instr2_2.png,1,1,1,material/28.png,j,material/128.png,j,j,克己,克己,friend,friend,friend,2,2,2,material/28.png,,,,,,,,,,,,,,,,,0,80,80,27,,,,,,,,,,,,,,,3,1.7746090889,,,,,,,,,moral_self_bias,02,20,60.0528036928,m,001,2018_Apr_02_0921,
正义,material/instr2_1.png,material/instr2_1.png,material/instr2_1.png,1,1,1,material/66.png,f,material/66.png,f,f,独立,正义,self,self,self,1,1,1,material/165.png,,,,,,,,,,,,,,,,,0,81,81,84,,,,,,,,,,,,,,,5,0.092188835144,,,,,,,,,moral_self_bias,02,20,60.0528036928,m,001,2018_Apr_02_0921,
恶毒,material/instr2_2.png,material/instr2_2.png,material/instr2_2.png,2,2,2,material/39.png,j,material/139.png,j,j,恶毒,凶残,friend,friend,friend,1,1,1,material/139.png,,,,,,,,,,,,,,,,,0,82,82,38,,,,,,,,,,,,,,,1,1.49247002602,,,,,,,,,moral_self_bias,02,20,60.0528036928,m,001,2018_Apr_02_0921,
高尚,material/instr2_1.png,material/instr2_1.png,material/instr2_1.png,1,1,1,material/11.png,f,material/111.png,f,f,高尚,高雅,self,self,self,1,1,1,material/111.png,,,,,,,,,,,,,,,,,0,83,83,10,,,,,,,,,,,,,,,4,1.02559304237,,,,,,,,,moral_self_bias,02,20,60.0528036928,m,001,2018_Apr_02_0921,
厚道,material/instr2_2.png,material/instr2_2.png,material/instr2_2.png,1,1,1,material/6.png,j,material/106.png,j,j,厚道,诚实,friend,friend,friend,1,1,1,material/106.png,,,,,,,,,,,,,,,,,0,84,84,5,,,,,,,,,,,,,,,5,1.12534999847,,,,,,,,,moral_self_bias,02,20,60.0528036928,m,001,2018_Apr_02_0921,
能干,material/instr2_2.png,material/instr2_2.png,material/instr2_2.png,1,1,1,material/20.png,j,material/120.png,j,j,厉害,厉害,friend,friend,friend,2,2,2,material/20.png,,,,,,,,,,,,,,,,,0,85,85,19,,,,,,,,,,,,,,,4,1.55921816826,,,,,,,,,moral_self_bias,02,20,60.0528036928,m,001,2018_Apr_02_0921,
聪颖,material/instr2_2.png,material/instr2_2.png,material/instr2_2.png,1,1,1,material/17.png,j,material/117.png,j,j,聪明,聪明,friend,friend,friend,2,2,2,material/17.png,,,,,,,,,,,,,,,,,0,86,86,16,,,,,,,,,,,,,,,5,1.92299795151,,,,,,,,,moral_self_bias,02,20,60.0528036928,m,001,2018_Apr_02_0921,
依靠,material/instr2_1.png,material/instr2_1.png,material/instr2_1.png,2,2,2,material/54.png,f,material/154.png,f,f,依赖,依赖,self,self,self,2,2,2,material/54.png,,,,,,,,,,,,,,,,,0,87,87,53,,,,,,,,,,,,,,,3,1.64150905609,,,,,,,,,moral_self_bias,02,20,60.0528036928,m,001,2018_Apr_02_0921,
,,,,,,,,,,,,,,,,,,,,,4+5= ?,,,,,,,,,,,,,,,,,,,,0,0,0,29,,,,,,,,,,,,,,,,,,,,,moral_self_bias,02,20,60.0528036928,m,001,2018_Apr_02_0921,
,,,,,,,,,,,,,,,,,,,,,2+6= ?,,,,,,,,,,,,,,,,,,,,0,1,1,12,,,,,,,,,,,,,,,,,,,,,moral_self_bias,02,20,60.0528036928,m,001,2018_Apr_02_0921,
,,,,,,,,,,,,,,,,,,,,,3+2= ?,,,,,,,,,,,,,,,,,,,,0,2,2,17,,,,,,,,,,,,,,,,,,,,,moral_self_bias,02,20,60.0528036928,m,001,2018_Apr_02_0921,
,,,,,,,,,,,,,,,,,,,,,18/2= ?,,,,,,,,,,,,,,,,,,,,0,3,3,97,,,,,,,,,,,,,,,,,,,,,moral_self_bias,02,20,60.0528036928,m,001,2018_Apr_02_0921,
,,,,,,,,,,,,,,,,,,,,,9+0= ?,,,,,,,,,,,,,,,,,,,,0,4,4,118,,,,,,,,,,,,,,,,,,,,,moral_self_bias,02,20,60.0528036928,m,001,2018_Apr_02_0921,
,,,,,,,,,,,,,,,,,,,,,9-8= ?,,,,,,,,,,,,,,,,,,,,0,5,5,31,,,,,,,,,,,,,,,,,,,,,moral_self_bias,02,20,60.0528036928,m,001,2018_Apr_02_0921,
,,,,,,,,,,,,,,,,,,,,,2*4= ?,,,,,,,,,,,,,,,,,,,,0,6,6,84,,,,,,,,,,,,,,,,,,,,,moral_self_bias,02,20,60.0528036928,m,001,2018_Apr_02_0921,
,,,,,,,,,,,,,,,,,,,,,9-5= ?,,,,,,,,,,,,,,,,,,,,0,7,7,23,,,,,,,,,,,,,,,,,,,,,moral_self_bias,02,20,60.0528036928,m,001,2018_Apr_02_0921,
,,,,,,,,,,,,,,,,,,,,,11-8= ?,,,,,,,,,,,,,,,,,,,,0,8,8,106,,,,,,,,,,,,,,,,,,,,,moral_self_bias,02,20,60.0528036928,m,001,2018_Apr_02_0921,
,,,,,,,,,,,,,,,,,,,,,3+1= ?,,,,,,,,,,,,,,,,,,,,0,9,9,16,,,,,,,,,,,,,,,,,,,,,moral_self_bias,02,20,60.0528036928,m,001,2018_Apr_02_0921,
,,,,,,,,,,,,,,,,,,,,,9-2= ?,,,,,,,,,,,,,,,,,,,,0,10,10,14,,,,,,,,,,,,,,,,,,,,,moral_self_bias,02,20,60.0528036928,m,001,2018_Apr_02_0921,
,,,,,,,,,,,,,,,,,,,,,3^2= ?,,,,,,,,,,,,,,,,,,,,0,11,11,50,,,,,,,,,,,,,,,,,,,,,moral_self_bias,02,20,60.0528036928,m,001,2018_Apr_02_0921,
,,,,,,,,,,,,,,,,,,,,,3*2= ?,,,,,,,,,,,,,,,,,,,,0,12,12,53,,,,,,,,,,,,,,,,,,,,,moral_self_bias,02,20,60.0528036928,m,001,2018_Apr_02_0921,
,,,,,,,,,,,,,,,,,,,,,7+1= ?,,,,,,,,,,,,,,,,,,,,0,13,13,46,,,,,,,,,,,,,,,,,,,,,moral_self_bias,02,20,60.0528036928,m,001,2018_Apr_02_0921,
,,,,,,,,,,,,,,,,,,,,,10-9= ?,,,,,,,,,,,,,,,,,,,,0,14,14,112,,,,,,,,,,,,,,,,,,,,,moral_self_bias,02,20,60.0528036928,m,001,2018_Apr_02_0921,
,,,,,,,,,,,,,,,,,,,,,1^2= ?,,,,,,,,,,,,,,,,,,,,0,15,15,51,,,,,,,,,,,,,,,,,,,,,moral_self_bias,02,20,60.0528036928,m,001,2018_Apr_02_0921,
,,,,,,,,,,,,,,,,,,,,,9-9= ?,,,,,,,,,,,,,,,,,,,,0,16,16,32,,,,,,,,,,,,,,,,,,,,,moral_self_bias,02,20,60.0528036928,m,001,2018_Apr_02_0921,
,,,,,,,,,,,,,,,,,,,,,11-11= ?,,,,,,,,,,,,,,,,,,,,0,17,17,119,,,,,,,,,,,,,,,,,,,,,moral_self_bias,02,20,60.0528036928,m,001,2018_Apr_02_0921,
,,,,,,,,,,,,,,,,,,,,,8*1= ?,,,,,,,,,,,,,,,,,,,,0,18,18,111,,,,,,,,,,,,,,,,,,,,,moral_self_bias,02,20,60.0528036928,m,001,2018_Apr_02_0921,
,,,,,,,,,,,,,,,,,,,,,6*0= ?,,,,,,,,,,,,,,,,,,,,0,19,19,87,,,,,,,,,,,,,,,,,,,,,moral_self_bias,02,20,60.0528036928,m,001,2018_Apr_02_0921,
,,,,,,,,,,,,,,,,,,,,,1*8= ?,,,,,,,,,,,,,,,,,,,,0,20,20,110,,,,,,,,,,,,,,,,,,,,,moral_self_bias,02,20,60.0528036928,m,001,2018_Apr_02_0921,
,,,,,,,,,,,,,,,,,,,,,9-1=?,,,,,,,,,,,,,,,,,,,,0,21,21,2,,,,,,,,,,,,,,,,,,,,,moral_self_bias,02,20,60.0528036928,m,001,2018_Apr_02_0921,
,,,,,,,,,,,,,,,,,,,,,5+4= ?,,,,,,,,,,,,,,,,,,,,0,22,22,37,,,,,,,,,,,,,,,,,,,,,moral_self_bias,02,20,60.0528036928,m,001,2018_Apr_02_0921,
,,,,,,,,,,,,,,,,,,,,,15-10=？,,,,,,,,,,,,,,,,,,,,0,23,23,61,,,,,,,,,,,,,,,,,,,,,moral_self_bias,02,20,60.0528036928,m,001,2018_Apr_02_0921,
,,,,,,,,,,,,,,,,,,,,,3+6= ?,,,,,,,,,,,,,,,,,,,,0,24,24,21,,,,,,,,,,,,,,,,,,,,,moral_self_bias,02,20,60.0528036928,m,001,2018_Apr_02_0921,
,,,,,,,,,,,,,,,,,,,,,50-42= ?,,,,,,,,,,,,,,,,,,,,0,25,25,81,,,,,,,,,,,,,,,,,,,,,moral_self_bias,02,20,60.0528036928,m,001,2018_Apr_02_0921,
,,,,,,,,,,,,,,,,,,,,,32-32= ?,,,,,,,,,,,,,,,,,,,,0,26,26,80,,,,,,,,,,,,,,,,,,,,,moral_self_bias,02,20,60.0528036928,m,001,2018_Apr_02_0921,
,,,,,,,,,,,,,,,,,,,,,1*9= ?,,,,,,,,,,,,,,,,,,,,0,27,27,109,,,,,,,,,,,,,,,,,,,,,moral_self_bias,02,20,60.0528036928,m,001,2018_Apr_02_0921,
,,,,,,,,,,,,,,,,,,,,,8/4= ?,,,,,,,,,,,,,,,,,,,,0,28,28,57,,,,,,,,,,,,,,,,,,,,,moral_self_bias,02,20,60.0528036928,m,001,2018_Apr_02_0921,
,,,,,,,,,,,,,,,,,,,,,81/9= ?,,,,,,,,,,,,,,,,,,,,0,29,29,75,,,,,,,,,,,,,,,,,,,,,moral_self_bias,02,20,60.0528036928,m,001,2018_Apr_02_0921,
,,,,,,,,,,,,,,,,,,,,,12/12= ?,,,,,,,,,,,,,,,,,,,,0,30,30,91,,,,,,,,,,,,,,,,,,,,,moral_self_bias,02,20,60.0528036928,m,001,2018_Apr_02_0921,
,,,,,,,,,,,,,,,,,,,,,12-5=？,,,,,,,,,,,,,,,,,,,,0,31,31,65,,,,,,,,,,,,,,,,,,,,,moral_self_bias,02,20,60.0528036928,m,001,2018_Apr_02_0921,
,,,,,,,,,,,,,,,,,,,,,17-12= ? ,,,,,,,,,,,,,,,,,,,,0,32,32,104,,,,,,,,,,,,,,,,,,,,,moral_self_bias,02,20,60.0528036928,m,001,2018_Apr_02_0921,
,,,,,,,,,,,,,,,,,,,,,2+5= ?,,,,,,,,,,,,,,,,,,,,0,33,33,11,,,,,,,,,,,,,,,,,,,,,moral_self_bias,02,20,60.0528036928,m,001,2018_Apr_02_0921,
,,,,,,,,,,,,,,,,,,,,,29-27= ?,,,,,,,,,,,,,,,,,,,,0,34,34,72,,,,,,,,,,,,,,,,,,,,,moral_self_bias,02,20,60.0528036928,m,001,2018_Apr_02_0921,
,,,,,,,,,,,,,,,,,,,,,21/7= ?,,,,,,,,,,,,,,,,,,,,0,35,35,70,,,,,,,,,,,,,,,,,,,,,moral_self_bias,02,20,60.0528036928,m,001,2018_Apr_02_0921,
,,,,,,,,,,,,,,,,,,,,,5*0= ?,,,,,,,,,,,,,,,,,,,,0,36,36,86,,,,,,,,,,,,,,,,,,,,,moral_self_bias,02,20,60.0528036928,m,001,2018_Apr_02_0921,
,,,,,,,,,,,,,,,,,,,,,11-3=？,,,,,,,,,,,,,,,,,,,,0,37,37,68,,,,,,,,,,,,,,,,,,,,,moral_self_bias,02,20,60.0528036928,m,001,2018_Apr_02_0921,
,,,,,,,,,,,,,,,,,,,,,18/9= ?,,,,,,,,,,,,,,,,,,,,0,38,38,96,,,,,,,,,,,,,,,,,,,,,moral_self_bias,02,20,60.0528036928,m,001,2018_Apr_02_0921,
,,,,,,,,,,,,,,,,,,,,,4*1= ?,,,,,,,,,,,,,,,,,,,,0,39,39,85,,,,,,,,,,,,,,,,,,,,,moral_self_bias,02,20,60.0528036928,m,001,2018_Apr_02_0921,
,,,,,,,,,,,,,,,,,,,,,6^0= ?,,,,,,,,,,,,,,,,,,,,0,40,40,103,,,,,,,,,,,,,,,,,,,,,moral_self_bias,02,20,60.0528036928,m,001,2018_Apr_02_0921,
,,,,,,,,,,,,,,,,,,,,,1+8= ?,,,,,,,,,,,,,,,,,,,,0,41,41,6,,,,,,,,,,,,,,,,,,,,,moral_self_bias,02,20,60.0528036928,m,001,2018_Apr_02_0921,
,,,,,,,,,,,,,,,,,,,,,8-5= ?,,,,,,,,,,,,,,,,,,,,0,42,42,41,,,,,,,,,,,,,,,,,,,,,moral_self_bias,02,20,60.0528036928,m,001,2018_Apr_02_0921,
,,,,,,,,,,,,,,,,,,,,,8-6= ?,,,,,,,,,,,,,,,,,,,,0,43,43,42,,,,,,,,,,,,,,,,,,,,,moral_self_bias,02,20,60.0528036928,m,001,2018_Apr_02_0921,
,,,,,,,,,,,,,,,,,,,,,1+2= ?,,,,,,,,,,,,,,,,,,,,0,44,44,1,,,,,,,,,,,,,,,,,,,,,moral_self_bias,02,20,60.0528036928,m,001,2018_Apr_02_0921,
,,,,,,,,,,,,,,,,,,,,,3+0= ?,,,,,,,,,,,,,,,,,,,,0,45,45,105,,,,,,,,,,,,,,,,,,,,,moral_self_bias,02,20,60.0528036928,m,001,2018_Apr_02_0921,
,,,,,,,,,,,,,,,,,,,,,14-9=？,,,,,,,,,,,,,,,,,,,,0,46,46,63,,,,,,,,,,,,,,,,,,,,,moral_self_bias,02,20,60.0528036928,m,001,2018_Apr_02_0921,
,,,,,,,,,,,,,,,,,,,,,4+4= ?,,,,,,,,,,,,,,,,,,,,0,47,47,28,,,,,,,,,,,,,,,,,,,,,moral_self_bias,02,20,60.0528036928,m,001,2018_Apr_02_0921,
,,,,,,,,,,,,,,,,,,,,,11-5= ?,,,,,,,,,,,,,,,,,,,,0,48,48,107,,,,,,,,,,,,,,,,,,,,,moral_self_bias,02,20,60.0528036928,m,001,2018_Apr_02_0921,
,,,,,,,,,,,,,,,,,,,,,2+7= ?,,,,,,,,,,,,,,,,,,,,0,49,49,13,,,,,,,,,,,,,,,,,,,,,moral_self_bias,02,20,60.0528036928,m,001,2018_Apr_02_0921,
,,,,,,,,,,,,,,,,,,,,,13-9= ?,,,,,,,,,,,,,,,,,,,,0,50,50,92,,,,,,,,,,,,,,,,,,,,,moral_self_bias,02,20,60.0528036928,m,001,2018_Apr_02_0921,
,,,,,,,,,,,,,,,,,,,,,9-3= ?,,,,,,,,,,,,,,,,,,,,0,51,51,15,,,,,,,,,,,,,,,,,,,,,moral_self_bias,02,20,60.0528036928,m,001,2018_Apr_02_0921,
,,,,,,,,,,,,,,,,,,,,,12-7= ?,,,,,,,,,,,,,,,,,,,,0,52,52,115,,,,,,,,,,,,,,,,,,,,,moral_self_bias,02,20,60.0528036928,m,001,2018_Apr_02_0921,
,,,,,,,,,,,,,,,,,,,,,12/4= ?,,,,,,,,,,,,,,,,,,,,0,53,53,89,,,,,,,,,,,,,,,,,,,,,moral_self_bias,02,20,60.0528036928,m,001,2018_Apr_02_0921,
,,,,,,,,,,,,,,,,,,,,,6/2= ?,,,,,,,,,,,,,,,,,,,,0,54,54,58,,,,,,,,,,,,,,,,,,,,,moral_self_bias,02,20,60.0528036928,m,001,2018_Apr_02_0921,
,,,,,,,,,,,,,,,,,,,,,4+3= ?,,,,,,,,,,,,,,,,,,,,0,55,55,27,,,,,,,,,,,,,,,,,,,,,moral_self_bias,02,20,60.0528036928,m,001,2018_Apr_02_0921,
,,,,,,,,,,,,,,,,,,,,,23^0= ?,,,,,,,,,,,,,,,,,,,,0,56,56,94,,,,,,,,,,,,,,,,,,,,,moral_self_bias,02,20,60.0528036928,m,001,2018_Apr_02_0921,
,,,,,,,,,,,,,,,,,,,,,22-22= ?,,,,,,,,,,,,,,,,,,,,0,57,57,93,,,,,,,,,,,,,,,,,,,,,moral_self_bias,02,20,60.0528036928,m,001,2018_Apr_02_0921,
,,,,,,,,,,,,,,,,,,,,,9-6= ?,,,,,,,,,,,,,,,,,,,,0,58,58,24,,,,,,,,,,,,,,,,,,,,,moral_self_bias,02,20,60.0528036928,m,001,2018_Apr_02_0921,
,,,,,,,,,,,,,,,,,,,,,8-1= ?,,,,,,,,,,,,,,,,,,,,0,59,59,33,,,,,,,,,,,,,,,,,,,,,moral_self_bias,02,20,60.0528036928,m,001,2018_Apr_02_0921,
,,,,,,,,,,,,,,,,,,,,,13-6=？,,,,,,,,,,,,,,,,,,,,0,60,60,64,,,,,,,,,,,,,,,,,,,,,moral_self_bias,02,20,60.0528036928,m,001,2018_Apr_02_0921,
,,,,,,,,,,,,,,,,,,,,,1+1= ?,,,,,,,,,,,,,,,,,,,,0,61,61,0,,,,,,,,,,,,,,,,,,,,,moral_self_bias,02,20,60.0528036928,m,001,2018_Apr_02_0921,
,,,,,,,,,,,,,,,,,,,,,9-7= ?,,,,,,,,,,,,,,,,,,,,0,62,62,30,,,,,,,,,,,,,,,,,,,,,moral_self_bias,02,20,60.0528036928,m,001,2018_Apr_02_0921,
,,,,,,,,,,,,,,,,,,,,,3+3= ?,,,,,,,,,,,,,,,,,,,,0,63,63,18,,,,,,,,,,,,,,,,,,,,,moral_self_bias,02,20,60.0528036928,m,001,2018_Apr_02_0921,
,,,,,,,,,,,,,,,,,,,,,8-4= ?,,,,,,,,,,,,,,,,,,,,0,64,64,40,,,,,,,,,,,,,,,,,,,,,moral_self_bias,02,20,60.0528036928,m,001,2018_Apr_02_0921,
,,,,,,,,,,,,,,,,,,,,,9-4= ?,,,,,,,,,,,,,,,,,,,,0,65,65,22,,,,,,,,,,,,,,,,,,,,,moral_self_bias,02,20,60.0528036928,m,001,2018_Apr_02_0921,
,,,,,,,,,,,,,,,,,,,,,12-12= ?,,,,,,,,,,,,,,,,,,,,0,66,66,99,,,,,,,,,,,,,,,,,,,,,moral_self_bias,02,20,60.0528036928,m,001,2018_Apr_02_0921,
,,,,,,,,,,,,,,,,,,,,,4*2= ?,,,,,,,,,,,,,,,,,,,,0,67,67,82,,,,,,,,,,,,,,,,,,,,,moral_self_bias,02,20,60.0528036928,m,001,2018_Apr_02_0921,
,,,,,,,,,,,,,,,,,,,,,2+2= ?,,,,,,,,,,,,,,,,,,,,0,68,68,8,,,,,,,,,,,,,,,,,,,,,moral_self_bias,02,20,60.0528036928,m,001,2018_Apr_02_0921,
,,,,,,,,,,,,,,,,,,,,,90/45= ?,,,,,,,,,,,,,,,,,,,,0,69,69,74,,,,,,,,,,,,,,,,,,,,,moral_self_bias,02,20,60.0528036928,m,001,2018_Apr_02_0921,
,,,,,,,,,,,,,,,,,,,,,4+1= ?,,,,,,,,,,,,,,,,,,,,0,70,70,25,,,,,,,,,,,,,,,,,,,,,moral_self_bias,02,20,60.0528036928,m,001,2018_Apr_02_0921,
,,,,,,,,,,,,,,,,,,,,,2+4= ?,,,,,,,,,,,,,,,,,,,,0,71,71,10,,,,,,,,,,,,,,,,,,,,,moral_self_bias,02,20,60.0528036928,m,001,2018_Apr_02_0921,
,,,,,,,,,,,,,,,,,,,,,2+3= ?,,,,,,,,,,,,,,,,,,,,0,72,72,9,,,,,,,,,,,,,,,,,,,,,moral_self_bias,02,20,60.0528036928,m,001,2018_Apr_02_0921,
,,,,,,,,,,,,,,,,,,,,,8-2= ?,,,,,,,,,,,,,,,,,,,,0,73,73,38,,,,,,,,,,,,,,,,,,,,,moral_self_bias,02,20,60.0528036928,m,001,2018_Apr_02_0921,
,,,,,,,,,,,,,,,,,,,,,19-17= ?,,,,,,,,,,,,,,,,,,,,0,74,74,100,,,,,,,,,,,,,,,,,,,,,moral_self_bias,02,20,60.0528036928,m,001,2018_Apr_02_0921,
,,,,,,,,,,,,,,,,,,,,,4+2= ?,,,,,,,,,,,,,,,,,,,,0,75,75,26,,,,,,,,,,,,,,,,,,,,,moral_self_bias,02,20,60.0528036928,m,001,2018_Apr_02_0921,
,,,,,,,,,,,,,,,,,,,,,16-11=？,,,,,,,,,,,,,,,,,,,,0,76,76,62,,,,,,,,,,,,,,,,,,,,,moral_self_bias,02,20,60.0528036928,m,001,2018_Apr_02_0921,
,,,,,,,,,,,,,,,,,,,,,43-34= ?,,,,,,,,,,,,,,,,,,,,0,77,77,79,,,,,,,,,,,,,,,,,,,,,moral_self_bias,02,20,60.0528036928,m,001,2018_Apr_02_0921,
,,,,,,,,,,,,,,,,,,,,,2*3= ?,,,,,,,,,,,,,,,,,,,,0,78,78,108,,,,,,,,,,,,,,,,,,,,,moral_self_bias,02,20,60.0528036928,m,001,2018_Apr_02_0921,
,,,,,,,,,,,,,,,,,,,,,12/6= ?,,,,,,,,,,,,,,,,,,,,0,79,79,90,,,,,,,,,,,,,,,,,,,,,moral_self_bias,02,20,60.0528036928,m,001,2018_Apr_02_0921,
,,,,,,,,,,,,,,,,,,,,,9/3= ?,,,,,,,,,,,,,,,,,,,,0,80,80,56,,,,,,,,,,,,,,,,,,,,,moral_self_bias,02,20,60.0528036928,m,001,2018_Apr_02_0921,
,,,,,,,,,,,,,,,,,,,,,10-5=？,,,,,,,,,,,,,,,,,,,,0,81,81,67,,,,,,,,,,,,,,,,,,,,,moral_self_bias,02,20,60.0528036928,m,001,2018_Apr_02_0921,
,,,,,,,,,,,,,,,,,,,,,4/4= ?,,,,,,,,,,,,,,,,,,,,0,82,82,55,,,,,,,,,,,,,,,,,,,,,moral_self_bias,02,20,60.0528036928,m,001,2018_Apr_02_0921,
,,,,,,,,,,,,,,,,,,,,,11-4=？,,,,,,,,,,,,,,,,,,,,0,83,83,66,,,,,,,,,,,,,,,,,,,,,moral_self_bias,02,20,60.0528036928,m,001,2018_Apr_02_0921,
,,,,,,,,,,,,,,,,,,,,,7*1= ?,,,,,,,,,,,,,,,,,,,,0,84,84,113,,,,,,,,,,,,,,,,,,,,,moral_self_bias,02,20,60.0528036928,m,001,2018_Apr_02_0921,
,,,,,,,,,,,,,,,,,,,,,20/5=？,,,,,,,,,,,,,,,,,,,,0,85,85,69,,,,,,,,,,,,,,,,,,,,,moral_self_bias,02,20,60.0528036928,m,001,2018_Apr_02_0921,
,,,,,,,,,,,,,,,,,,,,,1+6= ?,,,,,,,,,,,,,,,,,,,,0,86,86,5,,,,,,,,,,,,,,,,,,,,,moral_self_bias,02,20,60.0528036928,m,001,2018_Apr_02_0921,
,,,,,,,,,,,,,,,,,,,,,2+1= ?,,,,,,,,,,,,,,,,,,,,0,87,87,7,,,,,,,,,,,,,,,,,,,,,moral_self_bias,02,20,60.0528036928,m,001,2018_Apr_02_0921,
,,,,,,,,,,,,,,,,,,,,,1+9= ?,,,,,,,,,,,,,,,,,,,,0,88,88,3,,,,,,,,,,,,,,,,,,,,,moral_self_bias,02,20,60.0528036928,m,001,2018_Apr_02_0921,
,,,,,,,,,,,,,,,,,,,,,2^2= ?,,,,,,,,,,,,,,,,,,,,0,89,89,49,,,,,,,,,,,,,,,,,,,,,moral_self_bias,02,20,60.0528036928,m,001,2018_Apr_02_0921,
,,,,,,,,,,,,,,,,,,,,,5+1= ?,,,,,,,,,,,,,,,,,,,,0,90,90,34,,,,,,,,,,,,,,,,,,,,,moral_self_bias,02,20,60.0528036928,m,001,2018_Apr_02_0921,
,,,,,,,,,,,,,,,,,,,,,8-3= ?,,,,,,,,,,,,,,,,,,,,0,91,91,39,,,,,,,,,,,,,,,,,,,,,moral_self_bias,02,20,60.0528036928,m,001,2018_Apr_02_0921,
,,,,,,,,,,,,,,,,,,,,,5+2= ?,,,,,,,,,,,,,,,,,,,,0,92,92,35,,,,,,,,,,,,,,,,,,,,,moral_self_bias,02,20,60.0528036928,m,001,2018_Apr_02_0921,
,,,,,,,,,,,,,,,,,,,,,6+2= ?,,,,,,,,,,,,,,,,,,,,0,93,93,44,,,,,,,,,,,,,,,,,,,,,moral_self_bias,02,20,60.0528036928,m,001,2018_Apr_02_0921,
,,,,,,,,,,,,,,,,,,,,,6^0= ?,,,,,,,,,,,,,,,,,,,,0,94,94,114,,,,,,,,,,,,,,,,,,,,,moral_self_bias,02,20,60.0528036928,m,001,2018_Apr_02_0921,
,,,,,,,,,,,,,,,,,,,,,5/1= ?,,,,,,,,,,,,,,,,,,,,0,95,95,59,,,,,,,,,,,,,,,,,,,,,moral_self_bias,02,20,60.0528036928,m,001,2018_Apr_02_0921,
,,,,,,,,,,,,,,,,,,,,,30-29= ?,,,,,,,,,,,,,,,,,,,,0,96,96,73,,,,,,,,,,,,,,,,,,,,,moral_self_bias,02,20,60.0528036928,m,001,2018_Apr_02_0921,
,,,,,,,,,,,,,,,,,,,,,3*1= ?,,,,,,,,,,,,,,,,,,,,0,97,97,83,,,,,,,,,,,,,,,,,,,,,moral_self_bias,02,20,60.0528036928,m,001,2018_Apr_02_0921,
,,,,,,,,,,,,,,,,,,,,,21/3= ? ,,,,,,,,,,,,,,,,,,,,0,98,98,95,,,,,,,,,,,,,,,,,,,,,moral_self_bias,02,20,60.0528036928,m,001,2018_Apr_02_0921,
,,,,,,,,,,,,,,,,,,,,,1-1= ?,,,,,,,,,,,,,,,,,,,,0,99,99,52,,,,,,,,,,,,,,,,,,,,,moral_self_bias,02,20,60.0528036928,m,001,2018_Apr_02_0921,
,,,,,,,,,,,,,,,,,,,,,3*3= ?,,,,,,,,,,,,,,,,,,,,0,100,100,54,,,,,,,,,,,,,,,,,,,,,moral_self_bias,02,20,60.0528036928,m,001,2018_Apr_02_0921,
,,,,,,,,,,,,,,,,,,,,,4^1= ?,,,,,,,,,,,,,,,,,,,,0,101,101,102,,,,,,,,,,,,,,,,,,,,,moral_self_bias,02,20,60.0528036928,m,001,2018_Apr_02_0921,
,,,,,,,,,,,,,,,,,,,,,7+2= ?,,,,,,,,,,,,,,,,,,,,0,102,102,47,,,,,,,,,,,,,,,,,,,,,moral_self_bias,02,20,60.0528036928,m,001,2018_Apr_02_0921,
,,,,,,,,,,,,,,,,,,,,,7*0= ?,,,,,,,,,,,,,,,,,,,,0,103,103,88,,,,,,,,,,,,,,,,,,,,,moral_self_bias,02,20,60.0528036928,m,001,2018_Apr_02_0921,
,,,,,,,,,,,,,,,,,,,,,49/7 = ?,,,,,,,,,,,,,,,,,,,,0,104,104,78,,,,,,,,,,,,,,,,,,,,,moral_self_bias,02,20,60.0528036928,m,001,2018_Apr_02_0921,
,,,,,,,,,,,,,,,,,,,,,1+7= ?,,,,,,,,,,,,,,,,,,,,0,105,105,4,,,,,,,,,,,,,,,,,,,,,moral_self_bias,02,20,60.0528036928,m,001,2018_Apr_02_0921,
,,,,,,,,,,,,,,,,,,,,,32-23=？,,,,,,,,,,,,,,,,,,,,0,106,106,60,,,,,,,,,,,,,,,,,,,,,moral_self_bias,02,20,60.0528036928,m,001,2018_Apr_02_0921,
,,,,,,,,,,,,,,,,,,,,,3+5= ?,,,,,,,,,,,,,,,,,,,,0,107,107,20,,,,,,,,,,,,,,,,,,,,,moral_self_bias,02,20,60.0528036928,m,001,2018_Apr_02_0921,
,,,,,,,,,,,,,,,,,,,,,22/11= ?,,,,,,,,,,,,,,,,,,,,0,108,108,71,,,,,,,,,,,,,,,,,,,,,moral_self_bias,02,20,60.0528036928,m,001,2018_Apr_02_0921,
,,,,,,,,,,,,,,,,,,,,,13-5= ?,,,,,,,,,,,,,,,,,,,,0,109,109,98,,,,,,,,,,,,,,,,,,,,,moral_self_bias,02,20,60.0528036928,m,001,2018_Apr_02_0921,
,,,,,,,,,,,,,,,,,,,,,72/9= ?,,,,,,,,,,,,,,,,,,,,0,110,110,76,,,,,,,,,,,,,,,,,,,,,moral_self_bias,02,20,60.0528036928,m,001,2018_Apr_02_0921,
,,,,,,,,,,,,,,,,,,,,,5-3= ?,,,,,,,,,,,,,,,,,,,,0,111,111,116,,,,,,,,,,,,,,,,,,,,,moral_self_bias,02,20,60.0528036928,m,001,2018_Apr_02_0921,
,,,,,,,,,,,,,,,,,,,,,56/7= ?,,,,,,,,,,,,,,,,,,,,0,112,112,77,,,,,,,,,,,,,,,,,,,,,moral_self_bias,02,20,60.0528036928,m,001,2018_Apr_02_0921,
,,,,,,,,,,,,,,,,,,,,,6+1= ?,,,,,,,,,,,,,,,,,,,,0,113,113,43,,,,,,,,,,,,,,,,,,,,,moral_self_bias,02,20,60.0528036928,m,001,2018_Apr_02_0921,
,,,,,,,,,,,,,,,,,,,,,3+4= ?,,,,,,,,,,,,,,,,,,,,0,114,114,19,,,,,,,,,,,,,,,,,,,,,moral_self_bias,02,20,60.0528036928,m,001,2018_Apr_02_0921,
,,,,,,,,,,,,,,,,,,,,,6+3= ?,,,,,,,,,,,,,,,,,,,,0,115,115,45,,,,,,,,,,,,,,,,,,,,,moral_self_bias,02,20,60.0528036928,m,001,2018_Apr_02_0921,
,,,,,,,,,,,,,,,,,,,,,3^1= ?,,,,,,,,,,,,,,,,,,,,0,116,116,101,,,,,,,,,,,,,,,,,,,,,moral_self_bias,02,20,60.0528036928,m,001,2018_Apr_02_0921,
,,,,,,,,,,,,,,,,,,,,,5+3= ?,,,,,,,,,,,,,,,,,,,,0,117,117,36,,,,,,,,,,,,,,,,,,,,,moral_self_bias,02,20,60.0528036928,m,001,2018_Apr_02_0921,
,,,,,,,,,,,,,,,,,,,,,7-0= ?,,,,,,,,,,,,,,,,,,,,0,118,118,117,,,,,,,,,,,,,,,,,,,,,moral_self_bias,02,20,60.0528036928,m,001,2018_Apr_02_0921,
,,,,,,,,,,,,,,,,,,,,,8+1= ?,,,,,,,,,,,,,,,,,,,,0,119,119,48,,,,,,,,,,,,,,,,,,,,,moral_self_bias,02,20,60.0528036928,m,001,2018_Apr_02_0921,
,,,,,,,,,,,,,,,,,,,,,,,,,,,,,,,,,,,,,,,,,,,,,,,,,,,,,,,,,2,2.37625718117,,,,,,,moral_self_bias,02,20,60.0528036928,m,001,2018_Apr_02_0921,
,,,,,,,,,,,,,,,,,,,,,,material/150.png,2,鲁钝,material/50.png,2,material/150.png,愚笨,2,j,j,j,2,2,2,鲁钝,,,,,,,,,0,0,0,49,0,0,0,0,,,,,,,f,0,4.09305286407,j,0,3.95820403099,moral_self_bias,02,20,60.0528036928,m,001,2018_Apr_02_0921,
,,,,,,,,,,,,,,,,,,,,,,material/150.png,2,鲁钝,material/50.png,2,material/150.png,愚笨,2,j,j,j,2,2,2,鲁钝,,,,,,,,,0,0,0,49,,,,,,,,,,,,,,,,,moral_self_bias,02,20,60.0528036928,m,001,2018_Apr_02_0921,
,,,,,,,,,,,,,,,,,,,,,,material/101.png,1,善良,material/1.png,1,material/1.png,善良,1,j,j,j,1,1,1,博爱,,,,,,,,,0,1,1,0,0,0,0,0,,,,,,,f,0,1.99111795425,f,1,0.708240032196,moral_self_bias,02,20,60.0528036928,m,001,2018_Apr_02_0921,
,,,,,,,,,,,,,,,,,,,,,,material/101.png,1,善良,material/1.png,1,material/1.png,善良,1,j,j,j,1,1,1,博爱,,,,,,,,,0,1,1,0,,,,,,,,,,,,,,,,,moral_self_bias,02,20,60.0528036928,m,001,2018_Apr_02_0921,
,,,,,,,,,,,,,,,,,,,,,,material/29.png,1,好学,material/129.png,1,material/29.png,好问,1,f,f,f,2,2,2,好学,,,,,,,,,0,2,2,108,,,,,,,,,,,j,0,1.90831613541,,,,moral_self_bias,02,20,60.0528036928,m,001,2018_Apr_02_0921,
,,,,,,,,,,,,,,,,,,,,,,material/180.png,2,无助,material/79.png,2,material/81.png,颓废,2,j,j,j,2,2,2,怠惰,,,,,,,,,0,3,3,75,,,,,,,,,,,j,1,1.1585650444,,,,moral_self_bias,02,20,60.0528036928,m,001,2018_Apr_02_0921,
,,,,,,,,,,,,,,,,,,,,,,material/138.png,2,无德,material/38.png,2,material/38.png,无德,2,j,j,j,1,1,1,缺德,,,,,,,,,0,4,4,37,0,0,0,0,,,,,,,f,0,2.65905714035,j,0,0.392226934433,moral_self_bias,02,20,60.0528036928,m,001,2018_Apr_02_0921,
,,,,,,,,,,,,,,,,,,,,,,material/138.png,2,无德,material/38.png,2,material/38.png,无德,2,j,j,j,1,1,1,缺德,,,,,,,,,0,4,4,37,,,,,,,,,,,,,,,,,moral_self_bias,02,20,60.0528036928,m,001,2018_Apr_02_0921,
,,,,,,,,,,,,,,,,,,,,,,material/84.png,2,犹豫,material/84.png,2,material/181.png,顽愚,2,f,f,f,2,2,2,顽愚,,,,,,,,,0,5,5,167,0,0,0,0,,,,,,,f,1,2.05838894844,f,1,1.17458510399,moral_self_bias,02,20,60.0528036928,m,001,2018_Apr_02_0921,
,,,,,,,,,,,,,,,,,,,,,,material/84.png,2,犹豫,material/84.png,2,material/181.png,顽愚,2,f,f,f,2,2,2,顽愚,,,,,,,,,0,5,5,167,,,,,,,,,,,,,,,,,moral_self_bias,02,20,60.0528036928,m,001,2018_Apr_02_0921,
,,,,,,,,,,,,,,,,,,,,,,material/38.png,2,缺德,material/138.png,2,material/138.png,缺德,2,f,f,f,1,1,1,无德,,,,,,,,,0,6,6,117,,,,,,,,,,,j,0,1.19092702866,,,,moral_self_bias,02,20,60.0528036928,m,001,2018_Apr_02_0921,
,,,,,,,,,,,,,,,,,,,,,,material/113.png,1,廉洁,material/13.png,1,material/13.png,廉洁,1,j,j,j,1,1,1,廉明,,,,,,,,,0,7,7,12,0,0,0,0,,,,,,,f,0,2.59085416794,j,0,0.291197061539,moral_self_bias,02,20,60.0528036928,m,001,2018_Apr_02_0921,
,,,,,,,,,,,,,,,,,,,,,,material/113.png,1,廉洁,material/13.png,1,material/13.png,廉洁,1,j,j,j,1,1,1,廉明,,,,,,,,,0,7,7,12,,,,,,,,,,,,,,,,,moral_self_bias,02,20,60.0528036928,m,001,2018_Apr_02_0921,
,,,,,,,,,,,,,,,,,,,,,,material/125.png,1,果敢,material/25.png,1,material/125.png,果断,1,j,j,j,2,2,2,果敢,,,,,,,,,0,8,8,24,0,0,0,0,,,,,,,f,0,1.1422328949,f,1,1.25753498077,moral_self_bias,02,20,60.0528036928,m,001,2018_Apr_02_0921,
,,,,,,,,,,,,,,,,,,,,,,material/125.png,1,果敢,material/25.png,1,material/125.png,果断,1,j,j,j,2,2,2,果敢,,,,,,,,,0,8,8,24,,,,,,,,,,,,,,,,,moral_self_bias,02,20,60.0528036928,m,001,2018_Apr_02_0921,
,,,,,,,,,,,,,,,,,,,,,,material/65.png,1,勇敢,material/61.png,1,material/161.png,平等,1,j,j,j,1,1,1,谦虚,,,,,,,,,0,9,9,60,,,,,,,,,,,j,1,1.09992980957,,,,moral_self_bias,02,20,60.0528036928,m,001,2018_Apr_02_0921,
,,,,,,,,,,,,,,,,,,,,,,material/30.png,1,上进,material/130.png,1,material/30.png,进取,1,f,f,f,2,2,2,上进,,,,,,,,,0,10,10,109,,,,,,,,,,,j,0,3.97406196594,,,,moral_self_bias,02,20,60.0528036928,m,001,2018_Apr_02_0921,
,,,,,,,,,,,,,,,,,,,,,,material/69.png,1,高明,material/69.png,1,material/69.png,高明,1,f,f,f,2,2,2,高明,,,,,,,,,0,11,11,166,0,0,0,0,,,,,,,f,1,1.60861110687,f,1,2.47529506683,moral_self_bias,02,20,60.0528036928,m,001,2018_Apr_02_0921,
,,,,,,,,,,,,,,,,,,,,,,material/69.png,1,高明,material/69.png,1,material/69.png,高明,1,f,f,f,2,2,2,高明,,,,,,,,,0,11,11,166,,,,,,,,,,,,,,,,,moral_self_bias,02,20,60.0528036928,m,001,2018_Apr_02_0921,
,,,,,,,,,,,,,,,,,,,,,,material/126.png,1,勤快,material/26.png,1,material/126.png,刻苦,1,j,j,j,2,2,2,勤快,,,,,,,,,0,12,12,25,0,0,0,0,,,,,,,f,0,1.67509007454,j,0,1.62546491623,moral_self_bias,02,20,60.0528036928,m,001,2018_Apr_02_0921,
,,,,,,,,,,,,,,,,,,,,,,material/126.png,1,勤快,material/26.png,1,material/126.png,刻苦,1,j,j,j,2,2,2,勤快,,,,,,,,,0,12,12,25,,,,,,,,,,,,,,,,,moral_self_bias,02,20,60.0528036928,m,001,2018_Apr_02_0921,
,,,,,,,,,,,,,,,,,,,,,,material/136.png,2,说谎,material/36.png,2,material/36.png,说谎,2,j,j,j,1,1,1,撒谎,,,,,,,,,0,13,13,35,0,0,0,0,,,,,,,f,0,1.09148812294,f,1,0.233589887619,moral_self_bias,02,20,60.0528036928,m,001,2018_Apr_02_0921,
,,,,,,,,,,,,,,,,,,,,,,material/136.png,2,说谎,material/36.png,2,material/36.png,说谎,2,j,j,j,1,1,1,撒谎,,,,,,,,,0,13,13,35,,,,,,,,,,,,,,,,,moral_self_bias,02,20,60.0528036928,m,001,2018_Apr_02_0921,
,,,,,,,,,,,,,,,,,,,,,,material/149.png,2,白痴,material/49.png,2,material/149.png,痴呆,2,j,j,j,2,2,2,白痴,,,,,,,,,0,14,14,48,0,0,0,0,,,,,,,f,0,2.84224891663,j,0,0.242401838303,moral_self_bias,02,20,60.0528036928,m,001,2018_Apr_02_0921,
,,,,,,,,,,,,,,,,,,,,,,material/149.png,2,白痴,material/49.png,2,material/149.png,痴呆,2,j,j,j,2,2,2,白痴,,,,,,,,,0,14,14,48,,,,,,,,,,,,,,,,,moral_self_bias,02,20,60.0528036928,m,001,2018_Apr_02_0921,
,,,,,,,,,,,,,,,,,,,,,,material/168.png,1,机变,material/170.png,1,material/168.png,坚忍,1,f,f,f,2,2,2,机变,,,,,,,,,0,15,15,149,,,,,,,,,,,j,0,2.65832400322,,,,moral_self_bias,02,20,60.0528036928,m,001,2018_Apr_02_0921,
,,,,,,,,,,,,,,,,,,,,,,material/134.png,2,可恨,material/34.png,2,material/34.png,可恨,2,j,j,j,1,1,1,可恶,,,,,,,,,0,16,16,33,0,0,0,0,,,,,,,f,0,5.44119095802,j,0,1.32374215126,moral_self_bias,02,20,60.0528036928,m,001,2018_Apr_02_0921,
,,,,,,,,,,,,,,,,,,,,,,material/134.png,2,可恨,material/34.png,2,material/34.png,可恨,2,j,j,j,1,1,1,可恶,,,,,,,,,0,16,16,33,,,,,,,,,,,,,,,,,moral_self_bias,02,20,60.0528036928,m,001,2018_Apr_02_0921,
,,,,,,,,,,,,,,,,,,,,,,material/33.png,2,贪污,material/133.png,2,material/133.png,贪污,2,f,f,f,1,1,1,腐败,,,,,,,,,0,17,17,112,,,,,,,,,,,j,0,1.24054980278,,,,moral_self_bias,02,20,60.0528036928,m,001,2018_Apr_02_0921,
,,,,,,,,,,,,,,,,,,,,,,material/21.png,1,干练,material/121.png,1,material/21.png,精干,1,f,f,f,2,2,2,干练,,,,,,,,,0,18,18,100,,,,,,,,,,,j,0,6.80788683891,,,,moral_self_bias,02,20,60.0528036928,m,001,2018_Apr_02_0921,
,,,,,,,,,,,,,,,,,,,,,,material/111.png,1,高雅,material/11.png,1,material/11.png,高雅,1,j,j,j,1,1,1,高尚,,,,,,,,,0,19,19,10,0,0,0,0,,,,,,,f,0,0.933197021484,f,1,0.456825017929,moral_self_bias,02,20,60.0528036928,m,001,2018_Apr_02_0921,
,,,,,,,,,,,,,,,,,,,,,,material/111.png,1,高雅,material/11.png,1,material/11.png,高雅,1,j,j,j,1,1,1,高尚,,,,,,,,,0,19,19,10,,,,,,,,,,,,,,,,,moral_self_bias,02,20,60.0528036928,m,001,2018_Apr_02_0921,
,,,,,,,,,,,,,,,,,,,,,,material/6.png,1,厚道,material/106.png,1,material/106.png,厚道,1,f,f,f,1,1,1,诚实,,,,,,,,,0,20,20,85,,,,,,,,,,,j,0,1.22459101677,,,,moral_self_bias,02,20,60.0528036928,m,001,2018_Apr_02_0921,
,,,,,,,,,,,,,,,,,,,,,,material/14.png,1,忠贞,material/114.png,1,material/114.png,忠贞,1,f,f,f,1,1,1,爱国,,,,,,,,,0,21,21,93,,,,,,,,,,,j,0,0.95783996582,,,,moral_self_bias,02,20,60.0528036928,m,001,2018_Apr_02_0921,
,,,,,,,,,,,,,,,,,,,,,,material/174.png,2,虚伪,material/76.png,2,material/76.png,虚伪,2,j,j,j,1,1,1,不义,,,,,,,,,0,22,22,72,0,0,0,0,,,,,,,f,0,0.891430854797,f,1,0.474917888641,moral_self_bias,02,20,60.0528036928,m,001,2018_Apr_02_0921,
,,,,,,,,,,,,,,,,,,,,,,material/174.png,2,虚伪,material/76.png,2,material/76.png,虚伪,2,j,j,j,1,1,1,不义,,,,,,,,,0,22,22,72,,,,,,,,,,,,,,,,,moral_self_bias,02,20,60.0528036928,m,001,2018_Apr_02_0921,
,,,,,,,,,,,,,,,,,,,,,,material/179.png,2,顽愚,material/178.png,2,material/84.png,毛糙,2,f,f,f,2,2,2,差生,,,,,,,,,0,23,23,157,,,,,,,,,,,j,0,3.97466301918,,,,moral_self_bias,02,20,60.0528036928,m,001,2018_Apr_02_0921,
,,,,,,,,,,,,,,,,,,,,,,material/154.png,2,依靠,material/54.png,2,material/154.png,依赖,2,j,j,j,2,2,2,依靠,,,,,,,,,0,24,24,53,0,0,0,0,,,,,,,f,0,1.59092712402,f,1,1.07539010048,moral_self_bias,02,20,60.0528036928,m,001,2018_Apr_02_0921,
,,,,,,,,,,,,,,,,,,,,,,material/154.png,2,依靠,material/54.png,2,material/154.png,依赖,2,j,j,j,2,2,2,依靠,,,,,,,,,0,24,24,53,,,,,,,,,,,,,,,,,moral_self_bias,02,20,60.0528036928,m,001,2018_Apr_02_0921,
,,,,,,,,,,,,,,,,,,,,,,material/110.png,1,顽强,material/10.png,1,material/10.png,顽强,1,j,j,j,1,1,1,坚毅,,,,,,,,,0,25,25,9,,,,,,,,,,,j,1,1.52479195595,,,,moral_self_bias,02,20,60.0528036928,m,001,2018_Apr_02_0921,
,,,,,,,,,,,,,,,,,,,,,,material/171.png,1,高效,material/67.png,1,material/171.png,骁勇,1,j,j,j,2,2,2,高效,,,,,,,,,0,26,26,65,,,,,,,,,,,j,1,0.857208013535,,,,moral_self_bias,02,20,60.0528036928,m,001,2018_Apr_02_0921,
,,,,,,,,,,,,,,,,,,,,,,material/40.png,2,狠毒,material/140.png,2,material/140.png,狠毒,2,f,f,f,1,1,1,邪恶,,,,,,,,,0,27,27,119,0,0,0,0,,,,,,,f,1,1.59186315536,j,0,0.291423082352,moral_self_bias,02,20,60.0528036928,m,001,2018_Apr_02_0921,
,,,,,,,,,,,,,,,,,,,,,,material/40.png,2,狠毒,material/140.png,2,material/140.png,狠毒,2,f,f,f,1,1,1,邪恶,,,,,,,,,0,27,27,119,,,,,,,,,,,,,,,,,moral_self_bias,02,20,60.0528036928,m,001,2018_Apr_02_0921,
,,,,,,,,,,,,,,,,,,,,,,material/128.png,1,自律,material/28.png,1,material/128.png,克己,1,j,j,j,2,2,2,自律,,,,,,,,,0,28,28,27,0,0,0,0,,,,,,,f,0,6.15795612335,j,0,2.74064898491,moral_self_bias,02,20,60.0528036928,m,001,2018_Apr_02_0921,
,,,,,,,,,,,,,,,,,,,,,,material/128.png,1,自律,material/28.png,1,material/128.png,克己,1,j,j,j,2,2,2,自律,,,,,,,,,0,28,28,27,,,,,,,,,,,,,,,,,moral_self_bias,02,20,60.0528036928,m,001,2018_Apr_02_0921,
,,,,,,,,,,,,,,,,,,,,,,material/121.png,1,精干,material/21.png,1,material/121.png,干练,1,j,j,j,2,2,2,精干,,,,,,,,,0,29,29,20,,,,,,,,,,,j,1,3.99954390526,,,,moral_self_bias,02,20,60.0528036928,m,001,2018_Apr_02_0921,
,,,,,,,,,,,,,,,,,,,,,,material/119.png,1,机灵,material/19.png,1,material/119.png,灵活,1,j,j,j,2,2,2,机灵,,,,,,,,,0,30,30,18,,,,,,,,,,,j,1,1.54106378555,,,,moral_self_bias,02,20,60.0528036928,m,001,2018_Apr_02_0921,
,,,,,,,,,,,,,,,,,,,,,,material/164.png,1,宽容,material/63.png,1,material/163.png,文明,1,j,j,j,1,1,1,孝顺,,,,,,,,,0,31,31,62,0,0,0,0,,,,,,,f,0,1.15758180618,f,1,0.234908103943,moral_self_bias,02,20,60.0528036928,m,001,2018_Apr_02_0921,
,,,,,,,,,,,,,,,,,,,,,,material/164.png,1,宽容,material/63.png,1,material/163.png,文明,1,j,j,j,1,1,1,孝顺,,,,,,,,,0,31,31,62,,,,,,,,,,,,,,,,,moral_self_bias,02,20,60.0528036928,m,001,2018_Apr_02_0921,
,,,,,,,,,,,,,,,,,,,,,,material/7.png,1,公平,material/107.png,1,material/107.png,公平,1,f,f,f,1,1,1,公正,,,,,,,,,0,32,32,86,,,,,,,,,,,j,0,1.09120106697,,,,moral_self_bias,02,20,60.0528036928,m,001,2018_Apr_02_0921,
,,,,,,,,,,,,,,,,,,,,,,material/10.png,1,坚毅,material/110.png,1,material/110.png,坚毅,1,f,f,f,1,1,1,顽强,,,,,,,,,0,33,33,89,,,,,,,,,,,j,0,0.890524864197,,,,moral_self_bias,02,20,60.0528036928,m,001,2018_Apr_02_0921,
,,,,,,,,,,,,,,,,,,,,,,material/118.png,1,机敏,material/18.png,1,material/118.png,敏锐,1,j,j,j,2,2,2,机敏,,,,,,,,,0,34,34,17,,,,,,,,,,,j,1,0.990166187286,,,,moral_self_bias,02,20,60.0528036928,m,001,2018_Apr_02_0921,
,,,,,,,,,,,,,,,,,,,,,,material/146.png,2,小气,material/46.png,2,material/46.png,小气,2,j,j,j,1,1,1,自私,,,,,,,,,0,35,35,45,0,0,0,0,,,,,,,f,0,1.30855894089,j,0,0.274786949158,moral_self_bias,02,20,60.0528036928,m,001,2018_Apr_02_0921,
,,,,,,,,,,,,,,,,,,,,,,material/146.png,2,小气,material/46.png,2,material/46.png,小气,2,j,j,j,1,1,1,自私,,,,,,,,,0,35,35,45,,,,,,,,,,,,,,,,,moral_self_bias,02,20,60.0528036928,m,001,2018_Apr_02_0921,
,,,,,,,,,,,,,,,,,,,,,,material/162.png,1,敬业,material/62.png,1,material/162.png,坚韧,1,j,j,j,1,1,1,敬业,,,,,,,,,0,36,36,61,,,,,,,,,,,j,1,4.77471613884,,,,moral_self_bias,02,20,60.0528036928,m,001,2018_Apr_02_0921,
,,,,,,,,,,,,,,,,,,,,,,material/169.png,1,颖悟,material/171.png,1,material/169.png,高效,1,f,f,f,2,2,2,颖悟,,,,,,,,,0,37,37,150,,,,,,,,,,,j,0,1.1586098671,,,,moral_self_bias,02,20,60.0528036928,m,001,2018_Apr_02_0921,
,,,,,,,,,,,,,,,,,,,,,,material/183.png,2,颓废,material/182.png,2,material/79.png,才尽,2,f,f,f,2,2,2,薄弱,,,,,,,,,0,38,38,161,0,0,0,0,,,,,,,f,1,1.24145889282,j,0,0.325073003769,moral_self_bias,02,20,60.0528036928,m,001,2018_Apr_02_0921,
,,,,,,,,,,,,,,,,,,,,,,material/183.png,2,颓废,material/182.png,2,material/79.png,才尽,2,f,f,f,2,2,2,薄弱,,,,,,,,,0,38,38,161,,,,,,,,,,,,,,,,,moral_self_bias,02,20,60.0528036928,m,001,2018_Apr_02_0921,
,,,,,,,,,,,,,,,,,,,,,,material/165.png,1,平等,material/161.png,1,material/61.png,勇敢,1,f,f,f,1,1,1,独立,,,,,,,,,0,39,39,140,,,,,,,,,,,j,0,3.77381110191,,,,moral_self_bias,02,20,60.0528036928,m,001,2018_Apr_02_0921,
,,,,,,,,,,,,,,,,,,,,,,material/122.png,1,博学,material/22.png,1,material/122.png,才学,1,j,j,j,2,2,2,博学,,,,,,,,,0,40,40,21,0,0,0,0,,,,,,,f,0,1.37525010109,j,0,0.341794013977,moral_self_bias,02,20,60.0528036928,m,001,2018_Apr_02_0921,
,,,,,,,,,,,,,,,,,,,,,,material/122.png,1,博学,material/22.png,1,material/122.png,才学,1,j,j,j,2,2,2,博学,,,,,,,,,0,40,40,21,,,,,,,,,,,,,,,,,moral_self_bias,02,20,60.0528036928,m,001,2018_Apr_02_0921,
,,,,,,,,,,,,,,,,,,,,,,material/129.png,1,好问,material/29.png,1,material/129.png,好学,1,j,j,j,2,2,2,好问,,,,,,,,,0,41,41,28,0,0,0,0,,,,,,,f,0,1.50751590729,f,1,0.241316795349,moral_self_bias,02,20,60.0528036928,m,001,2018_Apr_02_0921,
,,,,,,,,,,,,,,,,,,,,,,material/129.png,1,好问,material/29.png,1,material/129.png,好学,1,j,j,j,2,2,2,好问,,,,,,,,,0,41,41,28,,,,,,,,,,,,,,,,,moral_self_bias,02,20,60.0528036928,m,001,2018_Apr_02_0921,
,,,,,,,,,,,,,,,,,,,,,,material/158.png,2,浅薄,material/58.png,2,material/158.png,肤浅,2,j,j,j,2,2,2,浅薄,,,,,,,,,0,42,42,57,0,0,0,0,,,,,,,f,0,1.80835986137,j,0,0.223967075348,moral_self_bias,02,20,60.0528036928,m,001,2018_Apr_02_0921,
,,,,,,,,,,,,,,,,,,,,,,material/158.png,2,浅薄,material/58.png,2,material/158.png,肤浅,2,j,j,j,2,2,2,浅薄,,,,,,,,,0,42,42,57,,,,,,,,,,,,,,,,,moral_self_bias,02,20,60.0528036928,m,001,2018_Apr_02_0921,
,,,,,,,,,,,,,,,,,,,,,,material/22.png,1,才学,material/122.png,1,material/22.png,博学,1,f,f,f,2,2,2,才学,,,,,,,,,0,43,43,101,0,0,0,0,,,,,,,f,1,1.12408399582,f,1,0.324620008469,moral_self_bias,02,20,60.0528036928,m,001,2018_Apr_02_0921,
,,,,,,,,,,,,,,,,,,,,,,material/22.png,1,才学,material/122.png,1,material/22.png,博学,1,f,f,f,2,2,2,才学,,,,,,,,,0,43,43,101,,,,,,,,,,,,,,,,,moral_self_bias,02,20,60.0528036928,m,001,2018_Apr_02_0921,
,,,,,,,,,,,,,,,,,,,,,,material/104.png,1,友爱,material/4.png,1,material/4.png,友爱,1,j,j,j,1,1,1,友善,,,,,,,,,0,44,44,3,0,0,0,0,,,,,,,f,0,3.94094109535,f,1,0.291476011276,moral_self_bias,02,20,60.0528036928,m,001,2018_Apr_02_0921,
,,,,,,,,,,,,,,,,,,,,,,material/104.png,1,友爱,material/4.png,1,material/4.png,友爱,1,j,j,j,1,1,1,友善,,,,,,,,,0,44,44,3,,,,,,,,,,,,,,,,,moral_self_bias,02,20,60.0528036928,m,001,2018_Apr_02_0921,
,,,,,,,,,,,,,,,,,,,,,,material/127.png,1,超群,material/27.png,1,material/127.png,卓越,1,j,j,j,2,2,2,超群,,,,,,,,,0,45,45,26,0,0,0,0,,,,,,,f,0,3.5163500309,j,0,0.324086904526,moral_self_bias,02,20,60.0528036928,m,001,2018_Apr_02_0921,
,,,,,,,,,,,,,,,,,,,,,,material/127.png,1,超群,material/27.png,1,material/127.png,卓越,1,j,j,j,2,2,2,超群,,,,,,,,,0,45,45,26,,,,,,,,,,,,,,,,,moral_self_bias,02,20,60.0528036928,m,001,2018_Apr_02_0921,
,,,,,,,,,,,,,,,,,,,,,,material/82.png,2,毛糙,material/183.png,2,material/178.png,薄弱,2,f,f,f,2,2,2,窝囊,,,,,,,,,0,46,46,162,0,0,0,0,,,,,,,f,1,1.55806803703,f,1,0.234256029129,moral_self_bias,02,20,60.0528036928,m,001,2018_Apr_02_0921,
,,,,,,,,,,,,,,,,,,,,,,material/82.png,2,毛糙,material/183.png,2,material/178.png,薄弱,2,f,f,f,2,2,2,窝囊,,,,,,,,,0,46,46,162,,,,,,,,,,,,,,,,,moral_self_bias,02,20,60.0528036928,m,001,2018_Apr_02_0921,
,,,,,,,,,,,,,,,,,,,,,,material/115.png,1,清白,material/15.png,1,material/15.png,清白,1,j,j,j,1,1,1,纯洁,,,,,,,,,0,47,47,14,,,,,,,,,,,j,1,1.17485404015,,,,moral_self_bias,02,20,60.0528036928,m,001,2018_Apr_02_0921,
,,,,,,,,,,,,,,,,,,,,,,material/178.png,2,窝囊,material/82.png,2,material/82.png,窝囊,2,j,j,j,2,2,2,毛糙,,,,,,,,,0,48,48,78,,,,,,,,,,,j,1,0.708143949509,,,,moral_self_bias,02,20,60.0528036928,m,001,2018_Apr_02_0921,
,,,,,,,,,,,,,,,,,,,,,,material/166.png,1,孝顺,material/64.png,1,material/164.png,奉献,1,j,j,j,1,1,1,仗义,,,,,,,,,0,49,49,63,,,,,,,,,,,j,1,1.14055085182,,,,moral_self_bias,02,20,60.0528036928,m,001,2018_Apr_02_0921,
,,,,,,,,,,,,,,,,,,,,,,material/58.png,2,肤浅,material/158.png,2,material/58.png,浅薄,2,f,f,f,2,2,2,肤浅,,,,,,,,,0,50,50,137,0,0,0,0,,,,,,,f,1,4.92445516586,j,0,2.01762700081,moral_self_bias,02,20,60.0528036928,m,001,2018_Apr_02_0921,
,,,,,,,,,,,,,,,,,,,,,,material/58.png,2,肤浅,material/158.png,2,material/58.png,浅薄,2,f,f,f,2,2,2,肤浅,,,,,,,,,0,50,50,137,,,,,,,,,,,,,,,,,moral_self_bias,02,20,60.0528036928,m,001,2018_Apr_02_0921,
,,,,,,,,,,,,,,,,,,,,,,material/3.png,1,仁厚,material/103.png,1,material/103.png,仁厚,1,f,f,f,1,1,1,仁慈,,,,,,,,,0,51,51,82,,,,,,,,,,,j,0,4.30713295937,,,,moral_self_bias,02,20,60.0528036928,m,001,2018_Apr_02_0921,
,,,,,,,,,,,,,,,,,,,,,,material/15.png,1,纯洁,material/115.png,1,material/115.png,纯洁,1,f,f,f,1,1,1,清白,,,,,,,,,0,52,52,94,0,0,0,0,,,,,,,f,1,1.45014381409,j,0,0.290273189545,moral_self_bias,02,20,60.0528036928,m,001,2018_Apr_02_0921,
,,,,,,,,,,,,,,,,,,,,,,material/15.png,1,纯洁,material/115.png,1,material/115.png,纯洁,1,f,f,f,1,1,1,清白,,,,,,,,,0,52,52,94,,,,,,,,,,,,,,,,,moral_self_bias,02,20,60.0528036928,m,001,2018_Apr_02_0921,
,,,,,,,,,,,,,,,,,,,,,,material/54.png,2,依赖,material/154.png,2,material/54.png,依靠,2,f,f,f,2,2,2,依赖,,,,,,,,,0,53,53,133,0,0,0,0,,,,,,,f,1,1.89125418663,f,1,0.225060939789,moral_self_bias,02,20,60.0528036928,m,001,2018_Apr_02_0921,
,,,,,,,,,,,,,,,,,,,,,,material/54.png,2,依赖,material/154.png,2,material/54.png,依靠,2,f,f,f,2,2,2,依赖,,,,,,,,,0,53,53,133,,,,,,,,,,,,,,,,,moral_self_bias,02,20,60.0528036928,m,001,2018_Apr_02_0921,
,,,,,,,,,,,,,,,,,,,,,,material/131.png,1,笃行,material/31.png,1,material/131.png,笃学,1,j,j,j,2,2,2,笃行,,,,,,,,,0,54,54,30,0,0,0,0,,,,,,,f,0,1.02451205254,f,1,0.224831104279,moral_self_bias,02,20,60.0528036928,m,001,2018_Apr_02_0921,
,,,,,,,,,,,,,,,,,,,,,,material/131.png,1,笃行,material/31.png,1,material/131.png,笃学,1,j,j,j,2,2,2,笃行,,,,,,,,,0,54,54,30,,,,,,,,,,,,,,,,,moral_self_bias,02,20,60.0528036928,m,001,2018_Apr_02_0921,
,,,,,,,,,,,,,,,,,,,,,,material/117.png,1,聪颖,material/17.png,1,material/117.png,聪明,1,j,j,j,2,2,2,聪颖,,,,,,,,,0,55,55,16,,,,,,,,,,,j,1,1.0422539711,,,,moral_self_bias,02,20,60.0528036928,m,001,2018_Apr_02_0921,
,,,,,,,,,,,,,,,,,,,,,,material/170.png,1,坚忍,material/71.png,1,material/170.png,严谨,1,j,j,j,2,2,2,坚忍,,,,,,,,,0,56,56,68,,,,,,,,,,,j,1,0.807447910309,,,,moral_self_bias,02,20,60.0528036928,m,001,2018_Apr_02_0921,
,,,,,,,,,,,,,,,,,,,,,,material/28.png,1,克己,material/128.png,1,material/28.png,自律,1,f,f,f,2,2,2,克己,,,,,,,,,0,57,57,107,,,,,,,,,,,j,0,0.841176986694,,,,moral_self_bias,02,20,60.0528036928,m,001,2018_Apr_02_0921,
,,,,,,,,,,,,,,,,,,,,,,material/31.png,1,笃学,material/131.png,1,material/31.png,笃行,1,f,f,f,2,2,2,笃学,,,,,,,,,0,58,58,110,,,,,,,,,,,j,0,1.24148702621,,,,moral_self_bias,02,20,60.0528036928,m,001,2018_Apr_02_0921,
,,,,,,,,,,,,,,,,,,,,,,material/4.png,1,友善,material/104.png,1,material/104.png,友善,1,f,f,f,1,1,1,友爱,,,,,,,,,0,59,59,83,0,0,0,0,,,,,,,f,1,2.04195213318,f,1,0.191494941711,moral_self_bias,02,20,60.0528036928,m,001,2018_Apr_02_0921,
,,,,,,,,,,,,,,,,,,,,,,material/4.png,1,友善,material/104.png,1,material/104.png,友善,1,f,f,f,1,1,1,友爱,,,,,,,,,0,59,59,83,,,,,,,,,,,,,,,,,moral_self_bias,02,20,60.0528036928,m,001,2018_Apr_02_0921,
,,,,,,,,,,,,,,,,,,,,,,material/72.png,2,软弱,material/77.png,2,material/77.png,软弱,2,j,j,j,1,1,1,谄媚,,,,,,,,,0,60,60,73,0,0,0,0,,,,,,,f,0,3.32437801361,f,1,1.00821518898,moral_self_bias,02,20,60.0528036928,m,001,2018_Apr_02_0921,
,,,,,,,,,,,,,,,,,,,,,,material/72.png,2,软弱,material/77.png,2,material/77.png,软弱,2,j,j,j,1,1,1,谄媚,,,,,,,,,0,60,60,73,,,,,,,,,,,,,,,,,moral_self_bias,02,20,60.0528036928,m,001,2018_Apr_02_0921,
,,,,,,,,,,,,,,,,,,,,,,material/61.png,1,仗义,material/65.png,1,material/166.png,谦虚,1,j,j,j,1,1,1,平等,,,,,,,,,0,61,61,64,,,,,,,,,,,j,1,1.22360110283,,,,moral_self_bias,02,20,60.0528036928,m,001,2018_Apr_02_0921,
,,,,,,,,,,,,,,,,,,,,,,material/25.png,1,果断,material/125.png,1,material/25.png,果敢,1,f,f,f,2,2,2,果断,,,,,,,,,0,62,62,104,0,0,0,0,,,,,,,f,1,1.27513098717,j,0,0.557947158813,moral_self_bias,02,20,60.0528036928,m,001,2018_Apr_02_0921,
,,,,,,,,,,,,,,,,,,,,,,material/25.png,1,果断,material/125.png,1,material/25.png,果敢,1,f,f,f,2,2,2,果断,,,,,,,,,0,62,62,104,,,,,,,,,,,,,,,,,moral_self_bias,02,20,60.0528036928,m,001,2018_Apr_02_0921,
,,,,,,,,,,,,,,,,,,,,,,material/143.png,2,拜金,material/43.png,2,material/43.png,拜金,2,j,j,j,1,1,1,虚荣,,,,,,,,,0,63,63,42,0,0,0,0,,,,,,,f,0,0.907691001892,f,1,0.250741958618,moral_self_bias,02,20,60.0528036928,m,001,2018_Apr_02_0921,
,,,,,,,,,,,,,,,,,,,,,,material/143.png,2,拜金,material/43.png,2,material/43.png,拜金,2,j,j,j,1,1,1,虚荣,,,,,,,,,0,63,63,42,,,,,,,,,,,,,,,,,moral_self_bias,02,20,60.0528036928,m,001,2018_Apr_02_0921,
,,,,,,,,,,,,,,,,,,,,,,material/43.png,2,虚荣,material/143.png,2,material/143.png,虚荣,2,f,f,f,1,1,1,拜金,,,,,,,,,0,64,64,122,,,,,,,,,,,j,0,1.29138016701,,,,moral_self_bias,02,20,60.0528036928,m,001,2018_Apr_02_0921,
,,,,,,,,,,,,,,,,,,,,,,material/124.png,1,冷静,material/24.png,1,material/124.png,理智,1,j,j,j,2,2,2,冷静,,,,,,,,,0,65,65,23,,,,,,,,,,,j,1,6.34027695656,,,,moral_self_bias,02,20,60.0528036928,m,001,2018_Apr_02_0921,
,,,,,,,,,,,,,,,,,,,,,,material/63.png,1,正义,material/166.png,1,material/66.png,仗义,1,f,f,f,1,1,1,文明,,,,,,,,,0,66,66,145,,,,,,,,,,,j,0,0.717430114746,,,,moral_self_bias,02,20,60.0528036928,m,001,2018_Apr_02_0921,
,,,,,,,,,,,,,,,,,,,,,,material/2.png,1,爱心,material/102.png,1,material/102.png,爱心,1,f,f,f,1,1,1,善心,,,,,,,,,0,67,67,81,,,,,,,,,,,j,0,1.3754389286,,,,moral_self_bias,02,20,60.0528036928,m,001,2018_Apr_02_0921,
,,,,,,,,,,,,,,,,,,,,,,material/17.png,1,聪明,material/117.png,1,material/17.png,聪颖,1,f,f,f,2,2,2,聪明,,,,,,,,,0,68,68,96,,,,,,,,,,,j,0,1.04024600983,,,,moral_self_bias,02,20,60.0528036928,m,001,2018_Apr_02_0921,
,,,,,,,,,,,,,,,,,,,,,,material/112.png,1,忠诚,material/12.png,1,material/12.png,忠诚,1,j,j,j,1,1,1,忠心,,,,,,,,,0,69,69,11,0,0,0,0,,,,,,,f,0,0.990985870361,j,0,2.79225611687,moral_self_bias,02,20,60.0528036928,m,001,2018_Apr_02_0921,
,,,,,,,,,,,,,,,,,,,,,,material/112.png,1,忠诚,material/12.png,1,material/12.png,忠诚,1,j,j,j,1,1,1,忠心,,,,,,,,,0,69,69,11,,,,,,,,,,,,,,,,,moral_self_bias,02,20,60.0528036928,m,001,2018_Apr_02_0921,
,,,,,,,,,,,,,,,,,,,,,,material/20.png,1,厉害,material/120.png,1,material/20.png,能干,1,f,f,f,2,2,2,厉害,,,,,,,,,0,70,70,99,,,,,,,,,,,j,0,4.4502351284,,,,moral_self_bias,02,20,60.0528036928,m,001,2018_Apr_02_0921,
,,,,,,,,,,,,,,,,,,,,,,material/32.png,2,背叛,material/132.png,2,material/132.png,背叛,2,f,f,f,1,1,1,不忠,,,,,,,,,0,71,71,111,,,,,,,,,,,j,0,0.720145225525,,,,moral_self_bias,02,20,60.0528036928,m,001,2018_Apr_02_0921,
,,,,,,,,,,,,,,,,,,,,,,material/51.png,2,糊涂,material/151.png,2,material/51.png,迷糊,2,f,f,f,2,2,2,糊涂,,,,,,,,,0,72,72,130,,,,,,,,,,,j,0,0.58754992485,,,,moral_self_bias,02,20,60.0528036928,m,001,2018_Apr_02_0921,
,,,,,,,,,,,,,,,,,,,,,,material/155.png,2,盲目,material/55.png,2,material/155.png,盲从,2,j,j,j,2,2,2,盲目,,,,,,,,,0,73,73,54,0,0,0,0,,,,,,,f,0,1.04106903076,f,1,0.221549987793,moral_self_bias,02,20,60.0528036928,m,001,2018_Apr_02_0921,
,,,,,,,,,,,,,,,,,,,,,,material/155.png,2,盲目,material/55.png,2,material/155.png,盲从,2,j,j,j,2,2,2,盲目,,,,,,,,,0,73,73,54,,,,,,,,,,,,,,,,,moral_self_bias,02,20,60.0528036928,m,001,2018_Apr_02_0921,
,,,,,,,,,,,,,,,,,,,,,,material/8.png,1,无私,material/108.png,1,material/108.png,无私,1,f,f,f,1,1,1,公道,,,,,,,,,0,74,74,87,,,,,,,,,,,j,0,1.35819387436,,,,moral_self_bias,02,20,60.0528036928,m,001,2018_Apr_02_0921,
,,,,,,,,,,,,,,,,,,,,,,material/80.png,2,才尽,material/83.png,2,material/182.png,呆笨,2,j,j,j,2,2,2,健忘,,,,,,,,,0,75,75,79,0,0,0,0,,,,,,,f,0,1.35811400414,j,0,0.207957983017,moral_self_bias,02,20,60.0528036928,m,001,2018_Apr_02_0921,
,,,,,,,,,,,,,,,,,,,,,,material/80.png,2,才尽,material/83.png,2,material/182.png,呆笨,2,j,j,j,2,2,2,健忘,,,,,,,,,0,75,75,79,,,,,,,,,,,,,,,,,moral_self_bias,02,20,60.0528036928,m,001,2018_Apr_02_0921,
,,,,,,,,,,,,,,,,,,,,,,material/108.png,1,公道,material/8.png,1,material/8.png,公道,1,j,j,j,1,1,1,无私,,,,,,,,,0,76,76,7,,,,,,,,,,,j,1,1.04163098335,,,,moral_self_bias,02,20,60.0528036928,m,001,2018_Apr_02_0921,
,,,,,,,,,,,,,,,,,,,,,,material/52.png,2,拖延,material/152.png,2,material/52.png,缓慢,2,f,f,f,2,2,2,拖延,,,,,,,,,0,77,77,131,,,,,,,,,,,j,0,1.19137883186,,,,moral_self_bias,02,20,60.0528036928,m,001,2018_Apr_02_0921,
,,,,,,,,,,,,,,,,,,,,,,material/147.png,2,刻板,material/47.png,2,material/147.png,死板,2,j,j,j,2,2,2,刻板,,,,,,,,,0,78,78,46,0,0,0,0,,,,,,,f,0,0.991852998734,j,0,0.29171705246,moral_self_bias,02,20,60.0528036928,m,001,2018_Apr_02_0921,
,,,,,,,,,,,,,,,,,,,,,,material/147.png,2,刻板,material/47.png,2,material/147.png,死板,2,j,j,j,2,2,2,刻板,,,,,,,,,0,78,78,46,,,,,,,,,,,,,,,,,moral_self_bias,02,20,60.0528036928,m,001,2018_Apr_02_0921,
,,,,,,,,,,,,,,,,,,,,,,material/74.png,2,黑心,material/173.png,2,material/173.png,黑心,2,f,f,f,1,1,1,卑劣,,,,,,,,,0,79,79,152,,,,,,,,,,,j,0,0.774777173996,,,,moral_self_bias,02,20,60.0528036928,m,001,2018_Apr_02_0921,
,,,,,,,,,,,,,,,,,,,,,,material/34.png,2,可恶,material/134.png,2,material/134.png,可恶,2,f,f,f,1,1,1,可恨,,,,,,,,,0,80,80,113,,,,,,,,,,,j,0,1.50745892525,,,,moral_self_bias,02,20,60.0528036928,m,001,2018_Apr_02_0921,
,,,,,,,,,,,,,,,,,,,,,,material/9.png,1,正直,material/109.png,1,material/109.png,正直,1,f,f,f,1,1,1,秉直,,,,,,,,,0,81,81,88,0,0,0,0,,,,,,,f,1,3.10809993744,j,0,0.808082103729,moral_self_bias,02,20,60.0528036928,m,001,2018_Apr_02_0921,
,,,,,,,,,,,,,,,,,,,,,,material/9.png,1,正直,material/109.png,1,material/109.png,正直,1,f,f,f,1,1,1,秉直,,,,,,,,,0,81,81,88,,,,,,,,,,,,,,,,,moral_self_bias,02,20,60.0528036928,m,001,2018_Apr_02_0921,
,,,,,,,,,,,,,,,,,,,,,,material/53.png,2,迟缓,material/153.png,2,material/53.png,迟钝,2,f,f,f,2,2,2,迟缓,,,,,,,,,0,82,82,132,,,,,,,,,,,j,0,1.20773696899,,,,moral_self_bias,02,20,60.0528036928,m,001,2018_Apr_02_0921,
,,,,,,,,,,,,,,,,,,,,,,material/107.png,1,公正,material/7.png,1,material/7.png,公正,1,j,j,j,1,1,1,公平,,,,,,,,,0,83,83,6,0,0,0,0,,,,,,,f,0,1.25072598457,j,0,0.240975856781,moral_self_bias,02,20,60.0528036928,m,001,2018_Apr_02_0921,
,,,,,,,,,,,,,,,,,,,,,,material/107.png,1,公正,material/7.png,1,material/7.png,公正,1,j,j,j,1,1,1,公平,,,,,,,,,0,83,83,6,,,,,,,,,,,,,,,,,moral_self_bias,02,20,60.0528036928,m,001,2018_Apr_02_0921,
,,,,,,,,,,,,,,,,,,,,,,material/157.png,2,无能,material/57.png,2,material/157.png,无知,2,j,j,j,2,2,2,无能,,,,,,,,,0,84,84,56,,,,,,,,,,,j,1,0.741384983063,,,,moral_self_bias,02,20,60.0528036928,m,001,2018_Apr_02_0921,
,,,,,,,,,,,,,,,,,,,,,,material/81.png,2,呆笨,material/179.png,2,material/83.png,差生,2,f,f,f,2,2,2,无助,,,,,,,,,0,85,85,158,0,0,0,0,,,,,,,f,1,0.957506895065,j,0,0.341555118561,moral_self_bias,02,20,60.0528036928,m,001,2018_Apr_02_0921,
,,,,,,,,,,,,,,,,,,,,,,material/81.png,2,呆笨,material/179.png,2,material/83.png,差生,2,f,f,f,2,2,2,无助,,,,,,,,,0,85,85,158,,,,,,,,,,,,,,,,,moral_self_bias,02,20,60.0528036928,m,001,2018_Apr_02_0921,
,,,,,,,,,,,,,,,,,,,,,,material/55.png,2,盲从,material/155.png,2,material/55.png,盲目,2,f,f,f,2,2,2,盲从,,,,,,,,,0,86,86,134,,,,,,,,,,,j,0,6.89248013496,,,,moral_self_bias,02,20,60.0528036928,m,001,2018_Apr_02_0921,
,,,,,,,,,,,,,,,,,,,,,,material/114.png,1,爱国,material/14.png,1,material/14.png,爱国,1,j,j,j,1,1,1,忠贞,,,,,,,,,0,87,87,13,0,0,0,0,,,,,,,f,0,1.457269907,j,0,0.391239881516,moral_self_bias,02,20,60.0528036928,m,001,2018_Apr_02_0921,
,,,,,,,,,,,,,,,,,,,,,,material/114.png,1,爱国,material/14.png,1,material/14.png,爱国,1,j,j,j,1,1,1,忠贞,,,,,,,,,0,87,87,13,,,,,,,,,,,,,,,,,moral_self_bias,02,20,60.0528036928,m,001,2018_Apr_02_0921,
,,,,,,,,,,,,,,,,,,,,,,material/19.png,1,灵活,material/119.png,1,material/19.png,机灵,1,f,f,f,2,2,2,灵活,,,,,,,,,0,88,88,98,,,,,,,,,,,j,0,4.02347111702,,,,moral_self_bias,02,20,60.0528036928,m,001,2018_Apr_02_0921,
,,,,,,,,,,,,,,,,,,,,,,material/67.png,1,骁勇,material/70.png,1,material/67.png,全面,1,j,j,j,2,2,2,骁勇,,,,,,,,,0,89,89,67,,,,,,,,,,,j,1,0.724648952484,,,,moral_self_bias,02,20,60.0528036928,m,001,2018_Apr_02_0921,
,,,,,,,,,,,,,,,,,,,,,,material/182.png,2,健忘,material/184.png,2,material/80.png,厌学,2,f,f,f,2,2,2,才尽,,,,,,,,,0,90,90,163,,,,,,,,,,,j,0,0.824219942093,,,,moral_self_bias,02,20,60.0528036928,m,001,2018_Apr_02_0921,
,,,,,,,,,,,,,,,,,,,,,,material/73.png,2,恶心,material/177.png,2,material/177.png,恶心,2,f,f,f,1,1,1,残虐,,,,,,,,,0,91,91,156,,,,,,,,,,,j,0,1.32444310188,,,,moral_self_bias,02,20,60.0528036928,m,001,2018_Apr_02_0921,
,,,,,,,,,,,,,,,,,,,,,,material/78.png,2,厌学,material/181.png,2,material/184.png,犹豫,2,f,f,f,2,2,2,草率,,,,,,,,,0,92,92,160,0,0,0,0,,,,,,,f,1,1.67437386513,f,1,0.491928100586,moral_self_bias,02,20,60.0528036928,m,001,2018_Apr_02_0921,
,,,,,,,,,,,,,,,,,,,,,,material/78.png,2,厌学,material/181.png,2,material/184.png,犹豫,2,f,f,f,2,2,2,草率,,,,,,,,,0,92,92,160,,,,,,,,,,,,,,,,,moral_self_bias,02,20,60.0528036928,m,001,2018_Apr_02_0921,
,,,,,,,,,,,,,,,,,,,,,,material/66.png,1,独立,material/66.png,1,material/165.png,正义,1,f,f,f,1,1,1,正义,,,,,,,,,0,93,93,164,,,,,,,,,,,j,0,1.05077600479,,,,moral_self_bias,02,20,60.0528036928,m,001,2018_Apr_02_0921,
,,,,,,,,,,,,,,,,,,,,,,material/16.png,1,睿智,material/116.png,1,material/16.png,机智,1,f,f,f,2,2,2,睿智,,,,,,,,,0,94,94,95,,,,,,,,,,,j,0,0.824550151825,,,,moral_self_bias,02,20,60.0528036928,m,001,2018_Apr_02_0921,
,,,,,,,,,,,,,,,,,,,,,,material/79.png,2,薄弱,material/81.png,2,material/183.png,无助,2,j,j,j,2,2,2,颓废,,,,,,,,,0,95,95,77,0,0,0,0,,,,,,,f,0,0.90827703476,f,1,0.283552885056,moral_self_bias,02,20,60.0528036928,m,001,2018_Apr_02_0921,
,,,,,,,,,,,,,,,,,,,,,,material/79.png,2,薄弱,material/81.png,2,material/183.png,无助,2,j,j,j,2,2,2,颓废,,,,,,,,,0,95,95,77,,,,,,,,,,,,,,,,,moral_self_bias,02,20,60.0528036928,m,001,2018_Apr_02_0921,
,,,,,,,,,,,,,,,,,,,,,,material/109.png,1,秉直,material/9.png,1,material/9.png,秉直,1,j,j,j,1,1,1,正直,,,,,,,,,0,96,96,8,,,,,,,,,,,j,1,1.40801405907,,,,moral_self_bias,02,20,60.0528036928,m,001,2018_Apr_02_0921,
,,,,,,,,,,,,,,,,,,,,,,material/144.png,2,失信,material/44.png,2,material/44.png,失信,2,j,j,j,1,1,1,爽约,,,,,,,,,0,97,97,43,,,,,,,,,,,j,1,5.97522497177,,,,moral_self_bias,02,20,60.0528036928,m,001,2018_Apr_02_0921,
,,,,,,,,,,,,,,,,,,,,,,material/172.png,2,无情,material/175.png,2,material/175.png,无情,2,f,f,f,1,1,1,浮夸,,,,,,,,,0,98,98,154,0,0,0,0,,,,,,,f,1,2.47345304489,f,1,0.191553115845,moral_self_bias,02,20,60.0528036928,m,001,2018_Apr_02_0921,
,,,,,,,,,,,,,,,,,,,,,,material/172.png,2,无情,material/175.png,2,material/175.png,无情,2,f,f,f,1,1,1,浮夸,,,,,,,,,0,98,98,154,,,,,,,,,,,,,,,,,moral_self_bias,02,20,60.0528036928,m,001,2018_Apr_02_0921,
,,,,,,,,,,,,,,,,,,,,,,material/139.png,2,凶残,material/39.png,2,material/39.png,凶残,2,j,j,j,1,1,1,恶毒,,,,,,,,,0,99,99,38,,,,,,,,,,,j,1,0.750268936157,,,,moral_self_bias,02,20,60.0528036928,m,001,2018_Apr_02_0921,
,,,,,,,,,,,,,,,,,,,,,,material/60.png,2,粗拙,material/160.png,2,material/60.png,笨拙,2,f,f,f,2,2,2,粗拙,,,,,,,,,0,100,100,139,0,0,0,0,,,,,,,f,1,1.84132099152,j,0,0.257456064224,moral_self_bias,02,20,60.0528036928,m,001,2018_Apr_02_0921,
,,,,,,,,,,,,,,,,,,,,,,material/60.png,2,粗拙,material/160.png,2,material/60.png,笨拙,2,f,f,f,2,2,2,粗拙,,,,,,,,,0,100,100,139,,,,,,,,,,,,,,,,,moral_self_bias,02,20,60.0528036928,m,001,2018_Apr_02_0921,
,,,,,,,,,,,,,,,,,,,,,,material/106.png,1,诚实,material/6.png,1,material/6.png,诚实,1,j,j,j,1,1,1,厚道,,,,,,,,,0,101,101,5,0,0,0,0,,,,,,,f,0,1.70676183701,j,0,0.266762018204,moral_self_bias,02,20,60.0528036928,m,001,2018_Apr_02_0921,
,,,,,,,,,,,,,,,,,,,,,,material/106.png,1,诚实,material/6.png,1,material/6.png,诚实,1,j,j,j,1,1,1,厚道,,,,,,,,,0,101,101,5,,,,,,,,,,,,,,,,,moral_self_bias,02,20,60.0528036928,m,001,2018_Apr_02_0921,
,,,,,,,,,,,,,,,,,,,,,,material/49.png,2,痴呆,material/149.png,2,material/49.png,白痴,2,f,f,f,2,2,2,痴呆,,,,,,,,,0,102,102,128,,,,,,,,,,,j,0,1.07366108894,,,,moral_self_bias,02,20,60.0528036928,m,001,2018_Apr_02_0921,
,,,,,,,,,,,,,,,,,,,,,,material/103.png,1,仁慈,material/3.png,1,material/3.png,仁慈,1,j,j,j,1,1,1,仁厚,,,,,,,,,0,103,103,2,0,0,0,0,,,,,,,f,0,0.856915950775,f,1,0.308275938034,moral_self_bias,02,20,60.0528036928,m,001,2018_Apr_02_0921,
,,,,,,,,,,,,,,,,,,,,,,material/103.png,1,仁慈,material/3.png,1,material/3.png,仁慈,1,j,j,j,1,1,1,仁厚,,,,,,,,,0,103,103,2,,,,,,,,,,,,,,,,,moral_self_bias,02,20,60.0528036928,m,001,2018_Apr_02_0921,
,,,,,,,,,,,,,,,,,,,,,,material/44.png,2,爽约,material/144.png,2,material/144.png,爽约,2,f,f,f,1,1,1,失信,,,,,,,,,0,104,104,123,,,,,,,,,,,j,0,0.841384887695,,,,moral_self_bias,02,20,60.0528036928,m,001,2018_Apr_02_0921,
,,,,,,,,,,,,,,,,,,,,,,material/181.png,2,怠惰,material/180.png,2,material/180.png,怠惰,2,f,f,f,2,2,2,犹豫,,,,,,,,,0,105,105,159,,,,,,,,,,,j,0,0.691155910492,,,,moral_self_bias,02,20,60.0528036928,m,001,2018_Apr_02_0921,
,,,,,,,,,,,,,,,,,,,,,,material/59.png,2,智障,material/159.png,2,material/59.png,弱智,2,f,f,f,2,2,2,智障,,,,,,,,,0,106,106,138,,,,,,,,,,,j,0,0.874843120575,,,,moral_self_bias,02,20,60.0528036928,m,001,2018_Apr_02_0921,
,,,,,,,,,,,,,,,,,,,,,,material/45.png,2,小人,material/145.png,2,material/145.png,小人,2,f,f,f,1,1,1,下流,,,,,,,,,0,107,107,124,,,,,,,,,,,j,0,0.740685939789,,,,moral_self_bias,02,20,60.0528036928,m,001,2018_Apr_02_0921,
,,,,,,,,,,,,,,,,,,,,,,material/48.png,2,愚蠢,material/148.png,2,material/48.png,笨蛋,2,f,f,f,2,2,2,愚蠢,,,,,,,,,0,108,108,127,,,,,,,,,,,j,0,1.70771002769,,,,moral_self_bias,02,20,60.0528036928,m,001,2018_Apr_02_0921,
,,,,,,,,,,,,,,,,,,,,,,material/167.png,1,高手,material/169.png,1,material/167.png,颖悟,1,f,f,f,2,2,2,高手,,,,,,,,,0,109,109,148,0,0,0,0,,,,,,,f,1,0.807610988617,f,1,0.217609167099,moral_self_bias,02,20,60.0528036928,m,001,2018_Apr_02_0921,
,,,,,,,,,,,,,,,,,,,,,,material/167.png,1,高手,material/169.png,1,material/167.png,颖悟,1,f,f,f,2,2,2,高手,,,,,,,,,0,109,109,148,,,,,,,,,,,,,,,,,moral_self_bias,02,20,60.0528036928,m,001,2018_Apr_02_0921,
,,,,,,,,,,,,,,,,,,,,,,material/57.png,2,无知,material/157.png,2,material/57.png,无能,2,f,f,f,2,2,2,无知,,,,,,,,,0,110,110,136,,,,,,,,,,,j,0,3.52361798286,,,,moral_self_bias,02,20,60.0528036928,m,001,2018_Apr_02_0921,
,,,,,,,,,,,,,,,,,,,,,,material/56.png,2,愚昧,material/156.png,2,material/56.png,愚钝,2,f,f,f,2,2,2,愚昧,,,,,,,,,0,111,111,135,,,,,,,,,,,j,0,0.874106884003,,,,moral_self_bias,02,20,60.0528036928,m,001,2018_Apr_02_0921,
,,,,,,,,,,,,,,,,,,,,,,material/163.png,1,文明,material/163.png,1,material/63.png,宽容,1,f,f,f,1,1,1,宽容,,,,,,,,,0,112,112,142,0,0,0,0,,,,,,,f,1,1.00778985023,j,0,3.39220094681,moral_self_bias,02,20,60.0528036928,m,001,2018_Apr_02_0921,
,,,,,,,,,,,,,,,,,,,,,,material/163.png,1,文明,material/163.png,1,material/63.png,宽容,1,f,f,f,1,1,1,宽容,,,,,,,,,0,112,112,142,,,,,,,,,,,,,,,,,moral_self_bias,02,20,60.0528036928,m,001,2018_Apr_02_0921,
,,,,,,,,,,,,,,,,,,,,,,material/177.png,2,谄媚,material/72.png,2,material/72.png,谄媚,2,j,j,j,1,1,1,恶心,,,,,,,,,0,113,113,69,,,,,,,,,,,j,1,1.52534198761,,,,moral_self_bias,02,20,60.0528036928,m,001,2018_Apr_02_0921,
,,,,,,,,,,,,,,,,,,,,,,material/137.png,2,无耻,material/37.png,2,material/37.png,无耻,2,j,j,j,1,1,1,卑鄙,,,,,,,,,0,114,114,36,,,,,,,,,,,j,1,1.19126701355,,,,moral_self_bias,02,20,60.0528036928,m,001,2018_Apr_02_0921,
,,,,,,,,,,,,,,,,,,,,,,material/141.png,2,歹毒,material/41.png,2,material/41.png,歹毒,2,j,j,j,1,1,1,残忍,,,,,,,,,0,115,115,40,,,,,,,,,,,j,1,0.740551948547,,,,moral_self_bias,02,20,60.0528036928,m,001,2018_Apr_02_0921,
,,,,,,,,,,,,,,,,,,,,,,material/37.png,2,卑鄙,material/137.png,2,material/137.png,卑鄙,2,f,f,f,1,1,1,无耻,,,,,,,,,0,116,116,116,,,,,,,,,,,j,0,1.0408539772,,,,moral_self_bias,02,20,60.0528036928,m,001,2018_Apr_02_0921,
,,,,,,,,,,,,,,,,,,,,,,material/83.png,2,差生,material/78.png,2,material/179.png,草率,2,j,j,j,2,2,2,呆笨,,,,,,,,,0,117,117,74,0,0,0,0,,,,,,,f,0,6.20801115036,f,1,0.241385936737,moral_self_bias,02,20,60.0528036928,m,001,2018_Apr_02_0921,
,,,,,,,,,,,,,,,,,,,,,,material/83.png,2,差生,material/78.png,2,material/179.png,草率,2,j,j,j,2,2,2,呆笨,,,,,,,,,0,117,117,74,,,,,,,,,,,,,,,,,moral_self_bias,02,20,60.0528036928,m,001,2018_Apr_02_0921,
,,,,,,,,,,,,,,,,,,,,,,material/148.png,2,笨蛋,material/48.png,2,material/148.png,愚蠢,2,j,j,j,2,2,2,笨蛋,,,,,,,,,0,118,118,47,0,0,0,0,,,,,,,f,0,2.79073500633,j,0,0.275420188904,moral_self_bias,02,20,60.0528036928,m,001,2018_Apr_02_0921,
,,,,,,,,,,,,,,,,,,,,,,material/148.png,2,笨蛋,material/48.png,2,material/148.png,愚蠢,2,j,j,j,2,2,2,笨蛋,,,,,,,,,0,118,118,47,,,,,,,,,,,,,,,,,moral_self_bias,02,20,60.0528036928,m,001,2018_Apr_02_0921,
,,,,,,,,,,,,,,,,,,,,,,material/105.png,1,守信,material/5.png,1,material/5.png,守信,1,j,j,j,1,1,1,诚信,,,,,,,,,0,119,119,4,0,0,0,0,,,,,,,f,0,3.47449111938,f,1,0.274239063263,moral_self_bias,02,20,60.0528036928,m,001,2018_Apr_02_0921,
,,,,,,,,,,,,,,,,,,,,,,material/105.png,1,守信,material/5.png,1,material/5.png,守信,1,j,j,j,1,1,1,诚信,,,,,,,,,0,119,119,4,,,,,,,,,,,,,,,,,moral_self_bias,02,20,60.0528036928,m,001,2018_Apr_02_0921,
,,,,,,,,,,,,,,,,,,,,,,material/160.png,2,笨拙,material/60.png,2,material/160.png,粗拙,2,j,j,j,2,2,2,笨拙,,,,,,,,,0,120,120,59,0,0,0,0,,,,,,,f,0,4.35723876953,j,0,0.12501502037,moral_self_bias,02,20,60.0528036928,m,001,2018_Apr_02_0921,
,,,,,,,,,,,,,,,,,,,,,,material/160.png,2,笨拙,material/60.png,2,material/160.png,粗拙,2,j,j,j,2,2,2,笨拙,,,,,,,,,0,120,120,59,,,,,,,,,,,,,,,,,moral_self_bias,02,20,60.0528036928,m,001,2018_Apr_02_0921,
,,,,,,,,,,,,,,,,,,,,,,material/18.png,1,敏锐,material/118.png,1,material/18.png,机敏,1,f,f,f,2,2,2,敏锐,,,,,,,,,0,121,121,97,,,,,,,,,,,j,0,2.575496912,,,,moral_self_bias,02,20,60.0528036928,m,001,2018_Apr_02_0921,
,,,,,,,,,,,,,,,,,,,,,,material/50.png,2,愚笨,material/150.png,2,material/50.png,鲁钝,2,f,f,f,2,2,2,愚笨,,,,,,,,,0,122,122,129,,,,,,,,,,,j,0,0.974568843842,,,,moral_self_bias,02,20,60.0528036928,m,001,2018_Apr_02_0921,
,,,,,,,,,,,,,,,,,,,,,,material/23.png,1,有才,material/123.png,1,material/23.png,多才,1,f,f,f,2,2,2,有才,,,,,,,,,0,123,123,102,,,,,,,,,,,j,0,1.69933390617,,,,moral_self_bias,02,20,60.0528036928,m,001,2018_Apr_02_0921,
,,,,,,,,,,,,,,,,,,,,,,material/1.png,1,博爱,material/101.png,1,material/101.png,博爱,1,f,f,f,1,1,1,善良,,,,,,,,,0,124,124,80,,,,,,,,,,,j,0,1.24107599258,,,,moral_self_bias,02,20,60.0528036928,m,001,2018_Apr_02_0921,
,,,,,,,,,,,,,,,,,,,,,,material/36.png,2,撒谎,material/136.png,2,material/136.png,撒谎,2,f,f,f,1,1,1,说谎,,,,,,,,,0,125,125,115,0,0,0,0,,,,,,,f,1,0.857512950897,f,1,0.274030208588,moral_self_bias,02,20,60.0528036928,m,001,2018_Apr_02_0921,
,,,,,,,,,,,,,,,,,,,,,,material/36.png,2,撒谎,material/136.png,2,material/136.png,撒谎,2,f,f,f,1,1,1,说谎,,,,,,,,,0,125,125,115,,,,,,,,,,,,,,,,,moral_self_bias,02,20,60.0528036928,m,001,2018_Apr_02_0921,
,,,,,,,,,,,,,,,,,,,,,,material/71.png,1,严谨,material/68.png,1,material/71.png,广博,1,j,j,j,2,2,2,严谨,,,,,,,,,0,126,126,66,0,0,0,0,,,,,,,f,0,4.87430095673,f,1,0.208559989929,moral_self_bias,02,20,60.0528036928,m,001,2018_Apr_02_0921,
,,,,,,,,,,,,,,,,,,,,,,material/71.png,1,严谨,material/68.png,1,material/71.png,广博,1,j,j,j,2,2,2,严谨,,,,,,,,,0,126,126,66,,,,,,,,,,,,,,,,,moral_self_bias,02,20,60.0528036928,m,001,2018_Apr_02_0921,
,,,,,,,,,,,,,,,,,,,,,,material/123.png,1,多才,material/23.png,1,material/123.png,有才,1,j,j,j,2,2,2,多才,,,,,,,,,0,127,127,22,0,0,0,0,,,,,,,f,0,1.48282289505,f,1,0.224545955658,moral_self_bias,02,20,60.0528036928,m,001,2018_Apr_02_0921,
,,,,,,,,,,,,,,,,,,,,,,material/123.png,1,多才,material/23.png,1,material/123.png,有才,1,j,j,j,2,2,2,多才,,,,,,,,,0,127,127,22,,,,,,,,,,,,,,,,,moral_self_bias,02,20,60.0528036928,m,001,2018_Apr_02_0921,
,,,,,,,,,,,,,,,,,,,,,,material/41.png,2,残忍,material/141.png,2,material/141.png,残忍,2,f,f,f,1,1,1,歹毒,,,,,,,,,0,128,128,120,,,,,,,,,,,j,0,0.933857917786,,,,moral_self_bias,02,20,60.0528036928,m,001,2018_Apr_02_0921,
,,,,,,,,,,,,,,,,,,,,,,material/159.png,2,弱智,material/59.png,2,material/159.png,智障,2,j,j,j,2,2,2,弱智,,,,,,,,,0,129,129,58,,,,,,,,,,,j,1,2.4238858223,,,,moral_self_bias,02,20,60.0528036928,m,001,2018_Apr_02_0921,
,,,,,,,,,,,,,,,,,,,,,,material/116.png,1,机智,material/16.png,1,material/116.png,睿智,1,j,j,j,2,2,2,机智,,,,,,,,,0,130,130,15,,,,,,,,,,,j,1,2.30770492554,,,,moral_self_bias,02,20,60.0528036928,m,001,2018_Apr_02_0921,
,,,,,,,,,,,,,,,,,,,,,,material/12.png,1,忠心,material/112.png,1,material/112.png,忠心,1,f,f,f,1,1,1,忠诚,,,,,,,,,0,131,131,91,,,,,,,,,,,j,0,1.42450594902,,,,moral_self_bias,02,20,60.0528036928,m,001,2018_Apr_02_0921,
,,,,,,,,,,,,,,,,,,,,,,material/26.png,1,刻苦,material/126.png,1,material/26.png,勤快,1,f,f,f,2,2,2,刻苦,,,,,,,,,0,132,132,105,,,,,,,,,,,j,0,0.815603017807,,,,moral_self_bias,02,20,60.0528036928,m,001,2018_Apr_02_0921,
,,,,,,,,,,,,,,,,,,,,,,material/130.png,1,进取,material/30.png,1,material/130.png,上进,1,j,j,j,2,2,2,进取,,,,,,,,,0,133,133,29,0,0,0,0,,,,,,,f,0,0.924251079559,f,1,0.241441011429,moral_self_bias,02,20,60.0528036928,m,001,2018_Apr_02_0921,
,,,,,,,,,,,,,,,,,,,,,,material/130.png,1,进取,material/30.png,1,material/130.png,上进,1,j,j,j,2,2,2,进取,,,,,,,,,0,133,133,29,,,,,,,,,,,,,,,,,moral_self_bias,02,20,60.0528036928,m,001,2018_Apr_02_0921,
,,,,,,,,,,,,,,,,,,,,,,material/120.png,1,能干,material/20.png,1,material/120.png,厉害,1,j,j,j,2,2,2,能干,,,,,,,,,0,134,134,19,0,0,0,0,,,,,,,f,0,3.95847415924,j,0,0.95095705986,moral_self_bias,02,20,60.0528036928,m,001,2018_Apr_02_0921,
,,,,,,,,,,,,,,,,,,,,,,material/120.png,1,能干,material/20.png,1,material/120.png,厉害,1,j,j,j,2,2,2,能干,,,,,,,,,0,134,134,19,,,,,,,,,,,,,,,,,moral_self_bias,02,20,60.0528036928,m,001,2018_Apr_02_0921,
,,,,,,,,,,,,,,,,,,,,,,material/132.png,2,不忠,material/32.png,2,material/32.png,不忠,2,j,j,j,1,1,1,背叛,,,,,,,,,0,135,135,31,0,0,0,0,,,,,,,f,0,1.6741528511,f,1,0.292158842087,moral_self_bias,02,20,60.0528036928,m,001,2018_Apr_02_0921,
,,,,,,,,,,,,,,,,,,,,,,material/132.png,2,不忠,material/32.png,2,material/32.png,不忠,2,j,j,j,1,1,1,背叛,,,,,,,,,0,135,135,31,,,,,,,,,,,,,,,,,moral_self_bias,02,20,60.0528036928,m,001,2018_Apr_02_0921,
,,,,,,,,,,,,,,,,,,,,,,material/76.png,2,放纵,material/176.png,2,material/176.png,放纵,2,f,f,f,1,1,1,虚伪,,,,,,,,,0,136,136,155,,,,,,,,,,,j,0,6.14100909233,,,,moral_self_bias,02,20,60.0528036928,m,001,2018_Apr_02_0921,
,,,,,,,,,,,,,,,,,,,,,,material/156.png,2,愚钝,material/56.png,2,material/156.png,愚昧,2,j,j,j,2,2,2,愚钝,,,,,,,,,0,137,137,55,,,,,,,,,,,j,1,0.990885972977,,,,moral_self_bias,02,20,60.0528036928,m,001,2018_Apr_02_0921,
,,,,,,,,,,,,,,,,,,,,,,material/35.png,2,冷血,material/135.png,2,material/135.png,冷血,2,f,f,f,1,1,1,冷漠,,,,,,,,,0,138,138,114,,,,,,,,,,,j,0,0.658116817474,,,,moral_self_bias,02,20,60.0528036928,m,001,2018_Apr_02_0921,
,,,,,,,,,,,,,,,,,,,,,,material/62.png,1,坚韧,material/162.png,1,material/62.png,敬业,1,f,f,f,1,1,1,坚韧,,,,,,,,,0,139,139,141,,,,,,,,,,,j,0,0.79087305069,,,,moral_self_bias,02,20,60.0528036928,m,001,2018_Apr_02_0921,
,,,,,,,,,,,,,,,,,,,,,,material/13.png,1,廉明,material/113.png,1,material/113.png,廉明,1,f,f,f,1,1,1,廉洁,,,,,,,,,0,140,140,92,,,,,,,,,,,j,0,1.02443194389,,,,moral_self_bias,02,20,60.0528036928,m,001,2018_Apr_02_0921,
,,,,,,,,,,,,,,,,,,,,,,material/27.png,1,卓越,material/127.png,1,material/27.png,超群,1,f,f,f,2,2,2,卓越,,,,,,,,,0,141,141,106,,,,,,,,,,,j,0,1.5904250145,,,,moral_self_bias,02,20,60.0528036928,m,001,2018_Apr_02_0921,
,,,,,,,,,,,,,,,,,,,,,,material/140.png,2,邪恶,material/40.png,2,material/40.png,邪恶,2,j,j,j,1,1,1,狠毒,,,,,,,,,0,142,142,39,,,,,,,,,,,j,1,0.683705091476,,,,moral_self_bias,02,20,60.0528036928,m,001,2018_Apr_02_0921,
,,,,,,,,,,,,,,,,,,,,,,material/39.png,2,恶毒,material/139.png,2,material/139.png,恶毒,2,f,f,f,1,1,1,凶残,,,,,,,,,0,143,143,118,,,,,,,,,,,j,0,0.717698097229,,,,moral_self_bias,02,20,60.0528036928,m,001,2018_Apr_02_0921,
,,,,,,,,,,,,,,,,,,,,,,material/173.png,2,不义,material/174.png,2,material/174.png,不义,2,f,f,f,1,1,1,黑心,,,,,,,,,0,144,144,153,,,,,,,,,,,j,0,2.20792603493,,,,moral_self_bias,02,20,60.0528036928,m,001,2018_Apr_02_0921,
,,,,,,,,,,,,,,,,,,,,,,material/176.png,2,害人,material/75.png,2,material/75.png,害人,2,j,j,j,1,1,1,放纵,,,,,,,,,0,145,145,71,,,,,,,,,,,j,1,1.42449998856,,,,moral_self_bias,02,20,60.0528036928,m,001,2018_Apr_02_0921,
,,,,,,,,,,,,,,,,,,,,,,material/102.png,1,善心,material/2.png,1,material/2.png,善心,1,j,j,j,1,1,1,爱心,,,,,,,,,0,146,146,1,,,,,,,,,,,j,1,1.97464704514,,,,moral_self_bias,02,20,60.0528036928,m,001,2018_Apr_02_0921,
,,,,,,,,,,,,,,,,,,,,,,material/42.png,2,奸诈,material/142.png,2,material/142.png,奸诈,2,f,f,f,1,1,1,阴险,,,,,,,,,0,147,147,121,,,,,,,,,,,j,0,2.69117999077,,,,moral_self_bias,02,20,60.0528036928,m,001,2018_Apr_02_0921,
,,,,,,,,,,,,,,,,,,,,,,material/64.png,1,谦虚,material/165.png,1,material/65.png,独立,1,f,f,f,1,1,1,奉献,,,,,,,,,0,148,148,144,,,,,,,,,,,j,0,2.52422904968,,,,moral_self_bias,02,20,60.0528036928,m,001,2018_Apr_02_0921,
,,,,,,,,,,,,,,,,,,,,,,material/77.png,2,浮夸,material/172.png,2,material/172.png,浮夸,2,f,f,f,1,1,1,软弱,,,,,,,,,0,149,149,151,0,0,0,0,,,,,,,f,1,3.12519693375,f,1,0.408407211304,moral_self_bias,02,20,60.0528036928,m,001,2018_Apr_02_0921,
,,,,,,,,,,,,,,,,,,,,,,material/77.png,2,浮夸,material/172.png,2,material/172.png,浮夸,2,f,f,f,1,1,1,软弱,,,,,,,,,0,149,149,151,,,,,,,,,,,,,,,,,moral_self_bias,02,20,60.0528036928,m,001,2018_Apr_02_0921,
,,,,,,,,,,,,,,,,,,,,,,material/184.png,2,草率,material/80.png,2,material/78.png,健忘,2,j,j,j,2,2,2,厌学,,,,,,,,,0,150,150,76,0,0,0,0,,,,,,,f,0,2.77429294586,f,1,0.874197006226,moral_self_bias,02,20,60.0528036928,m,001,2018_Apr_02_0921,
,,,,,,,,,,,,,,,,,,,,,,material/184.png,2,草率,material/80.png,2,material/78.png,健忘,2,j,j,j,2,2,2,厌学,,,,,,,,,0,150,150,76,,,,,,,,,,,,,,,,,moral_self_bias,02,20,60.0528036928,m,001,2018_Apr_02_0921,
,,,,,,,,,,,,,,,,,,,,,,material/75.png,2,卑劣,material/74.png,2,material/74.png,卑劣,2,j,j,j,1,1,1,害人,,,,,,,,,0,151,151,70,,,,,,,,,,,j,1,1.45745611191,,,,moral_self_bias,02,20,60.0528036928,m,001,2018_Apr_02_0921,
,,,,,,,,,,,,,,,,,,,,,,material/133.png,2,腐败,material/33.png,2,material/33.png,腐败,2,j,j,j,1,1,1,贪污,,,,,,,,,0,152,152,32,0,0,0,0,,,,,,,f,0,1.60737681389,j,0,0.357872009277,moral_self_bias,02,20,60.0528036928,m,001,2018_Apr_02_0921,
,,,,,,,,,,,,,,,,,,,,,,material/133.png,2,腐败,material/33.png,2,material/33.png,腐败,2,j,j,j,1,1,1,贪污,,,,,,,,,0,152,152,32,,,,,,,,,,,,,,,,,moral_self_bias,02,20,60.0528036928,m,001,2018_Apr_02_0921,
,,,,,,,,,,,,,,,,,,,,,,material/142.png,2,阴险,material/42.png,2,material/42.png,阴险,2,j,j,j,1,1,1,奸诈,,,,,,,,,0,153,153,41,,,,,,,,,,,j,1,3.09203219414,,,,moral_self_bias,02,20,60.0528036928,m,001,2018_Apr_02_0921,
,,,,,,,,,,,,,,,,,,,,,,material/175.png,2,残虐,material/73.png,2,material/73.png,残虐,2,f,f,f,1,1,1,无情,,,,,,,,,0,154,154,165,0,0,0,0,,,,,,,f,1,1.1244738102,f,1,0.290637969971,moral_self_bias,02,20,60.0528036928,m,001,2018_Apr_02_0921,
,,,,,,,,,,,,,,,,,,,,,,material/175.png,2,残虐,material/73.png,2,material/73.png,残虐,2,f,f,f,1,1,1,无情,,,,,,,,,0,154,154,165,,,,,,,,,,,,,,,,,moral_self_bias,02,20,60.0528036928,m,001,2018_Apr_02_0921,
,,,,,,,,,,,,,,,,,,,,,,material/70.png,1,全面,material/168.png,1,material/70.png,机变,1,f,f,f,2,2,2,全面,,,,,,,,,0,155,155,147,0,0,0,0,,,,,,,f,1,4.57326006889,j,0,1.22448015213,moral_self_bias,02,20,60.0528036928,m,001,2018_Apr_02_0921,
,,,,,,,,,,,,,,,,,,,,,,material/70.png,1,全面,material/168.png,1,material/70.png,机变,1,f,f,f,2,2,2,全面,,,,,,,,,0,155,155,147,,,,,,,,,,,,,,,,,moral_self_bias,02,20,60.0528036928,m,001,2018_Apr_02_0921,
,,,,,,,,,,,,,,,,,,,,,,material/24.png,1,理智,material/124.png,1,material/24.png,冷静,1,f,f,f,2,2,2,理智,,,,,,,,,0,156,156,103,,,,,,,,,,,j,0,1.12533211708,,,,moral_self_bias,02,20,60.0528036928,m,001,2018_Apr_02_0921,
,,,,,,,,,,,,,,,,,,,,,,material/161.png,1,奉献,material/164.png,1,material/64.png,孝顺,1,f,f,f,1,1,1,勇敢,,,,,,,,,0,157,157,143,,,,,,,,,,,j,0,0.690750837326,,,,moral_self_bias,02,20,60.0528036928,m,001,2018_Apr_02_0921,
,,,,,,,,,,,,,,,,,,,,,,material/153.png,2,迟钝,material/53.png,2,material/153.png,迟缓,2,j,j,j,2,2,2,迟钝,,,,,,,,,0,158,158,52,0,0,0,0,,,,,,,f,0,1.20880007744,j,0,0.340585947037,moral_self_bias,02,20,60.0528036928,m,001,2018_Apr_02_0921,
,,,,,,,,,,,,,,,,,,,,,,material/153.png,2,迟钝,material/53.png,2,material/153.png,迟缓,2,j,j,j,2,2,2,迟钝,,,,,,,,,0,158,158,52,,,,,,,,,,,,,,,,,moral_self_bias,02,20,60.0528036928,m,001,2018_Apr_02_0921,
,,,,,,,,,,,,,,,,,,,,,,material/47.png,2,死板,material/147.png,2,material/47.png,刻板,2,f,f,f,2,2,2,死板,,,,,,,,,0,159,159,126,0,0,0,0,,,,,,,f,1,2.07407402992,j,0,0.84216094017,moral_self_bias,02,20,60.0528036928,m,001,2018_Apr_02_0921,
,,,,,,,,,,,,,,,,,,,,,,material/47.png,2,死板,material/147.png,2,material/47.png,刻板,2,f,f,f,2,2,2,死板,,,,,,,,,0,159,159,126,,,,,,,,,,,,,,,,,moral_self_bias,02,20,60.0528036928,m,001,2018_Apr_02_0921,
,,,,,,,,,,,,,,,,,,,,,,material/152.png,2,缓慢,material/52.png,2,material/152.png,拖延,2,j,j,j,2,2,2,缓慢,,,,,,,,,0,160,160,51,,,,,,,,,,,j,1,1.10790705681,,,,moral_self_bias,02,20,60.0528036928,m,001,2018_Apr_02_0921,
,,,,,,,,,,,,,,,,,,,,,,material/135.png,2,冷漠,material/35.png,2,material/35.png,冷漠,2,j,j,j,1,1,1,冷血,,,,,,,,,0,161,161,34,0,0,0,0,,,,,,,f,0,7.75830888748,j,0,0.157152175903,moral_self_bias,02,20,60.0528036928,m,001,2018_Apr_02_0921,
,,,,,,,,,,,,,,,,,,,,,,material/135.png,2,冷漠,material/35.png,2,material/35.png,冷漠,2,j,j,j,1,1,1,冷血,,,,,,,,,0,161,161,34,,,,,,,,,,,,,,,,,moral_self_bias,02,20,60.0528036928,m,001,2018_Apr_02_0921,
,,,,,,,,,,,,,,,,,,,,,,material/5.png,1,诚信,material/105.png,1,material/105.png,诚信,1,f,f,f,1,1,1,守信,,,,,,,,,0,162,162,84,0,0,0,0,,,,,,,f,1,1.49149513245,f,1,0.225221157074,moral_self_bias,02,20,60.0528036928,m,001,2018_Apr_02_0921,
,,,,,,,,,,,,,,,,,,,,,,material/5.png,1,诚信,material/105.png,1,material/105.png,诚信,1,f,f,f,1,1,1,守信,,,,,,,,,0,162,162,84,,,,,,,,,,,,,,,,,moral_self_bias,02,20,60.0528036928,m,001,2018_Apr_02_0921,
,,,,,,,,,,,,,,,,,,,,,,material/151.png,2,迷糊,material/51.png,2,material/151.png,糊涂,2,j,j,j,2,2,2,迷糊,,,,,,,,,0,163,163,50,,,,,,,,,,,j,1,5.62476396561,,,,moral_self_bias,02,20,60.0528036928,m,001,2018_Apr_02_0921,
,,,,,,,,,,,,,,,,,,,,,,material/11.png,1,高尚,material/111.png,1,material/111.png,高尚,1,f,f,f,1,1,1,高雅,,,,,,,,,0,164,164,90,0,0,0,0,,,,,,,f,1,1.10847115517,f,1,0.275087118149,moral_self_bias,02,20,60.0528036928,m,001,2018_Apr_02_0921,
,,,,,,,,,,,,,,,,,,,,,,material/11.png,1,高尚,material/111.png,1,material/111.png,高尚,1,f,f,f,1,1,1,高雅,,,,,,,,,0,164,164,90,,,,,,,,,,,,,,,,,moral_self_bias,02,20,60.0528036928,m,001,2018_Apr_02_0921,
,,,,,,,,,,,,,,,,,,,,,,material/46.png,2,自私,material/146.png,2,material/146.png,自私,2,f,f,f,1,1,1,小气,,,,,,,,,0,165,165,125,0,0,0,0,,,,,,,f,1,3.22537708282,j,0,0.325312852859,moral_self_bias,02,20,60.0528036928,m,001,2018_Apr_02_0921,
,,,,,,,,,,,,,,,,,,,,,,material/46.png,2,自私,material/146.png,2,material/146.png,自私,2,f,f,f,1,1,1,小气,,,,,,,,,0,165,165,125,,,,,,,,,,,,,,,,,moral_self_bias,02,20,60.0528036928,m,001,2018_Apr_02_0921,
,,,,,,,,,,,,,,,,,,,,,,material/145.png,2,下流,material/45.png,2,material/45.png,下流,2,j,j,j,1,1,1,小人,,,,,,,,,0,166,166,44,0,0,0,0,,,,,,,f,0,1.27483701706,j,0,0.141695022583,moral_self_bias,02,20,60.0528036928,m,001,2018_Apr_02_0921,
,,,,,,,,,,,,,,,,,,,,,,material/145.png,2,下流,material/45.png,2,material/45.png,下流,2,j,j,j,1,1,1,小人,,,,,,,,,0,166,166,44,,,,,,,,,,,,,,,,,moral_self_bias,02,20,60.0528036928,m,001,2018_Apr_02_0921,
,,,,,,,,,,,,,,,,,,,,,,material/68.png,1,广博,material/167.png,1,material/68.png,高手,1,f,f,f,2,2,2,广博,,,,,,,,,0,167,167,146,0,0,0,0,,,,,,,f,1,1.20769000053,j,0,0.141748905182,moral_self_bias,02,20,60.0528036928,m,001,2018_Apr_02_0921,
,,,,,,,,,,,,,,,,,,,,,,material/68.png,1,广博,material/167.png,1,material/68.png,高手,1,f,f,f,2,2,2,广博,,,,,,,,,0,167,167,146,,,,,,,,,,,,,,,,,moral_self_bias,02,20,60.0528036928,m,001,2018_Apr_02_0921,
