Block1_Old,Num_Source3,Num_Source2,Num_Source1,valence1,valence2,valence3,Num_Old2,Corr_S1,Num_Old1,Corr_S3,Corr_S2,Block3_Old,Block2_Old,Source_2,Source_3,Source_1,domain3,domain2,domain1,Num_Old3,math,Num_All2,valence_all1,All_Words3,Num_All1,valence_all2,Num_All3,All_Words1,valence_all3,Corr_Rec2,Corr_Rec3,Corr_Rec1,domian_all3,domian_all2,domian_all1,All_Words2,trials.thisRepN,trials.thisTrialN,trials.thisN,trials.thisIndex,trials_2.thisRepN,trials_2.thisTrialN,trials_2.thisN,trials_2.thisIndex,trials_4.thisRepN,trials_4.thisTrialN,trials_4.thisN,trials_4.thisIndex,trials_3.thisRepN,trials_3.thisTrialN,trials_3.thisN,trials_3.thisIndex,block_resp_1.keys,block_resp_1.rt,words_rating.keys,words_rating.rt,block_resp_2.keys,block_resp_2.rt,Rec_resp.keys,Rec_resp.corr,Rec_resp.rt,Source_resp.keys,Source_resp.corr,Source_resp.rt,expName,participant,Age,frameRate,Sex,session,date,
,,,,,,,,,,,,,,,,,,,,,,,,,,,,,,,,,,,,,,,,,,,,,,,,,,,,,1,4.61445093155,,,,,,,,,,,moral_self_bias,13,19,59.9638584532,f,001,2018_Apr_02_1447,
卑鄙,material/instr2_2.png,material/instr2_2.png,material/instr2_2.png,2,2,2,material/37.png,j,material/137.png,j,j,卑鄙,无耻,friend,friend,friend,1,1,1,material/137.png,,,,,,,,,,,,,,,,,0,0,0,36,,,,,,,,,,,,,,,1,2.66653704643,,,,,,,,,moral_self_bias,13,19,59.9638584532,f,001,2018_Apr_02_1447,
差生,material/instr2_2.png,material/instr2_2.png,material/instr2_2.png,2,2,2,material/81.png,j,material/179.png,j,j,呆笨,无助,friend,friend,friend,2,2,2,material/83.png,,,,,,,,,,,,,,,,,0,1,1,78,,,,,,,,,,,,,,,1,0.938844919205,,,,,,,,,moral_self_bias,13,19,59.9638584532,f,001,2018_Apr_02_1447,
虚荣,material/instr2_1.png,material/instr2_1.png,material/instr2_1.png,2,2,2,material/43.png,f,material/143.png,f,f,虚荣,拜金,self,self,self,1,1,1,material/143.png,,,,,,,,,,,,,,,,,0,2,2,42,,,,,,,,,,,,,,,4,2.12162494659,,,,,,,,,moral_self_bias,13,19,59.9638584532,f,001,2018_Apr_02_1447,
恶心,material/instr2_1.png,material/instr2_1.png,material/instr2_1.png,2,2,2,material/73.png,f,material/177.png,f,f,恶心,残虐,self,self,self,1,1,1,material/177.png,,,,,,,,,,,,,,,,,0,3,3,76,,,,,,,,,,,,,,,1,1.10940909386,,,,,,,,,moral_self_bias,13,19,59.9638584532,f,001,2018_Apr_02_1447,
恶毒,material/instr2_2.png,material/instr2_2.png,material/instr2_2.png,2,2,2,material/39.png,j,material/139.png,j,j,恶毒,凶残,friend,friend,friend,1,1,1,material/139.png,,,,,,,,,,,,,,,,,0,4,4,38,,,,,,,,,,,,,,,1,0.916676044464,,,,,,,,,moral_self_bias,13,19,59.9638584532,f,001,2018_Apr_02_1447,
高手,material/instr2_2.png,material/instr2_2.png,material/instr2_2.png,1,1,1,material/68.png,j,material/167.png,j,j,广博,广博,friend,friend,friend,2,2,2,material/68.png,,,,,,,,,,,,,,,,,0,5,5,66,,,,,,,,,,,,,,,5,1.1256301403,,,,,,,,,moral_self_bias,13,19,59.9638584532,f,001,2018_Apr_02_1447,
撒谎,material/instr2_1.png,material/instr2_1.png,material/instr2_1.png,2,2,2,material/36.png,f,material/136.png,f,f,撒谎,说谎,self,self,self,1,1,1,material/136.png,,,,,,,,,,,,,,,,,0,6,6,35,,,,,,,,,,,,,,,2,1.91683292389,,,,,,,,,moral_self_bias,13,19,59.9638584532,f,001,2018_Apr_02_1447,
能干,material/instr2_2.png,material/instr2_2.png,material/instr2_2.png,1,1,1,material/20.png,j,material/120.png,j,j,厉害,厉害,friend,friend,friend,2,2,2,material/20.png,,,,,,,,,,,,,,,,,0,7,7,19,,,,,,,,,,,,,,,5,1.34241008759,,,,,,,,,moral_self_bias,13,19,59.9638584532,f,001,2018_Apr_02_1447,
博学,material/instr2_1.png,material/instr2_1.png,material/instr2_1.png,1,1,1,material/22.png,f,material/122.png,f,f,才学,才学,self,self,self,2,2,2,material/22.png,,,,,,,,,,,,,,,,,0,8,8,21,,,,,,,,,,,,,,,4,1.56583094597,,,,,,,,,moral_self_bias,13,19,59.9638584532,f,001,2018_Apr_02_1447,
机灵,material/instr2_2.png,material/instr2_2.png,material/instr2_2.png,1,1,1,material/19.png,j,material/119.png,j,j,灵活,灵活,friend,friend,friend,2,2,2,material/19.png,,,,,,,,,,,,,,,,,0,9,9,18,,,,,,,,,,,,,,,4,1.90925312042,,,,,,,,,moral_self_bias,13,19,59.9638584532,f,001,2018_Apr_02_1447,
公平,material/instr2_2.png,material/instr2_2.png,material/instr2_2.png,1,1,1,material/7.png,j,material/107.png,j,j,公平,公正,friend,friend,friend,1,1,1,material/107.png,,,,,,,,,,,,,,,,,0,10,10,6,,,,,,,,,,,,,,,4,1.22546100616,,,,,,,,,moral_self_bias,13,19,59.9638584532,f,001,2018_Apr_02_1447,
仁厚,material/instr2_1.png,material/instr2_1.png,material/instr2_1.png,1,1,1,material/3.png,f,material/103.png,f,f,仁厚,仁慈,self,self,self,1,1,1,material/103.png,,,,,,,,,,,,,,,,,0,11,11,2,,,,,,,,,,,,,,,4,1.79996609688,,,,,,,,,moral_self_bias,13,19,59.9638584532,f,001,2018_Apr_02_1447,
高尚,material/instr2_1.png,material/instr2_1.png,material/instr2_1.png,1,1,1,material/11.png,f,material/111.png,f,f,高尚,高雅,self,self,self,1,1,1,material/111.png,,,,,,,,,,,,,,,,,0,12,12,10,,,,,,,,,,,,,,,4,0.84247803688,,,,,,,,,moral_self_bias,13,19,59.9638584532,f,001,2018_Apr_02_1447,
奸诈,material/instr2_1.png,material/instr2_1.png,material/instr2_1.png,2,2,2,material/42.png,f,material/142.png,f,f,奸诈,阴险,self,self,self,1,1,1,material/142.png,,,,,,,,,,,,,,,,,0,13,13,41,,,,,,,,,,,,,,,1,1.19358897209,,,,,,,,,moral_self_bias,13,19,59.9638584532,f,001,2018_Apr_02_1447,
独立,material/instr2_1.png,material/instr2_1.png,material/instr2_1.png,1,1,1,material/64.png,f,material/165.png,f,f,谦虚,奉献,self,self,self,1,1,1,material/65.png,,,,,,,,,,,,,,,,,0,14,14,64,,,,,,,,,,,,,,,4,1.97468209267,,,,,,,,,moral_self_bias,13,19,59.9638584532,f,001,2018_Apr_02_1447,
颖悟,material/instr2_2.png,material/instr2_2.png,material/instr2_2.png,1,1,1,material/167.png,j,material/169.png,j,j,高手,高手,friend,friend,friend,2,2,2,material/167.png,,,,,,,,,,,,,,,,,0,15,15,68,,,,,,,,,,,,,,,5,1.79176998138,,,,,,,,,moral_self_bias,13,19,59.9638584532,f,001,2018_Apr_02_1447,
浅薄,material/instr2_2.png,material/instr2_2.png,material/instr2_2.png,2,2,2,material/58.png,j,material/158.png,j,j,肤浅,肤浅,friend,friend,friend,2,2,2,material/58.png,,,,,,,,,,,,,,,,,0,16,16,57,,,,,,,,,,,,,,,1,1.42572999001,,,,,,,,,moral_self_bias,13,19,59.9638584532,f,001,2018_Apr_02_1447,
贪污,material/instr2_1.png,material/instr2_1.png,material/instr2_1.png,2,2,2,material/33.png,f,material/133.png,f,f,贪污,腐败,self,self,self,1,1,1,material/133.png,,,,,,,,,,,,,,,,,0,17,17,32,,,,,,,,,,,,,,,1,1.42459917068,,,,,,,,,moral_self_bias,13,19,59.9638584532,f,001,2018_Apr_02_1447,
鲁钝,material/instr2_2.png,material/instr2_2.png,material/instr2_2.png,2,2,2,material/50.png,j,material/150.png,j,j,愚笨,愚笨,friend,friend,friend,2,2,2,material/50.png,,,,,,,,,,,,,,,,,0,18,18,49,,,,,,,,,,,,,,,1,2.00867295265,,,,,,,,,moral_self_bias,13,19,59.9638584532,f,001,2018_Apr_02_1447,
坚忍,material/instr2_1.png,material/instr2_1.png,material/instr2_1.png,1,1,1,material/168.png,f,material/170.png,f,f,机变,机变,self,self,self,2,2,2,material/168.png,,,,,,,,,,,,,,,,,0,19,19,69,,,,,,,,,,,,,,,4,1.21680593491,,,,,,,,,moral_self_bias,13,19,59.9638584532,f,001,2018_Apr_02_1447,
坚毅,material/instr2_2.png,material/instr2_2.png,material/instr2_2.png,1,1,1,material/10.png,j,material/110.png,j,j,坚毅,顽强,friend,friend,friend,1,1,1,material/110.png,,,,,,,,,,,,,,,,,0,20,20,9,,,,,,,,,,,,,,,5,1.62570500374,,,,,,,,,moral_self_bias,13,19,59.9638584532,f,001,2018_Apr_02_1447,
黑心,material/instr2_2.png,material/instr2_2.png,material/instr2_2.png,2,2,2,material/74.png,j,material/173.png,j,j,黑心,卑劣,friend,friend,friend,1,1,1,material/173.png,,,,,,,,,,,,,,,,,0,21,21,72,,,,,,,,,,,,,,,1,1.3428208828,,,,,,,,,moral_self_bias,13,19,59.9638584532,f,001,2018_Apr_02_1447,
可恶,material/instr2_1.png,material/instr2_1.png,material/instr2_1.png,2,2,2,material/34.png,f,material/134.png,f,f,可恶,可恨,self,self,self,1,1,1,material/134.png,,,,,,,,,,,,,,,,,0,22,22,33,,,,,,,,,,,,,,,1,2.79171991348,,,,,,,,,moral_self_bias,13,19,59.9638584532,f,001,2018_Apr_02_1447,
厌学,material/instr2_2.png,material/instr2_2.png,material/instr2_2.png,2,2,2,material/182.png,j,material/184.png,j,j,健忘,才尽,friend,friend,friend,2,2,2,material/80.png,,,,,,,,,,,,,,,,,0,23,23,83,,,,,,,,,,,,,,,1,1.19139099121,,,,,,,,,moral_self_bias,13,19,59.9638584532,f,001,2018_Apr_02_1447,
缓慢,material/instr2_1.png,material/instr2_1.png,material/instr2_1.png,2,2,2,material/52.png,f,material/152.png,f,f,拖延,拖延,self,self,self,2,2,2,material/52.png,,,,,,,,,,,,,,,,,0,24,24,51,,,,,,,,,,,,,,,1,1.77531886101,,,,,,,,,moral_self_bias,13,19,59.9638584532,f,001,2018_Apr_02_1447,
笨拙,material/instr2_1.png,material/instr2_1.png,material/instr2_1.png,2,2,2,material/60.png,f,material/160.png,f,f,粗拙,粗拙,self,self,self,2,2,2,material/60.png,,,,,,,,,,,,,,,,,0,25,25,59,,,,,,,,,,,,,,,4,1.20888280869,,,,,,,,,moral_self_bias,13,19,59.9638584532,f,001,2018_Apr_02_1447,
笃行,material/instr2_1.png,material/instr2_1.png,material/instr2_1.png,1,1,1,material/31.png,f,material/131.png,f,f,笃学,笃学,self,self,self,2,2,2,material/31.png,,,,,,,,,,,,,,,,,0,26,26,30,,,,,,,,,,,,,,,4,1.15875315666,,,,,,,,,moral_self_bias,13,19,59.9638584532,f,001,2018_Apr_02_1447,
忠心,material/instr2_1.png,material/instr2_1.png,material/instr2_1.png,1,1,1,material/12.png,f,material/112.png,f,f,忠心,忠诚,self,self,self,1,1,1,material/112.png,,,,,,,,,,,,,,,,,0,27,27,11,,,,,,,,,,,,,,,4,0.858427047729,,,,,,,,,moral_self_bias,13,19,59.9638584532,f,001,2018_Apr_02_1447,
小人,material/instr2_2.png,material/instr2_2.png,material/instr2_2.png,2,2,2,material/45.png,j,material/145.png,j,j,小人,下流,friend,friend,friend,1,1,1,material/145.png,,,,,,,,,,,,,,,,,0,28,28,44,,,,,,,,,,,,,,,1,0.975027084351,,,,,,,,,moral_self_bias,13,19,59.9638584532,f,001,2018_Apr_02_1447,
高明,material/instr2_1.png,material/instr2_1.png,material/instr2_1.png,1,1,1,material/69.png,f,material/69.png,f,f,高明,高明,self,self,self,2,2,2,material/69.png,,,,,,,,,,,,,,,,,0,29,29,86,,,,,,,,,,,,,,,4,1.19220495224,,,,,,,,,moral_self_bias,13,19,59.9638584532,f,001,2018_Apr_02_1447,
敬业,material/instr2_2.png,material/instr2_2.png,material/instr2_2.png,1,1,1,material/62.png,j,material/162.png,j,j,坚韧,坚韧,friend,friend,friend,1,1,1,material/62.png,,,,,,,,,,,,,,,,,0,30,30,61,,,,,,,,,,,,,,,5,1.3419148922,,,,,,,,,moral_self_bias,13,19,59.9638584532,f,001,2018_Apr_02_1447,
白痴,material/instr2_2.png,material/instr2_2.png,material/instr2_2.png,2,2,2,material/49.png,j,material/149.png,j,j,痴呆,痴呆,friend,friend,friend,2,2,2,material/49.png,,,,,,,,,,,,,,,,,0,31,31,48,,,,,,,,,,,,,,,1,1.04220294952,,,,,,,,,moral_self_bias,13,19,59.9638584532,f,001,2018_Apr_02_1447,
缺德,material/instr2_2.png,material/instr2_2.png,material/instr2_2.png,2,2,2,material/38.png,j,material/138.png,j,j,缺德,无德,friend,friend,friend,1,1,1,material/138.png,,,,,,,,,,,,,,,,,0,32,32,37,,,,,,,,,,,,,,,1,0.775404214859,,,,,,,,,moral_self_bias,13,19,59.9638584532,f,001,2018_Apr_02_1447,
迷糊,material/instr2_2.png,material/instr2_2.png,material/instr2_2.png,2,2,2,material/51.png,j,material/151.png,j,j,糊涂,糊涂,friend,friend,friend,2,2,2,material/51.png,,,,,,,,,,,,,,,,,0,33,33,50,,,,,,,,,,,,,,,4,1.3256380558,,,,,,,,,moral_self_bias,13,19,59.9638584532,f,001,2018_Apr_02_1447,
残忍,material/instr2_2.png,material/instr2_2.png,material/instr2_2.png,2,2,2,material/41.png,j,material/141.png,j,j,残忍,歹毒,friend,friend,friend,1,1,1,material/141.png,,,,,,,,,,,,,,,,,0,34,34,40,,,,,,,,,,,,,,,1,0.849568128586,,,,,,,,,moral_self_bias,13,19,59.9638584532,f,001,2018_Apr_02_1447,
勤快,material/instr2_2.png,material/instr2_2.png,material/instr2_2.png,1,1,1,material/26.png,j,material/126.png,j,j,刻苦,刻苦,friend,friend,friend,2,2,2,material/26.png,,,,,,,,,,,,,,,,,0,35,35,25,,,,,,,,,,,,,,,5,1.09976291656,,,,,,,,,moral_self_bias,13,19,59.9638584532,f,001,2018_Apr_02_1447,
廉明,material/instr2_2.png,material/instr2_2.png,material/instr2_2.png,1,1,1,material/13.png,j,material/113.png,j,j,廉明,廉洁,friend,friend,friend,1,1,1,material/113.png,,,,,,,,,,,,,,,,,0,36,36,12,,,,,,,,,,,,,,,4,2.2256231308,,,,,,,,,moral_self_bias,13,19,59.9638584532,f,001,2018_Apr_02_1447,
爽约,material/instr2_2.png,material/instr2_2.png,material/instr2_2.png,2,2,2,material/44.png,j,material/144.png,j,j,爽约,失信,friend,friend,friend,1,1,1,material/144.png,,,,,,,,,,,,,,,,,0,37,37,43,,,,,,,,,,,,,,,1,1.03322386742,,,,,,,,,moral_self_bias,13,19,59.9638584532,f,001,2018_Apr_02_1447,
进取,material/instr2_1.png,material/instr2_1.png,material/instr2_1.png,1,1,1,material/30.png,f,material/130.png,f,f,上进,上进,self,self,self,2,2,2,material/30.png,,,,,,,,,,,,,,,,,0,38,38,29,,,,,,,,,,,,,,,5,1.30957198143,,,,,,,,,moral_self_bias,13,19,59.9638584532,f,001,2018_Apr_02_1447,
机敏,material/instr2_2.png,material/instr2_2.png,material/instr2_2.png,1,1,1,material/18.png,j,material/118.png,j,j,敏锐,敏锐,friend,friend,friend,2,2,2,material/18.png,,,,,,,,,,,,,,,,,0,39,39,17,,,,,,,,,,,,,,,5,1.49279999733,,,,,,,,,moral_self_bias,13,19,59.9638584532,f,001,2018_Apr_02_1447,
机智,material/instr2_2.png,material/instr2_2.png,material/instr2_2.png,1,1,1,material/16.png,j,material/116.png,j,j,睿智,睿智,friend,friend,friend,2,2,2,material/16.png,,,,,,,,,,,,,,,,,0,40,40,15,,,,,,,,,,,,,,,5,0.859261989594,,,,,,,,,moral_self_bias,13,19,59.9638584532,f,001,2018_Apr_02_1447,
残虐,material/instr2_1.png,material/instr2_1.png,material/instr2_1.png,2,2,2,material/175.png,f,material/73.png,f,f,残虐,无情,self,self,self,1,1,1,material/73.png,,,,,,,,,,,,,,,,,0,41,41,85,,,,,,,,,,,,,,,1,0.942499876022,,,,,,,,,moral_self_bias,13,19,59.9638584532,f,001,2018_Apr_02_1447,
自私,material/instr2_2.png,material/instr2_2.png,material/instr2_2.png,2,2,2,material/46.png,j,material/146.png,j,j,自私,小气,friend,friend,friend,1,1,1,material/146.png,,,,,,,,,,,,,,,,,0,42,42,45,,,,,,,,,,,,,,,1,1.19199800491,,,,,,,,,moral_self_bias,13,19,59.9638584532,f,001,2018_Apr_02_1447,
盲目,material/instr2_1.png,material/instr2_1.png,material/instr2_1.png,2,2,2,material/55.png,f,material/155.png,f,f,盲从,盲从,self,self,self,2,2,2,material/55.png,,,,,,,,,,,,,,,,,0,43,43,54,,,,,,,,,,,,,,,None,,,,,,,,,,moral_self_bias,13,19,59.9638584532,f,001,2018_Apr_02_1447,
狠毒,material/instr2_2.png,material/instr2_2.png,material/instr2_2.png,2,2,2,material/40.png,j,material/140.png,j,j,狠毒,邪恶,friend,friend,friend,1,1,1,material/140.png,,,,,,,,,,,,,,,,,0,44,44,39,,,,,,,,,,,,,,,1,1.02535891533,,,,,,,,,moral_self_bias,13,19,59.9638584532,f,001,2018_Apr_02_1447,
无情,material/instr2_1.png,material/instr2_1.png,material/instr2_1.png,2,2,2,material/172.png,f,material/175.png,f,f,无情,浮夸,self,self,self,1,1,1,material/175.png,,,,,,,,,,,,,,,,,0,45,45,74,,,,,,,,,,,,,,,1,1.67521095276,,,,,,,,,moral_self_bias,13,19,59.9638584532,f,001,2018_Apr_02_1447,
怠惰,material/instr2_2.png,material/instr2_2.png,material/instr2_2.png,2,2,2,material/181.png,j,material/180.png,j,j,怠惰,犹豫,friend,friend,friend,2,2,2,material/180.png,,,,,,,,,,,,,,,,,0,46,46,79,,,,,,,,,,,,,,,1,0.959128141403,,,,,,,,,moral_self_bias,13,19,59.9638584532,f,001,2018_Apr_02_1447,
依靠,material/instr2_1.png,material/instr2_1.png,material/instr2_1.png,2,2,2,material/54.png,f,material/154.png,f,f,依赖,依赖,self,self,self,2,2,2,material/54.png,,,,,,,,,,,,,,,,,0,47,47,53,,,,,,,,,,,,,,,1,2.57568001747,,,,,,,,,moral_self_bias,13,19,59.9638584532,f,001,2018_Apr_02_1447,
浮夸,material/instr2_2.png,material/instr2_2.png,material/instr2_2.png,2,2,2,material/77.png,j,material/172.png,j,j,浮夸,软弱,friend,friend,friend,1,1,1,material/172.png,,,,,,,,,,,,,,,,,0,48,48,71,,,,,,,,,,,,,,,1,0.92592215538,,,,,,,,,moral_self_bias,13,19,59.9638584532,f,001,2018_Apr_02_1447,
正直,material/instr2_2.png,material/instr2_2.png,material/instr2_2.png,1,1,1,material/9.png,j,material/109.png,j,j,正直,秉直,friend,friend,friend,1,1,1,material/109.png,,,,,,,,,,,,,,,,,0,49,49,8,,,,,,,,,,,,,,,4,1.42453193665,,,,,,,,,moral_self_bias,13,19,59.9638584532,f,001,2018_Apr_02_1447,
博爱,material/instr2_1.png,material/instr2_1.png,material/instr2_1.png,1,1,1,material/1.png,f,material/101.png,f,f,博爱,善良,self,self,self,1,1,1,material/101.png,,,,,,,,,,,,,,,,,0,50,50,0,,,,,,,,,,,,,,,4,0.941457986832,,,,,,,,,moral_self_bias,13,19,59.9638584532,f,001,2018_Apr_02_1447,
机变,material/instr2_2.png,material/instr2_2.png,material/instr2_2.png,1,1,1,material/70.png,j,material/168.png,j,j,全面,全面,friend,friend,friend,2,2,2,material/70.png,,,,,,,,,,,,,,,,,0,51,51,67,,,,,,,,,,,,,,,4,1.32548904419,,,,,,,,,moral_self_bias,13,19,59.9638584532,f,001,2018_Apr_02_1447,
犹豫,material/instr2_1.png,material/instr2_1.png,material/instr2_1.png,2,2,2,material/78.png,f,material/181.png,f,f,厌学,草率,self,self,self,2,2,2,material/184.png,,,,,,,,,,,,,,,,,0,52,52,80,,,,,,,,,,,,,,,4,1.32564616203,,,,,,,,,moral_self_bias,13,19,59.9638584532,f,001,2018_Apr_02_1447,
诚信,material/instr2_1.png,material/instr2_1.png,material/instr2_1.png,1,1,1,material/5.png,f,material/105.png,f,f,诚信,守信,self,self,self,1,1,1,material/105.png,,,,,,,,,,,,,,,,,0,53,53,4,,,,,,,,,,,,,,,5,1.30944395065,,,,,,,,,moral_self_bias,13,19,59.9638584532,f,001,2018_Apr_02_1447,
放纵,material/instr2_1.png,material/instr2_1.png,material/instr2_1.png,2,2,2,material/76.png,f,material/176.png,f,f,放纵,虚伪,self,self,self,1,1,1,material/176.png,,,,,,,,,,,,,,,,,0,54,54,75,,,,,,,,,,,,,,,1,1.49241185188,,,,,,,,,moral_self_bias,13,19,59.9638584532,f,001,2018_Apr_02_1447,
不义,material/instr2_2.png,material/instr2_2.png,material/instr2_2.png,2,2,2,material/173.png,j,material/174.png,j,j,不义,黑心,friend,friend,friend,1,1,1,material/174.png,,,,,,,,,,,,,,,,,0,55,55,73,,,,,,,,,,,,,,,1,1.69261288643,,,,,,,,,moral_self_bias,13,19,59.9638584532,f,001,2018_Apr_02_1447,
勇敢,material/instr2_2.png,material/instr2_2.png,material/instr2_2.png,1,1,1,material/165.png,j,material/161.png,j,j,平等,独立,friend,friend,friend,1,1,1,material/61.png,,,,,,,,,,,,,,,,,0,56,56,60,,,,,,,,,,,,,,,4,1.25851202011,,,,,,,,,moral_self_bias,13,19,59.9638584532,f,001,2018_Apr_02_1447,
薄弱,material/instr2_1.png,material/instr2_1.png,material/instr2_1.png,2,2,2,material/82.png,f,material/183.png,f,f,毛糙,窝囊,self,self,self,2,2,2,material/178.png,,,,,,,,,,,,,,,,,0,57,57,82,,,,,,,,,,,,,,,2,1.90854883194,,,,,,,,,moral_self_bias,13,19,59.9638584532,f,001,2018_Apr_02_1447,
好问,material/instr2_1.png,material/instr2_1.png,material/instr2_1.png,1,1,1,material/29.png,f,material/129.png,f,f,好学,好学,self,self,self,2,2,2,material/29.png,,,,,,,,,,,,,,,,,0,58,58,28,,,,,,,,,,,,,,,4,1.10925197601,,,,,,,,,moral_self_bias,13,19,59.9638584532,f,001,2018_Apr_02_1447,
自律,material/instr2_2.png,material/instr2_2.png,material/instr2_2.png,1,1,1,material/28.png,j,material/128.png,j,j,克己,克己,friend,friend,friend,2,2,2,material/28.png,,,,,,,,,,,,,,,,,0,59,59,27,,,,,,,,,,,,,,,4,1.20877480507,,,,,,,,,moral_self_bias,13,19,59.9638584532,f,001,2018_Apr_02_1447,
纯洁,material/instr2_2.png,material/instr2_2.png,material/instr2_2.png,1,1,1,material/15.png,j,material/115.png,j,j,纯洁,清白,friend,friend,friend,1,1,1,material/115.png,,,,,,,,,,,,,,,,,0,60,60,14,,,,,,,,,,,,,,,4,0.859148025513,,,,,,,,,moral_self_bias,13,19,59.9638584532,f,001,2018_Apr_02_1447,
正义,material/instr2_1.png,material/instr2_1.png,material/instr2_1.png,1,1,1,material/66.png,f,material/66.png,f,f,独立,正义,self,self,self,1,1,1,material/165.png,,,,,,,,,,,,,,,,,0,61,61,84,,,,,,,,,,,,,,,4,0.759494066238,,,,,,,,,moral_self_bias,13,19,59.9638584532,f,001,2018_Apr_02_1447,
无私,material/instr2_2.png,material/instr2_2.png,material/instr2_2.png,1,1,1,material/8.png,j,material/108.png,j,j,无私,公道,friend,friend,friend,1,1,1,material/108.png,,,,,,,,,,,,,,,,,0,62,62,7,,,,,,,,,,,,,,,4,1.34238195419,,,,,,,,,moral_self_bias,13,19,59.9638584532,f,001,2018_Apr_02_1447,
孝顺,material/instr2_1.png,material/instr2_1.png,material/instr2_1.png,1,1,1,material/161.png,f,material/164.png,f,f,奉献,勇敢,self,self,self,1,1,1,material/64.png,,,,,,,,,,,,,,,,,0,63,63,63,,,,,,,,,,,,,,,4,1.00908303261,,,,,,,,,moral_self_bias,13,19,59.9638584532,f,001,2018_Apr_02_1447,
高效,material/instr2_1.png,material/instr2_1.png,material/instr2_1.png,1,1,1,material/169.png,f,material/171.png,f,f,颖悟,颖悟,self,self,self,2,2,2,material/169.png,,,,,,,,,,,,,,,,,0,64,64,70,,,,,,,,,,,,,,,4,0.799502134323,,,,,,,,,moral_self_bias,13,19,59.9638584532,f,001,2018_Apr_02_1447,
刻板,material/instr2_2.png,material/instr2_2.png,material/instr2_2.png,2,2,2,material/47.png,j,material/147.png,j,j,死板,死板,friend,friend,friend,2,2,2,material/47.png,,,,,,,,,,,,,,,,,0,65,65,46,,,,,,,,,,,,,,,1,1.15908288956,,,,,,,,,moral_self_bias,13,19,59.9638584532,f,001,2018_Apr_02_1447,
笨蛋,material/instr2_2.png,material/instr2_2.png,material/instr2_2.png,2,2,2,material/48.png,j,material/148.png,j,j,愚蠢,愚蠢,friend,friend,friend,2,2,2,material/48.png,,,,,,,,,,,,,,,,,0,66,66,47,,,,,,,,,,,,,,,1,1.45878911018,,,,,,,,,moral_self_bias,13,19,59.9638584532,f,001,2018_Apr_02_1447,
厚道,material/instr2_2.png,material/instr2_2.png,material/instr2_2.png,1,1,1,material/6.png,j,material/106.png,j,j,厚道,诚实,friend,friend,friend,1,1,1,material/106.png,,,,,,,,,,,,,,,,,0,67,67,5,,,,,,,,,,,,,,,4,1.00904893875,,,,,,,,,moral_self_bias,13,19,59.9638584532,f,001,2018_Apr_02_1447,
顽愚,material/instr2_1.png,material/instr2_1.png,material/instr2_1.png,2,2,2,material/84.png,f,material/84.png,f,f,犹豫,顽愚,self,self,self,2,2,2,material/181.png,,,,,,,,,,,,,,,,,0,68,68,87,,,,,,,,,,,,,,,4,1.54146313667,,,,,,,,,moral_self_bias,13,19,59.9638584532,f,001,2018_Apr_02_1447,
背叛,material/instr2_1.png,material/instr2_1.png,material/instr2_1.png,2,2,2,material/32.png,f,material/132.png,f,f,背叛,不忠,self,self,self,1,1,1,material/132.png,,,,,,,,,,,,,,,,,0,69,69,31,,,,,,,,,,,,,,,1,1.09233808517,,,,,,,,,moral_self_bias,13,19,59.9638584532,f,001,2018_Apr_02_1447,
迟钝,material/instr2_1.png,material/instr2_1.png,material/instr2_1.png,2,2,2,material/53.png,f,material/153.png,f,f,迟缓,迟缓,self,self,self,2,2,2,material/53.png,,,,,,,,,,,,,,,,,0,70,70,52,,,,,,,,,,,,,,,4,1.63304305077,,,,,,,,,moral_self_bias,13,19,59.9638584532,f,001,2018_Apr_02_1447,
精干,material/instr2_1.png,material/instr2_1.png,material/instr2_1.png,1,1,1,material/21.png,f,material/121.png,f,f,干练,干练,self,self,self,2,2,2,material/21.png,,,,,,,,,,,,,,,,,0,71,71,20,,,,,,,,,,,,,,,4,1.12590384483,,,,,,,,,moral_self_bias,13,19,59.9638584532,f,001,2018_Apr_02_1447,
无能,material/instr2_2.png,material/instr2_2.png,material/instr2_2.png,2,2,2,material/57.png,j,material/157.png,j,j,无知,无知,friend,friend,friend,2,2,2,material/57.png,,,,,,,,,,,,,,,,,0,72,72,56,,,,,,,,,,,,,,,1,1.14228582382,,,,,,,,,moral_self_bias,13,19,59.9638584532,f,001,2018_Apr_02_1447,
冷静,material/instr2_1.png,material/instr2_1.png,material/instr2_1.png,1,1,1,material/24.png,f,material/124.png,f,f,理智,理智,self,self,self,2,2,2,material/24.png,,,,,,,,,,,,,,,,,0,73,73,23,,,,,,,,,,,,,,,4,1.29236602783,,,,,,,,,moral_self_bias,13,19,59.9638584532,f,001,2018_Apr_02_1447,
冷血,material/instr2_1.png,material/instr2_1.png,material/instr2_1.png,2,2,2,material/35.png,f,material/135.png,f,f,冷血,冷漠,self,self,self,1,1,1,material/135.png,,,,,,,,,,,,,,,,,0,74,74,34,,,,,,,,,,,,,,,1,1.24203586578,,,,,,,,,moral_self_bias,13,19,59.9638584532,f,001,2018_Apr_02_1447,
宽容,material/instr2_2.png,material/instr2_2.png,material/instr2_2.png,1,1,1,material/163.png,j,material/163.png,j,j,文明,宽容,friend,friend,friend,1,1,1,material/63.png,,,,,,,,,,,,,,,,,0,75,75,62,,,,,,,,,,,,,,,5,1.92579984665,,,,,,,,,moral_self_bias,13,19,59.9638584532,f,001,2018_Apr_02_1447,
聪颖,material/instr2_2.png,material/instr2_2.png,material/instr2_2.png,1,1,1,material/17.png,j,material/117.png,j,j,聪明,聪明,friend,friend,friend,2,2,2,material/17.png,,,,,,,,,,,,,,,,,0,76,76,16,,,,,,,,,,,,,,,5,1.39287304878,,,,,,,,,moral_self_bias,13,19,59.9638584532,f,001,2018_Apr_02_1447,
仗义,material/instr2_1.png,material/instr2_1.png,material/instr2_1.png,1,1,1,material/63.png,f,material/166.png,f,f,正义,文明,self,self,self,1,1,1,material/66.png,,,,,,,,,,,,,,,,,0,77,77,65,,,,,,,,,,,,,,,4,1.42562699318,,,,,,,,,moral_self_bias,13,19,59.9638584532,f,001,2018_Apr_02_1447,
果敢,material/instr2_1.png,material/instr2_1.png,material/instr2_1.png,1,1,1,material/25.png,f,material/125.png,f,f,果断,果断,self,self,self,2,2,2,material/25.png,,,,,,,,,,,,,,,,,0,78,78,24,,,,,,,,,,,,,,,4,0.732592105865,,,,,,,,,moral_self_bias,13,19,59.9638584532,f,001,2018_Apr_02_1447,
多才,material/instr2_1.png,material/instr2_1.png,material/instr2_1.png,1,1,1,material/23.png,f,material/123.png,f,f,有才,有才,self,self,self,2,2,2,material/23.png,,,,,,,,,,,,,,,,,0,79,79,22,,,,,,,,,,,,,,,4,0.725820064545,,,,,,,,,moral_self_bias,13,19,59.9638584532,f,001,2018_Apr_02_1447,
忠贞,material/instr2_2.png,material/instr2_2.png,material/instr2_2.png,1,1,1,material/14.png,j,material/114.png,j,j,忠贞,爱国,friend,friend,friend,1,1,1,material/114.png,,,,,,,,,,,,,,,,,0,80,80,13,,,,,,,,,,,,,,,4,0.774900913239,,,,,,,,,moral_self_bias,13,19,59.9638584532,f,001,2018_Apr_02_1447,
才尽,material/instr2_1.png,material/instr2_1.png,material/instr2_1.png,2,2,2,material/183.png,f,material/182.png,f,f,颓废,薄弱,self,self,self,2,2,2,material/79.png,,,,,,,,,,,,,,,,,0,81,81,81,,,,,,,,,,,,,,,1,2.14269804955,,,,,,,,,moral_self_bias,13,19,59.9638584532,f,001,2018_Apr_02_1447,
毛糙,material/instr2_2.png,material/instr2_2.png,material/instr2_2.png,2,2,2,material/179.png,j,material/178.png,j,j,顽愚,差生,friend,friend,friend,2,2,2,material/84.png,,,,,,,,,,,,,,,,,0,82,82,77,,,,,,,,,,,,,,,1,1.70837283134,,,,,,,,,moral_self_bias,13,19,59.9638584532,f,001,2018_Apr_02_1447,
爱心,material/instr2_1.png,material/instr2_1.png,material/instr2_1.png,1,1,1,material/2.png,f,material/102.png,f,f,爱心,善心,self,self,self,1,1,1,material/102.png,,,,,,,,,,,,,,,,,0,83,83,1,,,,,,,,,,,,,,,4,1.1423470974,,,,,,,,,moral_self_bias,13,19,59.9638584532,f,001,2018_Apr_02_1447,
弱智,material/instr2_1.png,material/instr2_1.png,material/instr2_1.png,2,2,2,material/59.png,f,material/159.png,f,f,智障,智障,self,self,self,2,2,2,material/59.png,,,,,,,,,,,,,,,,,0,84,84,58,,,,,,,,,,,,,,,1,1.14136695862,,,,,,,,,moral_self_bias,13,19,59.9638584532,f,001,2018_Apr_02_1447,
友善,material/instr2_1.png,material/instr2_1.png,material/instr2_1.png,1,1,1,material/4.png,f,material/104.png,f,f,友善,友爱,self,self,self,1,1,1,material/104.png,,,,,,,,,,,,,,,,,0,85,85,3,,,,,,,,,,,,,,,4,0.89159488678,,,,,,,,,moral_self_bias,13,19,59.9638584532,f,001,2018_Apr_02_1447,
超群,material/instr2_2.png,material/instr2_2.png,material/instr2_2.png,1,1,1,material/27.png,j,material/127.png,j,j,卓越,卓越,friend,friend,friend,2,2,2,material/27.png,,,,,,,,,,,,,,,,,0,86,86,26,,,,,,,,,,,,,,,4,1.34936404228,,,,,,,,,moral_self_bias,13,19,59.9638584532,f,001,2018_Apr_02_1447,
愚钝,material/instr2_1.png,material/instr2_1.png,material/instr2_1.png,2,2,2,material/56.png,f,material/156.png,f,f,愚昧,愚昧,self,self,self,2,2,2,material/56.png,,,,,,,,,,,,,,,,,0,87,87,55,,,,,,,,,,,,,,,1,2.04164814949,,,,,,,,,moral_self_bias,13,19,59.9638584532,f,001,2018_Apr_02_1447,
,,,,,,,,,,,,,,,,,,,,,6+2= ?,,,,,,,,,,,,,,,,,,,,0,0,0,44,,,,,,,,,,,,,,,,,,,,,moral_self_bias,13,19,59.9638584532,f,001,2018_Apr_02_1447,
,,,,,,,,,,,,,,,,,,,,,1+2= ?,,,,,,,,,,,,,,,,,,,,0,1,1,1,,,,,,,,,,,,,,,,,,,,,moral_self_bias,13,19,59.9638584532,f,001,2018_Apr_02_1447,
,,,,,,,,,,,,,,,,,,,,,5+4= ?,,,,,,,,,,,,,,,,,,,,0,2,2,37,,,,,,,,,,,,,,,,,,,,,moral_self_bias,13,19,59.9638584532,f,001,2018_Apr_02_1447,
,,,,,,,,,,,,,,,,,,,,,9-3= ?,,,,,,,,,,,,,,,,,,,,0,3,3,15,,,,,,,,,,,,,,,,,,,,,moral_self_bias,13,19,59.9638584532,f,001,2018_Apr_02_1447,
,,,,,,,,,,,,,,,,,,,,,9-7= ?,,,,,,,,,,,,,,,,,,,,0,4,4,30,,,,,,,,,,,,,,,,,,,,,moral_self_bias,13,19,59.9638584532,f,001,2018_Apr_02_1447,
,,,,,,,,,,,,,,,,,,,,,8-5= ?,,,,,,,,,,,,,,,,,,,,0,5,5,41,,,,,,,,,,,,,,,,,,,,,moral_self_bias,13,19,59.9638584532,f,001,2018_Apr_02_1447,
,,,,,,,,,,,,,,,,,,,,,11-5= ?,,,,,,,,,,,,,,,,,,,,0,6,6,107,,,,,,,,,,,,,,,,,,,,,moral_self_bias,13,19,59.9638584532,f,001,2018_Apr_02_1447,
,,,,,,,,,,,,,,,,,,,,,3+3= ?,,,,,,,,,,,,,,,,,,,,0,7,7,18,,,,,,,,,,,,,,,,,,,,,moral_self_bias,13,19,59.9638584532,f,001,2018_Apr_02_1447,
,,,,,,,,,,,,,,,,,,,,,12-5=？,,,,,,,,,,,,,,,,,,,,0,8,8,65,,,,,,,,,,,,,,,,,,,,,moral_self_bias,13,19,59.9638584532,f,001,2018_Apr_02_1447,
,,,,,,,,,,,,,,,,,,,,,7+2= ?,,,,,,,,,,,,,,,,,,,,0,9,9,47,,,,,,,,,,,,,,,,,,,,,moral_self_bias,13,19,59.9638584532,f,001,2018_Apr_02_1447,
,,,,,,,,,,,,,,,,,,,,,22-22= ?,,,,,,,,,,,,,,,,,,,,0,10,10,93,,,,,,,,,,,,,,,,,,,,,moral_self_bias,13,19,59.9638584532,f,001,2018_Apr_02_1447,
,,,,,,,,,,,,,,,,,,,,,5*0= ?,,,,,,,,,,,,,,,,,,,,0,11,11,86,,,,,,,,,,,,,,,,,,,,,moral_self_bias,13,19,59.9638584532,f,001,2018_Apr_02_1447,
,,,,,,,,,,,,,,,,,,,,,22/11= ?,,,,,,,,,,,,,,,,,,,,0,12,12,71,,,,,,,,,,,,,,,,,,,,,moral_self_bias,13,19,59.9638584532,f,001,2018_Apr_02_1447,
,,,,,,,,,,,,,,,,,,,,,43-34= ?,,,,,,,,,,,,,,,,,,,,0,13,13,79,,,,,,,,,,,,,,,,,,,,,moral_self_bias,13,19,59.9638584532,f,001,2018_Apr_02_1447,
,,,,,,,,,,,,,,,,,,,,,11-4=？,,,,,,,,,,,,,,,,,,,,0,14,14,66,,,,,,,,,,,,,,,,,,,,,moral_self_bias,13,19,59.9638584532,f,001,2018_Apr_02_1447,
,,,,,,,,,,,,,,,,,,,,,6^0= ?,,,,,,,,,,,,,,,,,,,,0,15,15,114,,,,,,,,,,,,,,,,,,,,,moral_self_bias,13,19,59.9638584532,f,001,2018_Apr_02_1447,
,,,,,,,,,,,,,,,,,,,,,18/9= ?,,,,,,,,,,,,,,,,,,,,0,16,16,96,,,,,,,,,,,,,,,,,,,,,moral_self_bias,13,19,59.9638584532,f,001,2018_Apr_02_1447,
,,,,,,,,,,,,,,,,,,,,,17-12= ? ,,,,,,,,,,,,,,,,,,,,0,17,17,104,,,,,,,,,,,,,,,,,,,,,moral_self_bias,13,19,59.9638584532,f,001,2018_Apr_02_1447,
,,,,,,,,,,,,,,,,,,,,,7-0= ?,,,,,,,,,,,,,,,,,,,,0,18,18,117,,,,,,,,,,,,,,,,,,,,,moral_self_bias,13,19,59.9638584532,f,001,2018_Apr_02_1447,
,,,,,,,,,,,,,,,,,,,,,7+1= ?,,,,,,,,,,,,,,,,,,,,0,19,19,46,,,,,,,,,,,,,,,,,,,,,moral_self_bias,13,19,59.9638584532,f,001,2018_Apr_02_1447,
,,,,,,,,,,,,,,,,,,,,,8-1= ?,,,,,,,,,,,,,,,,,,,,0,20,20,33,,,,,,,,,,,,,,,,,,,,,moral_self_bias,13,19,59.9638584532,f,001,2018_Apr_02_1447,
,,,,,,,,,,,,,,,,,,,,,2+7= ?,,,,,,,,,,,,,,,,,,,,0,21,21,13,,,,,,,,,,,,,,,,,,,,,moral_self_bias,13,19,59.9638584532,f,001,2018_Apr_02_1447,
,,,,,,,,,,,,,,,,,,,,,5+3= ?,,,,,,,,,,,,,,,,,,,,0,22,22,36,,,,,,,,,,,,,,,,,,,,,moral_self_bias,13,19,59.9638584532,f,001,2018_Apr_02_1447,
,,,,,,,,,,,,,,,,,,,,,2*4= ?,,,,,,,,,,,,,,,,,,,,0,23,23,84,,,,,,,,,,,,,,,,,,,,,moral_self_bias,13,19,59.9638584532,f,001,2018_Apr_02_1447,
,,,,,,,,,,,,,,,,,,,,,11-8= ?,,,,,,,,,,,,,,,,,,,,0,24,24,106,,,,,,,,,,,,,,,,,,,,,moral_self_bias,13,19,59.9638584532,f,001,2018_Apr_02_1447,
,,,,,,,,,,,,,,,,,,,,,12-7= ?,,,,,,,,,,,,,,,,,,,,0,25,25,115,,,,,,,,,,,,,,,,,,,,,moral_self_bias,13,19,59.9638584532,f,001,2018_Apr_02_1447,
,,,,,,,,,,,,,,,,,,,,,13-9= ?,,,,,,,,,,,,,,,,,,,,0,26,26,92,,,,,,,,,,,,,,,,,,,,,moral_self_bias,13,19,59.9638584532,f,001,2018_Apr_02_1447,
,,,,,,,,,,,,,,,,,,,,,2+5= ?,,,,,,,,,,,,,,,,,,,,0,27,27,11,,,,,,,,,,,,,,,,,,,,,moral_self_bias,13,19,59.9638584532,f,001,2018_Apr_02_1447,
,,,,,,,,,,,,,,,,,,,,,1-1= ?,,,,,,,,,,,,,,,,,,,,0,28,28,52,,,,,,,,,,,,,,,,,,,,,moral_self_bias,13,19,59.9638584532,f,001,2018_Apr_02_1447,
,,,,,,,,,,,,,,,,,,,,,3+1= ?,,,,,,,,,,,,,,,,,,,,0,29,29,16,,,,,,,,,,,,,,,,,,,,,moral_self_bias,13,19,59.9638584532,f,001,2018_Apr_02_1447,
,,,,,,,,,,,,,,,,,,,,,49/7 = ?,,,,,,,,,,,,,,,,,,,,0,30,30,78,,,,,,,,,,,,,,,,,,,,,moral_self_bias,13,19,59.9638584532,f,001,2018_Apr_02_1447,
,,,,,,,,,,,,,,,,,,,,,1+1= ?,,,,,,,,,,,,,,,,,,,,0,31,31,0,,,,,,,,,,,,,,,,,,,,,moral_self_bias,13,19,59.9638584532,f,001,2018_Apr_02_1447,
,,,,,,,,,,,,,,,,,,,,,8-3= ?,,,,,,,,,,,,,,,,,,,,0,32,32,39,,,,,,,,,,,,,,,,,,,,,moral_self_bias,13,19,59.9638584532,f,001,2018_Apr_02_1447,
,,,,,,,,,,,,,,,,,,,,,1^2= ?,,,,,,,,,,,,,,,,,,,,0,33,33,51,,,,,,,,,,,,,,,,,,,,,moral_self_bias,13,19,59.9638584532,f,001,2018_Apr_02_1447,
,,,,,,,,,,,,,,,,,,,,,3*2= ?,,,,,,,,,,,,,,,,,,,,0,34,34,53,,,,,,,,,,,,,,,,,,,,,moral_self_bias,13,19,59.9638584532,f,001,2018_Apr_02_1447,
,,,,,,,,,,,,,,,,,,,,,4*2= ?,,,,,,,,,,,,,,,,,,,,0,35,35,82,,,,,,,,,,,,,,,,,,,,,moral_self_bias,13,19,59.9638584532,f,001,2018_Apr_02_1447,
,,,,,,,,,,,,,,,,,,,,,3+5= ?,,,,,,,,,,,,,,,,,,,,0,36,36,20,,,,,,,,,,,,,,,,,,,,,moral_self_bias,13,19,59.9638584532,f,001,2018_Apr_02_1447,
,,,,,,,,,,,,,,,,,,,,,4+3= ?,,,,,,,,,,,,,,,,,,,,0,37,37,27,,,,,,,,,,,,,,,,,,,,,moral_self_bias,13,19,59.9638584532,f,001,2018_Apr_02_1447,
,,,,,,,,,,,,,,,,,,,,,3+4= ?,,,,,,,,,,,,,,,,,,,,0,38,38,19,,,,,,,,,,,,,,,,,,,,,moral_self_bias,13,19,59.9638584532,f,001,2018_Apr_02_1447,
,,,,,,,,,,,,,,,,,,,,,21/3= ? ,,,,,,,,,,,,,,,,,,,,0,39,39,95,,,,,,,,,,,,,,,,,,,,,moral_self_bias,13,19,59.9638584532,f,001,2018_Apr_02_1447,
,,,,,,,,,,,,,,,,,,,,,2+2= ?,,,,,,,,,,,,,,,,,,,,0,40,40,8,,,,,,,,,,,,,,,,,,,,,moral_self_bias,13,19,59.9638584532,f,001,2018_Apr_02_1447,
,,,,,,,,,,,,,,,,,,,,,81/9= ?,,,,,,,,,,,,,,,,,,,,0,41,41,75,,,,,,,,,,,,,,,,,,,,,moral_self_bias,13,19,59.9638584532,f,001,2018_Apr_02_1447,
,,,,,,,,,,,,,,,,,,,,,9-2= ?,,,,,,,,,,,,,,,,,,,,0,42,42,14,,,,,,,,,,,,,,,,,,,,,moral_self_bias,13,19,59.9638584532,f,001,2018_Apr_02_1447,
,,,,,,,,,,,,,,,,,,,,,30-29= ?,,,,,,,,,,,,,,,,,,,,0,43,43,73,,,,,,,,,,,,,,,,,,,,,moral_self_bias,13,19,59.9638584532,f,001,2018_Apr_02_1447,
,,,,,,,,,,,,,,,,,,,,,5-3= ?,,,,,,,,,,,,,,,,,,,,0,44,44,116,,,,,,,,,,,,,,,,,,,,,moral_self_bias,13,19,59.9638584532,f,001,2018_Apr_02_1447,
,,,,,,,,,,,,,,,,,,,,,1*8= ?,,,,,,,,,,,,,,,,,,,,0,45,45,110,,,,,,,,,,,,,,,,,,,,,moral_self_bias,13,19,59.9638584532,f,001,2018_Apr_02_1447,
,,,,,,,,,,,,,,,,,,,,,7*1= ?,,,,,,,,,,,,,,,,,,,,0,46,46,113,,,,,,,,,,,,,,,,,,,,,moral_self_bias,13,19,59.9638584532,f,001,2018_Apr_02_1447,
,,,,,,,,,,,,,,,,,,,,,6+3= ?,,,,,,,,,,,,,,,,,,,,0,47,47,45,,,,,,,,,,,,,,,,,,,,,moral_self_bias,13,19,59.9638584532,f,001,2018_Apr_02_1447,
,,,,,,,,,,,,,,,,,,,,,1+9= ?,,,,,,,,,,,,,,,,,,,,0,48,48,3,,,,,,,,,,,,,,,,,,,,,moral_self_bias,13,19,59.9638584532,f,001,2018_Apr_02_1447,
,,,,,,,,,,,,,,,,,,,,,8-6= ?,,,,,,,,,,,,,,,,,,,,0,49,49,42,,,,,,,,,,,,,,,,,,,,,moral_self_bias,13,19,59.9638584532,f,001,2018_Apr_02_1447,
,,,,,,,,,,,,,,,,,,,,,12-12= ?,,,,,,,,,,,,,,,,,,,,0,50,50,99,,,,,,,,,,,,,,,,,,,,,moral_self_bias,13,19,59.9638584532,f,001,2018_Apr_02_1447,
,,,,,,,,,,,,,,,,,,,,,9-1=?,,,,,,,,,,,,,,,,,,,,0,51,51,2,,,,,,,,,,,,,,,,,,,,,moral_self_bias,13,19,59.9638584532,f,001,2018_Apr_02_1447,
,,,,,,,,,,,,,,,,,,,,,4+5= ?,,,,,,,,,,,,,,,,,,,,0,52,52,29,,,,,,,,,,,,,,,,,,,,,moral_self_bias,13,19,59.9638584532,f,001,2018_Apr_02_1447,
,,,,,,,,,,,,,,,,,,,,,15-10=？,,,,,,,,,,,,,,,,,,,,0,53,53,61,,,,,,,,,,,,,,,,,,,,,moral_self_bias,13,19,59.9638584532,f,001,2018_Apr_02_1447,
,,,,,,,,,,,,,,,,,,,,,32-32= ?,,,,,,,,,,,,,,,,,,,,0,54,54,80,,,,,,,,,,,,,,,,,,,,,moral_self_bias,13,19,59.9638584532,f,001,2018_Apr_02_1447,
,,,,,,,,,,,,,,,,,,,,,1+8= ?,,,,,,,,,,,,,,,,,,,,0,55,55,6,,,,,,,,,,,,,,,,,,,,,moral_self_bias,13,19,59.9638584532,f,001,2018_Apr_02_1447,
,,,,,,,,,,,,,,,,,,,,,4^1= ?,,,,,,,,,,,,,,,,,,,,0,56,56,102,,,,,,,,,,,,,,,,,,,,,moral_self_bias,13,19,59.9638584532,f,001,2018_Apr_02_1447,
,,,,,,,,,,,,,,,,,,,,,29-27= ?,,,,,,,,,,,,,,,,,,,,0,57,57,72,,,,,,,,,,,,,,,,,,,,,moral_self_bias,13,19,59.9638584532,f,001,2018_Apr_02_1447,
,,,,,,,,,,,,,,,,,,,,,3+0= ?,,,,,,,,,,,,,,,,,,,,0,58,58,105,,,,,,,,,,,,,,,,,,,,,moral_self_bias,13,19,59.9638584532,f,001,2018_Apr_02_1447,
,,,,,,,,,,,,,,,,,,,,,3*3= ?,,,,,,,,,,,,,,,,,,,,0,59,59,54,,,,,,,,,,,,,,,,,,,,,moral_self_bias,13,19,59.9638584532,f,001,2018_Apr_02_1447,
,,,,,,,,,,,,,,,,,,,,,3^2= ?,,,,,,,,,,,,,,,,,,,,0,60,60,50,,,,,,,,,,,,,,,,,,,,,moral_self_bias,13,19,59.9638584532,f,001,2018_Apr_02_1447,
,,,,,,,,,,,,,,,,,,,,,9-9= ?,,,,,,,,,,,,,,,,,,,,0,61,61,32,,,,,,,,,,,,,,,,,,,,,moral_self_bias,13,19,59.9638584532,f,001,2018_Apr_02_1447,
,,,,,,,,,,,,,,,,,,,,,6/2= ?,,,,,,,,,,,,,,,,,,,,0,62,62,58,,,,,,,,,,,,,,,,,,,,,moral_self_bias,13,19,59.9638584532,f,001,2018_Apr_02_1447,
,,,,,,,,,,,,,,,,,,,,,8/4= ?,,,,,,,,,,,,,,,,,,,,0,63,63,57,,,,,,,,,,,,,,,,,,,,,moral_self_bias,13,19,59.9638584532,f,001,2018_Apr_02_1447,
,,,,,,,,,,,,,,,,,,,,,4+1= ?,,,,,,,,,,,,,,,,,,,,0,64,64,25,,,,,,,,,,,,,,,,,,,,,moral_self_bias,13,19,59.9638584532,f,001,2018_Apr_02_1447,
,,,,,,,,,,,,,,,,,,,,,6*0= ?,,,,,,,,,,,,,,,,,,,,0,65,65,87,,,,,,,,,,,,,,,,,,,,,moral_self_bias,13,19,59.9638584532,f,001,2018_Apr_02_1447,
,,,,,,,,,,,,,,,,,,,,,13-6=？,,,,,,,,,,,,,,,,,,,,0,66,66,64,,,,,,,,,,,,,,,,,,,,,moral_self_bias,13,19,59.9638584532,f,001,2018_Apr_02_1447,
,,,,,,,,,,,,,,,,,,,,,16-11=？,,,,,,,,,,,,,,,,,,,,0,67,67,62,,,,,,,,,,,,,,,,,,,,,moral_self_bias,13,19,59.9638584532,f,001,2018_Apr_02_1447,
,,,,,,,,,,,,,,,,,,,,,4/4= ?,,,,,,,,,,,,,,,,,,,,0,68,68,55,,,,,,,,,,,,,,,,,,,,,moral_self_bias,13,19,59.9638584532,f,001,2018_Apr_02_1447,
,,,,,,,,,,,,,,,,,,,,,4+4= ?,,,,,,,,,,,,,,,,,,,,0,69,69,28,,,,,,,,,,,,,,,,,,,,,moral_self_bias,13,19,59.9638584532,f,001,2018_Apr_02_1447,
,,,,,,,,,,,,,,,,,,,,,12/4= ?,,,,,,,,,,,,,,,,,,,,0,70,70,89,,,,,,,,,,,,,,,,,,,,,moral_self_bias,13,19,59.9638584532,f,001,2018_Apr_02_1447,
,,,,,,,,,,,,,,,,,,,,,50-42= ?,,,,,,,,,,,,,,,,,,,,0,71,71,81,,,,,,,,,,,,,,,,,,,,,moral_self_bias,13,19,59.9638584532,f,001,2018_Apr_02_1447,
,,,,,,,,,,,,,,,,,,,,,12/12= ?,,,,,,,,,,,,,,,,,,,,0,72,72,91,,,,,,,,,,,,,,,,,,,,,moral_self_bias,13,19,59.9638584532,f,001,2018_Apr_02_1447,
,,,,,,,,,,,,,,,,,,,,,90/45= ?,,,,,,,,,,,,,,,,,,,,0,73,73,74,,,,,,,,,,,,,,,,,,,,,moral_self_bias,13,19,59.9638584532,f,001,2018_Apr_02_1447,
,,,,,,,,,,,,,,,,,,,,,23^0= ?,,,,,,,,,,,,,,,,,,,,0,74,74,94,,,,,,,,,,,,,,,,,,,,,moral_self_bias,13,19,59.9638584532,f,001,2018_Apr_02_1447,
,,,,,,,,,,,,,,,,,,,,,2+6= ?,,,,,,,,,,,,,,,,,,,,0,75,75,12,,,,,,,,,,,,,,,,,,,,,moral_self_bias,13,19,59.9638584532,f,001,2018_Apr_02_1447,
,,,,,,,,,,,,,,,,,,,,,1+7= ?,,,,,,,,,,,,,,,,,,,,0,76,76,4,,,,,,,,,,,,,,,,,,,,,moral_self_bias,13,19,59.9638584532,f,001,2018_Apr_02_1447,
,,,,,,,,,,,,,,,,,,,,,10-9= ?,,,,,,,,,,,,,,,,,,,,0,77,77,112,,,,,,,,,,,,,,,,,,,,,moral_self_bias,13,19,59.9638584532,f,001,2018_Apr_02_1447,
,,,,,,,,,,,,,,,,,,,,,9-5= ?,,,,,,,,,,,,,,,,,,,,0,78,78,23,,,,,,,,,,,,,,,,,,,,,moral_self_bias,13,19,59.9638584532,f,001,2018_Apr_02_1447,
,,,,,,,,,,,,,,,,,,,,,56/7= ?,,,,,,,,,,,,,,,,,,,,0,79,79,77,,,,,,,,,,,,,,,,,,,,,moral_self_bias,13,19,59.9638584532,f,001,2018_Apr_02_1447,
,,,,,,,,,,,,,,,,,,,,,5/1= ?,,,,,,,,,,,,,,,,,,,,0,80,80,59,,,,,,,,,,,,,,,,,,,,,moral_self_bias,13,19,59.9638584532,f,001,2018_Apr_02_1447,
,,,,,,,,,,,,,,,,,,,,,6^0= ?,,,,,,,,,,,,,,,,,,,,0,81,81,103,,,,,,,,,,,,,,,,,,,,,moral_self_bias,13,19,59.9638584532,f,001,2018_Apr_02_1447,
,,,,,,,,,,,,,,,,,,,,,3+6= ?,,,,,,,,,,,,,,,,,,,,0,82,82,21,,,,,,,,,,,,,,,,,,,,,moral_self_bias,13,19,59.9638584532,f,001,2018_Apr_02_1447,
,,,,,,,,,,,,,,,,,,,,,3+2= ?,,,,,,,,,,,,,,,,,,,,0,83,83,17,,,,,,,,,,,,,,,,,,,,,moral_self_bias,13,19,59.9638584532,f,001,2018_Apr_02_1447,
,,,,,,,,,,,,,,,,,,,,,11-3=？,,,,,,,,,,,,,,,,,,,,0,84,84,68,,,,,,,,,,,,,,,,,,,,,moral_self_bias,13,19,59.9638584532,f,001,2018_Apr_02_1447,
,,,,,,,,,,,,,,,,,,,,,9+0= ?,,,,,,,,,,,,,,,,,,,,0,85,85,118,,,,,,,,,,,,,,,,,,,,,moral_self_bias,13,19,59.9638584532,f,001,2018_Apr_02_1447,
,,,,,,,,,,,,,,,,,,,,,2+4= ?,,,,,,,,,,,,,,,,,,,,0,86,86,10,,,,,,,,,,,,,,,,,,,,,moral_self_bias,13,19,59.9638584532,f,001,2018_Apr_02_1447,
,,,,,,,,,,,,,,,,,,,,,12/6= ?,,,,,,,,,,,,,,,,,,,,0,87,87,90,,,,,,,,,,,,,,,,,,,,,moral_self_bias,13,19,59.9638584532,f,001,2018_Apr_02_1447,
,,,,,,,,,,,,,,,,,,,,,5+2= ?,,,,,,,,,,,,,,,,,,,,0,88,88,35,,,,,,,,,,,,,,,,,,,,,moral_self_bias,13,19,59.9638584532,f,001,2018_Apr_02_1447,
,,,,,,,,,,,,,,,,,,,,,1*9= ?,,,,,,,,,,,,,,,,,,,,0,89,89,109,,,,,,,,,,,,,,,,,,,,,moral_self_bias,13,19,59.9638584532,f,001,2018_Apr_02_1447,
,,,,,,,,,,,,,,,,,,,,,8+1= ?,,,,,,,,,,,,,,,,,,,,0,90,90,48,,,,,,,,,,,,,,,,,,,,,moral_self_bias,13,19,59.9638584532,f,001,2018_Apr_02_1447,
,,,,,,,,,,,,,,,,,,,,,3*1= ?,,,,,,,,,,,,,,,,,,,,0,91,91,83,,,,,,,,,,,,,,,,,,,,,moral_self_bias,13,19,59.9638584532,f,001,2018_Apr_02_1447,
,,,,,,,,,,,,,,,,,,,,,20/5=？,,,,,,,,,,,,,,,,,,,,0,92,92,69,,,,,,,,,,,,,,,,,,,,,moral_self_bias,13,19,59.9638584532,f,001,2018_Apr_02_1447,
,,,,,,,,,,,,,,,,,,,,,1+6= ?,,,,,,,,,,,,,,,,,,,,0,93,93,5,,,,,,,,,,,,,,,,,,,,,moral_self_bias,13,19,59.9638584532,f,001,2018_Apr_02_1447,
,,,,,,,,,,,,,,,,,,,,,2^2= ?,,,,,,,,,,,,,,,,,,,,0,94,94,49,,,,,,,,,,,,,,,,,,,,,moral_self_bias,13,19,59.9638584532,f,001,2018_Apr_02_1447,
,,,,,,,,,,,,,,,,,,,,,32-23=？,,,,,,,,,,,,,,,,,,,,0,95,95,60,,,,,,,,,,,,,,,,,,,,,moral_self_bias,13,19,59.9638584532,f,001,2018_Apr_02_1447,
,,,,,,,,,,,,,,,,,,,,,2*3= ?,,,,,,,,,,,,,,,,,,,,0,96,96,108,,,,,,,,,,,,,,,,,,,,,moral_self_bias,13,19,59.9638584532,f,001,2018_Apr_02_1447,
,,,,,,,,,,,,,,,,,,,,,9-8= ?,,,,,,,,,,,,,,,,,,,,0,97,97,31,,,,,,,,,,,,,,,,,,,,,moral_self_bias,13,19,59.9638584532,f,001,2018_Apr_02_1447,
,,,,,,,,,,,,,,,,,,,,,2+1= ?,,,,,,,,,,,,,,,,,,,,0,98,98,7,,,,,,,,,,,,,,,,,,,,,moral_self_bias,13,19,59.9638584532,f,001,2018_Apr_02_1447,
,,,,,,,,,,,,,,,,,,,,,10-5=？,,,,,,,,,,,,,,,,,,,,0,99,99,67,,,,,,,,,,,,,,,,,,,,,moral_self_bias,13,19,59.9638584532,f,001,2018_Apr_02_1447,
,,,,,,,,,,,,,,,,,,,,,9/3= ?,,,,,,,,,,,,,,,,,,,,0,100,100,56,,,,,,,,,,,,,,,,,,,,,moral_self_bias,13,19,59.9638584532,f,001,2018_Apr_02_1447,
,,,,,,,,,,,,,,,,,,,,,6+1= ?,,,,,,,,,,,,,,,,,,,,0,101,101,43,,,,,,,,,,,,,,,,,,,,,moral_self_bias,13,19,59.9638584532,f,001,2018_Apr_02_1447,
,,,,,,,,,,,,,,,,,,,,,9-6= ?,,,,,,,,,,,,,,,,,,,,0,102,102,24,,,,,,,,,,,,,,,,,,,,,moral_self_bias,13,19,59.9638584532,f,001,2018_Apr_02_1447,
,,,,,,,,,,,,,,,,,,,,,5+1= ?,,,,,,,,,,,,,,,,,,,,0,103,103,34,,,,,,,,,,,,,,,,,,,,,moral_self_bias,13,19,59.9638584532,f,001,2018_Apr_02_1447,
,,,,,,,,,,,,,,,,,,,,,11-11= ?,,,,,,,,,,,,,,,,,,,,0,104,104,119,,,,,,,,,,,,,,,,,,,,,moral_self_bias,13,19,59.9638584532,f,001,2018_Apr_02_1447,
,,,,,,,,,,,,,,,,,,,,,72/9= ?,,,,,,,,,,,,,,,,,,,,0,105,105,76,,,,,,,,,,,,,,,,,,,,,moral_self_bias,13,19,59.9638584532,f,001,2018_Apr_02_1447,
,,,,,,,,,,,,,,,,,,,,,4+2= ?,,,,,,,,,,,,,,,,,,,,0,106,106,26,,,,,,,,,,,,,,,,,,,,,moral_self_bias,13,19,59.9638584532,f,001,2018_Apr_02_1447,
,,,,,,,,,,,,,,,,,,,,,2+3= ?,,,,,,,,,,,,,,,,,,,,0,107,107,9,,,,,,,,,,,,,,,,,,,,,moral_self_bias,13,19,59.9638584532,f,001,2018_Apr_02_1447,
,,,,,,,,,,,,,,,,,,,,,3^1= ?,,,,,,,,,,,,,,,,,,,,0,108,108,101,,,,,,,,,,,,,,,,,,,,,moral_self_bias,13,19,59.9638584532,f,001,2018_Apr_02_1447,
,,,,,,,,,,,,,,,,,,,,,13-5= ?,,,,,,,,,,,,,,,,,,,,0,109,109,98,,,,,,,,,,,,,,,,,,,,,moral_self_bias,13,19,59.9638584532,f,001,2018_Apr_02_1447,
,,,,,,,,,,,,,,,,,,,,,9-4= ?,,,,,,,,,,,,,,,,,,,,0,110,110,22,,,,,,,,,,,,,,,,,,,,,moral_self_bias,13,19,59.9638584532,f,001,2018_Apr_02_1447,
,,,,,,,,,,,,,,,,,,,,,21/7= ?,,,,,,,,,,,,,,,,,,,,0,111,111,70,,,,,,,,,,,,,,,,,,,,,moral_self_bias,13,19,59.9638584532,f,001,2018_Apr_02_1447,
,,,,,,,,,,,,,,,,,,,,,7*0= ?,,,,,,,,,,,,,,,,,,,,0,112,112,88,,,,,,,,,,,,,,,,,,,,,moral_self_bias,13,19,59.9638584532,f,001,2018_Apr_02_1447,
,,,,,,,,,,,,,,,,,,,,,8*1= ?,,,,,,,,,,,,,,,,,,,,0,113,113,111,,,,,,,,,,,,,,,,,,,,,moral_self_bias,13,19,59.9638584532,f,001,2018_Apr_02_1447,
,,,,,,,,,,,,,,,,,,,,,8-2= ?,,,,,,,,,,,,,,,,,,,,0,114,114,38,,,,,,,,,,,,,,,,,,,,,moral_self_bias,13,19,59.9638584532,f,001,2018_Apr_02_1447,
,,,,,,,,,,,,,,,,,,,,,4*1= ?,,,,,,,,,,,,,,,,,,,,0,115,115,85,,,,,,,,,,,,,,,,,,,,,moral_self_bias,13,19,59.9638584532,f,001,2018_Apr_02_1447,
,,,,,,,,,,,,,,,,,,,,,8-4= ?,,,,,,,,,,,,,,,,,,,,0,116,116,40,,,,,,,,,,,,,,,,,,,,,moral_self_bias,13,19,59.9638584532,f,001,2018_Apr_02_1447,
,,,,,,,,,,,,,,,,,,,,,19-17= ?,,,,,,,,,,,,,,,,,,,,0,117,117,100,,,,,,,,,,,,,,,,,,,,,moral_self_bias,13,19,59.9638584532,f,001,2018_Apr_02_1447,
,,,,,,,,,,,,,,,,,,,,,14-9=？,,,,,,,,,,,,,,,,,,,,0,118,118,63,,,,,,,,,,,,,,,,,,,,,moral_self_bias,13,19,59.9638584532,f,001,2018_Apr_02_1447,
,,,,,,,,,,,,,,,,,,,,,18/2= ?,,,,,,,,,,,,,,,,,,,,0,119,119,97,,,,,,,,,,,,,,,,,,,,,moral_self_bias,13,19,59.9638584532,f,001,2018_Apr_02_1447,
,,,,,,,,,,,,,,,,,,,,,,,,,,,,,,,,,,,,,,,,,,,,,,,,,,,,,,,,,1,1.60987281799,,,,,,,moral_self_bias,13,19,59.9638584532,f,001,2018_Apr_02_1447,
,,,,,,,,,,,,,,,,,,,,,,material/138.png,2,无德,material/38.png,2,material/38.png,无德,2,j,j,j,1,1,1,缺德,,,,,,,,,0,0,0,37,,,,,,,,,,,j,1,2.99183702469,,,,moral_self_bias,13,19,59.9638584532,f,001,2018_Apr_02_1447,
,,,,,,,,,,,,,,,,,,,,,,material/164.png,1,宽容,material/63.png,1,material/163.png,文明,1,j,j,j,1,1,1,孝顺,,,,,,,,,0,1,1,62,0,0,0,0,,,,,,,f,0,3.15452098846,f,1,8.95905685425,moral_self_bias,13,19,59.9638584532,f,001,2018_Apr_02_1447,
,,,,,,,,,,,,,,,,,,,,,,material/164.png,1,宽容,material/63.png,1,material/163.png,文明,1,j,j,j,1,1,1,孝顺,,,,,,,,,0,1,1,62,,,,,,,,,,,,,,,,,moral_self_bias,13,19,59.9638584532,f,001,2018_Apr_02_1447,
,,,,,,,,,,,,,,,,,,,,,,material/13.png,1,廉明,material/113.png,1,material/113.png,廉明,1,f,f,f,1,1,1,廉洁,,,,,,,,,0,2,2,92,0,0,0,0,,,,,,,f,1,1.79086899757,f,1,3.35125494003,moral_self_bias,13,19,59.9638584532,f,001,2018_Apr_02_1447,
,,,,,,,,,,,,,,,,,,,,,,material/13.png,1,廉明,material/113.png,1,material/113.png,廉明,1,f,f,f,1,1,1,廉洁,,,,,,,,,0,2,2,92,,,,,,,,,,,,,,,,,moral_self_bias,13,19,59.9638584532,f,001,2018_Apr_02_1447,
,,,,,,,,,,,,,,,,,,,,,,material/136.png,2,说谎,material/36.png,2,material/36.png,说谎,2,j,j,j,1,1,1,撒谎,,,,,,,,,0,3,3,35,0,0,0,0,,,,,,,f,0,3.5574760437,f,1,1.0427570343,moral_self_bias,13,19,59.9638584532,f,001,2018_Apr_02_1447,
,,,,,,,,,,,,,,,,,,,,,,material/136.png,2,说谎,material/36.png,2,material/36.png,说谎,2,j,j,j,1,1,1,撒谎,,,,,,,,,0,3,3,35,,,,,,,,,,,,,,,,,moral_self_bias,13,19,59.9638584532,f,001,2018_Apr_02_1447,
,,,,,,,,,,,,,,,,,,,,,,material/76.png,2,放纵,material/176.png,2,material/176.png,放纵,2,f,f,f,1,1,1,虚伪,,,,,,,,,0,4,4,155,0,0,0,0,,,,,,,f,1,1.0750181675,f,1,0.921030044556,moral_self_bias,13,19,59.9638584532,f,001,2018_Apr_02_1447,
,,,,,,,,,,,,,,,,,,,,,,material/76.png,2,放纵,material/176.png,2,material/176.png,放纵,2,f,f,f,1,1,1,虚伪,,,,,,,,,0,4,4,155,,,,,,,,,,,,,,,,,moral_self_bias,13,19,59.9638584532,f,001,2018_Apr_02_1447,
,,,,,,,,,,,,,,,,,,,,,,material/121.png,1,精干,material/21.png,1,material/121.png,干练,1,j,j,j,2,2,2,精干,,,,,,,,,0,5,5,20,,,,,,,,,,,j,1,3.59214901924,,,,moral_self_bias,13,19,59.9638584532,f,001,2018_Apr_02_1447,
,,,,,,,,,,,,,,,,,,,,,,material/79.png,2,薄弱,material/81.png,2,material/183.png,无助,2,j,j,j,2,2,2,颓废,,,,,,,,,0,6,6,77,0,0,0,0,,,,,,,f,0,6.74204301834,f,1,2.00862598419,moral_self_bias,13,19,59.9638584532,f,001,2018_Apr_02_1447,
,,,,,,,,,,,,,,,,,,,,,,material/79.png,2,薄弱,material/81.png,2,material/183.png,无助,2,j,j,j,2,2,2,颓废,,,,,,,,,0,6,6,77,,,,,,,,,,,,,,,,,moral_self_bias,13,19,59.9638584532,f,001,2018_Apr_02_1447,
,,,,,,,,,,,,,,,,,,,,,,material/71.png,1,严谨,material/68.png,1,material/71.png,广博,1,j,j,j,2,2,2,严谨,,,,,,,,,0,7,7,66,0,0,0,0,,,,,,,f,0,1.3922188282,f,1,1.30947589874,moral_self_bias,13,19,59.9638584532,f,001,2018_Apr_02_1447,
,,,,,,,,,,,,,,,,,,,,,,material/71.png,1,严谨,material/68.png,1,material/71.png,广博,1,j,j,j,2,2,2,严谨,,,,,,,,,0,7,7,66,,,,,,,,,,,,,,,,,moral_self_bias,13,19,59.9638584532,f,001,2018_Apr_02_1447,
,,,,,,,,,,,,,,,,,,,,,,material/29.png,1,好学,material/129.png,1,material/29.png,好问,1,f,f,f,2,2,2,好学,,,,,,,,,0,8,8,108,0,0,0,0,,,,,,,f,1,1.31714010239,f,1,0.774787902832,moral_self_bias,13,19,59.9638584532,f,001,2018_Apr_02_1447,
,,,,,,,,,,,,,,,,,,,,,,material/29.png,1,好学,material/129.png,1,material/29.png,好问,1,f,f,f,2,2,2,好学,,,,,,,,,0,8,8,108,,,,,,,,,,,,,,,,,moral_self_bias,13,19,59.9638584532,f,001,2018_Apr_02_1447,
,,,,,,,,,,,,,,,,,,,,,,material/48.png,2,愚蠢,material/148.png,2,material/48.png,笨蛋,2,f,f,f,2,2,2,愚蠢,,,,,,,,,0,9,9,127,,,,,,,,,,,j,0,1.05789494514,,,,moral_self_bias,13,19,59.9638584532,f,001,2018_Apr_02_1447,
,,,,,,,,,,,,,,,,,,,,,,material/118.png,1,机敏,material/18.png,1,material/118.png,敏锐,1,j,j,j,2,2,2,机敏,,,,,,,,,0,10,10,17,,,,,,,,,,,j,1,2.98289990425,,,,moral_self_bias,13,19,59.9638584532,f,001,2018_Apr_02_1447,
,,,,,,,,,,,,,,,,,,,,,,material/128.png,1,自律,material/28.png,1,material/128.png,克己,1,j,j,j,2,2,2,自律,,,,,,,,,0,11,11,27,0,0,0,0,,,,,,,f,0,2.65349388123,f,1,0.757202863693,moral_self_bias,13,19,59.9638584532,f,001,2018_Apr_02_1447,
,,,,,,,,,,,,,,,,,,,,,,material/128.png,1,自律,material/28.png,1,material/128.png,克己,1,j,j,j,2,2,2,自律,,,,,,,,,0,11,11,27,,,,,,,,,,,,,,,,,moral_self_bias,13,19,59.9638584532,f,001,2018_Apr_02_1447,
,,,,,,,,,,,,,,,,,,,,,,material/47.png,2,死板,material/147.png,2,material/47.png,刻板,2,f,f,f,2,2,2,死板,,,,,,,,,0,12,12,126,0,0,0,0,,,,,,,f,1,1.64190411568,f,1,1.29131007195,moral_self_bias,13,19,59.9638584532,f,001,2018_Apr_02_1447,
,,,,,,,,,,,,,,,,,,,,,,material/47.png,2,死板,material/147.png,2,material/47.png,刻板,2,f,f,f,2,2,2,死板,,,,,,,,,0,12,12,126,,,,,,,,,,,,,,,,,moral_self_bias,13,19,59.9638584532,f,001,2018_Apr_02_1447,
,,,,,,,,,,,,,,,,,,,,,,material/105.png,1,守信,material/5.png,1,material/5.png,守信,1,j,j,j,1,1,1,诚信,,,,,,,,,0,13,13,4,0,0,0,0,,,,,,,f,0,3.02531409264,f,1,0.975429058075,moral_self_bias,13,19,59.9638584532,f,001,2018_Apr_02_1447,
,,,,,,,,,,,,,,,,,,,,,,material/105.png,1,守信,material/5.png,1,material/5.png,守信,1,j,j,j,1,1,1,诚信,,,,,,,,,0,13,13,4,,,,,,,,,,,,,,,,,moral_self_bias,13,19,59.9638584532,f,001,2018_Apr_02_1447,
,,,,,,,,,,,,,,,,,,,,,,material/11.png,1,高尚,material/111.png,1,material/111.png,高尚,1,f,f,f,1,1,1,高雅,,,,,,,,,0,14,14,90,0,0,0,0,,,,,,,f,1,1.92422485352,f,1,1.15836691856,moral_self_bias,13,19,59.9638584532,f,001,2018_Apr_02_1447,
,,,,,,,,,,,,,,,,,,,,,,material/11.png,1,高尚,material/111.png,1,material/111.png,高尚,1,f,f,f,1,1,1,高雅,,,,,,,,,0,14,14,90,,,,,,,,,,,,,,,,,moral_self_bias,13,19,59.9638584532,f,001,2018_Apr_02_1447,
,,,,,,,,,,,,,,,,,,,,,,material/4.png,1,友善,material/104.png,1,material/104.png,友善,1,f,f,f,1,1,1,友爱,,,,,,,,,0,15,15,83,0,0,0,0,,,,,,,f,1,2.14314603806,f,1,0.508292913437,moral_self_bias,13,19,59.9638584532,f,001,2018_Apr_02_1447,
,,,,,,,,,,,,,,,,,,,,,,material/4.png,1,友善,material/104.png,1,material/104.png,友善,1,f,f,f,1,1,1,友爱,,,,,,,,,0,15,15,83,,,,,,,,,,,,,,,,,moral_self_bias,13,19,59.9638584532,f,001,2018_Apr_02_1447,
,,,,,,,,,,,,,,,,,,,,,,material/149.png,2,白痴,material/49.png,2,material/149.png,痴呆,2,j,j,j,2,2,2,白痴,,,,,,,,,0,16,16,48,0,0,0,0,,,,,,,f,0,1.37450790405,f,1,0.758548974991,moral_self_bias,13,19,59.9638584532,f,001,2018_Apr_02_1447,
,,,,,,,,,,,,,,,,,,,,,,material/149.png,2,白痴,material/49.png,2,material/149.png,痴呆,2,j,j,j,2,2,2,白痴,,,,,,,,,0,16,16,48,,,,,,,,,,,,,,,,,moral_self_bias,13,19,59.9638584532,f,001,2018_Apr_02_1447,
,,,,,,,,,,,,,,,,,,,,,,material/16.png,1,睿智,material/116.png,1,material/16.png,机智,1,f,f,f,2,2,2,睿智,,,,,,,,,0,17,17,95,0,0,0,0,,,,,,,f,1,2.27476501465,f,1,1.4918410778,moral_self_bias,13,19,59.9638584532,f,001,2018_Apr_02_1447,
,,,,,,,,,,,,,,,,,,,,,,material/16.png,1,睿智,material/116.png,1,material/16.png,机智,1,f,f,f,2,2,2,睿智,,,,,,,,,0,17,17,95,,,,,,,,,,,,,,,,,moral_self_bias,13,19,59.9638584532,f,001,2018_Apr_02_1447,
,,,,,,,,,,,,,,,,,,,,,,material/116.png,1,机智,material/16.png,1,material/116.png,睿智,1,j,j,j,2,2,2,机智,,,,,,,,,0,18,18,15,,,,,,,,,,,j,1,4.3747150898,,,,moral_self_bias,13,19,59.9638584532,f,001,2018_Apr_02_1447,
,,,,,,,,,,,,,,,,,,,,,,material/107.png,1,公正,material/7.png,1,material/7.png,公正,1,j,j,j,1,1,1,公平,,,,,,,,,0,19,19,6,,,,,,,,,,,j,1,3.02452397346,,,,moral_self_bias,13,19,59.9638584532,f,001,2018_Apr_02_1447,
,,,,,,,,,,,,,,,,,,,,,,material/170.png,1,坚忍,material/71.png,1,material/170.png,严谨,1,j,j,j,2,2,2,坚忍,,,,,,,,,0,20,20,68,,,,,,,,,,,j,1,2.42526197433,,,,moral_self_bias,13,19,59.9638584532,f,001,2018_Apr_02_1447,
,,,,,,,,,,,,,,,,,,,,,,material/183.png,2,颓废,material/182.png,2,material/79.png,才尽,2,f,f,f,2,2,2,薄弱,,,,,,,,,0,21,21,161,0,0,0,0,,,,,,,f,1,1.60836696625,j,0,0.616948127747,moral_self_bias,13,19,59.9638584532,f,001,2018_Apr_02_1447,
,,,,,,,,,,,,,,,,,,,,,,material/183.png,2,颓废,material/182.png,2,material/79.png,才尽,2,f,f,f,2,2,2,薄弱,,,,,,,,,0,21,21,161,,,,,,,,,,,,,,,,,moral_self_bias,13,19,59.9638584532,f,001,2018_Apr_02_1447,
,,,,,,,,,,,,,,,,,,,,,,material/70.png,1,全面,material/168.png,1,material/70.png,机变,1,f,f,f,2,2,2,全面,,,,,,,,,0,22,22,147,,,,,,,,,,,j,0,3.19136285782,,,,moral_self_bias,13,19,59.9638584532,f,001,2018_Apr_02_1447,
,,,,,,,,,,,,,,,,,,,,,,material/157.png,2,无能,material/57.png,2,material/157.png,无知,2,j,j,j,2,2,2,无能,,,,,,,,,0,23,23,56,0,0,0,0,,,,,,,f,0,2.15810990334,f,1,0.575163841248,moral_self_bias,13,19,59.9638584532,f,001,2018_Apr_02_1447,
,,,,,,,,,,,,,,,,,,,,,,material/157.png,2,无能,material/57.png,2,material/157.png,无知,2,j,j,j,2,2,2,无能,,,,,,,,,0,23,23,56,,,,,,,,,,,,,,,,,moral_self_bias,13,19,59.9638584532,f,001,2018_Apr_02_1447,
,,,,,,,,,,,,,,,,,,,,,,material/143.png,2,拜金,material/43.png,2,material/43.png,拜金,2,j,j,j,1,1,1,虚荣,,,,,,,,,0,24,24,42,,,,,,,,,,,j,1,1.44303393364,,,,moral_self_bias,13,19,59.9638584532,f,001,2018_Apr_02_1447,
,,,,,,,,,,,,,,,,,,,,,,material/153.png,2,迟钝,material/53.png,2,material/153.png,迟缓,2,j,j,j,2,2,2,迟钝,,,,,,,,,0,25,25,52,0,0,0,0,,,,,,,f,0,1.70841407776,f,1,0.558530092239,moral_self_bias,13,19,59.9638584532,f,001,2018_Apr_02_1447,
,,,,,,,,,,,,,,,,,,,,,,material/153.png,2,迟钝,material/53.png,2,material/153.png,迟缓,2,j,j,j,2,2,2,迟钝,,,,,,,,,0,25,25,52,,,,,,,,,,,,,,,,,moral_self_bias,13,19,59.9638584532,f,001,2018_Apr_02_1447,
,,,,,,,,,,,,,,,,,,,,,,material/131.png,1,笃行,material/31.png,1,material/131.png,笃学,1,j,j,j,2,2,2,笃行,,,,,,,,,0,26,26,30,,,,,,,,,,,j,1,2.22416496277,,,,moral_self_bias,13,19,59.9638584532,f,001,2018_Apr_02_1447,
,,,,,,,,,,,,,,,,,,,,,,material/53.png,2,迟缓,material/153.png,2,material/53.png,迟钝,2,f,f,f,2,2,2,迟缓,,,,,,,,,0,27,27,132,0,0,0,0,,,,,,,f,1,1.83869600296,f,1,0.606260061264,moral_self_bias,13,19,59.9638584532,f,001,2018_Apr_02_1447,
,,,,,,,,,,,,,,,,,,,,,,material/53.png,2,迟缓,material/153.png,2,material/53.png,迟钝,2,f,f,f,2,2,2,迟缓,,,,,,,,,0,27,27,132,,,,,,,,,,,,,,,,,moral_self_bias,13,19,59.9638584532,f,001,2018_Apr_02_1447,
,,,,,,,,,,,,,,,,,,,,,,material/127.png,1,超群,material/27.png,1,material/127.png,卓越,1,j,j,j,2,2,2,超群,,,,,,,,,0,28,28,26,,,,,,,,,,,j,1,2.15740299225,,,,moral_self_bias,13,19,59.9638584532,f,001,2018_Apr_02_1447,
,,,,,,,,,,,,,,,,,,,,,,material/126.png,1,勤快,material/26.png,1,material/126.png,刻苦,1,j,j,j,2,2,2,勤快,,,,,,,,,0,29,29,25,0,0,0,0,,,,,,,f,0,1.12480401993,f,1,1.00899982452,moral_self_bias,13,19,59.9638584532,f,001,2018_Apr_02_1447,
,,,,,,,,,,,,,,,,,,,,,,material/126.png,1,勤快,material/26.png,1,material/126.png,刻苦,1,j,j,j,2,2,2,勤快,,,,,,,,,0,29,29,25,,,,,,,,,,,,,,,,,moral_self_bias,13,19,59.9638584532,f,001,2018_Apr_02_1447,
,,,,,,,,,,,,,,,,,,,,,,material/147.png,2,刻板,material/47.png,2,material/147.png,死板,2,j,j,j,2,2,2,刻板,,,,,,,,,0,30,30,46,,,,,,,,,,,j,1,5.00745010376,,,,moral_self_bias,13,19,59.9638584532,f,001,2018_Apr_02_1447,
,,,,,,,,,,,,,,,,,,,,,,material/31.png,1,笃学,material/131.png,1,material/31.png,笃行,1,f,f,f,2,2,2,笃学,,,,,,,,,0,31,31,110,0,0,0,0,,,,,,,f,1,2.00741004944,f,1,0.80813908577,moral_self_bias,13,19,59.9638584532,f,001,2018_Apr_02_1447,
,,,,,,,,,,,,,,,,,,,,,,material/31.png,1,笃学,material/131.png,1,material/31.png,笃行,1,f,f,f,2,2,2,笃学,,,,,,,,,0,31,31,110,,,,,,,,,,,,,,,,,moral_self_bias,13,19,59.9638584532,f,001,2018_Apr_02_1447,
,,,,,,,,,,,,,,,,,,,,,,material/82.png,2,毛糙,material/183.png,2,material/178.png,薄弱,2,f,f,f,2,2,2,窝囊,,,,,,,,,0,32,32,162,0,0,0,0,,,,,,,f,1,1.05732607841,f,1,0.604343891144,moral_self_bias,13,19,59.9638584532,f,001,2018_Apr_02_1447,
,,,,,,,,,,,,,,,,,,,,,,material/82.png,2,毛糙,material/183.png,2,material/178.png,薄弱,2,f,f,f,2,2,2,窝囊,,,,,,,,,0,32,32,162,,,,,,,,,,,,,,,,,moral_self_bias,13,19,59.9638584532,f,001,2018_Apr_02_1447,
,,,,,,,,,,,,,,,,,,,,,,material/139.png,2,凶残,material/39.png,2,material/39.png,凶残,2,j,j,j,1,1,1,恶毒,,,,,,,,,0,33,33,38,,,,,,,,,,,j,1,7.89034605026,,,,moral_self_bias,13,19,59.9638584532,f,001,2018_Apr_02_1447,
,,,,,,,,,,,,,,,,,,,,,,material/161.png,1,奉献,material/164.png,1,material/64.png,孝顺,1,f,f,f,1,1,1,勇敢,,,,,,,,,0,34,34,143,0,0,0,0,,,,,,,f,1,0.958582878113,f,1,0.607277154922,moral_self_bias,13,19,59.9638584532,f,001,2018_Apr_02_1447,
,,,,,,,,,,,,,,,,,,,,,,material/161.png,1,奉献,material/164.png,1,material/64.png,孝顺,1,f,f,f,1,1,1,勇敢,,,,,,,,,0,34,34,143,,,,,,,,,,,,,,,,,moral_self_bias,13,19,59.9638584532,f,001,2018_Apr_02_1447,
,,,,,,,,,,,,,,,,,,,,,,material/141.png,2,歹毒,material/41.png,2,material/41.png,歹毒,2,j,j,j,1,1,1,残忍,,,,,,,,,0,35,35,40,,,,,,,,,,,j,1,3.77527403831,,,,moral_self_bias,13,19,59.9638584532,f,001,2018_Apr_02_1447,
,,,,,,,,,,,,,,,,,,,,,,material/151.png,2,迷糊,material/51.png,2,material/151.png,糊涂,2,j,j,j,2,2,2,迷糊,,,,,,,,,0,36,36,50,,,,,,,,,,,j,1,1.391507864,,,,moral_self_bias,13,19,59.9638584532,f,001,2018_Apr_02_1447,
,,,,,,,,,,,,,,,,,,,,,,material/179.png,2,顽愚,material/178.png,2,material/84.png,毛糙,2,f,f,f,2,2,2,差生,,,,,,,,,0,37,37,157,0,0,0,0,,,,,,,f,1,1.05793190002,f,1,1.18377184868,moral_self_bias,13,19,59.9638584532,f,001,2018_Apr_02_1447,
,,,,,,,,,,,,,,,,,,,,,,material/179.png,2,顽愚,material/178.png,2,material/84.png,毛糙,2,f,f,f,2,2,2,差生,,,,,,,,,0,37,37,157,,,,,,,,,,,,,,,,,moral_self_bias,13,19,59.9638584532,f,001,2018_Apr_02_1447,
,,,,,,,,,,,,,,,,,,,,,,material/2.png,1,爱心,material/102.png,1,material/102.png,爱心,1,f,f,f,1,1,1,善心,,,,,,,,,0,38,38,81,0,0,0,0,,,,,,,f,1,1.70761299133,f,1,1.65771412849,moral_self_bias,13,19,59.9638584532,f,001,2018_Apr_02_1447,
,,,,,,,,,,,,,,,,,,,,,,material/2.png,1,爱心,material/102.png,1,material/102.png,爱心,1,f,f,f,1,1,1,善心,,,,,,,,,0,38,38,81,,,,,,,,,,,,,,,,,moral_self_bias,13,19,59.9638584532,f,001,2018_Apr_02_1447,
,,,,,,,,,,,,,,,,,,,,,,material/18.png,1,敏锐,material/118.png,1,material/18.png,机敏,1,f,f,f,2,2,2,敏锐,,,,,,,,,0,39,39,97,0,0,0,0,,,,,,,f,1,4.39125418663,f,1,0.490348815918,moral_self_bias,13,19,59.9638584532,f,001,2018_Apr_02_1447,
,,,,,,,,,,,,,,,,,,,,,,material/18.png,1,敏锐,material/118.png,1,material/18.png,机敏,1,f,f,f,2,2,2,敏锐,,,,,,,,,0,39,39,97,,,,,,,,,,,,,,,,,moral_self_bias,13,19,59.9638584532,f,001,2018_Apr_02_1447,
,,,,,,,,,,,,,,,,,,,,,,material/1.png,1,博爱,material/101.png,1,material/101.png,博爱,1,f,f,f,1,1,1,善良,,,,,,,,,0,40,40,80,0,0,0,0,,,,,,,f,1,0.858842134476,f,1,0.425713062286,moral_self_bias,13,19,59.9638584532,f,001,2018_Apr_02_1447,
,,,,,,,,,,,,,,,,,,,,,,material/1.png,1,博爱,material/101.png,1,material/101.png,博爱,1,f,f,f,1,1,1,善良,,,,,,,,,0,40,40,80,,,,,,,,,,,,,,,,,moral_self_bias,13,19,59.9638584532,f,001,2018_Apr_02_1447,
,,,,,,,,,,,,,,,,,,,,,,material/26.png,1,刻苦,material/126.png,1,material/26.png,勤快,1,f,f,f,2,2,2,刻苦,,,,,,,,,0,41,41,105,,,,,,,,,,,j,0,1.0414659977,,,,moral_self_bias,13,19,59.9638584532,f,001,2018_Apr_02_1447,
,,,,,,,,,,,,,,,,,,,,,,material/46.png,2,自私,material/146.png,2,material/146.png,自私,2,f,f,f,1,1,1,小气,,,,,,,,,0,42,42,125,,,,,,,,,,,j,0,1.59172701836,,,,moral_self_bias,13,19,59.9638584532,f,001,2018_Apr_02_1447,
,,,,,,,,,,,,,,,,,,,,,,material/133.png,2,腐败,material/33.png,2,material/33.png,腐败,2,j,j,j,1,1,1,贪污,,,,,,,,,0,43,43,32,,,,,,,,,,,j,1,0.790059089661,,,,moral_self_bias,13,19,59.9638584532,f,001,2018_Apr_02_1447,
,,,,,,,,,,,,,,,,,,,,,,material/108.png,1,公道,material/8.png,1,material/8.png,公道,1,j,j,j,1,1,1,无私,,,,,,,,,0,44,44,7,,,,,,,,,,,j,1,0.806563138962,,,,moral_self_bias,13,19,59.9638584532,f,001,2018_Apr_02_1447,
,,,,,,,,,,,,,,,,,,,,,,material/51.png,2,糊涂,material/151.png,2,material/51.png,迷糊,2,f,f,f,2,2,2,糊涂,,,,,,,,,0,45,45,130,0,0,0,0,,,,,,,f,1,2.25722694397,j,0,0.392045021057,moral_self_bias,13,19,59.9638584532,f,001,2018_Apr_02_1447,
,,,,,,,,,,,,,,,,,,,,,,material/51.png,2,糊涂,material/151.png,2,material/51.png,迷糊,2,f,f,f,2,2,2,糊涂,,,,,,,,,0,45,45,130,,,,,,,,,,,,,,,,,moral_self_bias,13,19,59.9638584532,f,001,2018_Apr_02_1447,
,,,,,,,,,,,,,,,,,,,,,,material/77.png,2,浮夸,material/172.png,2,material/172.png,浮夸,2,f,f,f,1,1,1,软弱,,,,,,,,,0,46,46,151,0,0,0,0,,,,,,,f,1,1.2908680439,f,1,0.624526023865,moral_self_bias,13,19,59.9638584532,f,001,2018_Apr_02_1447,
,,,,,,,,,,,,,,,,,,,,,,material/77.png,2,浮夸,material/172.png,2,material/172.png,浮夸,2,f,f,f,1,1,1,软弱,,,,,,,,,0,46,46,151,,,,,,,,,,,,,,,,,moral_self_bias,13,19,59.9638584532,f,001,2018_Apr_02_1447,
,,,,,,,,,,,,,,,,,,,,,,material/56.png,2,愚昧,material/156.png,2,material/56.png,愚钝,2,f,f,f,2,2,2,愚昧,,,,,,,,,0,47,47,135,0,0,0,0,,,,,,,f,1,0.774259090424,f,1,2.55877900124,moral_self_bias,13,19,59.9638584532,f,001,2018_Apr_02_1447,
,,,,,,,,,,,,,,,,,,,,,,material/56.png,2,愚昧,material/156.png,2,material/56.png,愚钝,2,f,f,f,2,2,2,愚昧,,,,,,,,,0,47,47,135,,,,,,,,,,,,,,,,,moral_self_bias,13,19,59.9638584532,f,001,2018_Apr_02_1447,
,,,,,,,,,,,,,,,,,,,,,,material/34.png,2,可恶,material/134.png,2,material/134.png,可恶,2,f,f,f,1,1,1,可恨,,,,,,,,,0,48,48,113,0,0,0,0,,,,,,,f,1,4.47443795204,f,1,0.425282001495,moral_self_bias,13,19,59.9638584532,f,001,2018_Apr_02_1447,
,,,,,,,,,,,,,,,,,,,,,,material/34.png,2,可恶,material/134.png,2,material/134.png,可恶,2,f,f,f,1,1,1,可恨,,,,,,,,,0,48,48,113,,,,,,,,,,,,,,,,,moral_self_bias,13,19,59.9638584532,f,001,2018_Apr_02_1447,
,,,,,,,,,,,,,,,,,,,,,,material/37.png,2,卑鄙,material/137.png,2,material/137.png,卑鄙,2,f,f,f,1,1,1,无耻,,,,,,,,,0,49,49,116,,,,,,,,,,,j,0,1.55716896057,,,,moral_self_bias,13,19,59.9638584532,f,001,2018_Apr_02_1447,
,,,,,,,,,,,,,,,,,,,,,,material/117.png,1,聪颖,material/17.png,1,material/117.png,聪明,1,j,j,j,2,2,2,聪颖,,,,,,,,,0,50,50,16,,,,,,,,,,,j,1,1.18804001808,,,,moral_self_bias,13,19,59.9638584532,f,001,2018_Apr_02_1447,
,,,,,,,,,,,,,,,,,,,,,,material/64.png,1,谦虚,material/165.png,1,material/65.png,独立,1,f,f,f,1,1,1,奉献,,,,,,,,,0,51,51,144,,,,,,,,,,,j,0,1.04042387009,,,,moral_self_bias,13,19,59.9638584532,f,001,2018_Apr_02_1447,
,,,,,,,,,,,,,,,,,,,,,,material/21.png,1,干练,material/121.png,1,material/21.png,精干,1,f,f,f,2,2,2,干练,,,,,,,,,0,52,52,100,,,,,,,,,,,j,0,2.00801301003,,,,moral_self_bias,13,19,59.9638584532,f,001,2018_Apr_02_1447,
,,,,,,,,,,,,,,,,,,,,,,material/110.png,1,顽强,material/10.png,1,material/10.png,顽强,1,j,j,j,1,1,1,坚毅,,,,,,,,,0,53,53,9,,,,,,,,,,,j,1,1.04078006744,,,,moral_self_bias,13,19,59.9638584532,f,001,2018_Apr_02_1447,
,,,,,,,,,,,,,,,,,,,,,,material/182.png,2,健忘,material/184.png,2,material/80.png,厌学,2,f,f,f,2,2,2,才尽,,,,,,,,,0,54,54,163,,,,,,,,,,,j,0,2.25757288933,,,,moral_self_bias,13,19,59.9638584532,f,001,2018_Apr_02_1447,
,,,,,,,,,,,,,,,,,,,,,,material/49.png,2,痴呆,material/149.png,2,material/49.png,白痴,2,f,f,f,2,2,2,痴呆,,,,,,,,,0,55,55,128,,,,,,,,,,,j,0,1.75734496117,,,,moral_self_bias,13,19,59.9638584532,f,001,2018_Apr_02_1447,
,,,,,,,,,,,,,,,,,,,,,,material/55.png,2,盲从,material/155.png,2,material/55.png,盲目,2,f,f,f,2,2,2,盲从,,,,,,,,,0,56,56,134,,,,,,,,,,,j,0,0.808129072189,,,,moral_self_bias,13,19,59.9638584532,f,001,2018_Apr_02_1447,
,,,,,,,,,,,,,,,,,,,,,,material/123.png,1,多才,material/23.png,1,material/123.png,有才,1,j,j,j,2,2,2,多才,,,,,,,,,0,57,57,22,,,,,,,,,,,j,1,1.90861201286,,,,moral_self_bias,13,19,59.9638584532,f,001,2018_Apr_02_1447,
,,,,,,,,,,,,,,,,,,,,,,material/43.png,2,虚荣,material/143.png,2,material/143.png,虚荣,2,f,f,f,1,1,1,拜金,,,,,,,,,0,58,58,122,0,0,0,0,,,,,,,f,1,0.967643022537,j,0,0.524714946747,moral_self_bias,13,19,59.9638584532,f,001,2018_Apr_02_1447,
,,,,,,,,,,,,,,,,,,,,,,material/43.png,2,虚荣,material/143.png,2,material/143.png,虚荣,2,f,f,f,1,1,1,拜金,,,,,,,,,0,58,58,122,,,,,,,,,,,,,,,,,moral_self_bias,13,19,59.9638584532,f,001,2018_Apr_02_1447,
,,,,,,,,,,,,,,,,,,,,,,material/111.png,1,高雅,material/11.png,1,material/11.png,高雅,1,j,j,j,1,1,1,高尚,,,,,,,,,0,59,59,10,,,,,,,,,,,j,1,2.15786194801,,,,moral_self_bias,13,19,59.9638584532,f,001,2018_Apr_02_1447,
,,,,,,,,,,,,,,,,,,,,,,material/67.png,1,骁勇,material/70.png,1,material/67.png,全面,1,j,j,j,2,2,2,骁勇,,,,,,,,,0,60,60,67,,,,,,,,,,,j,1,0.807967185974,,,,moral_self_bias,13,19,59.9638584532,f,001,2018_Apr_02_1447,
,,,,,,,,,,,,,,,,,,,,,,material/150.png,2,鲁钝,material/50.png,2,material/150.png,愚笨,2,j,j,j,2,2,2,鲁钝,,,,,,,,,0,61,61,49,0,0,0,0,,,,,,,f,0,1.00778603554,j,0,0.458659887314,moral_self_bias,13,19,59.9638584532,f,001,2018_Apr_02_1447,
,,,,,,,,,,,,,,,,,,,,,,material/150.png,2,鲁钝,material/50.png,2,material/150.png,愚笨,2,j,j,j,2,2,2,鲁钝,,,,,,,,,0,61,61,49,,,,,,,,,,,,,,,,,moral_self_bias,13,19,59.9638584532,f,001,2018_Apr_02_1447,
,,,,,,,,,,,,,,,,,,,,,,material/5.png,1,诚信,material/105.png,1,material/105.png,诚信,1,f,f,f,1,1,1,守信,,,,,,,,,0,62,62,84,0,0,0,0,,,,,,,f,1,0.908173084259,j,0,0.691735982895,moral_self_bias,13,19,59.9638584532,f,001,2018_Apr_02_1447,
,,,,,,,,,,,,,,,,,,,,,,material/5.png,1,诚信,material/105.png,1,material/105.png,诚信,1,f,f,f,1,1,1,守信,,,,,,,,,0,62,62,84,,,,,,,,,,,,,,,,,moral_self_bias,13,19,59.9638584532,f,001,2018_Apr_02_1447,
,,,,,,,,,,,,,,,,,,,,,,material/27.png,1,卓越,material/127.png,1,material/27.png,超群,1,f,f,f,2,2,2,卓越,,,,,,,,,0,63,63,106,,,,,,,,,,,j,0,1.19141197205,,,,moral_self_bias,13,19,59.9638584532,f,001,2018_Apr_02_1447,
,,,,,,,,,,,,,,,,,,,,,,material/8.png,1,无私,material/108.png,1,material/108.png,无私,1,f,f,f,1,1,1,公道,,,,,,,,,0,64,64,87,0,0,0,0,,,,,,,f,1,1.39202904701,j,0,0.47617316246,moral_self_bias,13,19,59.9638584532,f,001,2018_Apr_02_1447,
,,,,,,,,,,,,,,,,,,,,,,material/8.png,1,无私,material/108.png,1,material/108.png,无私,1,f,f,f,1,1,1,公道,,,,,,,,,0,64,64,87,,,,,,,,,,,,,,,,,moral_self_bias,13,19,59.9638584532,f,001,2018_Apr_02_1447,
,,,,,,,,,,,,,,,,,,,,,,material/145.png,2,下流,material/45.png,2,material/45.png,下流,2,j,j,j,1,1,1,小人,,,,,,,,,0,65,65,44,,,,,,,,,,,j,1,1.16634702682,,,,moral_self_bias,13,19,59.9638584532,f,001,2018_Apr_02_1447,
,,,,,,,,,,,,,,,,,,,,,,material/168.png,1,机变,material/170.png,1,material/168.png,坚忍,1,f,f,f,2,2,2,机变,,,,,,,,,0,66,66,149,0,0,0,0,,,,,,,f,1,1.04207515717,j,0,0.34247303009,moral_self_bias,13,19,59.9638584532,f,001,2018_Apr_02_1447,
,,,,,,,,,,,,,,,,,,,,,,material/168.png,1,机变,material/170.png,1,material/168.png,坚忍,1,f,f,f,2,2,2,机变,,,,,,,,,0,66,66,149,,,,,,,,,,,,,,,,,moral_self_bias,13,19,59.9638584532,f,001,2018_Apr_02_1447,
,,,,,,,,,,,,,,,,,,,,,,material/36.png,2,撒谎,material/136.png,2,material/136.png,撒谎,2,f,f,f,1,1,1,说谎,,,,,,,,,0,67,67,115,0,0,0,0,,,,,,,f,1,1.59107494354,j,0,0.342067956924,moral_self_bias,13,19,59.9638584532,f,001,2018_Apr_02_1447,
,,,,,,,,,,,,,,,,,,,,,,material/36.png,2,撒谎,material/136.png,2,material/136.png,撒谎,2,f,f,f,1,1,1,说谎,,,,,,,,,0,67,67,115,,,,,,,,,,,,,,,,,moral_self_bias,13,19,59.9638584532,f,001,2018_Apr_02_1447,
,,,,,,,,,,,,,,,,,,,,,,material/69.png,1,高明,material/69.png,1,material/69.png,高明,1,f,f,f,2,2,2,高明,,,,,,,,,0,68,68,166,0,0,0,0,,,,,,,f,1,2.25745511055,j,0,0.925285100937,moral_self_bias,13,19,59.9638584532,f,001,2018_Apr_02_1447,
,,,,,,,,,,,,,,,,,,,,,,material/69.png,1,高明,material/69.png,1,material/69.png,高明,1,f,f,f,2,2,2,高明,,,,,,,,,0,68,68,166,,,,,,,,,,,,,,,,,moral_self_bias,13,19,59.9638584532,f,001,2018_Apr_02_1447,
,,,,,,,,,,,,,,,,,,,,,,material/178.png,2,窝囊,material/82.png,2,material/82.png,窝囊,2,j,j,j,2,2,2,毛糙,,,,,,,,,0,69,69,78,,,,,,,,,,,j,1,1.1907119751,,,,moral_self_bias,13,19,59.9638584532,f,001,2018_Apr_02_1447,
,,,,,,,,,,,,,,,,,,,,,,material/68.png,1,广博,material/167.png,1,material/68.png,高手,1,f,f,f,2,2,2,广博,,,,,,,,,0,70,70,146,,,,,,,,,,,j,0,1.40808105469,,,,moral_self_bias,13,19,59.9638584532,f,001,2018_Apr_02_1447,
,,,,,,,,,,,,,,,,,,,,,,material/65.png,1,勇敢,material/61.png,1,material/161.png,平等,1,j,j,j,1,1,1,谦虚,,,,,,,,,0,71,71,60,0,0,0,0,,,,,,,f,0,1.02478790283,j,0,0.376060009003,moral_self_bias,13,19,59.9638584532,f,001,2018_Apr_02_1447,
,,,,,,,,,,,,,,,,,,,,,,material/65.png,1,勇敢,material/61.png,1,material/161.png,平等,1,j,j,j,1,1,1,谦虚,,,,,,,,,0,71,71,60,,,,,,,,,,,,,,,,,moral_self_bias,13,19,59.9638584532,f,001,2018_Apr_02_1447,
,,,,,,,,,,,,,,,,,,,,,,material/73.png,2,恶心,material/177.png,2,material/177.png,恶心,2,f,f,f,1,1,1,残虐,,,,,,,,,0,72,72,156,0,0,0,0,,,,,,,f,1,1.59184098244,j,0,0.540461063385,moral_self_bias,13,19,59.9638584532,f,001,2018_Apr_02_1447,
,,,,,,,,,,,,,,,,,,,,,,material/73.png,2,恶心,material/177.png,2,material/177.png,恶心,2,f,f,f,1,1,1,残虐,,,,,,,,,0,72,72,156,,,,,,,,,,,,,,,,,moral_self_bias,13,19,59.9638584532,f,001,2018_Apr_02_1447,
,,,,,,,,,,,,,,,,,,,,,,material/169.png,1,颖悟,material/171.png,1,material/169.png,高效,1,f,f,f,2,2,2,颖悟,,,,,,,,,0,73,73,150,0,0,0,0,,,,,,,f,1,1.92479777336,j,0,0.341031074524,moral_self_bias,13,19,59.9638584532,f,001,2018_Apr_02_1447,
,,,,,,,,,,,,,,,,,,,,,,material/169.png,1,颖悟,material/171.png,1,material/169.png,高效,1,f,f,f,2,2,2,颖悟,,,,,,,,,0,73,73,150,,,,,,,,,,,,,,,,,moral_self_bias,13,19,59.9638584532,f,001,2018_Apr_02_1447,
,,,,,,,,,,,,,,,,,,,,,,material/172.png,2,无情,material/175.png,2,material/175.png,无情,2,f,f,f,1,1,1,浮夸,,,,,,,,,0,74,74,154,0,0,0,0,,,,,,,f,1,1.15870094299,j,0,0.424583911896,moral_self_bias,13,19,59.9638584532,f,001,2018_Apr_02_1447,
,,,,,,,,,,,,,,,,,,,,,,material/172.png,2,无情,material/175.png,2,material/175.png,无情,2,f,f,f,1,1,1,浮夸,,,,,,,,,0,74,74,154,,,,,,,,,,,,,,,,,moral_self_bias,13,19,59.9638584532,f,001,2018_Apr_02_1447,
,,,,,,,,,,,,,,,,,,,,,,material/154.png,2,依靠,material/54.png,2,material/154.png,依赖,2,j,j,j,2,2,2,依靠,,,,,,,,,0,75,75,53,0,0,0,0,,,,,,,f,0,0.957756996155,j,0,1.37442088127,moral_self_bias,13,19,59.9638584532,f,001,2018_Apr_02_1447,
,,,,,,,,,,,,,,,,,,,,,,material/154.png,2,依靠,material/54.png,2,material/154.png,依赖,2,j,j,j,2,2,2,依靠,,,,,,,,,0,75,75,53,,,,,,,,,,,,,,,,,moral_self_bias,13,19,59.9638584532,f,001,2018_Apr_02_1447,
,,,,,,,,,,,,,,,,,,,,,,material/137.png,2,无耻,material/37.png,2,material/37.png,无耻,2,j,j,j,1,1,1,卑鄙,,,,,,,,,0,76,76,36,,,,,,,,,,,j,1,2.69144082069,,,,moral_self_bias,13,19,59.9638584532,f,001,2018_Apr_02_1447,
,,,,,,,,,,,,,,,,,,,,,,material/81.png,2,呆笨,material/179.png,2,material/83.png,差生,2,f,f,f,2,2,2,无助,,,,,,,,,0,77,77,158,,,,,,,,,,,j,0,0.691647052765,,,,moral_self_bias,13,19,59.9638584532,f,001,2018_Apr_02_1447,
,,,,,,,,,,,,,,,,,,,,,,material/61.png,1,仗义,material/65.png,1,material/166.png,谦虚,1,j,j,j,1,1,1,平等,,,,,,,,,0,78,78,64,0,0,0,0,,,,,,,f,0,1.40895414352,j,0,0.42601108551,moral_self_bias,13,19,59.9638584532,f,001,2018_Apr_02_1447,
,,,,,,,,,,,,,,,,,,,,,,material/61.png,1,仗义,material/65.png,1,material/166.png,谦虚,1,j,j,j,1,1,1,平等,,,,,,,,,0,78,78,64,,,,,,,,,,,,,,,,,moral_self_bias,13,19,59.9638584532,f,001,2018_Apr_02_1447,
,,,,,,,,,,,,,,,,,,,,,,material/60.png,2,粗拙,material/160.png,2,material/60.png,笨拙,2,f,f,f,2,2,2,粗拙,,,,,,,,,0,79,79,139,0,0,0,0,,,,,,,f,1,0.909145116806,j,0,0.375820875168,moral_self_bias,13,19,59.9638584532,f,001,2018_Apr_02_1447,
,,,,,,,,,,,,,,,,,,,,,,material/60.png,2,粗拙,material/160.png,2,material/60.png,笨拙,2,f,f,f,2,2,2,粗拙,,,,,,,,,0,79,79,139,,,,,,,,,,,,,,,,,moral_self_bias,13,19,59.9638584532,f,001,2018_Apr_02_1447,
,,,,,,,,,,,,,,,,,,,,,,material/74.png,2,黑心,material/173.png,2,material/173.png,黑心,2,f,f,f,1,1,1,卑劣,,,,,,,,,0,80,80,152,,,,,,,,,,,j,0,1.05907297134,,,,moral_self_bias,13,19,59.9638584532,f,001,2018_Apr_02_1447,
,,,,,,,,,,,,,,,,,,,,,,material/28.png,1,克己,material/128.png,1,material/28.png,自律,1,f,f,f,2,2,2,克己,,,,,,,,,0,81,81,107,,,,,,,,,,,j,0,0.824355840683,,,,moral_self_bias,13,19,59.9638584532,f,001,2018_Apr_02_1447,
,,,,,,,,,,,,,,,,,,,,,,material/124.png,1,冷静,material/24.png,1,material/124.png,理智,1,j,j,j,2,2,2,冷静,,,,,,,,,0,82,82,23,,,,,,,,,,,j,1,0.991849899292,,,,moral_self_bias,13,19,59.9638584532,f,001,2018_Apr_02_1447,
,,,,,,,,,,,,,,,,,,,,,,material/156.png,2,愚钝,material/56.png,2,material/156.png,愚昧,2,j,j,j,2,2,2,愚钝,,,,,,,,,0,83,83,55,0,0,0,0,,,,,,,f,0,1.34220099449,j,0,0.358861923218,moral_self_bias,13,19,59.9638584532,f,001,2018_Apr_02_1447,
,,,,,,,,,,,,,,,,,,,,,,material/156.png,2,愚钝,material/56.png,2,material/156.png,愚昧,2,j,j,j,2,2,2,愚钝,,,,,,,,,0,83,83,55,,,,,,,,,,,,,,,,,moral_self_bias,13,19,59.9638584532,f,001,2018_Apr_02_1447,
,,,,,,,,,,,,,,,,,,,,,,material/75.png,2,卑劣,material/74.png,2,material/74.png,卑劣,2,j,j,j,1,1,1,害人,,,,,,,,,0,84,84,70,,,,,,,,,,,j,1,2.21649694443,,,,moral_self_bias,13,19,59.9638584532,f,001,2018_Apr_02_1447,
,,,,,,,,,,,,,,,,,,,,,,material/142.png,2,阴险,material/42.png,2,material/42.png,阴险,2,j,j,j,1,1,1,奸诈,,,,,,,,,0,85,85,41,,,,,,,,,,,j,1,0.723716020584,,,,moral_self_bias,13,19,59.9638584532,f,001,2018_Apr_02_1447,
,,,,,,,,,,,,,,,,,,,,,,material/113.png,1,廉洁,material/13.png,1,material/13.png,廉洁,1,j,j,j,1,1,1,廉明,,,,,,,,,0,86,86,12,0,0,0,0,,,,,,,f,0,0.990885019302,j,0,0.3415620327,moral_self_bias,13,19,59.9638584532,f,001,2018_Apr_02_1447,
,,,,,,,,,,,,,,,,,,,,,,material/113.png,1,廉洁,material/13.png,1,material/13.png,廉洁,1,j,j,j,1,1,1,廉明,,,,,,,,,0,86,86,12,,,,,,,,,,,,,,,,,moral_self_bias,13,19,59.9638584532,f,001,2018_Apr_02_1447,
,,,,,,,,,,,,,,,,,,,,,,material/23.png,1,有才,material/123.png,1,material/23.png,多才,1,f,f,f,2,2,2,有才,,,,,,,,,0,87,87,102,0,0,0,0,,,,,,,f,1,1.02607488632,j,0,0.325706005096,moral_self_bias,13,19,59.9638584532,f,001,2018_Apr_02_1447,
,,,,,,,,,,,,,,,,,,,,,,material/23.png,1,有才,material/123.png,1,material/23.png,多才,1,f,f,f,2,2,2,有才,,,,,,,,,0,87,87,102,,,,,,,,,,,,,,,,,moral_self_bias,13,19,59.9638584532,f,001,2018_Apr_02_1447,
,,,,,,,,,,,,,,,,,,,,,,material/30.png,1,上进,material/130.png,1,material/30.png,进取,1,f,f,f,2,2,2,上进,,,,,,,,,0,88,88,109,0,0,0,0,,,,,,,f,1,0.741295814514,j,0,0.29146194458,moral_self_bias,13,19,59.9638584532,f,001,2018_Apr_02_1447,
,,,,,,,,,,,,,,,,,,,,,,material/30.png,1,上进,material/130.png,1,material/30.png,进取,1,f,f,f,2,2,2,上进,,,,,,,,,0,88,88,109,,,,,,,,,,,,,,,,,moral_self_bias,13,19,59.9638584532,f,001,2018_Apr_02_1447,
,,,,,,,,,,,,,,,,,,,,,,material/41.png,2,残忍,material/141.png,2,material/141.png,残忍,2,f,f,f,1,1,1,歹毒,,,,,,,,,0,89,89,120,0,0,0,0,,,,,,,f,1,0.707937002182,j,0,0.284054040909,moral_self_bias,13,19,59.9638584532,f,001,2018_Apr_02_1447,
,,,,,,,,,,,,,,,,,,,,,,material/41.png,2,残忍,material/141.png,2,material/141.png,残忍,2,f,f,f,1,1,1,歹毒,,,,,,,,,0,89,89,120,,,,,,,,,,,,,,,,,moral_self_bias,13,19,59.9638584532,f,001,2018_Apr_02_1447,
,,,,,,,,,,,,,,,,,,,,,,material/57.png,2,无知,material/157.png,2,material/57.png,无能,2,f,f,f,2,2,2,无知,,,,,,,,,0,90,90,136,,,,,,,,,,,j,0,1.75772809982,,,,moral_self_bias,13,19,59.9638584532,f,001,2018_Apr_02_1447,
,,,,,,,,,,,,,,,,,,,,,,material/152.png,2,缓慢,material/52.png,2,material/152.png,拖延,2,j,j,j,2,2,2,缓慢,,,,,,,,,0,91,91,51,0,0,0,0,,,,,,,f,0,1.04166507721,j,0,0.324904918671,moral_self_bias,13,19,59.9638584532,f,001,2018_Apr_02_1447,
,,,,,,,,,,,,,,,,,,,,,,material/152.png,2,缓慢,material/52.png,2,material/152.png,拖延,2,j,j,j,2,2,2,缓慢,,,,,,,,,0,91,91,51,,,,,,,,,,,,,,,,,moral_self_bias,13,19,59.9638584532,f,001,2018_Apr_02_1447,
,,,,,,,,,,,,,,,,,,,,,,material/184.png,2,草率,material/80.png,2,material/78.png,健忘,2,j,j,j,2,2,2,厌学,,,,,,,,,0,92,92,76,0,0,0,0,,,,,,,f,0,1.45072293282,j,0,0.321891069412,moral_self_bias,13,19,59.9638584532,f,001,2018_Apr_02_1447,
,,,,,,,,,,,,,,,,,,,,,,material/184.png,2,草率,material/80.png,2,material/78.png,健忘,2,j,j,j,2,2,2,厌学,,,,,,,,,0,92,92,76,,,,,,,,,,,,,,,,,moral_self_bias,13,19,59.9638584532,f,001,2018_Apr_02_1447,
,,,,,,,,,,,,,,,,,,,,,,material/58.png,2,肤浅,material/158.png,2,material/58.png,浅薄,2,f,f,f,2,2,2,肤浅,,,,,,,,,0,93,93,137,,,,,,,,,,,j,0,3.0584461689,,,,moral_self_bias,13,19,59.9638584532,f,001,2018_Apr_02_1447,
,,,,,,,,,,,,,,,,,,,,,,material/63.png,1,正义,material/166.png,1,material/66.png,仗义,1,f,f,f,1,1,1,文明,,,,,,,,,0,94,94,145,0,0,0,0,,,,,,,f,1,1.090955019,j,0,0.258922100067,moral_self_bias,13,19,59.9638584532,f,001,2018_Apr_02_1447,
,,,,,,,,,,,,,,,,,,,,,,material/63.png,1,正义,material/166.png,1,material/66.png,仗义,1,f,f,f,1,1,1,文明,,,,,,,,,0,94,94,145,,,,,,,,,,,,,,,,,moral_self_bias,13,19,59.9638584532,f,001,2018_Apr_02_1447,
,,,,,,,,,,,,,,,,,,,,,,material/163.png,1,文明,material/163.png,1,material/63.png,宽容,1,f,f,f,1,1,1,宽容,,,,,,,,,0,95,95,142,,,,,,,,,,,j,0,1.50874590874,,,,moral_self_bias,13,19,59.9638584532,f,001,2018_Apr_02_1447,
,,,,,,,,,,,,,,,,,,,,,,material/52.png,2,拖延,material/152.png,2,material/52.png,缓慢,2,f,f,f,2,2,2,拖延,,,,,,,,,0,96,96,131,0,0,0,0,,,,,,,f,1,0.891695976257,j,0,0.291516065598,moral_self_bias,13,19,59.9638584532,f,001,2018_Apr_02_1447,
,,,,,,,,,,,,,,,,,,,,,,material/52.png,2,拖延,material/152.png,2,material/52.png,缓慢,2,f,f,f,2,2,2,拖延,,,,,,,,,0,96,96,131,,,,,,,,,,,,,,,,,moral_self_bias,13,19,59.9638584532,f,001,2018_Apr_02_1447,
,,,,,,,,,,,,,,,,,,,,,,material/6.png,1,厚道,material/106.png,1,material/106.png,厚道,1,f,f,f,1,1,1,诚实,,,,,,,,,0,97,97,85,0,0,0,0,,,,,,,f,1,2.69163107872,j,0,0.690994024277,moral_self_bias,13,19,59.9638584532,f,001,2018_Apr_02_1447,
,,,,,,,,,,,,,,,,,,,,,,material/6.png,1,厚道,material/106.png,1,material/106.png,厚道,1,f,f,f,1,1,1,诚实,,,,,,,,,0,97,97,85,,,,,,,,,,,,,,,,,moral_self_bias,13,19,59.9638584532,f,001,2018_Apr_02_1447,
,,,,,,,,,,,,,,,,,,,,,,material/102.png,1,善心,material/2.png,1,material/2.png,善心,1,j,j,j,1,1,1,爱心,,,,,,,,,0,98,98,1,,,,,,,,,,,j,1,1.09028315544,,,,moral_self_bias,13,19,59.9638584532,f,001,2018_Apr_02_1447,
,,,,,,,,,,,,,,,,,,,,,,material/158.png,2,浅薄,material/58.png,2,material/158.png,肤浅,2,j,j,j,2,2,2,浅薄,,,,,,,,,0,99,99,57,0,0,0,0,,,,,,,f,0,0.908668994904,j,0,0.274957895279,moral_self_bias,13,19,59.9638584532,f,001,2018_Apr_02_1447,
,,,,,,,,,,,,,,,,,,,,,,material/158.png,2,浅薄,material/58.png,2,material/158.png,肤浅,2,j,j,j,2,2,2,浅薄,,,,,,,,,0,99,99,57,,,,,,,,,,,,,,,,,moral_self_bias,13,19,59.9638584532,f,001,2018_Apr_02_1447,
,,,,,,,,,,,,,,,,,,,,,,material/130.png,1,进取,material/30.png,1,material/130.png,上进,1,j,j,j,2,2,2,进取,,,,,,,,,0,100,100,29,0,0,0,0,,,,,,,f,0,0.791194915771,j,0,0.822926044464,moral_self_bias,13,19,59.9638584532,f,001,2018_Apr_02_1447,
,,,,,,,,,,,,,,,,,,,,,,material/130.png,1,进取,material/30.png,1,material/130.png,上进,1,j,j,j,2,2,2,进取,,,,,,,,,0,100,100,29,,,,,,,,,,,,,,,,,moral_self_bias,13,19,59.9638584532,f,001,2018_Apr_02_1447,
,,,,,,,,,,,,,,,,,,,,,,material/166.png,1,孝顺,material/64.png,1,material/164.png,奉献,1,j,j,j,1,1,1,仗义,,,,,,,,,0,101,101,63,,,,,,,,,,,j,1,2.22581505775,,,,moral_self_bias,13,19,59.9638584532,f,001,2018_Apr_02_1447,
,,,,,,,,,,,,,,,,,,,,,,material/106.png,1,诚实,material/6.png,1,material/6.png,诚实,1,j,j,j,1,1,1,厚道,,,,,,,,,0,102,102,5,,,,,,,,,,,j,1,2.5336458683,,,,moral_self_bias,13,19,59.9638584532,f,001,2018_Apr_02_1447,
,,,,,,,,,,,,,,,,,,,,,,material/50.png,2,愚笨,material/150.png,2,material/50.png,鲁钝,2,f,f,f,2,2,2,愚笨,,,,,,,,,0,103,103,129,,,,,,,,,,,j,0,0.957957029343,,,,moral_self_bias,13,19,59.9638584532,f,001,2018_Apr_02_1447,
,,,,,,,,,,,,,,,,,,,,,,material/160.png,2,笨拙,material/60.png,2,material/160.png,粗拙,2,j,j,j,2,2,2,笨拙,,,,,,,,,0,104,104,59,0,0,0,0,,,,,,,f,0,0.959160089493,j,0,0.358925104141,moral_self_bias,13,19,59.9638584532,f,001,2018_Apr_02_1447,
,,,,,,,,,,,,,,,,,,,,,,material/160.png,2,笨拙,material/60.png,2,material/160.png,粗拙,2,j,j,j,2,2,2,笨拙,,,,,,,,,0,104,104,59,,,,,,,,,,,,,,,,,moral_self_bias,13,19,59.9638584532,f,001,2018_Apr_02_1447,
,,,,,,,,,,,,,,,,,,,,,,material/177.png,2,谄媚,material/72.png,2,material/72.png,谄媚,2,j,j,j,1,1,1,恶心,,,,,,,,,0,105,105,69,,,,,,,,,,,j,1,0.908442020416,,,,moral_self_bias,13,19,59.9638584532,f,001,2018_Apr_02_1447,
,,,,,,,,,,,,,,,,,,,,,,material/132.png,2,不忠,material/32.png,2,material/32.png,不忠,2,j,j,j,1,1,1,背叛,,,,,,,,,0,106,106,31,,,,,,,,,,,j,1,1.15710806847,,,,moral_self_bias,13,19,59.9638584532,f,001,2018_Apr_02_1447,
,,,,,,,,,,,,,,,,,,,,,,material/114.png,1,爱国,material/14.png,1,material/14.png,爱国,1,j,j,j,1,1,1,忠贞,,,,,,,,,0,107,107,13,,,,,,,,,,,j,1,0.957743167877,,,,moral_self_bias,13,19,59.9638584532,f,001,2018_Apr_02_1447,
,,,,,,,,,,,,,,,,,,,,,,material/10.png,1,坚毅,material/110.png,1,material/110.png,坚毅,1,f,f,f,1,1,1,顽强,,,,,,,,,0,108,108,89,,,,,,,,,,,j,0,1.02517008781,,,,moral_self_bias,13,19,59.9638584532,f,001,2018_Apr_02_1447,
,,,,,,,,,,,,,,,,,,,,,,material/12.png,1,忠心,material/112.png,1,material/112.png,忠心,1,f,f,f,1,1,1,忠诚,,,,,,,,,0,109,109,91,0,0,0,0,,,,,,,f,1,0.908433198929,j,0,0.408077001572,moral_self_bias,13,19,59.9638584532,f,001,2018_Apr_02_1447,
,,,,,,,,,,,,,,,,,,,,,,material/12.png,1,忠心,material/112.png,1,material/112.png,忠心,1,f,f,f,1,1,1,忠诚,,,,,,,,,0,109,109,91,,,,,,,,,,,,,,,,,moral_self_bias,13,19,59.9638584532,f,001,2018_Apr_02_1447,
,,,,,,,,,,,,,,,,,,,,,,material/144.png,2,失信,material/44.png,2,material/44.png,失信,2,j,j,j,1,1,1,爽约,,,,,,,,,0,110,110,43,,,,,,,,,,,j,1,1.40741300583,,,,moral_self_bias,13,19,59.9638584532,f,001,2018_Apr_02_1447,
,,,,,,,,,,,,,,,,,,,,,,material/120.png,1,能干,material/20.png,1,material/120.png,厉害,1,j,j,j,2,2,2,能干,,,,,,,,,0,111,111,19,0,0,0,0,,,,,,,f,0,1.06723403931,j,0,0.358603000641,moral_self_bias,13,19,59.9638584532,f,001,2018_Apr_02_1447,
,,,,,,,,,,,,,,,,,,,,,,material/120.png,1,能干,material/20.png,1,material/120.png,厉害,1,j,j,j,2,2,2,能干,,,,,,,,,0,111,111,19,,,,,,,,,,,,,,,,,moral_self_bias,13,19,59.9638584532,f,001,2018_Apr_02_1447,
,,,,,,,,,,,,,,,,,,,,,,material/129.png,1,好问,material/29.png,1,material/129.png,好学,1,j,j,j,2,2,2,好问,,,,,,,,,0,112,112,28,0,0,0,0,,,,,,,f,0,0.907118082047,j,0,0.458534955978,moral_self_bias,13,19,59.9638584532,f,001,2018_Apr_02_1447,
,,,,,,,,,,,,,,,,,,,,,,material/129.png,1,好问,material/29.png,1,material/129.png,好学,1,j,j,j,2,2,2,好问,,,,,,,,,0,112,112,28,,,,,,,,,,,,,,,,,moral_self_bias,13,19,59.9638584532,f,001,2018_Apr_02_1447,
,,,,,,,,,,,,,,,,,,,,,,material/104.png,1,友爱,material/4.png,1,material/4.png,友爱,1,j,j,j,1,1,1,友善,,,,,,,,,0,113,113,3,0,0,0,0,,,,,,,f,0,2.74129986763,j,0,0.641386032104,moral_self_bias,13,19,59.9638584532,f,001,2018_Apr_02_1447,
,,,,,,,,,,,,,,,,,,,,,,material/104.png,1,友爱,material/4.png,1,material/4.png,友爱,1,j,j,j,1,1,1,友善,,,,,,,,,0,113,113,3,,,,,,,,,,,,,,,,,moral_self_bias,13,19,59.9638584532,f,001,2018_Apr_02_1447,
,,,,,,,,,,,,,,,,,,,,,,material/15.png,1,纯洁,material/115.png,1,material/115.png,纯洁,1,f,f,f,1,1,1,清白,,,,,,,,,0,114,114,94,,,,,,,,,,,j,0,1.65758705139,,,,moral_self_bias,13,19,59.9638584532,f,001,2018_Apr_02_1447,
,,,,,,,,,,,,,,,,,,,,,,material/3.png,1,仁厚,material/103.png,1,material/103.png,仁厚,1,f,f,f,1,1,1,仁慈,,,,,,,,,0,115,115,82,,,,,,,,,,,j,0,1.1918489933,,,,moral_self_bias,13,19,59.9638584532,f,001,2018_Apr_02_1447,
,,,,,,,,,,,,,,,,,,,,,,material/174.png,2,虚伪,material/76.png,2,material/76.png,虚伪,2,j,j,j,1,1,1,不义,,,,,,,,,0,116,116,72,,,,,,,,,,,j,1,0.957648038864,,,,moral_self_bias,13,19,59.9638584532,f,001,2018_Apr_02_1447,
,,,,,,,,,,,,,,,,,,,,,,material/32.png,2,背叛,material/132.png,2,material/132.png,背叛,2,f,f,f,1,1,1,不忠,,,,,,,,,0,117,117,111,0,0,0,0,,,,,,,f,1,1.02416801453,j,0,0.324311971664,moral_self_bias,13,19,59.9638584532,f,001,2018_Apr_02_1447,
,,,,,,,,,,,,,,,,,,,,,,material/32.png,2,背叛,material/132.png,2,material/132.png,背叛,2,f,f,f,1,1,1,不忠,,,,,,,,,0,117,117,111,,,,,,,,,,,,,,,,,moral_self_bias,13,19,59.9638584532,f,001,2018_Apr_02_1447,
,,,,,,,,,,,,,,,,,,,,,,material/38.png,2,缺德,material/138.png,2,material/138.png,缺德,2,f,f,f,1,1,1,无德,,,,,,,,,0,118,118,117,,,,,,,,,,,j,0,2.62514615059,,,,moral_self_bias,13,19,59.9638584532,f,001,2018_Apr_02_1447,
,,,,,,,,,,,,,,,,,,,,,,material/19.png,1,灵活,material/119.png,1,material/19.png,机灵,1,f,f,f,2,2,2,灵活,,,,,,,,,0,119,119,98,,,,,,,,,,,j,0,2.10870194435,,,,moral_self_bias,13,19,59.9638584532,f,001,2018_Apr_02_1447,
,,,,,,,,,,,,,,,,,,,,,,material/125.png,1,果敢,material/25.png,1,material/125.png,果断,1,j,j,j,2,2,2,果敢,,,,,,,,,0,120,120,24,,,,,,,,,,,j,1,0.807600975037,,,,moral_self_bias,13,19,59.9638584532,f,001,2018_Apr_02_1447,
,,,,,,,,,,,,,,,,,,,,,,material/42.png,2,奸诈,material/142.png,2,material/142.png,奸诈,2,f,f,f,1,1,1,阴险,,,,,,,,,0,121,121,121,,,,,,,,,,,j,0,1.05792093277,,,,moral_self_bias,13,19,59.9638584532,f,001,2018_Apr_02_1447,
,,,,,,,,,,,,,,,,,,,,,,material/33.png,2,贪污,material/133.png,2,material/133.png,贪污,2,f,f,f,1,1,1,腐败,,,,,,,,,0,122,122,112,0,0,0,0,,,,,,,f,1,0.818045854568,j,0,0.300426959991,moral_self_bias,13,19,59.9638584532,f,001,2018_Apr_02_1447,
,,,,,,,,,,,,,,,,,,,,,,material/33.png,2,贪污,material/133.png,2,material/133.png,贪污,2,f,f,f,1,1,1,腐败,,,,,,,,,0,122,122,112,,,,,,,,,,,,,,,,,moral_self_bias,13,19,59.9638584532,f,001,2018_Apr_02_1447,
,,,,,,,,,,,,,,,,,,,,,,material/115.png,1,清白,material/15.png,1,material/15.png,清白,1,j,j,j,1,1,1,纯洁,,,,,,,,,0,123,123,14,,,,,,,,,,,j,1,0.892092943192,,,,moral_self_bias,13,19,59.9638584532,f,001,2018_Apr_02_1447,
,,,,,,,,,,,,,,,,,,,,,,material/134.png,2,可恨,material/34.png,2,material/34.png,可恨,2,j,j,j,1,1,1,可恶,,,,,,,,,0,124,124,33,,,,,,,,,,,j,1,0.841285228729,,,,moral_self_bias,13,19,59.9638584532,f,001,2018_Apr_02_1447,
,,,,,,,,,,,,,,,,,,,,,,material/162.png,1,敬业,material/62.png,1,material/162.png,坚韧,1,j,j,j,1,1,1,敬业,,,,,,,,,0,125,125,61,0,0,0,0,,,,,,,f,0,0.875000953674,j,0,0.342425107956,moral_self_bias,13,19,59.9638584532,f,001,2018_Apr_02_1447,
,,,,,,,,,,,,,,,,,,,,,,material/162.png,1,敬业,material/62.png,1,material/162.png,坚韧,1,j,j,j,1,1,1,敬业,,,,,,,,,0,125,125,61,,,,,,,,,,,,,,,,,moral_self_bias,13,19,59.9638584532,f,001,2018_Apr_02_1447,
,,,,,,,,,,,,,,,,,,,,,,material/175.png,2,残虐,material/73.png,2,material/73.png,残虐,2,f,f,f,1,1,1,无情,,,,,,,,,0,126,126,165,0,0,0,0,,,,,,,f,1,1.25927901268,j,0,0.308964014053,moral_self_bias,13,19,59.9638584532,f,001,2018_Apr_02_1447,
,,,,,,,,,,,,,,,,,,,,,,material/175.png,2,残虐,material/73.png,2,material/73.png,残虐,2,f,f,f,1,1,1,无情,,,,,,,,,0,126,126,165,,,,,,,,,,,,,,,,,moral_self_bias,13,19,59.9638584532,f,001,2018_Apr_02_1447,
,,,,,,,,,,,,,,,,,,,,,,material/167.png,1,高手,material/169.png,1,material/167.png,颖悟,1,f,f,f,2,2,2,高手,,,,,,,,,0,127,127,148,0,0,0,0,,,,,,,f,1,1.04150009155,j,0,0.307588100433,moral_self_bias,13,19,59.9638584532,f,001,2018_Apr_02_1447,
,,,,,,,,,,,,,,,,,,,,,,material/167.png,1,高手,material/169.png,1,material/167.png,颖悟,1,f,f,f,2,2,2,高手,,,,,,,,,0,127,127,148,,,,,,,,,,,,,,,,,moral_self_bias,13,19,59.9638584532,f,001,2018_Apr_02_1447,
,,,,,,,,,,,,,,,,,,,,,,material/14.png,1,忠贞,material/114.png,1,material/114.png,忠贞,1,f,f,f,1,1,1,爱国,,,,,,,,,0,128,128,93,0,0,0,0,,,,,,,f,1,2.64140605927,j,0,1.04194498062,moral_self_bias,13,19,59.9638584532,f,001,2018_Apr_02_1447,
,,,,,,,,,,,,,,,,,,,,,,material/14.png,1,忠贞,material/114.png,1,material/114.png,忠贞,1,f,f,f,1,1,1,爱国,,,,,,,,,0,128,128,93,,,,,,,,,,,,,,,,,moral_self_bias,13,19,59.9638584532,f,001,2018_Apr_02_1447,
,,,,,,,,,,,,,,,,,,,,,,material/171.png,1,高效,material/67.png,1,material/171.png,骁勇,1,j,j,j,2,2,2,高效,,,,,,,,,0,129,129,65,0,0,0,0,,,,,,,f,0,4.00857496262,j,0,2.09268403053,moral_self_bias,13,19,59.9638584532,f,001,2018_Apr_02_1447,
,,,,,,,,,,,,,,,,,,,,,,material/171.png,1,高效,material/67.png,1,material/171.png,骁勇,1,j,j,j,2,2,2,高效,,,,,,,,,0,129,129,65,,,,,,,,,,,,,,,,,moral_self_bias,13,19,59.9638584532,f,001,2018_Apr_02_1447,
,,,,,,,,,,,,,,,,,,,,,,material/59.png,2,智障,material/159.png,2,material/59.png,弱智,2,f,f,f,2,2,2,智障,,,,,,,,,0,130,130,138,,,,,,,,,,,j,0,3.5586669445,,,,moral_self_bias,13,19,59.9638584532,f,001,2018_Apr_02_1447,
,,,,,,,,,,,,,,,,,,,,,,material/165.png,1,平等,material/161.png,1,material/61.png,勇敢,1,f,f,f,1,1,1,独立,,,,,,,,,0,131,131,140,,,,,,,,,,,j,0,1.57471895218,,,,moral_self_bias,13,19,59.9638584532,f,001,2018_Apr_02_1447,
,,,,,,,,,,,,,,,,,,,,,,material/80.png,2,才尽,material/83.png,2,material/182.png,呆笨,2,j,j,j,2,2,2,健忘,,,,,,,,,0,132,132,79,,,,,,,,,,,j,1,0.840835094452,,,,moral_self_bias,13,19,59.9638584532,f,001,2018_Apr_02_1447,
,,,,,,,,,,,,,,,,,,,,,,material/72.png,2,软弱,material/77.png,2,material/77.png,软弱,2,j,j,j,1,1,1,谄媚,,,,,,,,,0,133,133,73,,,,,,,,,,,j,1,0.858419895172,,,,moral_self_bias,13,19,59.9638584532,f,001,2018_Apr_02_1447,
,,,,,,,,,,,,,,,,,,,,,,material/83.png,2,差生,material/78.png,2,material/179.png,草率,2,j,j,j,2,2,2,呆笨,,,,,,,,,0,134,134,74,,,,,,,,,,,j,1,0.675111055374,,,,moral_self_bias,13,19,59.9638584532,f,001,2018_Apr_02_1447,
,,,,,,,,,,,,,,,,,,,,,,material/146.png,2,小气,material/46.png,2,material/46.png,小气,2,j,j,j,1,1,1,自私,,,,,,,,,0,135,135,45,,,,,,,,,,,j,1,0.667306184769,,,,moral_self_bias,13,19,59.9638584532,f,001,2018_Apr_02_1447,
,,,,,,,,,,,,,,,,,,,,,,material/173.png,2,不义,material/174.png,2,material/174.png,不义,2,f,f,f,1,1,1,黑心,,,,,,,,,0,136,136,153,,,,,,,,,,,j,0,0.541437864304,,,,moral_self_bias,13,19,59.9638584532,f,001,2018_Apr_02_1447,
,,,,,,,,,,,,,,,,,,,,,,material/54.png,2,依赖,material/154.png,2,material/54.png,依靠,2,f,f,f,2,2,2,依赖,,,,,,,,,0,137,137,133,0,0,0,0,,,,,,,f,1,1.20847916603,j,0,0.324262142181,moral_self_bias,13,19,59.9638584532,f,001,2018_Apr_02_1447,
,,,,,,,,,,,,,,,,,,,,,,material/54.png,2,依赖,material/154.png,2,material/54.png,依靠,2,f,f,f,2,2,2,依赖,,,,,,,,,0,137,137,133,,,,,,,,,,,,,,,,,moral_self_bias,13,19,59.9638584532,f,001,2018_Apr_02_1447,
,,,,,,,,,,,,,,,,,,,,,,material/122.png,1,博学,material/22.png,1,material/122.png,才学,1,j,j,j,2,2,2,博学,,,,,,,,,0,138,138,21,0,0,0,0,,,,,,,f,0,1.04035687447,j,0,0.325166940689,moral_self_bias,13,19,59.9638584532,f,001,2018_Apr_02_1447,
,,,,,,,,,,,,,,,,,,,,,,material/122.png,1,博学,material/22.png,1,material/122.png,才学,1,j,j,j,2,2,2,博学,,,,,,,,,0,138,138,21,,,,,,,,,,,,,,,,,moral_self_bias,13,19,59.9638584532,f,001,2018_Apr_02_1447,
,,,,,,,,,,,,,,,,,,,,,,material/84.png,2,犹豫,material/84.png,2,material/181.png,顽愚,2,f,f,f,2,2,2,顽愚,,,,,,,,,0,139,139,167,0,0,0,0,,,,,,,f,1,1.34161686897,j,0,0.392154932022,moral_self_bias,13,19,59.9638584532,f,001,2018_Apr_02_1447,
,,,,,,,,,,,,,,,,,,,,,,material/84.png,2,犹豫,material/84.png,2,material/181.png,顽愚,2,f,f,f,2,2,2,顽愚,,,,,,,,,0,139,139,167,,,,,,,,,,,,,,,,,moral_self_bias,13,19,59.9638584532,f,001,2018_Apr_02_1447,
,,,,,,,,,,,,,,,,,,,,,,material/62.png,1,坚韧,material/162.png,1,material/62.png,敬业,1,f,f,f,1,1,1,坚韧,,,,,,,,,0,140,140,141,,,,,,,,,,,j,0,2.04118204117,,,,moral_self_bias,13,19,59.9638584532,f,001,2018_Apr_02_1447,
,,,,,,,,,,,,,,,,,,,,,,material/17.png,1,聪明,material/117.png,1,material/17.png,聪颖,1,f,f,f,2,2,2,聪明,,,,,,,,,0,141,141,96,,,,,,,,,,,j,0,1.808781147,,,,moral_self_bias,13,19,59.9638584532,f,001,2018_Apr_02_1447,
,,,,,,,,,,,,,,,,,,,,,,material/109.png,1,秉直,material/9.png,1,material/9.png,秉直,1,j,j,j,1,1,1,正直,,,,,,,,,0,142,142,8,,,,,,,,,,,j,1,0.675330162048,,,,moral_self_bias,13,19,59.9638584532,f,001,2018_Apr_02_1447,
,,,,,,,,,,,,,,,,,,,,,,material/140.png,2,邪恶,material/40.png,2,material/40.png,邪恶,2,j,j,j,1,1,1,狠毒,,,,,,,,,0,143,143,39,,,,,,,,,,,j,1,0.734282970428,,,,moral_self_bias,13,19,59.9638584532,f,001,2018_Apr_02_1447,
,,,,,,,,,,,,,,,,,,,,,,material/180.png,2,无助,material/79.png,2,material/81.png,颓废,2,j,j,j,2,2,2,怠惰,,,,,,,,,0,144,144,75,0,0,0,0,,,,,,,f,0,0.924273967743,j,0,0.307330846786,moral_self_bias,13,19,59.9638584532,f,001,2018_Apr_02_1447,
,,,,,,,,,,,,,,,,,,,,,,material/180.png,2,无助,material/79.png,2,material/81.png,颓废,2,j,j,j,2,2,2,怠惰,,,,,,,,,0,144,144,75,,,,,,,,,,,,,,,,,moral_self_bias,13,19,59.9638584532,f,001,2018_Apr_02_1447,
,,,,,,,,,,,,,,,,,,,,,,material/25.png,1,果断,material/125.png,1,material/25.png,果敢,1,f,f,f,2,2,2,果断,,,,,,,,,0,145,145,104,0,0,0,0,,,,,,,f,1,1.20792818069,j,0,0.809315919876,moral_self_bias,13,19,59.9638584532,f,001,2018_Apr_02_1447,
,,,,,,,,,,,,,,,,,,,,,,material/25.png,1,果断,material/125.png,1,material/25.png,果敢,1,f,f,f,2,2,2,果断,,,,,,,,,0,145,145,104,,,,,,,,,,,,,,,,,moral_self_bias,13,19,59.9638584532,f,001,2018_Apr_02_1447,
,,,,,,,,,,,,,,,,,,,,,,material/181.png,2,怠惰,material/180.png,2,material/180.png,怠惰,2,f,f,f,2,2,2,犹豫,,,,,,,,,0,146,146,159,0,0,0,0,,,,,,,f,1,2.55771899223,j,0,0.674886226654,moral_self_bias,13,19,59.9638584532,f,001,2018_Apr_02_1447,
,,,,,,,,,,,,,,,,,,,,,,material/181.png,2,怠惰,material/180.png,2,material/180.png,怠惰,2,f,f,f,2,2,2,犹豫,,,,,,,,,0,146,146,159,,,,,,,,,,,,,,,,,moral_self_bias,13,19,59.9638584532,f,001,2018_Apr_02_1447,
,,,,,,,,,,,,,,,,,,,,,,material/35.png,2,冷血,material/135.png,2,material/135.png,冷血,2,f,f,f,1,1,1,冷漠,,,,,,,,,0,147,147,114,,,,,,,,,,,j,0,1.42553305626,,,,moral_self_bias,13,19,59.9638584532,f,001,2018_Apr_02_1447,
,,,,,,,,,,,,,,,,,,,,,,material/22.png,1,才学,material/122.png,1,material/22.png,博学,1,f,f,f,2,2,2,才学,,,,,,,,,0,148,148,101,0,0,0,0,,,,,,,f,1,0.908200979233,j,0,0.324574947357,moral_self_bias,13,19,59.9638584532,f,001,2018_Apr_02_1447,
,,,,,,,,,,,,,,,,,,,,,,material/22.png,1,才学,material/122.png,1,material/22.png,博学,1,f,f,f,2,2,2,才学,,,,,,,,,0,148,148,101,,,,,,,,,,,,,,,,,moral_self_bias,13,19,59.9638584532,f,001,2018_Apr_02_1447,
,,,,,,,,,,,,,,,,,,,,,,material/7.png,1,公平,material/107.png,1,material/107.png,公平,1,f,f,f,1,1,1,公正,,,,,,,,,0,149,149,86,0,0,0,0,,,,,,,f,1,0.733034849167,j,0,0.341432094574,moral_self_bias,13,19,59.9638584532,f,001,2018_Apr_02_1447,
,,,,,,,,,,,,,,,,,,,,,,material/7.png,1,公平,material/107.png,1,material/107.png,公平,1,f,f,f,1,1,1,公正,,,,,,,,,0,149,149,86,,,,,,,,,,,,,,,,,moral_self_bias,13,19,59.9638584532,f,001,2018_Apr_02_1447,
,,,,,,,,,,,,,,,,,,,,,,material/40.png,2,狠毒,material/140.png,2,material/140.png,狠毒,2,f,f,f,1,1,1,邪恶,,,,,,,,,0,150,150,119,,,,,,,,,,,j,0,1.34071493149,,,,moral_self_bias,13,19,59.9638584532,f,001,2018_Apr_02_1447,
,,,,,,,,,,,,,,,,,,,,,,material/119.png,1,机灵,material/19.png,1,material/119.png,灵活,1,j,j,j,2,2,2,机灵,,,,,,,,,0,151,151,18,,,,,,,,,,,j,1,0.891129970551,,,,moral_self_bias,13,19,59.9638584532,f,001,2018_Apr_02_1447,
,,,,,,,,,,,,,,,,,,,,,,material/45.png,2,小人,material/145.png,2,material/145.png,小人,2,f,f,f,1,1,1,下流,,,,,,,,,0,152,152,124,0,0,0,0,,,,,,,f,1,1.058989048,j,0,0.342175960541,moral_self_bias,13,19,59.9638584532,f,001,2018_Apr_02_1447,
,,,,,,,,,,,,,,,,,,,,,,material/45.png,2,小人,material/145.png,2,material/145.png,小人,2,f,f,f,1,1,1,下流,,,,,,,,,0,152,152,124,,,,,,,,,,,,,,,,,moral_self_bias,13,19,59.9638584532,f,001,2018_Apr_02_1447,
,,,,,,,,,,,,,,,,,,,,,,material/112.png,1,忠诚,material/12.png,1,material/12.png,忠诚,1,j,j,j,1,1,1,忠心,,,,,,,,,0,153,153,11,0,0,0,0,,,,,,,f,0,1.32465291023,j,0,0.334537982941,moral_self_bias,13,19,59.9638584532,f,001,2018_Apr_02_1447,
,,,,,,,,,,,,,,,,,,,,,,material/112.png,1,忠诚,material/12.png,1,material/12.png,忠诚,1,j,j,j,1,1,1,忠心,,,,,,,,,0,153,153,11,,,,,,,,,,,,,,,,,moral_self_bias,13,19,59.9638584532,f,001,2018_Apr_02_1447,
,,,,,,,,,,,,,,,,,,,,,,material/148.png,2,笨蛋,material/48.png,2,material/148.png,愚蠢,2,j,j,j,2,2,2,笨蛋,,,,,,,,,0,154,154,47,0,0,0,0,,,,,,,f,0,1.67477011681,j,0,0.391634941101,moral_self_bias,13,19,59.9638584532,f,001,2018_Apr_02_1447,
,,,,,,,,,,,,,,,,,,,,,,material/148.png,2,笨蛋,material/48.png,2,material/148.png,愚蠢,2,j,j,j,2,2,2,笨蛋,,,,,,,,,0,154,154,47,,,,,,,,,,,,,,,,,moral_self_bias,13,19,59.9638584532,f,001,2018_Apr_02_1447,
,,,,,,,,,,,,,,,,,,,,,,material/39.png,2,恶毒,material/139.png,2,material/139.png,恶毒,2,f,f,f,1,1,1,凶残,,,,,,,,,0,155,155,118,,,,,,,,,,,j,0,0.991360902786,,,,moral_self_bias,13,19,59.9638584532,f,001,2018_Apr_02_1447,
,,,,,,,,,,,,,,,,,,,,,,material/66.png,1,独立,material/66.png,1,material/165.png,正义,1,f,f,f,1,1,1,正义,,,,,,,,,0,156,156,164,0,0,0,0,,,,,,,f,1,0.708029985428,j,0,0.924188137054,moral_self_bias,13,19,59.9638584532,f,001,2018_Apr_02_1447,
,,,,,,,,,,,,,,,,,,,,,,material/66.png,1,独立,material/66.png,1,material/165.png,正义,1,f,f,f,1,1,1,正义,,,,,,,,,0,156,156,164,,,,,,,,,,,,,,,,,moral_self_bias,13,19,59.9638584532,f,001,2018_Apr_02_1447,
,,,,,,,,,,,,,,,,,,,,,,material/9.png,1,正直,material/109.png,1,material/109.png,正直,1,f,f,f,1,1,1,秉直,,,,,,,,,0,157,157,88,,,,,,,,,,,j,0,1.89036393166,,,,moral_self_bias,13,19,59.9638584532,f,001,2018_Apr_02_1447,
,,,,,,,,,,,,,,,,,,,,,,material/155.png,2,盲目,material/55.png,2,material/155.png,盲从,2,j,j,j,2,2,2,盲目,,,,,,,,,0,158,158,54,0,0,0,0,,,,,,,f,0,1.04159092903,j,0,0.841559171677,moral_self_bias,13,19,59.9638584532,f,001,2018_Apr_02_1447,
,,,,,,,,,,,,,,,,,,,,,,material/155.png,2,盲目,material/55.png,2,material/155.png,盲从,2,j,j,j,2,2,2,盲目,,,,,,,,,0,158,158,54,,,,,,,,,,,,,,,,,moral_self_bias,13,19,59.9638584532,f,001,2018_Apr_02_1447,
,,,,,,,,,,,,,,,,,,,,,,material/176.png,2,害人,material/75.png,2,material/75.png,害人,2,j,j,j,1,1,1,放纵,,,,,,,,,0,159,159,71,,,,,,,,,,,j,1,2.59267497063,,,,moral_self_bias,13,19,59.9638584532,f,001,2018_Apr_02_1447,
,,,,,,,,,,,,,,,,,,,,,,material/101.png,1,善良,material/1.png,1,material/1.png,善良,1,j,j,j,1,1,1,博爱,,,,,,,,,0,160,160,0,,,,,,,,,,,j,1,3.37564396858,,,,moral_self_bias,13,19,59.9638584532,f,001,2018_Apr_02_1447,
,,,,,,,,,,,,,,,,,,,,,,material/159.png,2,弱智,material/59.png,2,material/159.png,智障,2,j,j,j,2,2,2,弱智,,,,,,,,,0,161,161,58,,,,,,,,,,,j,1,1.21689105034,,,,moral_self_bias,13,19,59.9638584532,f,001,2018_Apr_02_1447,
,,,,,,,,,,,,,,,,,,,,,,material/103.png,1,仁慈,material/3.png,1,material/3.png,仁慈,1,j,j,j,1,1,1,仁厚,,,,,,,,,0,162,162,2,,,,,,,,,,,j,1,0.891144990921,,,,moral_self_bias,13,19,59.9638584532,f,001,2018_Apr_02_1447,
,,,,,,,,,,,,,,,,,,,,,,material/78.png,2,厌学,material/181.png,2,material/184.png,犹豫,2,f,f,f,2,2,2,草率,,,,,,,,,0,163,163,160,,,,,,,,,,,j,0,0.77490401268,,,,moral_self_bias,13,19,59.9638584532,f,001,2018_Apr_02_1447,
,,,,,,,,,,,,,,,,,,,,,,material/44.png,2,爽约,material/144.png,2,material/144.png,爽约,2,f,f,f,1,1,1,失信,,,,,,,,,0,164,164,123,,,,,,,,,,,j,0,1.14047408104,,,,moral_self_bias,13,19,59.9638584532,f,001,2018_Apr_02_1447,
,,,,,,,,,,,,,,,,,,,,,,material/135.png,2,冷漠,material/35.png,2,material/35.png,冷漠,2,j,j,j,1,1,1,冷血,,,,,,,,,0,165,165,34,0,0,0,0,,,,,,,f,0,0.959571123123,j,0,0.333688020706,moral_self_bias,13,19,59.9638584532,f,001,2018_Apr_02_1447,
,,,,,,,,,,,,,,,,,,,,,,material/135.png,2,冷漠,material/35.png,2,material/35.png,冷漠,2,j,j,j,1,1,1,冷血,,,,,,,,,0,165,165,34,,,,,,,,,,,,,,,,,moral_self_bias,13,19,59.9638584532,f,001,2018_Apr_02_1447,
,,,,,,,,,,,,,,,,,,,,,,material/20.png,1,厉害,material/120.png,1,material/20.png,能干,1,f,f,f,2,2,2,厉害,,,,,,,,,0,166,166,99,0,0,0,0,,,,,,,f,1,0.991274118423,j,0,0.591449022293,moral_self_bias,13,19,59.9638584532,f,001,2018_Apr_02_1447,
,,,,,,,,,,,,,,,,,,,,,,material/20.png,1,厉害,material/120.png,1,material/20.png,能干,1,f,f,f,2,2,2,厉害,,,,,,,,,0,166,166,99,,,,,,,,,,,,,,,,,moral_self_bias,13,19,59.9638584532,f,001,2018_Apr_02_1447,
,,,,,,,,,,,,,,,,,,,,,,material/24.png,1,理智,material/124.png,1,material/24.png,冷静,1,f,f,f,2,2,2,理智,,,,,,,,,0,167,167,103,0,0,0,0,,,,,,,f,1,1.07524299622,j,0,0.324901103973,moral_self_bias,13,19,59.9638584532,f,001,2018_Apr_02_1447,
,,,,,,,,,,,,,,,,,,,,,,material/24.png,1,理智,material/124.png,1,material/24.png,冷静,1,f,f,f,2,2,2,理智,,,,,,,,,0,167,167,103,,,,,,,,,,,,,,,,,moral_self_bias,13,19,59.9638584532,f,001,2018_Apr_02_1447,
