Block1_Old,Num_Source3,Num_Source2,Num_Source1,valence1,valence2,valence3,Num_Old2,Corr_S1,Num_Old1,Corr_S3,Corr_S2,Block3_Old,Block2_Old,Source_2,Source_3,Source_1,domain3,domain2,domain1,Num_Old3,math,Num_All2,valence_all1,All_Words3,Num_All1,valence_all2,Num_All3,All_Words1,valence_all3,Corr_Rec2,Corr_Rec3,Corr_Rec1,domian_all3,domian_all2,domian_all1,All_Words2,trials.thisRepN,trials.thisTrialN,trials.thisN,trials.thisIndex,trials_2.thisRepN,trials_2.thisTrialN,trials_2.thisN,trials_2.thisIndex,trials_4.thisRepN,trials_4.thisTrialN,trials_4.thisN,trials_4.thisIndex,trials_3.thisRepN,trials_3.thisTrialN,trials_3.thisN,trials_3.thisIndex,block_resp_1.keys,block_resp_1.rt,words_rating.keys,words_rating.rt,block_resp_2.keys,block_resp_2.rt,Rec_resp.keys,Rec_resp.corr,Rec_resp.rt,Source_resp.keys,Source_resp.corr,Source_resp.rt,expName,participant,Age,frameRate,Sex,session,date,
,,,,,,,,,,,,,,,,,,,,,,,,,,,,,,,,,,,,,,,,,,,,,,,,,,,,,2,10.093930006,,,,,,,,,,,moral_self_bias,17,19,60.0041773843,m,001,2018_Apr_02_1602,
高尚,material/instr2_1.png,material/instr2_1.png,material/instr2_1.png,1,1,1,material/11.png,f,material/111.png,f,f,高尚,高雅,self,self,self,1,1,1,material/111.png,,,,,,,,,,,,,,,,,0,0,0,10,,,,,,,,,,,,,,,None,,,,,,,,,,moral_self_bias,17,19,60.0041773843,m,001,2018_Apr_02_1602,
虚荣,material/instr2_1.png,material/instr2_1.png,material/instr2_1.png,2,2,2,material/43.png,f,material/143.png,f,f,虚荣,拜金,self,self,self,1,1,1,material/143.png,,,,,,,,,,,,,,,,,0,1,1,42,,,,,,,,,,,,,,,2,1.87373900414,,,,,,,,,moral_self_bias,17,19,60.0041773843,m,001,2018_Apr_02_1602,
勇敢,material/instr2_2.png,material/instr2_2.png,material/instr2_2.png,1,1,1,material/165.png,j,material/161.png,j,j,平等,独立,friend,friend,friend,1,1,1,material/61.png,,,,,,,,,,,,,,,,,0,2,2,60,,,,,,,,,,,,,,,2,1.59127497673,,,,,,,,,moral_self_bias,17,19,60.0041773843,m,001,2018_Apr_02_1602,
放纵,material/instr2_1.png,material/instr2_1.png,material/instr2_1.png,2,2,2,material/76.png,f,material/176.png,f,f,放纵,虚伪,self,self,self,1,1,1,material/176.png,,,,,,,,,,,,,,,,,0,3,3,75,,,,,,,,,,,,,,,3,1.50866699219,,,,,,,,,moral_self_bias,17,19,60.0041773843,m,001,2018_Apr_02_1602,
博爱,material/instr2_1.png,material/instr2_1.png,material/instr2_1.png,1,1,1,material/1.png,f,material/101.png,f,f,博爱,善良,self,self,self,1,1,1,material/101.png,,,,,,,,,,,,,,,,,0,4,4,0,,,,,,,,,,,,,,,4,1.14122796059,,,,,,,,,moral_self_bias,17,19,60.0041773843,m,001,2018_Apr_02_1602,
缺德,material/instr2_2.png,material/instr2_2.png,material/instr2_2.png,2,2,2,material/38.png,j,material/138.png,j,j,缺德,无德,friend,friend,friend,1,1,1,material/138.png,,,,,,,,,,,,,,,,,0,5,5,37,,,,,,,,,,,,,,,2,1.05894184113,,,,,,,,,moral_self_bias,17,19,60.0041773843,m,001,2018_Apr_02_1602,
厌学,material/instr2_2.png,material/instr2_2.png,material/instr2_2.png,2,2,2,material/182.png,j,material/184.png,j,j,健忘,才尽,friend,friend,friend,2,2,2,material/80.png,,,,,,,,,,,,,,,,,0,6,6,83,,,,,,,,,,,,,,,4,1.6251449585,,,,,,,,,moral_self_bias,17,19,60.0041773843,m,001,2018_Apr_02_1602,
怠惰,material/instr2_2.png,material/instr2_2.png,material/instr2_2.png,2,2,2,material/181.png,j,material/180.png,j,j,怠惰,犹豫,friend,friend,friend,2,2,2,material/180.png,,,,,,,,,,,,,,,,,0,7,7,79,,,,,,,,,,,,,,,3,1.44284582138,,,,,,,,,moral_self_bias,17,19,60.0041773843,m,001,2018_Apr_02_1602,
厚道,material/instr2_2.png,material/instr2_2.png,material/instr2_2.png,1,1,1,material/6.png,j,material/106.png,j,j,厚道,诚实,friend,friend,friend,1,1,1,material/106.png,,,,,,,,,,,,,,,,,0,8,8,5,,,,,,,,,,,,,,,4,1.13353896141,,,,,,,,,moral_self_bias,17,19,60.0041773843,m,001,2018_Apr_02_1602,
独立,material/instr2_1.png,material/instr2_1.png,material/instr2_1.png,1,1,1,material/64.png,f,material/165.png,f,f,谦虚,奉献,self,self,self,1,1,1,material/65.png,,,,,,,,,,,,,,,,,0,9,9,64,,,,,,,,,,,,,,,3,1.45790505409,,,,,,,,,moral_self_bias,17,19,60.0041773843,m,001,2018_Apr_02_1602,
勤快,material/instr2_2.png,material/instr2_2.png,material/instr2_2.png,1,1,1,material/26.png,j,material/126.png,j,j,刻苦,刻苦,friend,friend,friend,2,2,2,material/26.png,,,,,,,,,,,,,,,,,0,10,10,25,,,,,,,,,,,,,,,3,1.50852012634,,,,,,,,,moral_self_bias,17,19,60.0041773843,m,001,2018_Apr_02_1602,
笃行,material/instr2_1.png,material/instr2_1.png,material/instr2_1.png,1,1,1,material/31.png,f,material/131.png,f,f,笃学,笃学,self,self,self,2,2,2,material/31.png,,,,,,,,,,,,,,,,,0,11,11,30,,,,,,,,,,,,,,,2,1.09190607071,,,,,,,,,moral_self_bias,17,19,60.0041773843,m,001,2018_Apr_02_1602,
孝顺,material/instr2_1.png,material/instr2_1.png,material/instr2_1.png,1,1,1,material/161.png,f,material/164.png,f,f,奉献,勇敢,self,self,self,1,1,1,material/64.png,,,,,,,,,,,,,,,,,0,12,12,63,,,,,,,,,,,,,,,2,1.36654400826,,,,,,,,,moral_self_bias,17,19,60.0041773843,m,001,2018_Apr_02_1602,
冷静,material/instr2_1.png,material/instr2_1.png,material/instr2_1.png,1,1,1,material/24.png,f,material/124.png,f,f,理智,理智,self,self,self,2,2,2,material/24.png,,,,,,,,,,,,,,,,,0,13,13,23,,,,,,,,,,,,,,,3,1.32547783852,,,,,,,,,moral_self_bias,17,19,60.0041773843,m,001,2018_Apr_02_1602,
可恶,material/instr2_1.png,material/instr2_1.png,material/instr2_1.png,2,2,2,material/34.png,f,material/134.png,f,f,可恶,可恨,self,self,self,1,1,1,material/134.png,,,,,,,,,,,,,,,,,0,14,14,33,,,,,,,,,,,,,,,4,1.5668759346,,,,,,,,,moral_self_bias,17,19,60.0041773843,m,001,2018_Apr_02_1602,
盲目,material/instr2_1.png,material/instr2_1.png,material/instr2_1.png,2,2,2,material/55.png,f,material/155.png,f,f,盲从,盲从,self,self,self,2,2,2,material/55.png,,,,,,,,,,,,,,,,,0,15,15,54,,,,,,,,,,,,,,,4,1.52533888817,,,,,,,,,moral_self_bias,17,19,60.0041773843,m,001,2018_Apr_02_1602,
宽容,material/instr2_2.png,material/instr2_2.png,material/instr2_2.png,1,1,1,material/163.png,j,material/163.png,j,j,文明,宽容,friend,friend,friend,1,1,1,material/63.png,,,,,,,,,,,,,,,,,0,16,16,62,,,,,,,,,,,,,,,4,1.79251194,,,,,,,,,moral_self_bias,17,19,60.0041773843,m,001,2018_Apr_02_1602,
才尽,material/instr2_1.png,material/instr2_1.png,material/instr2_1.png,2,2,2,material/183.png,f,material/182.png,f,f,颓废,薄弱,self,self,self,2,2,2,material/79.png,,,,,,,,,,,,,,,,,0,17,17,81,,,,,,,,,,,,,,,4,1.2754240036,,,,,,,,,moral_self_bias,17,19,60.0041773843,m,001,2018_Apr_02_1602,
能干,material/instr2_2.png,material/instr2_2.png,material/instr2_2.png,1,1,1,material/20.png,j,material/120.png,j,j,厉害,厉害,friend,friend,friend,2,2,2,material/20.png,,,,,,,,,,,,,,,,,0,18,18,19,,,,,,,,,,,,,,,4,1.59005093575,,,,,,,,,moral_self_bias,17,19,60.0041773843,m,001,2018_Apr_02_1602,
冷血,material/instr2_1.png,material/instr2_1.png,material/instr2_1.png,2,2,2,material/35.png,f,material/135.png,f,f,冷血,冷漠,self,self,self,1,1,1,material/135.png,,,,,,,,,,,,,,,,,0,19,19,34,,,,,,,,,,,,,,,2,1.75956392288,,,,,,,,,moral_self_bias,17,19,60.0041773843,m,001,2018_Apr_02_1602,
果敢,material/instr2_1.png,material/instr2_1.png,material/instr2_1.png,1,1,1,material/25.png,f,material/125.png,f,f,果断,果断,self,self,self,2,2,2,material/25.png,,,,,,,,,,,,,,,,,0,20,20,24,,,,,,,,,,,,,,,1,1.63397407532,,,,,,,,,moral_self_bias,17,19,60.0041773843,m,001,2018_Apr_02_1602,
无情,material/instr2_1.png,material/instr2_1.png,material/instr2_1.png,2,2,2,material/172.png,f,material/175.png,f,f,无情,浮夸,self,self,self,1,1,1,material/175.png,,,,,,,,,,,,,,,,,0,21,21,74,,,,,,,,,,,,,,,2,1.60876393318,,,,,,,,,moral_self_bias,17,19,60.0041773843,m,001,2018_Apr_02_1602,
聪颖,material/instr2_2.png,material/instr2_2.png,material/instr2_2.png,1,1,1,material/17.png,j,material/117.png,j,j,聪明,聪明,friend,friend,friend,2,2,2,material/17.png,,,,,,,,,,,,,,,,,0,22,22,16,,,,,,,,,,,,,,,4,2.34247088432,,,,,,,,,moral_self_bias,17,19,60.0041773843,m,001,2018_Apr_02_1602,
狠毒,material/instr2_2.png,material/instr2_2.png,material/instr2_2.png,2,2,2,material/40.png,j,material/140.png,j,j,狠毒,邪恶,friend,friend,friend,1,1,1,material/140.png,,,,,,,,,,,,,,,,,0,23,23,39,,,,,,,,,,,,,,,2,1.19197797775,,,,,,,,,moral_self_bias,17,19,60.0041773843,m,001,2018_Apr_02_1602,
机灵,material/instr2_2.png,material/instr2_2.png,material/instr2_2.png,1,1,1,material/19.png,j,material/119.png,j,j,灵活,灵活,friend,friend,friend,2,2,2,material/19.png,,,,,,,,,,,,,,,,,0,24,24,18,,,,,,,,,,,,,,,2,1.90752792358,,,,,,,,,moral_self_bias,17,19,60.0041773843,m,001,2018_Apr_02_1602,
白痴,material/instr2_2.png,material/instr2_2.png,material/instr2_2.png,2,2,2,material/49.png,j,material/149.png,j,j,痴呆,痴呆,friend,friend,friend,2,2,2,material/49.png,,,,,,,,,,,,,,,,,0,25,25,48,,,,,,,,,,,,,,,3,1.89244008064,,,,,,,,,moral_self_bias,17,19,60.0041773843,m,001,2018_Apr_02_1602,
机敏,material/instr2_2.png,material/instr2_2.png,material/instr2_2.png,1,1,1,material/18.png,j,material/118.png,j,j,敏锐,敏锐,friend,friend,friend,2,2,2,material/18.png,,,,,,,,,,,,,,,,,0,26,26,17,,,,,,,,,,,,,,,4,1.65863990784,,,,,,,,,moral_self_bias,17,19,60.0041773843,m,001,2018_Apr_02_1602,
奸诈,material/instr2_1.png,material/instr2_1.png,material/instr2_1.png,2,2,2,material/42.png,f,material/142.png,f,f,奸诈,阴险,self,self,self,1,1,1,material/142.png,,,,,,,,,,,,,,,,,0,27,27,41,,,,,,,,,,,,,,,2,1.49979400635,,,,,,,,,moral_self_bias,17,19,60.0041773843,m,001,2018_Apr_02_1602,
超群,material/instr2_2.png,material/instr2_2.png,material/instr2_2.png,1,1,1,material/27.png,j,material/127.png,j,j,卓越,卓越,friend,friend,friend,2,2,2,material/27.png,,,,,,,,,,,,,,,,,0,28,28,26,,,,,,,,,,,,,,,3,1.39215397835,,,,,,,,,moral_self_bias,17,19,60.0041773843,m,001,2018_Apr_02_1602,
正义,material/instr2_1.png,material/instr2_1.png,material/instr2_1.png,1,1,1,material/66.png,f,material/66.png,f,f,独立,正义,self,self,self,1,1,1,material/165.png,,,,,,,,,,,,,,,,,0,29,29,84,,,,,,,,,,,,,,,4,1.42491483688,,,,,,,,,moral_self_bias,17,19,60.0041773843,m,001,2018_Apr_02_1602,
机智,material/instr2_2.png,material/instr2_2.png,material/instr2_2.png,1,1,1,material/16.png,j,material/116.png,j,j,睿智,睿智,friend,friend,friend,2,2,2,material/16.png,,,,,,,,,,,,,,,,,0,30,30,15,,,,,,,,,,,,,,,4,1.75885295868,,,,,,,,,moral_self_bias,17,19,60.0041773843,m,001,2018_Apr_02_1602,
黑心,material/instr2_2.png,material/instr2_2.png,material/instr2_2.png,2,2,2,material/74.png,j,material/173.png,j,j,黑心,卑劣,friend,friend,friend,1,1,1,material/173.png,,,,,,,,,,,,,,,,,0,31,31,72,,,,,,,,,,,,,,,2,1.62601184845,,,,,,,,,moral_self_bias,17,19,60.0041773843,m,001,2018_Apr_02_1602,
廉明,material/instr2_2.png,material/instr2_2.png,material/instr2_2.png,1,1,1,material/13.png,j,material/113.png,j,j,廉明,廉洁,friend,friend,friend,1,1,1,material/113.png,,,,,,,,,,,,,,,,,0,32,32,12,,,,,,,,,,,,,,,4,2.19136786461,,,,,,,,,moral_self_bias,17,19,60.0041773843,m,001,2018_Apr_02_1602,
敬业,material/instr2_2.png,material/instr2_2.png,material/instr2_2.png,1,1,1,material/62.png,j,material/162.png,j,j,坚韧,坚韧,friend,friend,friend,1,1,1,material/62.png,,,,,,,,,,,,,,,,,0,33,33,61,,,,,,,,,,,,,,,2,1.70885682106,,,,,,,,,moral_self_bias,17,19,60.0041773843,m,001,2018_Apr_02_1602,
好问,material/instr2_1.png,material/instr2_1.png,material/instr2_1.png,1,1,1,material/29.png,f,material/129.png,f,f,好学,好学,self,self,self,2,2,2,material/29.png,,,,,,,,,,,,,,,,,0,34,34,28,,,,,,,,,,,,,,,2,1.57502198219,,,,,,,,,moral_self_bias,17,19,60.0041773843,m,001,2018_Apr_02_1602,
坚忍,material/instr2_1.png,material/instr2_1.png,material/instr2_1.png,1,1,1,material/168.png,f,material/170.png,f,f,机变,机变,self,self,self,2,2,2,material/168.png,,,,,,,,,,,,,,,,,0,35,35,69,,,,,,,,,,,,,,,3,2.08313512802,,,,,,,,,moral_self_bias,17,19,60.0041773843,m,001,2018_Apr_02_1602,
友善,material/instr2_1.png,material/instr2_1.png,material/instr2_1.png,1,1,1,material/4.png,f,material/104.png,f,f,友善,友爱,self,self,self,1,1,1,material/104.png,,,,,,,,,,,,,,,,,0,36,36,3,,,,,,,,,,,,,,,2,2.09129309654,,,,,,,,,moral_self_bias,17,19,60.0041773843,m,001,2018_Apr_02_1602,
贪污,material/instr2_1.png,material/instr2_1.png,material/instr2_1.png,2,2,2,material/33.png,f,material/133.png,f,f,贪污,腐败,self,self,self,1,1,1,material/133.png,,,,,,,,,,,,,,,,,0,37,37,32,,,,,,,,,,,,,,,4,2.00855588913,,,,,,,,,moral_self_bias,17,19,60.0041773843,m,001,2018_Apr_02_1602,
鲁钝,material/instr2_2.png,material/instr2_2.png,material/instr2_2.png,2,2,2,material/50.png,j,material/150.png,j,j,愚笨,愚笨,friend,friend,friend,2,2,2,material/50.png,,,,,,,,,,,,,,,,,0,38,38,49,,,,,,,,,,,,,,,2,1.30872178078,,,,,,,,,moral_self_bias,17,19,60.0041773843,m,001,2018_Apr_02_1602,
浅薄,material/instr2_2.png,material/instr2_2.png,material/instr2_2.png,2,2,2,material/58.png,j,material/158.png,j,j,肤浅,肤浅,friend,friend,friend,2,2,2,material/58.png,,,,,,,,,,,,,,,,,0,39,39,57,,,,,,,,,,,,,,,2,1.69207596779,,,,,,,,,moral_self_bias,17,19,60.0041773843,m,001,2018_Apr_02_1602,
迟钝,material/instr2_1.png,material/instr2_1.png,material/instr2_1.png,2,2,2,material/53.png,f,material/153.png,f,f,迟缓,迟缓,self,self,self,2,2,2,material/53.png,,,,,,,,,,,,,,,,,0,40,40,52,,,,,,,,,,,,,,,4,1.94193887711,,,,,,,,,moral_self_bias,17,19,60.0041773843,m,001,2018_Apr_02_1602,
差生,material/instr2_2.png,material/instr2_2.png,material/instr2_2.png,2,2,2,material/81.png,j,material/179.png,j,j,呆笨,无助,friend,friend,friend,2,2,2,material/83.png,,,,,,,,,,,,,,,,,0,41,41,78,,,,,,,,,,,,,,,2,0.999994039536,,,,,,,,,moral_self_bias,17,19,60.0041773843,m,001,2018_Apr_02_1602,
恶毒,material/instr2_2.png,material/instr2_2.png,material/instr2_2.png,2,2,2,material/39.png,j,material/139.png,j,j,恶毒,凶残,friend,friend,friend,1,1,1,material/139.png,,,,,,,,,,,,,,,,,0,42,42,38,,,,,,,,,,,,,,,1,1.27461910248,,,,,,,,,moral_self_bias,17,19,60.0041773843,m,001,2018_Apr_02_1602,
迷糊,material/instr2_2.png,material/instr2_2.png,material/instr2_2.png,2,2,2,material/51.png,j,material/151.png,j,j,糊涂,糊涂,friend,friend,friend,2,2,2,material/51.png,,,,,,,,,,,,,,,,,0,43,43,50,,,,,,,,,,,,,,,2,2.12588310242,,,,,,,,,moral_self_bias,17,19,60.0041773843,m,001,2018_Apr_02_1602,
忠心,material/instr2_1.png,material/instr2_1.png,material/instr2_1.png,1,1,1,material/12.png,f,material/112.png,f,f,忠心,忠诚,self,self,self,1,1,1,material/112.png,,,,,,,,,,,,,,,,,0,44,44,11,,,,,,,,,,,,,,,4,1.49160194397,,,,,,,,,moral_self_bias,17,19,60.0041773843,m,001,2018_Apr_02_1602,
卑鄙,material/instr2_2.png,material/instr2_2.png,material/instr2_2.png,2,2,2,material/37.png,j,material/137.png,j,j,卑鄙,无耻,friend,friend,friend,1,1,1,material/137.png,,,,,,,,,,,,,,,,,0,45,45,36,,,,,,,,,,,,,,,2,1.25911688805,,,,,,,,,moral_self_bias,17,19,60.0041773843,m,001,2018_Apr_02_1602,
犹豫,material/instr2_1.png,material/instr2_1.png,material/instr2_1.png,2,2,2,material/78.png,f,material/181.png,f,f,厌学,草率,self,self,self,2,2,2,material/184.png,,,,,,,,,,,,,,,,,0,46,46,80,,,,,,,,,,,,,,,3,1.79235005379,,,,,,,,,moral_self_bias,17,19,60.0041773843,m,001,2018_Apr_02_1602,
纯洁,material/instr2_2.png,material/instr2_2.png,material/instr2_2.png,1,1,1,material/15.png,j,material/115.png,j,j,纯洁,清白,friend,friend,friend,1,1,1,material/115.png,,,,,,,,,,,,,,,,,0,47,47,14,,,,,,,,,,,,,,,4,1.4829390049,,,,,,,,,moral_self_bias,17,19,60.0041773843,m,001,2018_Apr_02_1602,
残虐,material/instr2_1.png,material/instr2_1.png,material/instr2_1.png,2,2,2,material/175.png,f,material/73.png,f,f,残虐,无情,self,self,self,1,1,1,material/73.png,,,,,,,,,,,,,,,,,0,48,48,85,,,,,,,,,,,,,,,3,2.84247303009,,,,,,,,,moral_self_bias,17,19,60.0041773843,m,001,2018_Apr_02_1602,
缓慢,material/instr2_1.png,material/instr2_1.png,material/instr2_1.png,2,2,2,material/52.png,f,material/152.png,f,f,拖延,拖延,self,self,self,2,2,2,material/52.png,,,,,,,,,,,,,,,,,0,49,49,51,,,,,,,,,,,,,,,4,1.17307186127,,,,,,,,,moral_self_bias,17,19,60.0041773843,m,001,2018_Apr_02_1602,
诚信,material/instr2_1.png,material/instr2_1.png,material/instr2_1.png,1,1,1,material/5.png,f,material/105.png,f,f,诚信,守信,self,self,self,1,1,1,material/105.png,,,,,,,,,,,,,,,,,0,50,50,4,,,,,,,,,,,,,,,3,2.22173595428,,,,,,,,,moral_self_bias,17,19,60.0041773843,m,001,2018_Apr_02_1602,
薄弱,material/instr2_1.png,material/instr2_1.png,material/instr2_1.png,2,2,2,material/82.png,f,material/183.png,f,f,毛糙,窝囊,self,self,self,2,2,2,material/178.png,,,,,,,,,,,,,,,,,0,51,51,82,,,,,,,,,,,,,,,2,1.65824794769,,,,,,,,,moral_self_bias,17,19,60.0041773843,m,001,2018_Apr_02_1602,
依靠,material/instr2_1.png,material/instr2_1.png,material/instr2_1.png,2,2,2,material/54.png,f,material/154.png,f,f,依赖,依赖,self,self,self,2,2,2,material/54.png,,,,,,,,,,,,,,,,,0,52,52,53,,,,,,,,,,,,,,,4,1.94287490845,,,,,,,,,moral_self_bias,17,19,60.0041773843,m,001,2018_Apr_02_1602,
仁厚,material/instr2_1.png,material/instr2_1.png,material/instr2_1.png,1,1,1,material/3.png,f,material/103.png,f,f,仁厚,仁慈,self,self,self,1,1,1,material/103.png,,,,,,,,,,,,,,,,,0,53,53,2,,,,,,,,,,,,,,,4,1.55933308601,,,,,,,,,moral_self_bias,17,19,60.0041773843,m,001,2018_Apr_02_1602,
机变,material/instr2_2.png,material/instr2_2.png,material/instr2_2.png,1,1,1,material/70.png,j,material/168.png,j,j,全面,全面,friend,friend,friend,2,2,2,material/70.png,,,,,,,,,,,,,,,,,0,54,54,67,,,,,,,,,,,,,,,4,2.47359514236,,,,,,,,,moral_self_bias,17,19,60.0041773843,m,001,2018_Apr_02_1602,
毛糙,material/instr2_2.png,material/instr2_2.png,material/instr2_2.png,2,2,2,material/179.png,j,material/178.png,j,j,顽愚,差生,friend,friend,friend,2,2,2,material/84.png,,,,,,,,,,,,,,,,,0,55,55,77,,,,,,,,,,,,,,,3,2.27565193176,,,,,,,,,moral_self_bias,17,19,60.0041773843,m,001,2018_Apr_02_1602,
弱智,material/instr2_1.png,material/instr2_1.png,material/instr2_1.png,2,2,2,material/59.png,f,material/159.png,f,f,智障,智障,self,self,self,2,2,2,material/59.png,,,,,,,,,,,,,,,,,0,56,56,58,,,,,,,,,,,,,,,2,1.47254300117,,,,,,,,,moral_self_bias,17,19,60.0041773843,m,001,2018_Apr_02_1602,
无私,material/instr2_2.png,material/instr2_2.png,material/instr2_2.png,1,1,1,material/8.png,j,material/108.png,j,j,无私,公道,friend,friend,friend,1,1,1,material/108.png,,,,,,,,,,,,,,,,,0,57,57,7,,,,,,,,,,,,,,,4,1.4423558712,,,,,,,,,moral_self_bias,17,19,60.0041773843,m,001,2018_Apr_02_1602,
博学,material/instr2_1.png,material/instr2_1.png,material/instr2_1.png,1,1,1,material/22.png,f,material/122.png,f,f,才学,才学,self,self,self,2,2,2,material/22.png,,,,,,,,,,,,,,,,,0,58,58,21,,,,,,,,,,,,,,,3,1.955753088,,,,,,,,,moral_self_bias,17,19,60.0041773843,m,001,2018_Apr_02_1602,
不义,material/instr2_2.png,material/instr2_2.png,material/instr2_2.png,2,2,2,material/173.png,j,material/174.png,j,j,不义,黑心,friend,friend,friend,1,1,1,material/174.png,,,,,,,,,,,,,,,,,0,59,59,73,,,,,,,,,,,,,,,2,1.4565551281,,,,,,,,,moral_self_bias,17,19,60.0041773843,m,001,2018_Apr_02_1602,
刻板,material/instr2_2.png,material/instr2_2.png,material/instr2_2.png,2,2,2,material/47.png,j,material/147.png,j,j,死板,死板,friend,friend,friend,2,2,2,material/47.png,,,,,,,,,,,,,,,,,0,60,60,46,,,,,,,,,,,,,,,2,1.4257080555,,,,,,,,,moral_self_bias,17,19,60.0041773843,m,001,2018_Apr_02_1602,
笨拙,material/instr2_1.png,material/instr2_1.png,material/instr2_1.png,2,2,2,material/60.png,f,material/160.png,f,f,粗拙,粗拙,self,self,self,2,2,2,material/60.png,,,,,,,,,,,,,,,,,0,61,61,59,,,,,,,,,,,,,,,3,1.75808811188,,,,,,,,,moral_self_bias,17,19,60.0041773843,m,001,2018_Apr_02_1602,
仗义,material/instr2_1.png,material/instr2_1.png,material/instr2_1.png,1,1,1,material/63.png,f,material/166.png,f,f,正义,文明,self,self,self,1,1,1,material/66.png,,,,,,,,,,,,,,,,,0,62,62,65,,,,,,,,,,,,,,,4,1.27537608147,,,,,,,,,moral_self_bias,17,19,60.0041773843,m,001,2018_Apr_02_1602,
高明,material/instr2_1.png,material/instr2_1.png,material/instr2_1.png,1,1,1,material/69.png,f,material/69.png,f,f,高明,高明,self,self,self,2,2,2,material/69.png,,,,,,,,,,,,,,,,,0,63,63,86,,,,,,,,,,,,,,,3,1.42508101463,,,,,,,,,moral_self_bias,17,19,60.0041773843,m,001,2018_Apr_02_1602,
颖悟,material/instr2_2.png,material/instr2_2.png,material/instr2_2.png,1,1,1,material/167.png,j,material/169.png,j,j,高手,高手,friend,friend,friend,2,2,2,material/167.png,,,,,,,,,,,,,,,,,0,64,64,68,,,,,,,,,,,,,,,4,1.57516503334,,,,,,,,,moral_self_bias,17,19,60.0041773843,m,001,2018_Apr_02_1602,
坚毅,material/instr2_2.png,material/instr2_2.png,material/instr2_2.png,1,1,1,material/10.png,j,material/110.png,j,j,坚毅,顽强,friend,friend,friend,1,1,1,material/110.png,,,,,,,,,,,,,,,,,0,65,65,9,,,,,,,,,,,,,,,4,1.35921597481,,,,,,,,,moral_self_bias,17,19,60.0041773843,m,001,2018_Apr_02_1602,
愚钝,material/instr2_1.png,material/instr2_1.png,material/instr2_1.png,2,2,2,material/56.png,f,material/156.png,f,f,愚昧,愚昧,self,self,self,2,2,2,material/56.png,,,,,,,,,,,,,,,,,0,66,66,55,,,,,,,,,,,,,,,3,2.54239702225,,,,,,,,,moral_self_bias,17,19,60.0041773843,m,001,2018_Apr_02_1602,
忠贞,material/instr2_2.png,material/instr2_2.png,material/instr2_2.png,1,1,1,material/14.png,j,material/114.png,j,j,忠贞,爱国,friend,friend,friend,1,1,1,material/114.png,,,,,,,,,,,,,,,,,0,67,67,13,,,,,,,,,,,,,,,3,1.60843205452,,,,,,,,,moral_self_bias,17,19,60.0041773843,m,001,2018_Apr_02_1602,
背叛,material/instr2_1.png,material/instr2_1.png,material/instr2_1.png,2,2,2,material/32.png,f,material/132.png,f,f,背叛,不忠,self,self,self,1,1,1,material/132.png,,,,,,,,,,,,,,,,,0,68,68,31,,,,,,,,,,,,,,,2,2.10920095444,,,,,,,,,moral_self_bias,17,19,60.0041773843,m,001,2018_Apr_02_1602,
小人,material/instr2_2.png,material/instr2_2.png,material/instr2_2.png,2,2,2,material/45.png,j,material/145.png,j,j,小人,下流,friend,friend,friend,1,1,1,material/145.png,,,,,,,,,,,,,,,,,0,69,69,44,,,,,,,,,,,,,,,2,2.0418920517,,,,,,,,,moral_self_bias,17,19,60.0041773843,m,001,2018_Apr_02_1602,
笨蛋,material/instr2_2.png,material/instr2_2.png,material/instr2_2.png,2,2,2,material/48.png,j,material/148.png,j,j,愚蠢,愚蠢,friend,friend,friend,2,2,2,material/48.png,,,,,,,,,,,,,,,,,0,70,70,47,,,,,,,,,,,,,,,2,1.07479691505,,,,,,,,,moral_self_bias,17,19,60.0041773843,m,001,2018_Apr_02_1602,
正直,material/instr2_2.png,material/instr2_2.png,material/instr2_2.png,1,1,1,material/9.png,j,material/109.png,j,j,正直,秉直,friend,friend,friend,1,1,1,material/109.png,,,,,,,,,,,,,,,,,0,71,71,8,,,,,,,,,,,,,,,4,1.32541918755,,,,,,,,,moral_self_bias,17,19,60.0041773843,m,001,2018_Apr_02_1602,
多才,material/instr2_1.png,material/instr2_1.png,material/instr2_1.png,1,1,1,material/23.png,f,material/123.png,f,f,有才,有才,self,self,self,2,2,2,material/23.png,,,,,,,,,,,,,,,,,0,72,72,22,,,,,,,,,,,,,,,3,2.12536001205,,,,,,,,,moral_self_bias,17,19,60.0041773843,m,001,2018_Apr_02_1602,
自私,material/instr2_2.png,material/instr2_2.png,material/instr2_2.png,2,2,2,material/46.png,j,material/146.png,j,j,自私,小气,friend,friend,friend,1,1,1,material/146.png,,,,,,,,,,,,,,,,,0,73,73,45,,,,,,,,,,,,,,,2,1.7259619236,,,,,,,,,moral_self_bias,17,19,60.0041773843,m,001,2018_Apr_02_1602,
爱心,material/instr2_1.png,material/instr2_1.png,material/instr2_1.png,1,1,1,material/2.png,f,material/102.png,f,f,爱心,善心,self,self,self,1,1,1,material/102.png,,,,,,,,,,,,,,,,,0,74,74,1,,,,,,,,,,,,,,,4,1.74233603477,,,,,,,,,moral_self_bias,17,19,60.0041773843,m,001,2018_Apr_02_1602,
爽约,material/instr2_2.png,material/instr2_2.png,material/instr2_2.png,2,2,2,material/44.png,j,material/144.png,j,j,爽约,失信,friend,friend,friend,1,1,1,material/144.png,,,,,,,,,,,,,,,,,0,75,75,43,,,,,,,,,,,,,,,3,2.72504210472,,,,,,,,,moral_self_bias,17,19,60.0041773843,m,001,2018_Apr_02_1602,
恶心,material/instr2_1.png,material/instr2_1.png,material/instr2_1.png,2,2,2,material/73.png,f,material/177.png,f,f,恶心,残虐,self,self,self,1,1,1,material/177.png,,,,,,,,,,,,,,,,,0,76,76,76,,,,,,,,,,,,,,,2,2.02564406395,,,,,,,,,moral_self_bias,17,19,60.0041773843,m,001,2018_Apr_02_1602,
公平,material/instr2_2.png,material/instr2_2.png,material/instr2_2.png,1,1,1,material/7.png,j,material/107.png,j,j,公平,公正,friend,friend,friend,1,1,1,material/107.png,,,,,,,,,,,,,,,,,0,77,77,6,,,,,,,,,,,,,,,4,1.27558612823,,,,,,,,,moral_self_bias,17,19,60.0041773843,m,001,2018_Apr_02_1602,
顽愚,material/instr2_1.png,material/instr2_1.png,material/instr2_1.png,2,2,2,material/84.png,f,material/84.png,f,f,犹豫,顽愚,self,self,self,2,2,2,material/181.png,,,,,,,,,,,,,,,,,0,78,78,87,,,,,,,,,,,,,,,3,1.72559714317,,,,,,,,,moral_self_bias,17,19,60.0041773843,m,001,2018_Apr_02_1602,
浮夸,material/instr2_2.png,material/instr2_2.png,material/instr2_2.png,2,2,2,material/77.png,j,material/172.png,j,j,浮夸,软弱,friend,friend,friend,1,1,1,material/172.png,,,,,,,,,,,,,,,,,0,79,79,71,,,,,,,,,,,,,,,2,1.97554922104,,,,,,,,,moral_self_bias,17,19,60.0041773843,m,001,2018_Apr_02_1602,
自律,material/instr2_2.png,material/instr2_2.png,material/instr2_2.png,1,1,1,material/28.png,j,material/128.png,j,j,克己,克己,friend,friend,friend,2,2,2,material/28.png,,,,,,,,,,,,,,,,,0,80,80,27,,,,,,,,,,,,,,,3,2.12496805191,,,,,,,,,moral_self_bias,17,19,60.0041773843,m,001,2018_Apr_02_1602,
进取,material/instr2_1.png,material/instr2_1.png,material/instr2_1.png,1,1,1,material/30.png,f,material/130.png,f,f,上进,上进,self,self,self,2,2,2,material/30.png,,,,,,,,,,,,,,,,,0,81,81,29,,,,,,,,,,,,,,,3,1.95922088623,,,,,,,,,moral_self_bias,17,19,60.0041773843,m,001,2018_Apr_02_1602,
高手,material/instr2_2.png,material/instr2_2.png,material/instr2_2.png,1,1,1,material/68.png,j,material/167.png,j,j,广博,广博,friend,friend,friend,2,2,2,material/68.png,,,,,,,,,,,,,,,,,0,82,82,66,,,,,,,,,,,,,,,4,1.84221506119,,,,,,,,,moral_self_bias,17,19,60.0041773843,m,001,2018_Apr_02_1602,
残忍,material/instr2_2.png,material/instr2_2.png,material/instr2_2.png,2,2,2,material/41.png,j,material/141.png,j,j,残忍,歹毒,friend,friend,friend,1,1,1,material/141.png,,,,,,,,,,,,,,,,,0,83,83,40,,,,,,,,,,,,,,,2,1.22549796104,,,,,,,,,moral_self_bias,17,19,60.0041773843,m,001,2018_Apr_02_1602,
撒谎,material/instr2_1.png,material/instr2_1.png,material/instr2_1.png,2,2,2,material/36.png,f,material/136.png,f,f,撒谎,说谎,self,self,self,1,1,1,material/136.png,,,,,,,,,,,,,,,,,0,84,84,35,,,,,,,,,,,,,,,3,2.4425110817,,,,,,,,,moral_self_bias,17,19,60.0041773843,m,001,2018_Apr_02_1602,
高效,material/instr2_1.png,material/instr2_1.png,material/instr2_1.png,1,1,1,material/169.png,f,material/171.png,f,f,颖悟,颖悟,self,self,self,2,2,2,material/169.png,,,,,,,,,,,,,,,,,0,85,85,70,,,,,,,,,,,,,,,None,,,,,,,,,,moral_self_bias,17,19,60.0041773843,m,001,2018_Apr_02_1602,
精干,material/instr2_1.png,material/instr2_1.png,material/instr2_1.png,1,1,1,material/21.png,f,material/121.png,f,f,干练,干练,self,self,self,2,2,2,material/21.png,,,,,,,,,,,,,,,,,0,86,86,20,,,,,,,,,,,,,,,3,1.72669792175,,,,,,,,,moral_self_bias,17,19,60.0041773843,m,001,2018_Apr_02_1602,
无能,material/instr2_2.png,material/instr2_2.png,material/instr2_2.png,2,2,2,material/57.png,j,material/157.png,j,j,无知,无知,friend,friend,friend,2,2,2,material/57.png,,,,,,,,,,,,,,,,,0,87,87,56,,,,,,,,,,,,,,,2,1.19248700142,,,,,,,,,moral_self_bias,17,19,60.0041773843,m,001,2018_Apr_02_1602,
,,,,,,,,,,,,,,,,,,,,,13-9= ?,,,,,,,,,,,,,,,,,,,,0,0,0,92,,,,,,,,,,,,,,,,,,,,,moral_self_bias,17,19,60.0041773843,m,001,2018_Apr_02_1602,
,,,,,,,,,,,,,,,,,,,,,4*2= ?,,,,,,,,,,,,,,,,,,,,0,1,1,82,,,,,,,,,,,,,,,,,,,,,moral_self_bias,17,19,60.0041773843,m,001,2018_Apr_02_1602,
,,,,,,,,,,,,,,,,,,,,,8/4= ?,,,,,,,,,,,,,,,,,,,,0,2,2,57,,,,,,,,,,,,,,,,,,,,,moral_self_bias,17,19,60.0041773843,m,001,2018_Apr_02_1602,
,,,,,,,,,,,,,,,,,,,,,6+1= ?,,,,,,,,,,,,,,,,,,,,0,3,3,43,,,,,,,,,,,,,,,,,,,,,moral_self_bias,17,19,60.0041773843,m,001,2018_Apr_02_1602,
,,,,,,,,,,,,,,,,,,,,,13-5= ?,,,,,,,,,,,,,,,,,,,,0,4,4,98,,,,,,,,,,,,,,,,,,,,,moral_self_bias,17,19,60.0041773843,m,001,2018_Apr_02_1602,
,,,,,,,,,,,,,,,,,,,,,6^0= ?,,,,,,,,,,,,,,,,,,,,0,5,5,103,,,,,,,,,,,,,,,,,,,,,moral_self_bias,17,19,60.0041773843,m,001,2018_Apr_02_1602,
,,,,,,,,,,,,,,,,,,,,,18/2= ?,,,,,,,,,,,,,,,,,,,,0,6,6,97,,,,,,,,,,,,,,,,,,,,,moral_self_bias,17,19,60.0041773843,m,001,2018_Apr_02_1602,
,,,,,,,,,,,,,,,,,,,,,9-8= ?,,,,,,,,,,,,,,,,,,,,0,7,7,31,,,,,,,,,,,,,,,,,,,,,moral_self_bias,17,19,60.0041773843,m,001,2018_Apr_02_1602,
,,,,,,,,,,,,,,,,,,,,,72/9= ?,,,,,,,,,,,,,,,,,,,,0,8,8,76,,,,,,,,,,,,,,,,,,,,,moral_self_bias,17,19,60.0041773843,m,001,2018_Apr_02_1602,
,,,,,,,,,,,,,,,,,,,,,9-3= ?,,,,,,,,,,,,,,,,,,,,0,9,9,15,,,,,,,,,,,,,,,,,,,,,moral_self_bias,17,19,60.0041773843,m,001,2018_Apr_02_1602,
,,,,,,,,,,,,,,,,,,,,,2*3= ?,,,,,,,,,,,,,,,,,,,,0,10,10,108,,,,,,,,,,,,,,,,,,,,,moral_self_bias,17,19,60.0041773843,m,001,2018_Apr_02_1602,
,,,,,,,,,,,,,,,,,,,,,16-11=？,,,,,,,,,,,,,,,,,,,,0,11,11,62,,,,,,,,,,,,,,,,,,,,,moral_self_bias,17,19,60.0041773843,m,001,2018_Apr_02_1602,
,,,,,,,,,,,,,,,,,,,,,9-5= ?,,,,,,,,,,,,,,,,,,,,0,12,12,23,,,,,,,,,,,,,,,,,,,,,moral_self_bias,17,19,60.0041773843,m,001,2018_Apr_02_1602,
,,,,,,,,,,,,,,,,,,,,,22/11= ?,,,,,,,,,,,,,,,,,,,,0,13,13,71,,,,,,,,,,,,,,,,,,,,,moral_self_bias,17,19,60.0041773843,m,001,2018_Apr_02_1602,
,,,,,,,,,,,,,,,,,,,,,4+4= ?,,,,,,,,,,,,,,,,,,,,0,14,14,28,,,,,,,,,,,,,,,,,,,,,moral_self_bias,17,19,60.0041773843,m,001,2018_Apr_02_1602,
,,,,,,,,,,,,,,,,,,,,,12-12= ?,,,,,,,,,,,,,,,,,,,,0,15,15,99,,,,,,,,,,,,,,,,,,,,,moral_self_bias,17,19,60.0041773843,m,001,2018_Apr_02_1602,
,,,,,,,,,,,,,,,,,,,,,90/45= ?,,,,,,,,,,,,,,,,,,,,0,16,16,74,,,,,,,,,,,,,,,,,,,,,moral_self_bias,17,19,60.0041773843,m,001,2018_Apr_02_1602,
,,,,,,,,,,,,,,,,,,,,,1+8= ?,,,,,,,,,,,,,,,,,,,,0,17,17,6,,,,,,,,,,,,,,,,,,,,,moral_self_bias,17,19,60.0041773843,m,001,2018_Apr_02_1602,
,,,,,,,,,,,,,,,,,,,,,5+1= ?,,,,,,,,,,,,,,,,,,,,0,18,18,34,,,,,,,,,,,,,,,,,,,,,moral_self_bias,17,19,60.0041773843,m,001,2018_Apr_02_1602,
,,,,,,,,,,,,,,,,,,,,,3*2= ?,,,,,,,,,,,,,,,,,,,,0,19,19,53,,,,,,,,,,,,,,,,,,,,,moral_self_bias,17,19,60.0041773843,m,001,2018_Apr_02_1602,
,,,,,,,,,,,,,,,,,,,,,7*0= ?,,,,,,,,,,,,,,,,,,,,0,20,20,88,,,,,,,,,,,,,,,,,,,,,moral_self_bias,17,19,60.0041773843,m,001,2018_Apr_02_1602,
,,,,,,,,,,,,,,,,,,,,,8*1= ?,,,,,,,,,,,,,,,,,,,,0,21,21,111,,,,,,,,,,,,,,,,,,,,,moral_self_bias,17,19,60.0041773843,m,001,2018_Apr_02_1602,
,,,,,,,,,,,,,,,,,,,,,32-23=？,,,,,,,,,,,,,,,,,,,,0,22,22,60,,,,,,,,,,,,,,,,,,,,,moral_self_bias,17,19,60.0041773843,m,001,2018_Apr_02_1602,
,,,,,,,,,,,,,,,,,,,,,14-9=？,,,,,,,,,,,,,,,,,,,,0,23,23,63,,,,,,,,,,,,,,,,,,,,,moral_self_bias,17,19,60.0041773843,m,001,2018_Apr_02_1602,
,,,,,,,,,,,,,,,,,,,,,17-12= ? ,,,,,,,,,,,,,,,,,,,,0,24,24,104,,,,,,,,,,,,,,,,,,,,,moral_self_bias,17,19,60.0041773843,m,001,2018_Apr_02_1602,
,,,,,,,,,,,,,,,,,,,,,12/12= ?,,,,,,,,,,,,,,,,,,,,0,25,25,91,,,,,,,,,,,,,,,,,,,,,moral_self_bias,17,19,60.0041773843,m,001,2018_Apr_02_1602,
,,,,,,,,,,,,,,,,,,,,,7+1= ?,,,,,,,,,,,,,,,,,,,,0,26,26,46,,,,,,,,,,,,,,,,,,,,,moral_self_bias,17,19,60.0041773843,m,001,2018_Apr_02_1602,
,,,,,,,,,,,,,,,,,,,,,2*4= ?,,,,,,,,,,,,,,,,,,,,0,27,27,84,,,,,,,,,,,,,,,,,,,,,moral_self_bias,17,19,60.0041773843,m,001,2018_Apr_02_1602,
,,,,,,,,,,,,,,,,,,,,,1*8= ?,,,,,,,,,,,,,,,,,,,,0,28,28,110,,,,,,,,,,,,,,,,,,,,,moral_self_bias,17,19,60.0041773843,m,001,2018_Apr_02_1602,
,,,,,,,,,,,,,,,,,,,,,49/7 = ?,,,,,,,,,,,,,,,,,,,,0,29,29,78,,,,,,,,,,,,,,,,,,,,,moral_self_bias,17,19,60.0041773843,m,001,2018_Apr_02_1602,
,,,,,,,,,,,,,,,,,,,,,11-11= ?,,,,,,,,,,,,,,,,,,,,0,30,30,119,,,,,,,,,,,,,,,,,,,,,moral_self_bias,17,19,60.0041773843,m,001,2018_Apr_02_1602,
,,,,,,,,,,,,,,,,,,,,,2+6= ?,,,,,,,,,,,,,,,,,,,,0,31,31,12,,,,,,,,,,,,,,,,,,,,,moral_self_bias,17,19,60.0041773843,m,001,2018_Apr_02_1602,
,,,,,,,,,,,,,,,,,,,,,3+3= ?,,,,,,,,,,,,,,,,,,,,0,32,32,18,,,,,,,,,,,,,,,,,,,,,moral_self_bias,17,19,60.0041773843,m,001,2018_Apr_02_1602,
,,,,,,,,,,,,,,,,,,,,,8+1= ?,,,,,,,,,,,,,,,,,,,,0,33,33,48,,,,,,,,,,,,,,,,,,,,,moral_self_bias,17,19,60.0041773843,m,001,2018_Apr_02_1602,
,,,,,,,,,,,,,,,,,,,,,6^0= ?,,,,,,,,,,,,,,,,,,,,0,34,34,114,,,,,,,,,,,,,,,,,,,,,moral_self_bias,17,19,60.0041773843,m,001,2018_Apr_02_1602,
,,,,,,,,,,,,,,,,,,,,,5+4= ?,,,,,,,,,,,,,,,,,,,,0,35,35,37,,,,,,,,,,,,,,,,,,,,,moral_self_bias,17,19,60.0041773843,m,001,2018_Apr_02_1602,
,,,,,,,,,,,,,,,,,,,,,11-5= ?,,,,,,,,,,,,,,,,,,,,0,36,36,107,,,,,,,,,,,,,,,,,,,,,moral_self_bias,17,19,60.0041773843,m,001,2018_Apr_02_1602,
,,,,,,,,,,,,,,,,,,,,,4/4= ?,,,,,,,,,,,,,,,,,,,,0,37,37,55,,,,,,,,,,,,,,,,,,,,,moral_self_bias,17,19,60.0041773843,m,001,2018_Apr_02_1602,
,,,,,,,,,,,,,,,,,,,,,1*9= ?,,,,,,,,,,,,,,,,,,,,0,38,38,109,,,,,,,,,,,,,,,,,,,,,moral_self_bias,17,19,60.0041773843,m,001,2018_Apr_02_1602,
,,,,,,,,,,,,,,,,,,,,,9-9= ?,,,,,,,,,,,,,,,,,,,,0,39,39,32,,,,,,,,,,,,,,,,,,,,,moral_self_bias,17,19,60.0041773843,m,001,2018_Apr_02_1602,
,,,,,,,,,,,,,,,,,,,,,11-8= ?,,,,,,,,,,,,,,,,,,,,0,40,40,106,,,,,,,,,,,,,,,,,,,,,moral_self_bias,17,19,60.0041773843,m,001,2018_Apr_02_1602,
,,,,,,,,,,,,,,,,,,,,,11-3=？,,,,,,,,,,,,,,,,,,,,0,41,41,68,,,,,,,,,,,,,,,,,,,,,moral_self_bias,17,19,60.0041773843,m,001,2018_Apr_02_1602,
,,,,,,,,,,,,,,,,,,,,,3*3= ?,,,,,,,,,,,,,,,,,,,,0,42,42,54,,,,,,,,,,,,,,,,,,,,,moral_self_bias,17,19,60.0041773843,m,001,2018_Apr_02_1602,
,,,,,,,,,,,,,,,,,,,,,3+2= ?,,,,,,,,,,,,,,,,,,,,0,43,43,17,,,,,,,,,,,,,,,,,,,,,moral_self_bias,17,19,60.0041773843,m,001,2018_Apr_02_1602,
,,,,,,,,,,,,,,,,,,,,,50-42= ?,,,,,,,,,,,,,,,,,,,,0,44,44,81,,,,,,,,,,,,,,,,,,,,,moral_self_bias,17,19,60.0041773843,m,001,2018_Apr_02_1602,
,,,,,,,,,,,,,,,,,,,,,5-3= ?,,,,,,,,,,,,,,,,,,,,0,45,45,116,,,,,,,,,,,,,,,,,,,,,moral_self_bias,17,19,60.0041773843,m,001,2018_Apr_02_1602,
,,,,,,,,,,,,,,,,,,,,,1+9= ?,,,,,,,,,,,,,,,,,,,,0,46,46,3,,,,,,,,,,,,,,,,,,,,,moral_self_bias,17,19,60.0041773843,m,001,2018_Apr_02_1602,
,,,,,,,,,,,,,,,,,,,,,19-17= ?,,,,,,,,,,,,,,,,,,,,0,47,47,100,,,,,,,,,,,,,,,,,,,,,moral_self_bias,17,19,60.0041773843,m,001,2018_Apr_02_1602,
,,,,,,,,,,,,,,,,,,,,,12-5=？,,,,,,,,,,,,,,,,,,,,0,48,48,65,,,,,,,,,,,,,,,,,,,,,moral_self_bias,17,19,60.0041773843,m,001,2018_Apr_02_1602,
,,,,,,,,,,,,,,,,,,,,,3+1= ?,,,,,,,,,,,,,,,,,,,,0,49,49,16,,,,,,,,,,,,,,,,,,,,,moral_self_bias,17,19,60.0041773843,m,001,2018_Apr_02_1602,
,,,,,,,,,,,,,,,,,,,,,6/2= ?,,,,,,,,,,,,,,,,,,,,0,50,50,58,,,,,,,,,,,,,,,,,,,,,moral_self_bias,17,19,60.0041773843,m,001,2018_Apr_02_1602,
,,,,,,,,,,,,,,,,,,,,,6*0= ?,,,,,,,,,,,,,,,,,,,,0,51,51,87,,,,,,,,,,,,,,,,,,,,,moral_self_bias,17,19,60.0041773843,m,001,2018_Apr_02_1602,
,,,,,,,,,,,,,,,,,,,,,9-2= ?,,,,,,,,,,,,,,,,,,,,0,52,52,14,,,,,,,,,,,,,,,,,,,,,moral_self_bias,17,19,60.0041773843,m,001,2018_Apr_02_1602,
,,,,,,,,,,,,,,,,,,,,,18/9= ?,,,,,,,,,,,,,,,,,,,,0,53,53,96,,,,,,,,,,,,,,,,,,,,,moral_self_bias,17,19,60.0041773843,m,001,2018_Apr_02_1602,
,,,,,,,,,,,,,,,,,,,,,5+3= ?,,,,,,,,,,,,,,,,,,,,0,54,54,36,,,,,,,,,,,,,,,,,,,,,moral_self_bias,17,19,60.0041773843,m,001,2018_Apr_02_1602,
,,,,,,,,,,,,,,,,,,,,,12/6= ?,,,,,,,,,,,,,,,,,,,,0,55,55,90,,,,,,,,,,,,,,,,,,,,,moral_self_bias,17,19,60.0041773843,m,001,2018_Apr_02_1602,
,,,,,,,,,,,,,,,,,,,,,7-0= ?,,,,,,,,,,,,,,,,,,,,0,56,56,117,,,,,,,,,,,,,,,,,,,,,moral_self_bias,17,19,60.0041773843,m,001,2018_Apr_02_1602,
,,,,,,,,,,,,,,,,,,,,,8-5= ?,,,,,,,,,,,,,,,,,,,,0,57,57,41,,,,,,,,,,,,,,,,,,,,,moral_self_bias,17,19,60.0041773843,m,001,2018_Apr_02_1602,
,,,,,,,,,,,,,,,,,,,,,21/7= ?,,,,,,,,,,,,,,,,,,,,0,58,58,70,,,,,,,,,,,,,,,,,,,,,moral_self_bias,17,19,60.0041773843,m,001,2018_Apr_02_1602,
,,,,,,,,,,,,,,,,,,,,,4+3= ?,,,,,,,,,,,,,,,,,,,,0,59,59,27,,,,,,,,,,,,,,,,,,,,,moral_self_bias,17,19,60.0041773843,m,001,2018_Apr_02_1602,
,,,,,,,,,,,,,,,,,,,,,13-6=？,,,,,,,,,,,,,,,,,,,,0,60,60,64,,,,,,,,,,,,,,,,,,,,,moral_self_bias,17,19,60.0041773843,m,001,2018_Apr_02_1602,
,,,,,,,,,,,,,,,,,,,,,21/3= ? ,,,,,,,,,,,,,,,,,,,,0,61,61,95,,,,,,,,,,,,,,,,,,,,,moral_self_bias,17,19,60.0041773843,m,001,2018_Apr_02_1602,
,,,,,,,,,,,,,,,,,,,,,2+5= ?,,,,,,,,,,,,,,,,,,,,0,62,62,11,,,,,,,,,,,,,,,,,,,,,moral_self_bias,17,19,60.0041773843,m,001,2018_Apr_02_1602,
,,,,,,,,,,,,,,,,,,,,,3^1= ?,,,,,,,,,,,,,,,,,,,,0,63,63,101,,,,,,,,,,,,,,,,,,,,,moral_self_bias,17,19,60.0041773843,m,001,2018_Apr_02_1602,
,,,,,,,,,,,,,,,,,,,,,5/1= ?,,,,,,,,,,,,,,,,,,,,0,64,64,59,,,,,,,,,,,,,,,,,,,,,moral_self_bias,17,19,60.0041773843,m,001,2018_Apr_02_1602,
,,,,,,,,,,,,,,,,,,,,,9-4= ?,,,,,,,,,,,,,,,,,,,,0,65,65,22,,,,,,,,,,,,,,,,,,,,,moral_self_bias,17,19,60.0041773843,m,001,2018_Apr_02_1602,
,,,,,,,,,,,,,,,,,,,,,8-3= ?,,,,,,,,,,,,,,,,,,,,0,66,66,39,,,,,,,,,,,,,,,,,,,,,moral_self_bias,17,19,60.0041773843,m,001,2018_Apr_02_1602,
,,,,,,,,,,,,,,,,,,,,,2+4= ?,,,,,,,,,,,,,,,,,,,,0,67,67,10,,,,,,,,,,,,,,,,,,,,,moral_self_bias,17,19,60.0041773843,m,001,2018_Apr_02_1602,
,,,,,,,,,,,,,,,,,,,,,2+2= ?,,,,,,,,,,,,,,,,,,,,0,68,68,8,,,,,,,,,,,,,,,,,,,,,moral_self_bias,17,19,60.0041773843,m,001,2018_Apr_02_1602,
,,,,,,,,,,,,,,,,,,,,,11-4=？,,,,,,,,,,,,,,,,,,,,0,69,69,66,,,,,,,,,,,,,,,,,,,,,moral_self_bias,17,19,60.0041773843,m,001,2018_Apr_02_1602,
,,,,,,,,,,,,,,,,,,,,,6+2= ?,,,,,,,,,,,,,,,,,,,,0,70,70,44,,,,,,,,,,,,,,,,,,,,,moral_self_bias,17,19,60.0041773843,m,001,2018_Apr_02_1602,
,,,,,,,,,,,,,,,,,,,,,12-7= ?,,,,,,,,,,,,,,,,,,,,0,71,71,115,,,,,,,,,,,,,,,,,,,,,moral_self_bias,17,19,60.0041773843,m,001,2018_Apr_02_1602,
,,,,,,,,,,,,,,,,,,,,,7+2= ?,,,,,,,,,,,,,,,,,,,,0,72,72,47,,,,,,,,,,,,,,,,,,,,,moral_self_bias,17,19,60.0041773843,m,001,2018_Apr_02_1602,
,,,,,,,,,,,,,,,,,,,,,10-5=？,,,,,,,,,,,,,,,,,,,,0,73,73,67,,,,,,,,,,,,,,,,,,,,,moral_self_bias,17,19,60.0041773843,m,001,2018_Apr_02_1602,
,,,,,,,,,,,,,,,,,,,,,6+3= ?,,,,,,,,,,,,,,,,,,,,0,74,74,45,,,,,,,,,,,,,,,,,,,,,moral_self_bias,17,19,60.0041773843,m,001,2018_Apr_02_1602,
,,,,,,,,,,,,,,,,,,,,,3+4= ?,,,,,,,,,,,,,,,,,,,,0,75,75,19,,,,,,,,,,,,,,,,,,,,,moral_self_bias,17,19,60.0041773843,m,001,2018_Apr_02_1602,
,,,,,,,,,,,,,,,,,,,,,9-7= ?,,,,,,,,,,,,,,,,,,,,0,76,76,30,,,,,,,,,,,,,,,,,,,,,moral_self_bias,17,19,60.0041773843,m,001,2018_Apr_02_1602,
,,,,,,,,,,,,,,,,,,,,,1+7= ?,,,,,,,,,,,,,,,,,,,,0,77,77,4,,,,,,,,,,,,,,,,,,,,,moral_self_bias,17,19,60.0041773843,m,001,2018_Apr_02_1602,
,,,,,,,,,,,,,,,,,,,,,56/7= ?,,,,,,,,,,,,,,,,,,,,0,78,78,77,,,,,,,,,,,,,,,,,,,,,moral_self_bias,17,19,60.0041773843,m,001,2018_Apr_02_1602,
,,,,,,,,,,,,,,,,,,,,,30-29= ?,,,,,,,,,,,,,,,,,,,,0,79,79,73,,,,,,,,,,,,,,,,,,,,,moral_self_bias,17,19,60.0041773843,m,001,2018_Apr_02_1602,
,,,,,,,,,,,,,,,,,,,,,4+5= ?,,,,,,,,,,,,,,,,,,,,0,80,80,29,,,,,,,,,,,,,,,,,,,,,moral_self_bias,17,19,60.0041773843,m,001,2018_Apr_02_1602,
,,,,,,,,,,,,,,,,,,,,,8-6= ?,,,,,,,,,,,,,,,,,,,,0,81,81,42,,,,,,,,,,,,,,,,,,,,,moral_self_bias,17,19,60.0041773843,m,001,2018_Apr_02_1602,
,,,,,,,,,,,,,,,,,,,,,7*1= ?,,,,,,,,,,,,,,,,,,,,0,82,82,113,,,,,,,,,,,,,,,,,,,,,moral_self_bias,17,19,60.0041773843,m,001,2018_Apr_02_1602,
,,,,,,,,,,,,,,,,,,,,,15-10=？,,,,,,,,,,,,,,,,,,,,0,83,83,61,,,,,,,,,,,,,,,,,,,,,moral_self_bias,17,19,60.0041773843,m,001,2018_Apr_02_1602,
,,,,,,,,,,,,,,,,,,,,,10-9= ?,,,,,,,,,,,,,,,,,,,,0,84,84,112,,,,,,,,,,,,,,,,,,,,,moral_self_bias,17,19,60.0041773843,m,001,2018_Apr_02_1602,
,,,,,,,,,,,,,,,,,,,,,22-22= ?,,,,,,,,,,,,,,,,,,,,0,85,85,93,,,,,,,,,,,,,,,,,,,,,moral_self_bias,17,19,60.0041773843,m,001,2018_Apr_02_1602,
,,,,,,,,,,,,,,,,,,,,,2+3= ?,,,,,,,,,,,,,,,,,,,,0,86,86,9,,,,,,,,,,,,,,,,,,,,,moral_self_bias,17,19,60.0041773843,m,001,2018_Apr_02_1602,
,,,,,,,,,,,,,,,,,,,,,1+1= ?,,,,,,,,,,,,,,,,,,,,0,87,87,0,,,,,,,,,,,,,,,,,,,,,moral_self_bias,17,19,60.0041773843,m,001,2018_Apr_02_1602,
,,,,,,,,,,,,,,,,,,,,,23^0= ?,,,,,,,,,,,,,,,,,,,,0,88,88,94,,,,,,,,,,,,,,,,,,,,,moral_self_bias,17,19,60.0041773843,m,001,2018_Apr_02_1602,
,,,,,,,,,,,,,,,,,,,,,29-27= ?,,,,,,,,,,,,,,,,,,,,0,89,89,72,,,,,,,,,,,,,,,,,,,,,moral_self_bias,17,19,60.0041773843,m,001,2018_Apr_02_1602,
,,,,,,,,,,,,,,,,,,,,,3^2= ?,,,,,,,,,,,,,,,,,,,,0,90,90,50,,,,,,,,,,,,,,,,,,,,,moral_self_bias,17,19,60.0041773843,m,001,2018_Apr_02_1602,
,,,,,,,,,,,,,,,,,,,,,4+1= ?,,,,,,,,,,,,,,,,,,,,0,91,91,25,,,,,,,,,,,,,,,,,,,,,moral_self_bias,17,19,60.0041773843,m,001,2018_Apr_02_1602,
,,,,,,,,,,,,,,,,,,,,,8-2= ?,,,,,,,,,,,,,,,,,,,,0,92,92,38,,,,,,,,,,,,,,,,,,,,,moral_self_bias,17,19,60.0041773843,m,001,2018_Apr_02_1602,
,,,,,,,,,,,,,,,,,,,,,9-6= ?,,,,,,,,,,,,,,,,,,,,0,93,93,24,,,,,,,,,,,,,,,,,,,,,moral_self_bias,17,19,60.0041773843,m,001,2018_Apr_02_1602,
,,,,,,,,,,,,,,,,,,,,,2^2= ?,,,,,,,,,,,,,,,,,,,,0,94,94,49,,,,,,,,,,,,,,,,,,,,,moral_self_bias,17,19,60.0041773843,m,001,2018_Apr_02_1602,
,,,,,,,,,,,,,,,,,,,,,3+6= ?,,,,,,,,,,,,,,,,,,,,0,95,95,21,,,,,,,,,,,,,,,,,,,,,moral_self_bias,17,19,60.0041773843,m,001,2018_Apr_02_1602,
,,,,,,,,,,,,,,,,,,,,,4*1= ?,,,,,,,,,,,,,,,,,,,,0,96,96,85,,,,,,,,,,,,,,,,,,,,,moral_self_bias,17,19,60.0041773843,m,001,2018_Apr_02_1602,
,,,,,,,,,,,,,,,,,,,,,3+5= ?,,,,,,,,,,,,,,,,,,,,0,97,97,20,,,,,,,,,,,,,,,,,,,,,moral_self_bias,17,19,60.0041773843,m,001,2018_Apr_02_1602,
,,,,,,,,,,,,,,,,,,,,,5*0= ?,,,,,,,,,,,,,,,,,,,,0,98,98,86,,,,,,,,,,,,,,,,,,,,,moral_self_bias,17,19,60.0041773843,m,001,2018_Apr_02_1602,
,,,,,,,,,,,,,,,,,,,,,8-1= ?,,,,,,,,,,,,,,,,,,,,0,99,99,33,,,,,,,,,,,,,,,,,,,,,moral_self_bias,17,19,60.0041773843,m,001,2018_Apr_02_1602,
,,,,,,,,,,,,,,,,,,,,,4^1= ?,,,,,,,,,,,,,,,,,,,,0,100,100,102,,,,,,,,,,,,,,,,,,,,,moral_self_bias,17,19,60.0041773843,m,001,2018_Apr_02_1602,
,,,,,,,,,,,,,,,,,,,,,1-1= ?,,,,,,,,,,,,,,,,,,,,0,101,101,52,,,,,,,,,,,,,,,,,,,,,moral_self_bias,17,19,60.0041773843,m,001,2018_Apr_02_1602,
,,,,,,,,,,,,,,,,,,,,,81/9= ?,,,,,,,,,,,,,,,,,,,,0,102,102,75,,,,,,,,,,,,,,,,,,,,,moral_self_bias,17,19,60.0041773843,m,001,2018_Apr_02_1602,
,,,,,,,,,,,,,,,,,,,,,43-34= ?,,,,,,,,,,,,,,,,,,,,0,103,103,79,,,,,,,,,,,,,,,,,,,,,moral_self_bias,17,19,60.0041773843,m,001,2018_Apr_02_1602,
,,,,,,,,,,,,,,,,,,,,,1+6= ?,,,,,,,,,,,,,,,,,,,,0,104,104,5,,,,,,,,,,,,,,,,,,,,,moral_self_bias,17,19,60.0041773843,m,001,2018_Apr_02_1602,
,,,,,,,,,,,,,,,,,,,,,32-32= ?,,,,,,,,,,,,,,,,,,,,0,105,105,80,,,,,,,,,,,,,,,,,,,,,moral_self_bias,17,19,60.0041773843,m,001,2018_Apr_02_1602,
,,,,,,,,,,,,,,,,,,,,,9/3= ?,,,,,,,,,,,,,,,,,,,,0,106,106,56,,,,,,,,,,,,,,,,,,,,,moral_self_bias,17,19,60.0041773843,m,001,2018_Apr_02_1602,
,,,,,,,,,,,,,,,,,,,,,9+0= ?,,,,,,,,,,,,,,,,,,,,0,107,107,118,,,,,,,,,,,,,,,,,,,,,moral_self_bias,17,19,60.0041773843,m,001,2018_Apr_02_1602,
,,,,,,,,,,,,,,,,,,,,,3*1= ?,,,,,,,,,,,,,,,,,,,,0,108,108,83,,,,,,,,,,,,,,,,,,,,,moral_self_bias,17,19,60.0041773843,m,001,2018_Apr_02_1602,
,,,,,,,,,,,,,,,,,,,,,12/4= ?,,,,,,,,,,,,,,,,,,,,0,109,109,89,,,,,,,,,,,,,,,,,,,,,moral_self_bias,17,19,60.0041773843,m,001,2018_Apr_02_1602,
,,,,,,,,,,,,,,,,,,,,,9-1=?,,,,,,,,,,,,,,,,,,,,0,110,110,2,,,,,,,,,,,,,,,,,,,,,moral_self_bias,17,19,60.0041773843,m,001,2018_Apr_02_1602,
,,,,,,,,,,,,,,,,,,,,,4+2= ?,,,,,,,,,,,,,,,,,,,,0,111,111,26,,,,,,,,,,,,,,,,,,,,,moral_self_bias,17,19,60.0041773843,m,001,2018_Apr_02_1602,
,,,,,,,,,,,,,,,,,,,,,3+0= ?,,,,,,,,,,,,,,,,,,,,0,112,112,105,,,,,,,,,,,,,,,,,,,,,moral_self_bias,17,19,60.0041773843,m,001,2018_Apr_02_1602,
,,,,,,,,,,,,,,,,,,,,,20/5=？,,,,,,,,,,,,,,,,,,,,0,113,113,69,,,,,,,,,,,,,,,,,,,,,moral_self_bias,17,19,60.0041773843,m,001,2018_Apr_02_1602,
,,,,,,,,,,,,,,,,,,,,,1^2= ?,,,,,,,,,,,,,,,,,,,,0,114,114,51,,,,,,,,,,,,,,,,,,,,,moral_self_bias,17,19,60.0041773843,m,001,2018_Apr_02_1602,
,,,,,,,,,,,,,,,,,,,,,2+7= ?,,,,,,,,,,,,,,,,,,,,0,115,115,13,,,,,,,,,,,,,,,,,,,,,moral_self_bias,17,19,60.0041773843,m,001,2018_Apr_02_1602,
,,,,,,,,,,,,,,,,,,,,,1+2= ?,,,,,,,,,,,,,,,,,,,,0,116,116,1,,,,,,,,,,,,,,,,,,,,,moral_self_bias,17,19,60.0041773843,m,001,2018_Apr_02_1602,
,,,,,,,,,,,,,,,,,,,,,2+1= ?,,,,,,,,,,,,,,,,,,,,0,117,117,7,,,,,,,,,,,,,,,,,,,,,moral_self_bias,17,19,60.0041773843,m,001,2018_Apr_02_1602,
,,,,,,,,,,,,,,,,,,,,,8-4= ?,,,,,,,,,,,,,,,,,,,,0,118,118,40,,,,,,,,,,,,,,,,,,,,,moral_self_bias,17,19,60.0041773843,m,001,2018_Apr_02_1602,
,,,,,,,,,,,,,,,,,,,,,5+2= ?,,,,,,,,,,,,,,,,,,,,0,119,119,35,,,,,,,,,,,,,,,,,,,,,moral_self_bias,17,19,60.0041773843,m,001,2018_Apr_02_1602,
,,,,,,,,,,,,,,,,,,,,,,,,,,,,,,,,,,,,,,,,,,,,,,,,,,,,,,,,,2,6.34401202202,,,,,,,moral_self_bias,17,19,60.0041773843,m,001,2018_Apr_02_1602,
,,,,,,,,,,,,,,,,,,,,,,material/63.png,1,正义,material/166.png,1,material/66.png,仗义,1,f,f,f,1,1,1,文明,,,,,,,,,0,0,0,145,,,,,,,,,,,j,0,3.54092597961,,,,moral_self_bias,17,19,60.0041773843,m,001,2018_Apr_02_1602,
,,,,,,,,,,,,,,,,,,,,,,material/161.png,1,奉献,material/164.png,1,material/64.png,孝顺,1,f,f,f,1,1,1,勇敢,,,,,,,,,0,1,1,143,,,,,,,,,,,j,0,2.44151687622,,,,moral_self_bias,17,19,60.0041773843,m,001,2018_Apr_02_1602,
,,,,,,,,,,,,,,,,,,,,,,material/6.png,1,厚道,material/106.png,1,material/106.png,厚道,1,f,f,f,1,1,1,诚实,,,,,,,,,0,2,2,85,,,,,,,,,,,j,0,3.45801091194,,,,moral_self_bias,17,19,60.0041773843,m,001,2018_Apr_02_1602,
,,,,,,,,,,,,,,,,,,,,,,material/30.png,1,上进,material/130.png,1,material/30.png,进取,1,f,f,f,2,2,2,上进,,,,,,,,,0,3,3,109,0,0,0,0,,,,,,,f,1,1.00874614716,f,0,1.89184808731,moral_self_bias,17,19,60.0041773843,m,001,2018_Apr_02_1602,
,,,,,,,,,,,,,,,,,,,,,,material/30.png,1,上进,material/130.png,1,material/30.png,进取,1,f,f,f,2,2,2,上进,,,,,,,,,0,3,3,109,,,,,,,,,,,,,,,,,moral_self_bias,17,19,60.0041773843,m,001,2018_Apr_02_1602,
,,,,,,,,,,,,,,,,,,,,,,material/21.png,1,干练,material/121.png,1,material/21.png,精干,1,f,f,f,2,2,2,干练,,,,,,,,,0,4,4,100,,,,,,,,,,,j,0,0.974710941315,,,,moral_self_bias,17,19,60.0041773843,m,001,2018_Apr_02_1602,
,,,,,,,,,,,,,,,,,,,,,,material/122.png,1,博学,material/22.png,1,material/122.png,才学,1,j,j,j,2,2,2,博学,,,,,,,,,0,5,5,21,0,0,0,0,,,,,,,f,0,0.925158977509,j,1,0.741198062897,moral_self_bias,17,19,60.0041773843,m,001,2018_Apr_02_1602,
,,,,,,,,,,,,,,,,,,,,,,material/122.png,1,博学,material/22.png,1,material/122.png,才学,1,j,j,j,2,2,2,博学,,,,,,,,,0,5,5,21,,,,,,,,,,,,,,,,,moral_self_bias,17,19,60.0041773843,m,001,2018_Apr_02_1602,
,,,,,,,,,,,,,,,,,,,,,,material/182.png,2,健忘,material/184.png,2,material/80.png,厌学,2,f,f,f,2,2,2,才尽,,,,,,,,,0,6,6,163,,,,,,,,,,,j,0,1.05810785294,,,,moral_self_bias,17,19,60.0041773843,m,001,2018_Apr_02_1602,
,,,,,,,,,,,,,,,,,,,,,,material/139.png,2,凶残,material/39.png,2,material/39.png,凶残,2,j,j,j,1,1,1,恶毒,,,,,,,,,0,7,7,38,,,,,,,,,,,j,1,1.17459392548,,,,moral_self_bias,17,19,60.0041773843,m,001,2018_Apr_02_1602,
,,,,,,,,,,,,,,,,,,,,,,material/49.png,2,痴呆,material/149.png,2,material/49.png,白痴,2,f,f,f,2,2,2,痴呆,,,,,,,,,0,8,8,128,,,,,,,,,,,j,0,0.874938964844,,,,moral_self_bias,17,19,60.0041773843,m,001,2018_Apr_02_1602,
,,,,,,,,,,,,,,,,,,,,,,material/17.png,1,聪明,material/117.png,1,material/17.png,聪颖,1,f,f,f,2,2,2,聪明,,,,,,,,,0,9,9,96,,,,,,,,,,,j,0,0.974665880203,,,,moral_self_bias,17,19,60.0041773843,m,001,2018_Apr_02_1602,
,,,,,,,,,,,,,,,,,,,,,,material/39.png,2,恶毒,material/139.png,2,material/139.png,恶毒,2,f,f,f,1,1,1,凶残,,,,,,,,,0,10,10,118,,,,,,,,,,,j,0,1.09094405174,,,,moral_self_bias,17,19,60.0041773843,m,001,2018_Apr_02_1602,
,,,,,,,,,,,,,,,,,,,,,,material/31.png,1,笃学,material/131.png,1,material/31.png,笃行,1,f,f,f,2,2,2,笃学,,,,,,,,,0,11,11,110,0,0,0,0,,,,,,,f,1,0.908035039902,f,0,2.34161090851,moral_self_bias,17,19,60.0041773843,m,001,2018_Apr_02_1602,
,,,,,,,,,,,,,,,,,,,,,,material/31.png,1,笃学,material/131.png,1,material/31.png,笃行,1,f,f,f,2,2,2,笃学,,,,,,,,,0,11,11,110,,,,,,,,,,,,,,,,,moral_self_bias,17,19,60.0041773843,m,001,2018_Apr_02_1602,
,,,,,,,,,,,,,,,,,,,,,,material/82.png,2,毛糙,material/183.png,2,material/178.png,薄弱,2,f,f,f,2,2,2,窝囊,,,,,,,,,0,12,12,162,,,,,,,,,,,j,0,0.87436413765,,,,moral_self_bias,17,19,60.0041773843,m,001,2018_Apr_02_1602,
,,,,,,,,,,,,,,,,,,,,,,material/149.png,2,白痴,material/49.png,2,material/149.png,痴呆,2,j,j,j,2,2,2,白痴,,,,,,,,,0,13,13,48,0,0,0,0,,,,,,,f,0,0.858196973801,j,1,0.458151817322,moral_self_bias,17,19,60.0041773843,m,001,2018_Apr_02_1602,
,,,,,,,,,,,,,,,,,,,,,,material/149.png,2,白痴,material/49.png,2,material/149.png,痴呆,2,j,j,j,2,2,2,白痴,,,,,,,,,0,13,13,48,,,,,,,,,,,,,,,,,moral_self_bias,17,19,60.0041773843,m,001,2018_Apr_02_1602,
,,,,,,,,,,,,,,,,,,,,,,material/19.png,1,灵活,material/119.png,1,material/19.png,机灵,1,f,f,f,2,2,2,灵活,,,,,,,,,0,14,14,98,,,,,,,,,,,j,0,0.8914270401,,,,moral_self_bias,17,19,60.0041773843,m,001,2018_Apr_02_1602,
,,,,,,,,,,,,,,,,,,,,,,material/75.png,2,卑劣,material/74.png,2,material/74.png,卑劣,2,j,j,j,1,1,1,害人,,,,,,,,,0,15,15,70,,,,,,,,,,,j,1,0.708375930786,,,,moral_self_bias,17,19,60.0041773843,m,001,2018_Apr_02_1602,
,,,,,,,,,,,,,,,,,,,,,,material/44.png,2,爽约,material/144.png,2,material/144.png,爽约,2,f,f,f,1,1,1,失信,,,,,,,,,0,16,16,123,,,,,,,,,,,j,0,0.649674892426,,,,moral_self_bias,17,19,60.0041773843,m,001,2018_Apr_02_1602,
,,,,,,,,,,,,,,,,,,,,,,material/131.png,1,笃行,material/31.png,1,material/131.png,笃学,1,j,j,j,2,2,2,笃行,,,,,,,,,0,17,17,30,0,0,0,0,,,,,,,f,0,1.61674308777,f,0,0.466375112534,moral_self_bias,17,19,60.0041773843,m,001,2018_Apr_02_1602,
,,,,,,,,,,,,,,,,,,,,,,material/131.png,1,笃行,material/31.png,1,material/131.png,笃学,1,j,j,j,2,2,2,笃行,,,,,,,,,0,17,17,30,,,,,,,,,,,,,,,,,moral_self_bias,17,19,60.0041773843,m,001,2018_Apr_02_1602,
,,,,,,,,,,,,,,,,,,,,,,material/177.png,2,谄媚,material/72.png,2,material/72.png,谄媚,2,j,j,j,1,1,1,恶心,,,,,,,,,0,18,18,69,,,,,,,,,,,j,1,0.558202028275,,,,moral_self_bias,17,19,60.0041773843,m,001,2018_Apr_02_1602,
,,,,,,,,,,,,,,,,,,,,,,material/18.png,1,敏锐,material/118.png,1,material/18.png,机敏,1,f,f,f,2,2,2,敏锐,,,,,,,,,0,19,19,97,,,,,,,,,,,j,0,0.74129486084,,,,moral_self_bias,17,19,60.0041773843,m,001,2018_Apr_02_1602,
,,,,,,,,,,,,,,,,,,,,,,material/176.png,2,害人,material/75.png,2,material/75.png,害人,2,j,j,j,1,1,1,放纵,,,,,,,,,0,20,20,71,,,,,,,,,,,j,1,0.640189886093,,,,moral_self_bias,17,19,60.0041773843,m,001,2018_Apr_02_1602,
,,,,,,,,,,,,,,,,,,,,,,material/146.png,2,小气,material/46.png,2,material/46.png,小气,2,j,j,j,1,1,1,自私,,,,,,,,,0,21,21,45,,,,,,,,,,,j,1,0.657996177673,,,,moral_self_bias,17,19,60.0041773843,m,001,2018_Apr_02_1602,
,,,,,,,,,,,,,,,,,,,,,,material/125.png,1,果敢,material/25.png,1,material/125.png,果断,1,j,j,j,2,2,2,果敢,,,,,,,,,0,22,22,24,,,,,,,,,,,j,1,1.12390398979,,,,moral_self_bias,17,19,60.0041773843,m,001,2018_Apr_02_1602,
,,,,,,,,,,,,,,,,,,,,,,material/37.png,2,卑鄙,material/137.png,2,material/137.png,卑鄙,2,f,f,f,1,1,1,无耻,,,,,,,,,0,23,23,116,,,,,,,,,,,j,0,2.50748801231,,,,moral_self_bias,17,19,60.0041773843,m,001,2018_Apr_02_1602,
,,,,,,,,,,,,,,,,,,,,,,material/167.png,1,高手,material/169.png,1,material/167.png,颖悟,1,f,f,f,2,2,2,高手,,,,,,,,,0,24,24,148,,,,,,,,,,,j,0,0.77438211441,,,,moral_self_bias,17,19,60.0041773843,m,001,2018_Apr_02_1602,
,,,,,,,,,,,,,,,,,,,,,,material/157.png,2,无能,material/57.png,2,material/157.png,无知,2,j,j,j,2,2,2,无能,,,,,,,,,0,25,25,56,,,,,,,,,,,j,1,1.14042401314,,,,moral_self_bias,17,19,60.0041773843,m,001,2018_Apr_02_1602,
,,,,,,,,,,,,,,,,,,,,,,material/67.png,1,骁勇,material/70.png,1,material/67.png,全面,1,j,j,j,2,2,2,骁勇,,,,,,,,,0,26,26,67,,,,,,,,,,,j,1,0.841328859329,,,,moral_self_bias,17,19,60.0041773843,m,001,2018_Apr_02_1602,
,,,,,,,,,,,,,,,,,,,,,,material/51.png,2,糊涂,material/151.png,2,material/51.png,迷糊,2,f,f,f,2,2,2,糊涂,,,,,,,,,0,27,27,130,,,,,,,,,,,j,0,1.22509694099,,,,moral_self_bias,17,19,60.0041773843,m,001,2018_Apr_02_1602,
,,,,,,,,,,,,,,,,,,,,,,material/60.png,2,粗拙,material/160.png,2,material/60.png,笨拙,2,f,f,f,2,2,2,粗拙,,,,,,,,,0,28,28,139,,,,,,,,,,,j,0,0.907721996307,,,,moral_self_bias,17,19,60.0041773843,m,001,2018_Apr_02_1602,
,,,,,,,,,,,,,,,,,,,,,,material/7.png,1,公平,material/107.png,1,material/107.png,公平,1,f,f,f,1,1,1,公正,,,,,,,,,0,29,29,86,,,,,,,,,,,j,0,0.724473953247,,,,moral_self_bias,17,19,60.0041773843,m,001,2018_Apr_02_1602,
,,,,,,,,,,,,,,,,,,,,,,material/41.png,2,残忍,material/141.png,2,material/141.png,残忍,2,f,f,f,1,1,1,歹毒,,,,,,,,,0,30,30,120,,,,,,,,,,,j,0,0.725281000137,,,,moral_self_bias,17,19,60.0041773843,m,001,2018_Apr_02_1602,
,,,,,,,,,,,,,,,,,,,,,,material/134.png,2,可恨,material/34.png,2,material/34.png,可恨,2,j,j,j,1,1,1,可恶,,,,,,,,,0,31,31,33,,,,,,,,,,,j,1,0.758100986481,,,,moral_self_bias,17,19,60.0041773843,m,001,2018_Apr_02_1602,
,,,,,,,,,,,,,,,,,,,,,,material/114.png,1,爱国,material/14.png,1,material/14.png,爱国,1,j,j,j,1,1,1,忠贞,,,,,,,,,0,32,32,13,0,0,0,0,,,,,,,f,0,0.957333803177,j,1,0.574538946152,moral_self_bias,17,19,60.0041773843,m,001,2018_Apr_02_1602,
,,,,,,,,,,,,,,,,,,,,,,material/114.png,1,爱国,material/14.png,1,material/14.png,爱国,1,j,j,j,1,1,1,忠贞,,,,,,,,,0,32,32,13,,,,,,,,,,,,,,,,,moral_self_bias,17,19,60.0041773843,m,001,2018_Apr_02_1602,
,,,,,,,,,,,,,,,,,,,,,,material/2.png,1,爱心,material/102.png,1,material/102.png,爱心,1,f,f,f,1,1,1,善心,,,,,,,,,0,33,33,81,,,,,,,,,,,j,0,1.77487707138,,,,moral_self_bias,17,19,60.0041773843,m,001,2018_Apr_02_1602,
,,,,,,,,,,,,,,,,,,,,,,material/175.png,2,残虐,material/73.png,2,material/73.png,残虐,2,f,f,f,1,1,1,无情,,,,,,,,,0,34,34,165,,,,,,,,,,,j,0,0.991821050644,,,,moral_self_bias,17,19,60.0041773843,m,001,2018_Apr_02_1602,
,,,,,,,,,,,,,,,,,,,,,,material/36.png,2,撒谎,material/136.png,2,material/136.png,撒谎,2,f,f,f,1,1,1,说谎,,,,,,,,,0,35,35,115,,,,,,,,,,,j,0,2.44060587883,,,,moral_self_bias,17,19,60.0041773843,m,001,2018_Apr_02_1602,
,,,,,,,,,,,,,,,,,,,,,,material/80.png,2,才尽,material/83.png,2,material/182.png,呆笨,2,j,j,j,2,2,2,健忘,,,,,,,,,0,36,36,79,,,,,,,,,,,j,1,0.79186296463,,,,moral_self_bias,17,19,60.0041773843,m,001,2018_Apr_02_1602,
,,,,,,,,,,,,,,,,,,,,,,material/124.png,1,冷静,material/24.png,1,material/124.png,理智,1,j,j,j,2,2,2,冷静,,,,,,,,,0,37,37,23,,,,,,,,,,,j,1,1.60681295395,,,,moral_self_bias,17,19,60.0041773843,m,001,2018_Apr_02_1602,
,,,,,,,,,,,,,,,,,,,,,,material/23.png,1,有才,material/123.png,1,material/23.png,多才,1,f,f,f,2,2,2,有才,,,,,,,,,0,38,38,102,,,,,,,,,,,j,0,2.14132404327,,,,moral_self_bias,17,19,60.0041773843,m,001,2018_Apr_02_1602,
,,,,,,,,,,,,,,,,,,,,,,material/180.png,2,无助,material/79.png,2,material/81.png,颓废,2,j,j,j,2,2,2,怠惰,,,,,,,,,0,39,39,75,,,,,,,,,,,j,1,1.12519288063,,,,moral_self_bias,17,19,60.0041773843,m,001,2018_Apr_02_1602,
,,,,,,,,,,,,,,,,,,,,,,material/104.png,1,友爱,material/4.png,1,material/4.png,友爱,1,j,j,j,1,1,1,友善,,,,,,,,,0,40,40,3,,,,,,,,,,,j,1,0.841310977936,,,,moral_self_bias,17,19,60.0041773843,m,001,2018_Apr_02_1602,
,,,,,,,,,,,,,,,,,,,,,,material/16.png,1,睿智,material/116.png,1,material/16.png,机智,1,f,f,f,2,2,2,睿智,,,,,,,,,0,41,41,95,,,,,,,,,,,j,0,1.14082098007,,,,moral_self_bias,17,19,60.0041773843,m,001,2018_Apr_02_1602,
,,,,,,,,,,,,,,,,,,,,,,material/26.png,1,刻苦,material/126.png,1,material/26.png,勤快,1,f,f,f,2,2,2,刻苦,,,,,,,,,0,42,42,105,,,,,,,,,,,j,0,0.854249000549,,,,moral_self_bias,17,19,60.0041773843,m,001,2018_Apr_02_1602,
,,,,,,,,,,,,,,,,,,,,,,material/10.png,1,坚毅,material/110.png,1,material/110.png,坚毅,1,f,f,f,1,1,1,顽强,,,,,,,,,0,43,43,89,,,,,,,,,,,j,0,1.63740301132,,,,moral_self_bias,17,19,60.0041773843,m,001,2018_Apr_02_1602,
,,,,,,,,,,,,,,,,,,,,,,material/121.png,1,精干,material/21.png,1,material/121.png,干练,1,j,j,j,2,2,2,精干,,,,,,,,,0,44,44,20,0,0,0,0,,,,,,,f,0,0.874846935272,f,0,0.874741077423,moral_self_bias,17,19,60.0041773843,m,001,2018_Apr_02_1602,
,,,,,,,,,,,,,,,,,,,,,,material/121.png,1,精干,material/21.png,1,material/121.png,干练,1,j,j,j,2,2,2,精干,,,,,,,,,0,44,44,20,,,,,,,,,,,,,,,,,moral_self_bias,17,19,60.0041773843,m,001,2018_Apr_02_1602,
,,,,,,,,,,,,,,,,,,,,,,material/68.png,1,广博,material/167.png,1,material/68.png,高手,1,f,f,f,2,2,2,广博,,,,,,,,,0,45,45,146,,,,,,,,,,,j,0,0.741275072098,,,,moral_self_bias,17,19,60.0041773843,m,001,2018_Apr_02_1602,
,,,,,,,,,,,,,,,,,,,,,,material/164.png,1,宽容,material/63.png,1,material/163.png,文明,1,j,j,j,1,1,1,孝顺,,,,,,,,,0,46,46,62,0,0,0,0,,,,,,,f,0,1.45817804337,f,0,0.357854127884,moral_self_bias,17,19,60.0041773843,m,001,2018_Apr_02_1602,
,,,,,,,,,,,,,,,,,,,,,,material/164.png,1,宽容,material/63.png,1,material/163.png,文明,1,j,j,j,1,1,1,孝顺,,,,,,,,,0,46,46,62,,,,,,,,,,,,,,,,,moral_self_bias,17,19,60.0041773843,m,001,2018_Apr_02_1602,
,,,,,,,,,,,,,,,,,,,,,,material/129.png,1,好问,material/29.png,1,material/129.png,好学,1,j,j,j,2,2,2,好问,,,,,,,,,0,47,47,28,0,0,0,0,,,,,,,f,0,0.924629926682,f,0,0.35807299614,moral_self_bias,17,19,60.0041773843,m,001,2018_Apr_02_1602,
,,,,,,,,,,,,,,,,,,,,,,material/129.png,1,好问,material/29.png,1,material/129.png,好学,1,j,j,j,2,2,2,好问,,,,,,,,,0,47,47,28,,,,,,,,,,,,,,,,,moral_self_bias,17,19,60.0041773843,m,001,2018_Apr_02_1602,
,,,,,,,,,,,,,,,,,,,,,,material/163.png,1,文明,material/163.png,1,material/63.png,宽容,1,f,f,f,1,1,1,宽容,,,,,,,,,0,48,48,142,,,,,,,,,,,j,0,1.45822906494,,,,moral_self_bias,17,19,60.0041773843,m,001,2018_Apr_02_1602,
,,,,,,,,,,,,,,,,,,,,,,material/181.png,2,怠惰,material/180.png,2,material/180.png,怠惰,2,f,f,f,2,2,2,犹豫,,,,,,,,,0,49,49,159,,,,,,,,,,,j,0,0.575484991074,,,,moral_self_bias,17,19,60.0041773843,m,001,2018_Apr_02_1602,
,,,,,,,,,,,,,,,,,,,,,,material/102.png,1,善心,material/2.png,1,material/2.png,善心,1,j,j,j,1,1,1,爱心,,,,,,,,,0,50,50,1,0,0,0,0,,,,,,,f,0,0.891444921494,f,0,0.29202413559,moral_self_bias,17,19,60.0041773843,m,001,2018_Apr_02_1602,
,,,,,,,,,,,,,,,,,,,,,,material/102.png,1,善心,material/2.png,1,material/2.png,善心,1,j,j,j,1,1,1,爱心,,,,,,,,,0,50,50,1,,,,,,,,,,,,,,,,,moral_self_bias,17,19,60.0041773843,m,001,2018_Apr_02_1602,
,,,,,,,,,,,,,,,,,,,,,,material/56.png,2,愚昧,material/156.png,2,material/56.png,愚钝,2,f,f,f,2,2,2,愚昧,,,,,,,,,0,51,51,135,,,,,,,,,,,j,0,0.740889787674,,,,moral_self_bias,17,19,60.0041773843,m,001,2018_Apr_02_1602,
,,,,,,,,,,,,,,,,,,,,,,material/74.png,2,黑心,material/173.png,2,material/173.png,黑心,2,f,f,f,1,1,1,卑劣,,,,,,,,,0,52,52,152,0,0,0,0,,,,,,,f,1,1.22449398041,j,1,0.274691104889,moral_self_bias,17,19,60.0041773843,m,001,2018_Apr_02_1602,
,,,,,,,,,,,,,,,,,,,,,,material/74.png,2,黑心,material/173.png,2,material/173.png,黑心,2,f,f,f,1,1,1,卑劣,,,,,,,,,0,52,52,152,,,,,,,,,,,,,,,,,moral_self_bias,17,19,60.0041773843,m,001,2018_Apr_02_1602,
,,,,,,,,,,,,,,,,,,,,,,material/179.png,2,顽愚,material/178.png,2,material/84.png,毛糙,2,f,f,f,2,2,2,差生,,,,,,,,,0,53,53,157,,,,,,,,,,,j,0,0.791136980057,,,,moral_self_bias,17,19,60.0041773843,m,001,2018_Apr_02_1602,
,,,,,,,,,,,,,,,,,,,,,,material/174.png,2,虚伪,material/76.png,2,material/76.png,虚伪,2,j,j,j,1,1,1,不义,,,,,,,,,0,54,54,72,0,0,0,0,,,,,,,f,0,1.27518486977,j,1,1.79124689102,moral_self_bias,17,19,60.0041773843,m,001,2018_Apr_02_1602,
,,,,,,,,,,,,,,,,,,,,,,material/174.png,2,虚伪,material/76.png,2,material/76.png,虚伪,2,j,j,j,1,1,1,不义,,,,,,,,,0,54,54,72,,,,,,,,,,,,,,,,,moral_self_bias,17,19,60.0041773843,m,001,2018_Apr_02_1602,
,,,,,,,,,,,,,,,,,,,,,,material/111.png,1,高雅,material/11.png,1,material/11.png,高雅,1,j,j,j,1,1,1,高尚,,,,,,,,,0,55,55,10,0,0,0,0,,,,,,,f,0,0.875046014786,f,0,0.691319942474,moral_self_bias,17,19,60.0041773843,m,001,2018_Apr_02_1602,
,,,,,,,,,,,,,,,,,,,,,,material/111.png,1,高雅,material/11.png,1,material/11.png,高雅,1,j,j,j,1,1,1,高尚,,,,,,,,,0,55,55,10,,,,,,,,,,,,,,,,,moral_self_bias,17,19,60.0041773843,m,001,2018_Apr_02_1602,
,,,,,,,,,,,,,,,,,,,,,,material/65.png,1,勇敢,material/61.png,1,material/161.png,平等,1,j,j,j,1,1,1,谦虚,,,,,,,,,0,56,56,60,,,,,,,,,,,j,1,0.839883089066,,,,moral_self_bias,17,19,60.0041773843,m,001,2018_Apr_02_1602,
,,,,,,,,,,,,,,,,,,,,,,material/64.png,1,谦虚,material/165.png,1,material/65.png,独立,1,f,f,f,1,1,1,奉献,,,,,,,,,0,57,57,144,,,,,,,,,,,j,0,0.991526126862,,,,moral_self_bias,17,19,60.0041773843,m,001,2018_Apr_02_1602,
,,,,,,,,,,,,,,,,,,,,,,material/142.png,2,阴险,material/42.png,2,material/42.png,阴险,2,j,j,j,1,1,1,奸诈,,,,,,,,,0,58,58,41,0,0,0,0,,,,,,,f,0,0.875107049942,j,1,0.308111906052,moral_self_bias,17,19,60.0041773843,m,001,2018_Apr_02_1602,
,,,,,,,,,,,,,,,,,,,,,,material/142.png,2,阴险,material/42.png,2,material/42.png,阴险,2,j,j,j,1,1,1,奸诈,,,,,,,,,0,58,58,41,,,,,,,,,,,,,,,,,moral_self_bias,17,19,60.0041773843,m,001,2018_Apr_02_1602,
,,,,,,,,,,,,,,,,,,,,,,material/22.png,1,才学,material/122.png,1,material/22.png,博学,1,f,f,f,2,2,2,才学,,,,,,,,,0,59,59,101,0,0,0,0,,,,,,,f,1,1.64127111435,j,1,0.424880981445,moral_self_bias,17,19,60.0041773843,m,001,2018_Apr_02_1602,
,,,,,,,,,,,,,,,,,,,,,,material/22.png,1,才学,material/122.png,1,material/22.png,博学,1,f,f,f,2,2,2,才学,,,,,,,,,0,59,59,101,,,,,,,,,,,,,,,,,moral_self_bias,17,19,60.0041773843,m,001,2018_Apr_02_1602,
,,,,,,,,,,,,,,,,,,,,,,material/32.png,2,背叛,material/132.png,2,material/132.png,背叛,2,f,f,f,1,1,1,不忠,,,,,,,,,0,60,60,111,,,,,,,,,,,j,0,1.2588789463,,,,moral_self_bias,17,19,60.0041773843,m,001,2018_Apr_02_1602,
,,,,,,,,,,,,,,,,,,,,,,material/27.png,1,卓越,material/127.png,1,material/27.png,超群,1,f,f,f,2,2,2,卓越,,,,,,,,,0,61,61,106,,,,,,,,,,,j,0,1.04137897491,,,,moral_self_bias,17,19,60.0041773843,m,001,2018_Apr_02_1602,
,,,,,,,,,,,,,,,,,,,,,,material/59.png,2,智障,material/159.png,2,material/59.png,弱智,2,f,f,f,2,2,2,智障,,,,,,,,,0,62,62,138,,,,,,,,,,,j,0,1.04148507118,,,,moral_self_bias,17,19,60.0041773843,m,001,2018_Apr_02_1602,
,,,,,,,,,,,,,,,,,,,,,,material/108.png,1,公道,material/8.png,1,material/8.png,公道,1,j,j,j,1,1,1,无私,,,,,,,,,0,63,63,7,,,,,,,,,,,j,1,0.757233142853,,,,moral_self_bias,17,19,60.0041773843,m,001,2018_Apr_02_1602,
,,,,,,,,,,,,,,,,,,,,,,material/144.png,2,失信,material/44.png,2,material/44.png,失信,2,j,j,j,1,1,1,爽约,,,,,,,,,0,64,64,43,,,,,,,,,,,j,1,0.791562795639,,,,moral_self_bias,17,19,60.0041773843,m,001,2018_Apr_02_1602,
,,,,,,,,,,,,,,,,,,,,,,material/45.png,2,小人,material/145.png,2,material/145.png,小人,2,f,f,f,1,1,1,下流,,,,,,,,,0,65,65,124,,,,,,,,,,,j,0,0.933187007904,,,,moral_self_bias,17,19,60.0041773843,m,001,2018_Apr_02_1602,
,,,,,,,,,,,,,,,,,,,,,,material/136.png,2,说谎,material/36.png,2,material/36.png,说谎,2,j,j,j,1,1,1,撒谎,,,,,,,,,0,66,66,35,0,0,0,0,,,,,,,f,0,1.07484388351,j,1,0.309072971344,moral_self_bias,17,19,60.0041773843,m,001,2018_Apr_02_1602,
,,,,,,,,,,,,,,,,,,,,,,material/136.png,2,说谎,material/36.png,2,material/36.png,说谎,2,j,j,j,1,1,1,撒谎,,,,,,,,,0,66,66,35,,,,,,,,,,,,,,,,,moral_self_bias,17,19,60.0041773843,m,001,2018_Apr_02_1602,
,,,,,,,,,,,,,,,,,,,,,,material/33.png,2,贪污,material/133.png,2,material/133.png,贪污,2,f,f,f,1,1,1,腐败,,,,,,,,,0,67,67,112,,,,,,,,,,,j,0,0.691401958466,,,,moral_self_bias,17,19,60.0041773843,m,001,2018_Apr_02_1602,
,,,,,,,,,,,,,,,,,,,,,,material/140.png,2,邪恶,material/40.png,2,material/40.png,邪恶,2,j,j,j,1,1,1,狠毒,,,,,,,,,0,68,68,39,0,0,0,0,,,,,,,f,0,4.87490391731,j,1,0.375746011734,moral_self_bias,17,19,60.0041773843,m,001,2018_Apr_02_1602,
,,,,,,,,,,,,,,,,,,,,,,material/140.png,2,邪恶,material/40.png,2,material/40.png,邪恶,2,j,j,j,1,1,1,狠毒,,,,,,,,,0,68,68,39,,,,,,,,,,,,,,,,,moral_self_bias,17,19,60.0041773843,m,001,2018_Apr_02_1602,
,,,,,,,,,,,,,,,,,,,,,,material/170.png,1,坚忍,material/71.png,1,material/170.png,严谨,1,j,j,j,2,2,2,坚忍,,,,,,,,,0,69,69,68,,,,,,,,,,,j,1,0.927008867264,,,,moral_self_bias,17,19,60.0041773843,m,001,2018_Apr_02_1602,
,,,,,,,,,,,,,,,,,,,,,,material/46.png,2,自私,material/146.png,2,material/146.png,自私,2,f,f,f,1,1,1,小气,,,,,,,,,0,70,70,125,,,,,,,,,,,j,0,3.52467489243,,,,moral_self_bias,17,19,60.0041773843,m,001,2018_Apr_02_1602,
,,,,,,,,,,,,,,,,,,,,,,material/72.png,2,软弱,material/77.png,2,material/77.png,软弱,2,j,j,j,1,1,1,谄媚,,,,,,,,,0,71,71,73,,,,,,,,,,,j,1,1.00732803345,,,,moral_self_bias,17,19,60.0041773843,m,001,2018_Apr_02_1602,
,,,,,,,,,,,,,,,,,,,,,,material/183.png,2,颓废,material/182.png,2,material/79.png,才尽,2,f,f,f,2,2,2,薄弱,,,,,,,,,0,72,72,161,0,0,0,0,,,,,,,f,1,0.907767057419,j,1,0.359251022339,moral_self_bias,17,19,60.0041773843,m,001,2018_Apr_02_1602,
,,,,,,,,,,,,,,,,,,,,,,material/183.png,2,颓废,material/182.png,2,material/79.png,才尽,2,f,f,f,2,2,2,薄弱,,,,,,,,,0,72,72,161,,,,,,,,,,,,,,,,,moral_self_bias,17,19,60.0041773843,m,001,2018_Apr_02_1602,
,,,,,,,,,,,,,,,,,,,,,,material/160.png,2,笨拙,material/60.png,2,material/160.png,粗拙,2,j,j,j,2,2,2,笨拙,,,,,,,,,0,73,73,59,0,0,0,0,,,,,,,f,0,0.974612951279,f,0,0.974885225296,moral_self_bias,17,19,60.0041773843,m,001,2018_Apr_02_1602,
,,,,,,,,,,,,,,,,,,,,,,material/160.png,2,笨拙,material/60.png,2,material/160.png,粗拙,2,j,j,j,2,2,2,笨拙,,,,,,,,,0,73,73,59,,,,,,,,,,,,,,,,,moral_self_bias,17,19,60.0041773843,m,001,2018_Apr_02_1602,
,,,,,,,,,,,,,,,,,,,,,,material/28.png,1,克己,material/128.png,1,material/28.png,自律,1,f,f,f,2,2,2,克己,,,,,,,,,0,74,74,107,0,0,0,0,,,,,,,f,1,1.85816311836,f,0,0.325155973434,moral_self_bias,17,19,60.0041773843,m,001,2018_Apr_02_1602,
,,,,,,,,,,,,,,,,,,,,,,material/28.png,1,克己,material/128.png,1,material/28.png,自律,1,f,f,f,2,2,2,克己,,,,,,,,,0,74,74,107,,,,,,,,,,,,,,,,,moral_self_bias,17,19,60.0041773843,m,001,2018_Apr_02_1602,
,,,,,,,,,,,,,,,,,,,,,,material/1.png,1,博爱,material/101.png,1,material/101.png,博爱,1,f,f,f,1,1,1,善良,,,,,,,,,0,75,75,80,0,0,0,0,,,,,,,f,1,1.54185605049,j,1,0.641731023788,moral_self_bias,17,19,60.0041773843,m,001,2018_Apr_02_1602,
,,,,,,,,,,,,,,,,,,,,,,material/1.png,1,博爱,material/101.png,1,material/101.png,博爱,1,f,f,f,1,1,1,善良,,,,,,,,,0,75,75,80,,,,,,,,,,,,,,,,,moral_self_bias,17,19,60.0041773843,m,001,2018_Apr_02_1602,
,,,,,,,,,,,,,,,,,,,,,,material/123.png,1,多才,material/23.png,1,material/123.png,有才,1,j,j,j,2,2,2,多才,,,,,,,,,0,76,76,22,0,0,0,0,,,,,,,f,0,1.40845584869,j,1,0.308592796326,moral_self_bias,17,19,60.0041773843,m,001,2018_Apr_02_1602,
,,,,,,,,,,,,,,,,,,,,,,material/123.png,1,多才,material/23.png,1,material/123.png,有才,1,j,j,j,2,2,2,多才,,,,,,,,,0,76,76,22,,,,,,,,,,,,,,,,,moral_self_bias,17,19,60.0041773843,m,001,2018_Apr_02_1602,
,,,,,,,,,,,,,,,,,,,,,,material/66.png,1,独立,material/66.png,1,material/165.png,正义,1,f,f,f,1,1,1,正义,,,,,,,,,0,77,77,164,,,,,,,,,,,j,0,0.975249052048,,,,moral_self_bias,17,19,60.0041773843,m,001,2018_Apr_02_1602,
,,,,,,,,,,,,,,,,,,,,,,material/8.png,1,无私,material/108.png,1,material/108.png,无私,1,f,f,f,1,1,1,公道,,,,,,,,,0,78,78,87,,,,,,,,,,,j,0,1.02521014214,,,,moral_self_bias,17,19,60.0041773843,m,001,2018_Apr_02_1602,
,,,,,,,,,,,,,,,,,,,,,,material/14.png,1,忠贞,material/114.png,1,material/114.png,忠贞,1,f,f,f,1,1,1,爱国,,,,,,,,,0,79,79,93,,,,,,,,,,,j,0,3.74140715599,,,,moral_self_bias,17,19,60.0041773843,m,001,2018_Apr_02_1602,
,,,,,,,,,,,,,,,,,,,,,,material/69.png,1,高明,material/69.png,1,material/69.png,高明,1,f,f,f,2,2,2,高明,,,,,,,,,0,80,80,166,0,0,0,0,,,,,,,f,1,3.24091815948,f,0,0.508198976517,moral_self_bias,17,19,60.0041773843,m,001,2018_Apr_02_1602,
,,,,,,,,,,,,,,,,,,,,,,material/69.png,1,高明,material/69.png,1,material/69.png,高明,1,f,f,f,2,2,2,高明,,,,,,,,,0,80,80,166,,,,,,,,,,,,,,,,,moral_self_bias,17,19,60.0041773843,m,001,2018_Apr_02_1602,
,,,,,,,,,,,,,,,,,,,,,,material/81.png,2,呆笨,material/179.png,2,material/83.png,差生,2,f,f,f,2,2,2,无助,,,,,,,,,0,81,81,158,0,0,0,0,,,,,,,f,1,1.0498239994,j,1,0.40035700798,moral_self_bias,17,19,60.0041773843,m,001,2018_Apr_02_1602,
,,,,,,,,,,,,,,,,,,,,,,material/81.png,2,呆笨,material/179.png,2,material/83.png,差生,2,f,f,f,2,2,2,无助,,,,,,,,,0,81,81,158,,,,,,,,,,,,,,,,,moral_self_bias,17,19,60.0041773843,m,001,2018_Apr_02_1602,
,,,,,,,,,,,,,,,,,,,,,,material/106.png,1,诚实,material/6.png,1,material/6.png,诚实,1,j,j,j,1,1,1,厚道,,,,,,,,,0,82,82,5,,,,,,,,,,,j,1,1.83401894569,,,,moral_self_bias,17,19,60.0041773843,m,001,2018_Apr_02_1602,
,,,,,,,,,,,,,,,,,,,,,,material/141.png,2,歹毒,material/41.png,2,material/41.png,歹毒,2,j,j,j,1,1,1,残忍,,,,,,,,,0,83,83,40,,,,,,,,,,,j,1,1.82415986061,,,,moral_self_bias,17,19,60.0041773843,m,001,2018_Apr_02_1602,
,,,,,,,,,,,,,,,,,,,,,,material/107.png,1,公正,material/7.png,1,material/7.png,公正,1,j,j,j,1,1,1,公平,,,,,,,,,0,84,84,6,0,0,0,0,,,,,,,f,0,3.22415494919,j,1,0.825057983398,moral_self_bias,17,19,60.0041773843,m,001,2018_Apr_02_1602,
,,,,,,,,,,,,,,,,,,,,,,material/107.png,1,公正,material/7.png,1,material/7.png,公正,1,j,j,j,1,1,1,公平,,,,,,,,,0,84,84,6,,,,,,,,,,,,,,,,,moral_self_bias,17,19,60.0041773843,m,001,2018_Apr_02_1602,
,,,,,,,,,,,,,,,,,,,,,,material/3.png,1,仁厚,material/103.png,1,material/103.png,仁厚,1,f,f,f,1,1,1,仁慈,,,,,,,,,0,85,85,82,,,,,,,,,,,j,0,0.707455158234,,,,moral_self_bias,17,19,60.0041773843,m,001,2018_Apr_02_1602,
,,,,,,,,,,,,,,,,,,,,,,material/52.png,2,拖延,material/152.png,2,material/52.png,缓慢,2,f,f,f,2,2,2,拖延,,,,,,,,,0,86,86,131,,,,,,,,,,,j,0,0.840945005417,,,,moral_self_bias,17,19,60.0041773843,m,001,2018_Apr_02_1602,
,,,,,,,,,,,,,,,,,,,,,,material/178.png,2,窝囊,material/82.png,2,material/82.png,窝囊,2,j,j,j,2,2,2,毛糙,,,,,,,,,0,87,87,78,0,0,0,0,,,,,,,f,0,0.958561897278,f,0,0.374681949615,moral_self_bias,17,19,60.0041773843,m,001,2018_Apr_02_1602,
,,,,,,,,,,,,,,,,,,,,,,material/178.png,2,窝囊,material/82.png,2,material/82.png,窝囊,2,j,j,j,2,2,2,毛糙,,,,,,,,,0,87,87,78,,,,,,,,,,,,,,,,,moral_self_bias,17,19,60.0041773843,m,001,2018_Apr_02_1602,
,,,,,,,,,,,,,,,,,,,,,,material/165.png,1,平等,material/161.png,1,material/61.png,勇敢,1,f,f,f,1,1,1,独立,,,,,,,,,0,88,88,140,,,,,,,,,,,j,0,7.29044079781,,,,moral_self_bias,17,19,60.0041773843,m,001,2018_Apr_02_1602,
,,,,,,,,,,,,,,,,,,,,,,material/172.png,2,无情,material/175.png,2,material/175.png,无情,2,f,f,f,1,1,1,浮夸,,,,,,,,,0,89,89,154,,,,,,,,,,,j,0,1.62374091148,,,,moral_self_bias,17,19,60.0041773843,m,001,2018_Apr_02_1602,
,,,,,,,,,,,,,,,,,,,,,,material/50.png,2,愚笨,material/150.png,2,material/50.png,鲁钝,2,f,f,f,2,2,2,愚笨,,,,,,,,,0,90,90,129,,,,,,,,,,,j,0,0.674237966537,,,,moral_self_bias,17,19,60.0041773843,m,001,2018_Apr_02_1602,
,,,,,,,,,,,,,,,,,,,,,,material/48.png,2,愚蠢,material/148.png,2,material/48.png,笨蛋,2,f,f,f,2,2,2,愚蠢,,,,,,,,,0,91,91,127,,,,,,,,,,,j,0,0.707938909531,,,,moral_self_bias,17,19,60.0041773843,m,001,2018_Apr_02_1602,
,,,,,,,,,,,,,,,,,,,,,,material/79.png,2,薄弱,material/81.png,2,material/183.png,无助,2,j,j,j,2,2,2,颓废,,,,,,,,,0,92,92,77,,,,,,,,,,,j,1,0.891356945038,,,,moral_self_bias,17,19,60.0041773843,m,001,2018_Apr_02_1602,
,,,,,,,,,,,,,,,,,,,,,,material/112.png,1,忠诚,material/12.png,1,material/12.png,忠诚,1,j,j,j,1,1,1,忠心,,,,,,,,,0,93,93,11,0,0,0,0,,,,,,,f,0,0.766704082489,f,0,0.491752147675,moral_self_bias,17,19,60.0041773843,m,001,2018_Apr_02_1602,
,,,,,,,,,,,,,,,,,,,,,,material/112.png,1,忠诚,material/12.png,1,material/12.png,忠诚,1,j,j,j,1,1,1,忠心,,,,,,,,,0,93,93,11,,,,,,,,,,,,,,,,,moral_self_bias,17,19,60.0041773843,m,001,2018_Apr_02_1602,
,,,,,,,,,,,,,,,,,,,,,,material/11.png,1,高尚,material/111.png,1,material/111.png,高尚,1,f,f,f,1,1,1,高雅,,,,,,,,,0,94,94,90,0,0,0,0,,,,,,,f,1,4.57534098625,f,0,0.358673095703,moral_self_bias,17,19,60.0041773843,m,001,2018_Apr_02_1602,
,,,,,,,,,,,,,,,,,,,,,,material/11.png,1,高尚,material/111.png,1,material/111.png,高尚,1,f,f,f,1,1,1,高雅,,,,,,,,,0,94,94,90,,,,,,,,,,,,,,,,,moral_self_bias,17,19,60.0041773843,m,001,2018_Apr_02_1602,
,,,,,,,,,,,,,,,,,,,,,,material/77.png,2,浮夸,material/172.png,2,material/172.png,浮夸,2,f,f,f,1,1,1,软弱,,,,,,,,,0,95,95,151,0,0,0,0,,,,,,,f,1,0.708528995514,f,0,0.274631977081,moral_self_bias,17,19,60.0041773843,m,001,2018_Apr_02_1602,
,,,,,,,,,,,,,,,,,,,,,,material/77.png,2,浮夸,material/172.png,2,material/172.png,浮夸,2,f,f,f,1,1,1,软弱,,,,,,,,,0,95,95,151,,,,,,,,,,,,,,,,,moral_self_bias,17,19,60.0041773843,m,001,2018_Apr_02_1602,
,,,,,,,,,,,,,,,,,,,,,,material/128.png,1,自律,material/28.png,1,material/128.png,克己,1,j,j,j,2,2,2,自律,,,,,,,,,0,96,96,27,0,0,0,0,,,,,,,f,0,1.0251121521,j,1,0.275660037994,moral_self_bias,17,19,60.0041773843,m,001,2018_Apr_02_1602,
,,,,,,,,,,,,,,,,,,,,,,material/128.png,1,自律,material/28.png,1,material/128.png,克己,1,j,j,j,2,2,2,自律,,,,,,,,,0,96,96,27,,,,,,,,,,,,,,,,,moral_self_bias,17,19,60.0041773843,m,001,2018_Apr_02_1602,
,,,,,,,,,,,,,,,,,,,,,,material/47.png,2,死板,material/147.png,2,material/47.png,刻板,2,f,f,f,2,2,2,死板,,,,,,,,,0,97,97,126,,,,,,,,,,,j,0,1.1427989006,,,,moral_self_bias,17,19,60.0041773843,m,001,2018_Apr_02_1602,
,,,,,,,,,,,,,,,,,,,,,,material/152.png,2,缓慢,material/52.png,2,material/152.png,拖延,2,j,j,j,2,2,2,缓慢,,,,,,,,,0,98,98,51,0,0,0,0,,,,,,,f,0,0.82381606102,f,0,0.274177074432,moral_self_bias,17,19,60.0041773843,m,001,2018_Apr_02_1602,
,,,,,,,,,,,,,,,,,,,,,,material/152.png,2,缓慢,material/52.png,2,material/152.png,拖延,2,j,j,j,2,2,2,缓慢,,,,,,,,,0,98,98,51,,,,,,,,,,,,,,,,,moral_self_bias,17,19,60.0041773843,m,001,2018_Apr_02_1602,
,,,,,,,,,,,,,,,,,,,,,,material/54.png,2,依赖,material/154.png,2,material/54.png,依靠,2,f,f,f,2,2,2,依赖,,,,,,,,,0,99,99,133,,,,,,,,,,,j,0,0.857360124588,,,,moral_self_bias,17,19,60.0041773843,m,001,2018_Apr_02_1602,
,,,,,,,,,,,,,,,,,,,,,,material/20.png,1,厉害,material/120.png,1,material/20.png,能干,1,f,f,f,2,2,2,厉害,,,,,,,,,0,100,100,99,,,,,,,,,,,j,0,0.840773105621,,,,moral_self_bias,17,19,60.0041773843,m,001,2018_Apr_02_1602,
,,,,,,,,,,,,,,,,,,,,,,material/4.png,1,友善,material/104.png,1,material/104.png,友善,1,f,f,f,1,1,1,友爱,,,,,,,,,0,101,101,83,0,0,0,0,,,,,,,f,1,0.957026004791,j,1,0.475749015808,moral_self_bias,17,19,60.0041773843,m,001,2018_Apr_02_1602,
,,,,,,,,,,,,,,,,,,,,,,material/4.png,1,友善,material/104.png,1,material/104.png,友善,1,f,f,f,1,1,1,友爱,,,,,,,,,0,101,101,83,,,,,,,,,,,,,,,,,moral_self_bias,17,19,60.0041773843,m,001,2018_Apr_02_1602,
,,,,,,,,,,,,,,,,,,,,,,material/78.png,2,厌学,material/181.png,2,material/184.png,犹豫,2,f,f,f,2,2,2,草率,,,,,,,,,0,102,102,160,0,0,0,0,,,,,,,f,1,1.57420110703,f,0,0.291558027267,moral_self_bias,17,19,60.0041773843,m,001,2018_Apr_02_1602,
,,,,,,,,,,,,,,,,,,,,,,material/78.png,2,厌学,material/181.png,2,material/184.png,犹豫,2,f,f,f,2,2,2,草率,,,,,,,,,0,102,102,160,,,,,,,,,,,,,,,,,moral_self_bias,17,19,60.0041773843,m,001,2018_Apr_02_1602,
,,,,,,,,,,,,,,,,,,,,,,material/29.png,1,好学,material/129.png,1,material/29.png,好问,1,f,f,f,2,2,2,好学,,,,,,,,,0,103,103,108,,,,,,,,,,,j,0,0.707757949829,,,,moral_self_bias,17,19,60.0041773843,m,001,2018_Apr_02_1602,
,,,,,,,,,,,,,,,,,,,,,,material/151.png,2,迷糊,material/51.png,2,material/151.png,糊涂,2,j,j,j,2,2,2,迷糊,,,,,,,,,0,104,104,50,,,,,,,,,,,j,1,0.974367856979,,,,moral_self_bias,17,19,60.0041773843,m,001,2018_Apr_02_1602,
,,,,,,,,,,,,,,,,,,,,,,material/115.png,1,清白,material/15.png,1,material/15.png,清白,1,j,j,j,1,1,1,纯洁,,,,,,,,,0,105,105,14,,,,,,,,,,,j,1,2.09019517899,,,,moral_self_bias,17,19,60.0041773843,m,001,2018_Apr_02_1602,
,,,,,,,,,,,,,,,,,,,,,,material/34.png,2,可恶,material/134.png,2,material/134.png,可恶,2,f,f,f,1,1,1,可恨,,,,,,,,,0,106,106,113,,,,,,,,,,,j,0,0.774317979813,,,,moral_self_bias,17,19,60.0041773843,m,001,2018_Apr_02_1602,
,,,,,,,,,,,,,,,,,,,,,,material/24.png,1,理智,material/124.png,1,material/24.png,冷静,1,f,f,f,2,2,2,理智,,,,,,,,,0,107,107,103,,,,,,,,,,,j,0,0.79173707962,,,,moral_self_bias,17,19,60.0041773843,m,001,2018_Apr_02_1602,
,,,,,,,,,,,,,,,,,,,,,,material/83.png,2,差生,material/78.png,2,material/179.png,草率,2,j,j,j,2,2,2,呆笨,,,,,,,,,0,108,108,74,,,,,,,,,,,j,1,8.66663408279,,,,moral_self_bias,17,19,60.0041773843,m,001,2018_Apr_02_1602,
,,,,,,,,,,,,,,,,,,,,,,material/118.png,1,机敏,material/18.png,1,material/118.png,敏锐,1,j,j,j,2,2,2,机敏,,,,,,,,,0,109,109,17,,,,,,,,,,,j,1,0.807909965515,,,,moral_self_bias,17,19,60.0041773843,m,001,2018_Apr_02_1602,
,,,,,,,,,,,,,,,,,,,,,,material/43.png,2,虚荣,material/143.png,2,material/143.png,虚荣,2,f,f,f,1,1,1,拜金,,,,,,,,,0,110,110,122,0,0,0,0,,,,,,,f,1,1.75049996376,f,0,0.874091863632,moral_self_bias,17,19,60.0041773843,m,001,2018_Apr_02_1602,
,,,,,,,,,,,,,,,,,,,,,,material/43.png,2,虚荣,material/143.png,2,material/143.png,虚荣,2,f,f,f,1,1,1,拜金,,,,,,,,,0,110,110,122,,,,,,,,,,,,,,,,,moral_self_bias,17,19,60.0041773843,m,001,2018_Apr_02_1602,
,,,,,,,,,,,,,,,,,,,,,,material/110.png,1,顽强,material/10.png,1,material/10.png,顽强,1,j,j,j,1,1,1,坚毅,,,,,,,,,0,111,111,9,0,0,0,0,,,,,,,f,0,2.09199309349,j,1,0.441936016083,moral_self_bias,17,19,60.0041773843,m,001,2018_Apr_02_1602,
,,,,,,,,,,,,,,,,,,,,,,material/110.png,1,顽强,material/10.png,1,material/10.png,顽强,1,j,j,j,1,1,1,坚毅,,,,,,,,,0,111,111,9,,,,,,,,,,,,,,,,,moral_self_bias,17,19,60.0041773843,m,001,2018_Apr_02_1602,
,,,,,,,,,,,,,,,,,,,,,,material/76.png,2,放纵,material/176.png,2,material/176.png,放纵,2,f,f,f,1,1,1,虚伪,,,,,,,,,0,112,112,155,,,,,,,,,,,j,0,0.690442800522,,,,moral_self_bias,17,19,60.0041773843,m,001,2018_Apr_02_1602,
,,,,,,,,,,,,,,,,,,,,,,material/143.png,2,拜金,material/43.png,2,material/43.png,拜金,2,j,j,j,1,1,1,虚荣,,,,,,,,,0,113,113,42,,,,,,,,,,,j,1,0.708086013794,,,,moral_self_bias,17,19,60.0041773843,m,001,2018_Apr_02_1602,
,,,,,,,,,,,,,,,,,,,,,,material/116.png,1,机智,material/16.png,1,material/116.png,睿智,1,j,j,j,2,2,2,机智,,,,,,,,,0,114,114,15,,,,,,,,,,,j,1,1.14233613014,,,,moral_self_bias,17,19,60.0041773843,m,001,2018_Apr_02_1602,
,,,,,,,,,,,,,,,,,,,,,,material/25.png,1,果断,material/125.png,1,material/25.png,果敢,1,f,f,f,2,2,2,果断,,,,,,,,,0,115,115,104,,,,,,,,,,,j,0,0.607168912888,,,,moral_self_bias,17,19,60.0041773843,m,001,2018_Apr_02_1602,
,,,,,,,,,,,,,,,,,,,,,,material/147.png,2,刻板,material/47.png,2,material/147.png,死板,2,j,j,j,2,2,2,刻板,,,,,,,,,0,116,116,46,0,0,0,0,,,,,,,f,0,1.25840902328,j,1,0.242172956467,moral_self_bias,17,19,60.0041773843,m,001,2018_Apr_02_1602,
,,,,,,,,,,,,,,,,,,,,,,material/147.png,2,刻板,material/47.png,2,material/147.png,死板,2,j,j,j,2,2,2,刻板,,,,,,,,,0,116,116,46,,,,,,,,,,,,,,,,,moral_self_bias,17,19,60.0041773843,m,001,2018_Apr_02_1602,
,,,,,,,,,,,,,,,,,,,,,,material/15.png,1,纯洁,material/115.png,1,material/115.png,纯洁,1,f,f,f,1,1,1,清白,,,,,,,,,0,117,117,94,,,,,,,,,,,j,0,0.708038806915,,,,moral_self_bias,17,19,60.0041773843,m,001,2018_Apr_02_1602,
,,,,,,,,,,,,,,,,,,,,,,material/57.png,2,无知,material/157.png,2,material/57.png,无能,2,f,f,f,2,2,2,无知,,,,,,,,,0,118,118,136,,,,,,,,,,,j,0,0.741479873657,,,,moral_self_bias,17,19,60.0041773843,m,001,2018_Apr_02_1602,
,,,,,,,,,,,,,,,,,,,,,,material/101.png,1,善良,material/1.png,1,material/1.png,善良,1,j,j,j,1,1,1,博爱,,,,,,,,,0,119,119,0,0,0,0,0,,,,,,,f,0,0.807839155197,j,1,0.224764108658,moral_self_bias,17,19,60.0041773843,m,001,2018_Apr_02_1602,
,,,,,,,,,,,,,,,,,,,,,,material/101.png,1,善良,material/1.png,1,material/1.png,善良,1,j,j,j,1,1,1,博爱,,,,,,,,,0,119,119,0,,,,,,,,,,,,,,,,,moral_self_bias,17,19,60.0041773843,m,001,2018_Apr_02_1602,
,,,,,,,,,,,,,,,,,,,,,,material/153.png,2,迟钝,material/53.png,2,material/153.png,迟缓,2,j,j,j,2,2,2,迟钝,,,,,,,,,0,120,120,52,0,0,0,0,,,,,,,f,0,1.57476592064,f,0,0.308152198792,moral_self_bias,17,19,60.0041773843,m,001,2018_Apr_02_1602,
,,,,,,,,,,,,,,,,,,,,,,material/153.png,2,迟钝,material/53.png,2,material/153.png,迟缓,2,j,j,j,2,2,2,迟钝,,,,,,,,,0,120,120,52,,,,,,,,,,,,,,,,,moral_self_bias,17,19,60.0041773843,m,001,2018_Apr_02_1602,
,,,,,,,,,,,,,,,,,,,,,,material/53.png,2,迟缓,material/153.png,2,material/53.png,迟钝,2,f,f,f,2,2,2,迟缓,,,,,,,,,0,121,121,132,,,,,,,,,,,j,0,0.757510900497,,,,moral_self_bias,17,19,60.0041773843,m,001,2018_Apr_02_1602,
,,,,,,,,,,,,,,,,,,,,,,material/117.png,1,聪颖,material/17.png,1,material/117.png,聪明,1,j,j,j,2,2,2,聪颖,,,,,,,,,0,122,122,16,,,,,,,,,,,j,1,0.740774154663,,,,moral_self_bias,17,19,60.0041773843,m,001,2018_Apr_02_1602,
,,,,,,,,,,,,,,,,,,,,,,material/38.png,2,缺德,material/138.png,2,material/138.png,缺德,2,f,f,f,1,1,1,无德,,,,,,,,,0,123,123,117,0,0,0,0,,,,,,,f,1,1.25875997543,j,1,0.241565942764,moral_self_bias,17,19,60.0041773843,m,001,2018_Apr_02_1602,
,,,,,,,,,,,,,,,,,,,,,,material/38.png,2,缺德,material/138.png,2,material/138.png,缺德,2,f,f,f,1,1,1,无德,,,,,,,,,0,123,123,117,,,,,,,,,,,,,,,,,moral_self_bias,17,19,60.0041773843,m,001,2018_Apr_02_1602,
,,,,,,,,,,,,,,,,,,,,,,material/168.png,1,机变,material/170.png,1,material/168.png,坚忍,1,f,f,f,2,2,2,机变,,,,,,,,,0,124,124,149,,,,,,,,,,,j,0,0.975243091583,,,,moral_self_bias,17,19,60.0041773843,m,001,2018_Apr_02_1602,
,,,,,,,,,,,,,,,,,,,,,,material/126.png,1,勤快,material/26.png,1,material/126.png,刻苦,1,j,j,j,2,2,2,勤快,,,,,,,,,0,125,125,25,,,,,,,,,,,j,1,1.12492012978,,,,moral_self_bias,17,19,60.0041773843,m,001,2018_Apr_02_1602,
,,,,,,,,,,,,,,,,,,,,,,material/130.png,1,进取,material/30.png,1,material/130.png,上进,1,j,j,j,2,2,2,进取,,,,,,,,,0,126,126,29,0,0,0,0,,,,,,,f,0,1.10779118538,f,0,0.574403047562,moral_self_bias,17,19,60.0041773843,m,001,2018_Apr_02_1602,
,,,,,,,,,,,,,,,,,,,,,,material/130.png,1,进取,material/30.png,1,material/130.png,上进,1,j,j,j,2,2,2,进取,,,,,,,,,0,126,126,29,,,,,,,,,,,,,,,,,moral_self_bias,17,19,60.0041773843,m,001,2018_Apr_02_1602,
,,,,,,,,,,,,,,,,,,,,,,material/166.png,1,孝顺,material/64.png,1,material/164.png,奉献,1,j,j,j,1,1,1,仗义,,,,,,,,,0,127,127,63,,,,,,,,,,,j,1,0.773447036743,,,,moral_self_bias,17,19,60.0041773843,m,001,2018_Apr_02_1602,
,,,,,,,,,,,,,,,,,,,,,,material/62.png,1,坚韧,material/162.png,1,material/62.png,敬业,1,f,f,f,1,1,1,坚韧,,,,,,,,,0,128,128,141,,,,,,,,,,,j,0,3.04048299789,,,,moral_self_bias,17,19,60.0041773843,m,001,2018_Apr_02_1602,
,,,,,,,,,,,,,,,,,,,,,,material/127.png,1,超群,material/27.png,1,material/127.png,卓越,1,j,j,j,2,2,2,超群,,,,,,,,,0,129,129,26,,,,,,,,,,,j,1,1.82409787178,,,,moral_self_bias,17,19,60.0041773843,m,001,2018_Apr_02_1602,
,,,,,,,,,,,,,,,,,,,,,,material/5.png,1,诚信,material/105.png,1,material/105.png,诚信,1,f,f,f,1,1,1,守信,,,,,,,,,0,130,130,84,0,0,0,0,,,,,,,f,1,3.92436099052,j,1,0.325321912766,moral_self_bias,17,19,60.0041773843,m,001,2018_Apr_02_1602,
,,,,,,,,,,,,,,,,,,,,,,material/5.png,1,诚信,material/105.png,1,material/105.png,诚信,1,f,f,f,1,1,1,守信,,,,,,,,,0,130,130,84,,,,,,,,,,,,,,,,,moral_self_bias,17,19,60.0041773843,m,001,2018_Apr_02_1602,
,,,,,,,,,,,,,,,,,,,,,,material/55.png,2,盲从,material/155.png,2,material/55.png,盲目,2,f,f,f,2,2,2,盲从,,,,,,,,,0,131,131,134,0,0,0,0,,,,,,,f,1,4.97480392456,f,0,0.359053134918,moral_self_bias,17,19,60.0041773843,m,001,2018_Apr_02_1602,
,,,,,,,,,,,,,,,,,,,,,,material/55.png,2,盲从,material/155.png,2,material/55.png,盲目,2,f,f,f,2,2,2,盲从,,,,,,,,,0,131,131,134,,,,,,,,,,,,,,,,,moral_self_bias,17,19,60.0041773843,m,001,2018_Apr_02_1602,
,,,,,,,,,,,,,,,,,,,,,,material/138.png,2,无德,material/38.png,2,material/38.png,无德,2,j,j,j,1,1,1,缺德,,,,,,,,,0,132,132,37,0,0,0,0,,,,,,,f,0,2.42458200455,j,1,0.27550983429,moral_self_bias,17,19,60.0041773843,m,001,2018_Apr_02_1602,
,,,,,,,,,,,,,,,,,,,,,,material/138.png,2,无德,material/38.png,2,material/38.png,无德,2,j,j,j,1,1,1,缺德,,,,,,,,,0,132,132,37,,,,,,,,,,,,,,,,,moral_self_bias,17,19,60.0041773843,m,001,2018_Apr_02_1602,
,,,,,,,,,,,,,,,,,,,,,,material/184.png,2,草率,material/80.png,2,material/78.png,健忘,2,j,j,j,2,2,2,厌学,,,,,,,,,0,133,133,76,,,,,,,,,,,j,1,1.02474117279,,,,moral_self_bias,17,19,60.0041773843,m,001,2018_Apr_02_1602,
,,,,,,,,,,,,,,,,,,,,,,material/73.png,2,恶心,material/177.png,2,material/177.png,恶心,2,f,f,f,1,1,1,残虐,,,,,,,,,0,134,134,156,,,,,,,,,,,j,0,0.675213098526,,,,moral_self_bias,17,19,60.0041773843,m,001,2018_Apr_02_1602,
,,,,,,,,,,,,,,,,,,,,,,material/84.png,2,犹豫,material/84.png,2,material/181.png,顽愚,2,f,f,f,2,2,2,顽愚,,,,,,,,,0,135,135,167,,,,,,,,,,,j,0,0.674410104752,,,,moral_self_bias,17,19,60.0041773843,m,001,2018_Apr_02_1602,
,,,,,,,,,,,,,,,,,,,,,,material/171.png,1,高效,material/67.png,1,material/171.png,骁勇,1,j,j,j,2,2,2,高效,,,,,,,,,0,136,136,65,,,,,,,,,,,j,1,0.558739900589,,,,moral_self_bias,17,19,60.0041773843,m,001,2018_Apr_02_1602,
,,,,,,,,,,,,,,,,,,,,,,material/40.png,2,狠毒,material/140.png,2,material/140.png,狠毒,2,f,f,f,1,1,1,邪恶,,,,,,,,,0,137,137,119,0,0,0,0,,,,,,,f,1,2.27518200874,j,1,0.241475820541,moral_self_bias,17,19,60.0041773843,m,001,2018_Apr_02_1602,
,,,,,,,,,,,,,,,,,,,,,,material/40.png,2,狠毒,material/140.png,2,material/140.png,狠毒,2,f,f,f,1,1,1,邪恶,,,,,,,,,0,137,137,119,,,,,,,,,,,,,,,,,moral_self_bias,17,19,60.0041773843,m,001,2018_Apr_02_1602,
,,,,,,,,,,,,,,,,,,,,,,material/120.png,1,能干,material/20.png,1,material/120.png,厉害,1,j,j,j,2,2,2,能干,,,,,,,,,0,138,138,19,,,,,,,,,,,j,1,0.641410112381,,,,moral_self_bias,17,19,60.0041773843,m,001,2018_Apr_02_1602,
,,,,,,,,,,,,,,,,,,,,,,material/113.png,1,廉洁,material/13.png,1,material/13.png,廉洁,1,j,j,j,1,1,1,廉明,,,,,,,,,0,139,139,12,0,0,0,0,,,,,,,f,0,1.29959106445,j,1,0.307814121246,moral_self_bias,17,19,60.0041773843,m,001,2018_Apr_02_1602,
,,,,,,,,,,,,,,,,,,,,,,material/113.png,1,廉洁,material/13.png,1,material/13.png,廉洁,1,j,j,j,1,1,1,廉明,,,,,,,,,0,139,139,12,,,,,,,,,,,,,,,,,moral_self_bias,17,19,60.0041773843,m,001,2018_Apr_02_1602,
,,,,,,,,,,,,,,,,,,,,,,material/109.png,1,秉直,material/9.png,1,material/9.png,秉直,1,j,j,j,1,1,1,正直,,,,,,,,,0,140,140,8,,,,,,,,,,,j,1,1.07489204407,,,,moral_self_bias,17,19,60.0041773843,m,001,2018_Apr_02_1602,
,,,,,,,,,,,,,,,,,,,,,,material/58.png,2,肤浅,material/158.png,2,material/58.png,浅薄,2,f,f,f,2,2,2,肤浅,,,,,,,,,0,141,141,137,,,,,,,,,,,j,0,0.624403953552,,,,moral_self_bias,17,19,60.0041773843,m,001,2018_Apr_02_1602,
,,,,,,,,,,,,,,,,,,,,,,material/9.png,1,正直,material/109.png,1,material/109.png,正直,1,f,f,f,1,1,1,秉直,,,,,,,,,0,142,142,88,,,,,,,,,,,j,0,0.957268953323,,,,moral_self_bias,17,19,60.0041773843,m,001,2018_Apr_02_1602,
,,,,,,,,,,,,,,,,,,,,,,material/148.png,2,笨蛋,material/48.png,2,material/148.png,愚蠢,2,j,j,j,2,2,2,笨蛋,,,,,,,,,0,143,143,47,,,,,,,,,,,j,1,4.54274702072,,,,moral_self_bias,17,19,60.0041773843,m,001,2018_Apr_02_1602,
,,,,,,,,,,,,,,,,,,,,,,material/150.png,2,鲁钝,material/50.png,2,material/150.png,愚笨,2,j,j,j,2,2,2,鲁钝,,,,,,,,,0,144,144,49,,,,,,,,,,,j,1,0.691082954407,,,,moral_self_bias,17,19,60.0041773843,m,001,2018_Apr_02_1602,
,,,,,,,,,,,,,,,,,,,,,,material/12.png,1,忠心,material/112.png,1,material/112.png,忠心,1,f,f,f,1,1,1,忠诚,,,,,,,,,0,145,145,91,0,0,0,0,,,,,,,f,1,1.72471690178,f,0,0.258769035339,moral_self_bias,17,19,60.0041773843,m,001,2018_Apr_02_1602,
,,,,,,,,,,,,,,,,,,,,,,material/12.png,1,忠心,material/112.png,1,material/112.png,忠心,1,f,f,f,1,1,1,忠诚,,,,,,,,,0,145,145,91,,,,,,,,,,,,,,,,,moral_self_bias,17,19,60.0041773843,m,001,2018_Apr_02_1602,
,,,,,,,,,,,,,,,,,,,,,,material/71.png,1,严谨,material/68.png,1,material/71.png,广博,1,j,j,j,2,2,2,严谨,,,,,,,,,0,146,146,66,,,,,,,,,,,j,1,0.791589021683,,,,moral_self_bias,17,19,60.0041773843,m,001,2018_Apr_02_1602,
,,,,,,,,,,,,,,,,,,,,,,material/119.png,1,机灵,material/19.png,1,material/119.png,灵活,1,j,j,j,2,2,2,机灵,,,,,,,,,0,147,147,18,,,,,,,,,,,j,1,7.69193100929,,,,moral_self_bias,17,19,60.0041773843,m,001,2018_Apr_02_1602,
,,,,,,,,,,,,,,,,,,,,,,material/155.png,2,盲目,material/55.png,2,material/155.png,盲从,2,j,j,j,2,2,2,盲目,,,,,,,,,0,148,148,54,0,0,0,0,,,,,,,f,0,0.909666776657,f,0,0.358412027359,moral_self_bias,17,19,60.0041773843,m,001,2018_Apr_02_1602,
,,,,,,,,,,,,,,,,,,,,,,material/155.png,2,盲目,material/55.png,2,material/155.png,盲从,2,j,j,j,2,2,2,盲目,,,,,,,,,0,148,148,54,,,,,,,,,,,,,,,,,moral_self_bias,17,19,60.0041773843,m,001,2018_Apr_02_1602,
,,,,,,,,,,,,,,,,,,,,,,material/13.png,1,廉明,material/113.png,1,material/113.png,廉明,1,f,f,f,1,1,1,廉洁,,,,,,,,,0,149,149,92,,,,,,,,,,,j,0,1.19214105606,,,,moral_self_bias,17,19,60.0041773843,m,001,2018_Apr_02_1602,
,,,,,,,,,,,,,,,,,,,,,,material/105.png,1,守信,material/5.png,1,material/5.png,守信,1,j,j,j,1,1,1,诚信,,,,,,,,,0,150,150,4,0,0,0,0,,,,,,,f,0,3.6246008873,f,0,0.641464948654,moral_self_bias,17,19,60.0041773843,m,001,2018_Apr_02_1602,
,,,,,,,,,,,,,,,,,,,,,,material/105.png,1,守信,material/5.png,1,material/5.png,守信,1,j,j,j,1,1,1,诚信,,,,,,,,,0,150,150,4,,,,,,,,,,,,,,,,,moral_self_bias,17,19,60.0041773843,m,001,2018_Apr_02_1602,
,,,,,,,,,,,,,,,,,,,,,,material/132.png,2,不忠,material/32.png,2,material/32.png,不忠,2,j,j,j,1,1,1,背叛,,,,,,,,,0,151,151,31,,,,,,,,,,,j,1,0.791985034943,,,,moral_self_bias,17,19,60.0041773843,m,001,2018_Apr_02_1602,
,,,,,,,,,,,,,,,,,,,,,,material/42.png,2,奸诈,material/142.png,2,material/142.png,奸诈,2,f,f,f,1,1,1,阴险,,,,,,,,,0,152,152,121,,,,,,,,,,,j,0,0.558117866516,,,,moral_self_bias,17,19,60.0041773843,m,001,2018_Apr_02_1602,
,,,,,,,,,,,,,,,,,,,,,,material/154.png,2,依靠,material/54.png,2,material/154.png,依赖,2,j,j,j,2,2,2,依靠,,,,,,,,,0,153,153,53,0,0,0,0,,,,,,,f,0,0.89200592041,f,0,0.325726032257,moral_self_bias,17,19,60.0041773843,m,001,2018_Apr_02_1602,
,,,,,,,,,,,,,,,,,,,,,,material/154.png,2,依靠,material/54.png,2,material/154.png,依赖,2,j,j,j,2,2,2,依靠,,,,,,,,,0,153,153,53,,,,,,,,,,,,,,,,,moral_self_bias,17,19,60.0041773843,m,001,2018_Apr_02_1602,
,,,,,,,,,,,,,,,,,,,,,,material/173.png,2,不义,material/174.png,2,material/174.png,不义,2,f,f,f,1,1,1,黑心,,,,,,,,,0,154,154,153,,,,,,,,,,,j,0,6.97539877892,,,,moral_self_bias,17,19,60.0041773843,m,001,2018_Apr_02_1602,
,,,,,,,,,,,,,,,,,,,,,,material/158.png,2,浅薄,material/58.png,2,material/158.png,肤浅,2,j,j,j,2,2,2,浅薄,,,,,,,,,0,155,155,57,,,,,,,,,,,j,1,4.07431483269,,,,moral_self_bias,17,19,60.0041773843,m,001,2018_Apr_02_1602,
,,,,,,,,,,,,,,,,,,,,,,material/137.png,2,无耻,material/37.png,2,material/37.png,无耻,2,j,j,j,1,1,1,卑鄙,,,,,,,,,0,156,156,36,,,,,,,,,,,j,1,1.17453718185,,,,moral_self_bias,17,19,60.0041773843,m,001,2018_Apr_02_1602,
,,,,,,,,,,,,,,,,,,,,,,material/162.png,1,敬业,material/62.png,1,material/162.png,坚韧,1,j,j,j,1,1,1,敬业,,,,,,,,,0,157,157,61,,,,,,,,,,,j,1,0.640431165695,,,,moral_self_bias,17,19,60.0041773843,m,001,2018_Apr_02_1602,
,,,,,,,,,,,,,,,,,,,,,,material/35.png,2,冷血,material/135.png,2,material/135.png,冷血,2,f,f,f,1,1,1,冷漠,,,,,,,,,0,158,158,114,,,,,,,,,,,j,0,0.558182001114,,,,moral_self_bias,17,19,60.0041773843,m,001,2018_Apr_02_1602,
,,,,,,,,,,,,,,,,,,,,,,material/156.png,2,愚钝,material/56.png,2,material/156.png,愚昧,2,j,j,j,2,2,2,愚钝,,,,,,,,,0,159,159,55,0,0,0,0,,,,,,,f,0,1.04160714149,j,1,0.524522066116,moral_self_bias,17,19,60.0041773843,m,001,2018_Apr_02_1602,
,,,,,,,,,,,,,,,,,,,,,,material/156.png,2,愚钝,material/56.png,2,material/156.png,愚昧,2,j,j,j,2,2,2,愚钝,,,,,,,,,0,159,159,55,,,,,,,,,,,,,,,,,moral_self_bias,17,19,60.0041773843,m,001,2018_Apr_02_1602,
,,,,,,,,,,,,,,,,,,,,,,material/159.png,2,弱智,material/59.png,2,material/159.png,智障,2,j,j,j,2,2,2,弱智,,,,,,,,,0,160,160,58,,,,,,,,,,,j,1,0.783625841141,,,,moral_self_bias,17,19,60.0041773843,m,001,2018_Apr_02_1602,
,,,,,,,,,,,,,,,,,,,,,,material/133.png,2,腐败,material/33.png,2,material/33.png,腐败,2,j,j,j,1,1,1,贪污,,,,,,,,,0,161,161,32,,,,,,,,,,,j,1,2.50081801414,,,,moral_self_bias,17,19,60.0041773843,m,001,2018_Apr_02_1602,
,,,,,,,,,,,,,,,,,,,,,,material/61.png,1,仗义,material/65.png,1,material/166.png,谦虚,1,j,j,j,1,1,1,平等,,,,,,,,,0,162,162,64,,,,,,,,,,,j,1,0.490510225296,,,,moral_self_bias,17,19,60.0041773843,m,001,2018_Apr_02_1602,
,,,,,,,,,,,,,,,,,,,,,,material/103.png,1,仁慈,material/3.png,1,material/3.png,仁慈,1,j,j,j,1,1,1,仁厚,,,,,,,,,0,163,163,2,,,,,,,,,,,j,1,0.708853006363,,,,moral_self_bias,17,19,60.0041773843,m,001,2018_Apr_02_1602,
,,,,,,,,,,,,,,,,,,,,,,material/135.png,2,冷漠,material/35.png,2,material/35.png,冷漠,2,j,j,j,1,1,1,冷血,,,,,,,,,0,164,164,34,,,,,,,,,,,j,1,0.774966955185,,,,moral_self_bias,17,19,60.0041773843,m,001,2018_Apr_02_1602,
,,,,,,,,,,,,,,,,,,,,,,material/70.png,1,全面,material/168.png,1,material/70.png,机变,1,f,f,f,2,2,2,全面,,,,,,,,,0,165,165,147,,,,,,,,,,,j,0,0.523730993271,,,,moral_self_bias,17,19,60.0041773843,m,001,2018_Apr_02_1602,
,,,,,,,,,,,,,,,,,,,,,,material/145.png,2,下流,material/45.png,2,material/45.png,下流,2,j,j,j,1,1,1,小人,,,,,,,,,0,166,166,44,,,,,,,,,,,j,1,0.556583881378,,,,moral_self_bias,17,19,60.0041773843,m,001,2018_Apr_02_1602,
,,,,,,,,,,,,,,,,,,,,,,material/169.png,1,颖悟,material/171.png,1,material/169.png,高效,1,f,f,f,2,2,2,颖悟,,,,,,,,,0,167,167,150,,,,,,,,,,,j,0,4.95805215836,,,,moral_self_bias,17,19,60.0041773843,m,001,2018_Apr_02_1602,
