Block1_Old,Num_Source3,Num_Source2,Num_Source1,valence1,valence2,valence3,Num_Old2,Corr_S1,Num_Old1,Corr_S3,Corr_S2,Block3_Old,Block2_Old,Source_2,Source_3,Source_1,domain3,domain2,domain1,Num_Old3,math,Num_All2,valence_all1,All_Words3,Num_All1,valence_all2,Num_All3,All_Words1,valence_all3,Corr_Rec2,Corr_Rec3,Corr_Rec1,domian_all3,domian_all2,domian_all1,All_Words2,trials.thisRepN,trials.thisTrialN,trials.thisN,trials.thisIndex,trials_2.thisRepN,trials_2.thisTrialN,trials_2.thisN,trials_2.thisIndex,trials_4.thisRepN,trials_4.thisTrialN,trials_4.thisN,trials_4.thisIndex,trials_3.thisRepN,trials_3.thisTrialN,trials_3.thisN,trials_3.thisIndex,block_resp_1.keys,block_resp_1.rt,words_rating.keys,words_rating.rt,block_resp_2.keys,block_resp_2.rt,Rec_resp.keys,Rec_resp.corr,Rec_resp.rt,Source_resp.keys,Source_resp.corr,Source_resp.rt,expName,participant,Age,frameRate,Sex,session,date,
,,,,,,,,,,,,,,,,,,,,,,,,,,,,,,,,,,,,,,,,,,,,,,,,,,,,,2,12.9430699348,,,,,,,,,,,moral_self_bias,20,18,59.7671615078,f,001,2018_Apr_02_1702,
厌学,material/instr2_2.png,material/instr2_2.png,material/instr2_2.png,2,2,2,material/182.png,j,material/184.png,j,j,健忘,才尽,friend,friend,friend,2,2,2,material/80.png,,,,,,,,,,,,,,,,,0,0,0,83,,,,,,,,,,,,,,,None,,,,,,,,,,moral_self_bias,20,18,59.7671615078,f,001,2018_Apr_02_1702,
撒谎,material/instr2_1.png,material/instr2_1.png,material/instr2_1.png,2,2,2,material/36.png,f,material/136.png,f,f,撒谎,说谎,self,self,self,1,1,1,material/136.png,,,,,,,,,,,,,,,,,0,1,1,35,,,,,,,,,,,,,,,1,1.39151191711,,,,,,,,,moral_self_bias,20,18,59.7671615078,f,001,2018_Apr_02_1702,
爽约,material/instr2_2.png,material/instr2_2.png,material/instr2_2.png,2,2,2,material/44.png,j,material/144.png,j,j,爽约,失信,friend,friend,friend,1,1,1,material/144.png,,,,,,,,,,,,,,,,,0,2,2,43,,,,,,,,,,,,,,,1,1.20845103264,,,,,,,,,moral_self_bias,20,18,59.7671615078,f,001,2018_Apr_02_1702,
怠惰,material/instr2_2.png,material/instr2_2.png,material/instr2_2.png,2,2,2,material/181.png,j,material/180.png,j,j,怠惰,犹豫,friend,friend,friend,2,2,2,material/180.png,,,,,,,,,,,,,,,,,0,3,3,79,,,,,,,,,,,,,,,1,0.892519950867,,,,,,,,,moral_self_bias,20,18,59.7671615078,f,001,2018_Apr_02_1702,
刻板,material/instr2_2.png,material/instr2_2.png,material/instr2_2.png,2,2,2,material/47.png,j,material/147.png,j,j,死板,死板,friend,friend,friend,2,2,2,material/47.png,,,,,,,,,,,,,,,,,0,4,4,46,,,,,,,,,,,,,,,1,0.959081888199,,,,,,,,,moral_self_bias,20,18,59.7671615078,f,001,2018_Apr_02_1702,
白痴,material/instr2_2.png,material/instr2_2.png,material/instr2_2.png,2,2,2,material/49.png,j,material/149.png,j,j,痴呆,痴呆,friend,friend,friend,2,2,2,material/49.png,,,,,,,,,,,,,,,,,0,5,5,48,,,,,,,,,,,,,,,1,0.825232028961,,,,,,,,,moral_self_bias,20,18,59.7671615078,f,001,2018_Apr_02_1702,
虚荣,material/instr2_1.png,material/instr2_1.png,material/instr2_1.png,2,2,2,material/43.png,f,material/143.png,f,f,虚荣,拜金,self,self,self,1,1,1,material/143.png,,,,,,,,,,,,,,,,,0,6,6,42,,,,,,,,,,,,,,,1,1.142111063,,,,,,,,,moral_self_bias,20,18,59.7671615078,f,001,2018_Apr_02_1702,
忠心,material/instr2_1.png,material/instr2_1.png,material/instr2_1.png,1,1,1,material/12.png,f,material/112.png,f,f,忠心,忠诚,self,self,self,1,1,1,material/112.png,,,,,,,,,,,,,,,,,0,7,7,11,,,,,,,,,,,,,,,3,1.68342494965,,,,,,,,,moral_self_bias,20,18,59.7671615078,f,001,2018_Apr_02_1702,
盲目,material/instr2_1.png,material/instr2_1.png,material/instr2_1.png,2,2,2,material/55.png,f,material/155.png,f,f,盲从,盲从,self,self,self,2,2,2,material/55.png,,,,,,,,,,,,,,,,,0,8,8,54,,,,,,,,,,,,,,,3,1.30858802795,,,,,,,,,moral_self_bias,20,18,59.7671615078,f,001,2018_Apr_02_1702,
毛糙,material/instr2_2.png,material/instr2_2.png,material/instr2_2.png,2,2,2,material/179.png,j,material/178.png,j,j,顽愚,差生,friend,friend,friend,2,2,2,material/84.png,,,,,,,,,,,,,,,,,0,9,9,77,,,,,,,,,,,,,,,1,1.20705294609,,,,,,,,,moral_self_bias,20,18,59.7671615078,f,001,2018_Apr_02_1702,
孝顺,material/instr2_1.png,material/instr2_1.png,material/instr2_1.png,1,1,1,material/161.png,f,material/164.png,f,f,奉献,勇敢,self,self,self,1,1,1,material/64.png,,,,,,,,,,,,,,,,,0,10,10,63,,,,,,,,,,,,,,,3,1.45816206932,,,,,,,,,moral_self_bias,20,18,59.7671615078,f,001,2018_Apr_02_1702,
恶心,material/instr2_1.png,material/instr2_1.png,material/instr2_1.png,2,2,2,material/73.png,f,material/177.png,f,f,恶心,残虐,self,self,self,1,1,1,material/177.png,,,,,,,,,,,,,,,,,0,11,11,76,,,,,,,,,,,,,,,5,1.55917406082,,,,,,,,,moral_self_bias,20,18,59.7671615078,f,001,2018_Apr_02_1702,
仁厚,material/instr2_1.png,material/instr2_1.png,material/instr2_1.png,1,1,1,material/3.png,f,material/103.png,f,f,仁厚,仁慈,self,self,self,1,1,1,material/103.png,,,,,,,,,,,,,,,,,0,12,12,2,,,,,,,,,,,,,,,1,1.84222412109,,,,,,,,,moral_self_bias,20,18,59.7671615078,f,001,2018_Apr_02_1702,
果敢,material/instr2_1.png,material/instr2_1.png,material/instr2_1.png,1,1,1,material/25.png,f,material/125.png,f,f,果断,果断,self,self,self,2,2,2,material/25.png,,,,,,,,,,,,,,,,,0,13,13,24,,,,,,,,,,,,,,,4,2.49250102043,,,,,,,,,moral_self_bias,20,18,59.7671615078,f,001,2018_Apr_02_1702,
坚毅,material/instr2_2.png,material/instr2_2.png,material/instr2_2.png,1,1,1,material/10.png,j,material/110.png,j,j,坚毅,顽强,friend,friend,friend,1,1,1,material/110.png,,,,,,,,,,,,,,,,,0,14,14,9,,,,,,,,,,,,,,,5,2.70858597755,,,,,,,,,moral_self_bias,20,18,59.7671615078,f,001,2018_Apr_02_1702,
黑心,material/instr2_2.png,material/instr2_2.png,material/instr2_2.png,2,2,2,material/74.png,j,material/173.png,j,j,黑心,卑劣,friend,friend,friend,1,1,1,material/173.png,,,,,,,,,,,,,,,,,0,15,15,72,,,,,,,,,,,,,,,1,1.42417597771,,,,,,,,,moral_self_bias,20,18,59.7671615078,f,001,2018_Apr_02_1702,
仗义,material/instr2_1.png,material/instr2_1.png,material/instr2_1.png,1,1,1,material/63.png,f,material/166.png,f,f,正义,文明,self,self,self,1,1,1,material/66.png,,,,,,,,,,,,,,,,,0,16,16,65,,,,,,,,,,,,,,,1,2.64227509499,,,,,,,,,moral_self_bias,20,18,59.7671615078,f,001,2018_Apr_02_1702,
正义,material/instr2_1.png,material/instr2_1.png,material/instr2_1.png,1,1,1,material/66.png,f,material/66.png,f,f,独立,正义,self,self,self,1,1,1,material/165.png,,,,,,,,,,,,,,,,,0,17,17,84,,,,,,,,,,,,,,,1,2.10902404785,,,,,,,,,moral_self_bias,20,18,59.7671615078,f,001,2018_Apr_02_1702,
笨蛋,material/instr2_2.png,material/instr2_2.png,material/instr2_2.png,2,2,2,material/48.png,j,material/148.png,j,j,愚蠢,愚蠢,friend,friend,friend,2,2,2,material/48.png,,,,,,,,,,,,,,,,,0,18,18,47,,,,,,,,,,,,,,,5,1.75978207588,,,,,,,,,moral_self_bias,20,18,59.7671615078,f,001,2018_Apr_02_1702,
鲁钝,material/instr2_2.png,material/instr2_2.png,material/instr2_2.png,2,2,2,material/50.png,j,material/150.png,j,j,愚笨,愚笨,friend,friend,friend,2,2,2,material/50.png,,,,,,,,,,,,,,,,,0,19,19,49,,,,,,,,,,,,,,,5,1.44280695915,,,,,,,,,moral_self_bias,20,18,59.7671615078,f,001,2018_Apr_02_1702,
愚钝,material/instr2_1.png,material/instr2_1.png,material/instr2_1.png,2,2,2,material/56.png,f,material/156.png,f,f,愚昧,愚昧,self,self,self,2,2,2,material/56.png,,,,,,,,,,,,,,,,,0,20,20,55,,,,,,,,,,,,,,,None,,,,,,,,,,moral_self_bias,20,18,59.7671615078,f,001,2018_Apr_02_1702,
背叛,material/instr2_1.png,material/instr2_1.png,material/instr2_1.png,2,2,2,material/32.png,f,material/132.png,f,f,背叛,不忠,self,self,self,1,1,1,material/132.png,,,,,,,,,,,,,,,,,0,21,21,31,,,,,,,,,,,,,,,1,1.44214987755,,,,,,,,,moral_self_bias,20,18,59.7671615078,f,001,2018_Apr_02_1702,
多才,material/instr2_1.png,material/instr2_1.png,material/instr2_1.png,1,1,1,material/23.png,f,material/123.png,f,f,有才,有才,self,self,self,2,2,2,material/23.png,,,,,,,,,,,,,,,,,0,22,22,22,,,,,,,,,,,,,,,1,0.925987958908,,,,,,,,,moral_self_bias,20,18,59.7671615078,f,001,2018_Apr_02_1702,
犹豫,material/instr2_1.png,material/instr2_1.png,material/instr2_1.png,2,2,2,material/78.png,f,material/181.png,f,f,厌学,草率,self,self,self,2,2,2,material/184.png,,,,,,,,,,,,,,,,,0,23,23,80,,,,,,,,,,,,,,,1,1.34294509888,,,,,,,,,moral_self_bias,20,18,59.7671615078,f,001,2018_Apr_02_1702,
缺德,material/instr2_2.png,material/instr2_2.png,material/instr2_2.png,2,2,2,material/38.png,j,material/138.png,j,j,缺德,无德,friend,friend,friend,1,1,1,material/138.png,,,,,,,,,,,,,,,,,0,24,24,37,,,,,,,,,,,,,,,1,1.62562704086,,,,,,,,,moral_self_bias,20,18,59.7671615078,f,001,2018_Apr_02_1702,
依靠,material/instr2_1.png,material/instr2_1.png,material/instr2_1.png,2,2,2,material/54.png,f,material/154.png,f,f,依赖,依赖,self,self,self,2,2,2,material/54.png,,,,,,,,,,,,,,,,,0,25,25,53,,,,,,,,,,,,,,,1,1.33314085007,,,,,,,,,moral_self_bias,20,18,59.7671615078,f,001,2018_Apr_02_1702,
忠贞,material/instr2_2.png,material/instr2_2.png,material/instr2_2.png,1,1,1,material/14.png,j,material/114.png,j,j,忠贞,爱国,friend,friend,friend,1,1,1,material/114.png,,,,,,,,,,,,,,,,,0,26,26,13,,,,,,,,,,,,,,,1,1.62525987625,,,,,,,,,moral_self_bias,20,18,59.7671615078,f,001,2018_Apr_02_1702,
弱智,material/instr2_1.png,material/instr2_1.png,material/instr2_1.png,2,2,2,material/59.png,f,material/159.png,f,f,智障,智障,self,self,self,2,2,2,material/59.png,,,,,,,,,,,,,,,,,0,27,27,58,,,,,,,,,,,,,,,1,1.51700687408,,,,,,,,,moral_self_bias,20,18,59.7671615078,f,001,2018_Apr_02_1702,
爱心,material/instr2_1.png,material/instr2_1.png,material/instr2_1.png,1,1,1,material/2.png,f,material/102.png,f,f,爱心,善心,self,self,self,1,1,1,material/102.png,,,,,,,,,,,,,,,,,0,28,28,1,,,,,,,,,,,,,,,5,1.55792188644,,,,,,,,,moral_self_bias,20,18,59.7671615078,f,001,2018_Apr_02_1702,
顽愚,material/instr2_1.png,material/instr2_1.png,material/instr2_1.png,2,2,2,material/84.png,f,material/84.png,f,f,犹豫,顽愚,self,self,self,2,2,2,material/181.png,,,,,,,,,,,,,,,,,0,29,29,87,,,,,,,,,,,,,,,1,1.41658902168,,,,,,,,,moral_self_bias,20,18,59.7671615078,f,001,2018_Apr_02_1702,
放纵,material/instr2_1.png,material/instr2_1.png,material/instr2_1.png,2,2,2,material/76.png,f,material/176.png,f,f,放纵,虚伪,self,self,self,1,1,1,material/176.png,,,,,,,,,,,,,,,,,0,30,30,75,,,,,,,,,,,,,,,5,1.40843510628,,,,,,,,,moral_self_bias,20,18,59.7671615078,f,001,2018_Apr_02_1702,
无私,material/instr2_2.png,material/instr2_2.png,material/instr2_2.png,1,1,1,material/8.png,j,material/108.png,j,j,无私,公道,friend,friend,friend,1,1,1,material/108.png,,,,,,,,,,,,,,,,,0,31,31,7,,,,,,,,,,,,,,,5,1.3745200634,,,,,,,,,moral_self_bias,20,18,59.7671615078,f,001,2018_Apr_02_1702,
恶毒,material/instr2_2.png,material/instr2_2.png,material/instr2_2.png,2,2,2,material/39.png,j,material/139.png,j,j,恶毒,凶残,friend,friend,friend,1,1,1,material/139.png,,,,,,,,,,,,,,,,,0,32,32,38,,,,,,,,,,,,,,,1,1.05828690529,,,,,,,,,moral_self_bias,20,18,59.7671615078,f,001,2018_Apr_02_1702,
颖悟,material/instr2_2.png,material/instr2_2.png,material/instr2_2.png,1,1,1,material/167.png,j,material/169.png,j,j,高手,高手,friend,friend,friend,2,2,2,material/167.png,,,,,,,,,,,,,,,,,0,33,33,68,,,,,,,,,,,,,,,5,1.29203391075,,,,,,,,,moral_self_bias,20,18,59.7671615078,f,001,2018_Apr_02_1702,
精干,material/instr2_1.png,material/instr2_1.png,material/instr2_1.png,1,1,1,material/21.png,f,material/121.png,f,f,干练,干练,self,self,self,2,2,2,material/21.png,,,,,,,,,,,,,,,,,0,34,34,20,,,,,,,,,,,,,,,1,1.42582607269,,,,,,,,,moral_self_bias,20,18,59.7671615078,f,001,2018_Apr_02_1702,
小人,material/instr2_2.png,material/instr2_2.png,material/instr2_2.png,2,2,2,material/45.png,j,material/145.png,j,j,小人,下流,friend,friend,friend,1,1,1,material/145.png,,,,,,,,,,,,,,,,,0,35,35,44,,,,,,,,,,,,,,,1,1.19197893143,,,,,,,,,moral_self_bias,20,18,59.7671615078,f,001,2018_Apr_02_1702,
能干,material/instr2_2.png,material/instr2_2.png,material/instr2_2.png,1,1,1,material/20.png,j,material/120.png,j,j,厉害,厉害,friend,friend,friend,2,2,2,material/20.png,,,,,,,,,,,,,,,,,0,36,36,19,,,,,,,,,,,,,,,5,1.25837492943,,,,,,,,,moral_self_bias,20,18,59.7671615078,f,001,2018_Apr_02_1702,
高尚,material/instr2_1.png,material/instr2_1.png,material/instr2_1.png,1,1,1,material/11.png,f,material/111.png,f,f,高尚,高雅,self,self,self,1,1,1,material/111.png,,,,,,,,,,,,,,,,,0,37,37,10,,,,,,,,,,,,,,,1,1.20843601227,,,,,,,,,moral_self_bias,20,18,59.7671615078,f,001,2018_Apr_02_1702,
冷血,material/instr2_1.png,material/instr2_1.png,material/instr2_1.png,2,2,2,material/35.png,f,material/135.png,f,f,冷血,冷漠,self,self,self,1,1,1,material/135.png,,,,,,,,,,,,,,,,,0,38,38,34,,,,,,,,,,,,,,,5,1.47577595711,,,,,,,,,moral_self_bias,20,18,59.7671615078,f,001,2018_Apr_02_1702,
不义,material/instr2_2.png,material/instr2_2.png,material/instr2_2.png,2,2,2,material/173.png,j,material/174.png,j,j,不义,黑心,friend,friend,friend,1,1,1,material/174.png,,,,,,,,,,,,,,,,,0,39,39,73,,,,,,,,,,,,,,,1,1.02568912506,,,,,,,,,moral_self_bias,20,18,59.7671615078,f,001,2018_Apr_02_1702,
残虐,material/instr2_1.png,material/instr2_1.png,material/instr2_1.png,2,2,2,material/175.png,f,material/73.png,f,f,残虐,无情,self,self,self,1,1,1,material/73.png,,,,,,,,,,,,,,,,,0,40,40,85,,,,,,,,,,,,,,,5,1.30892300606,,,,,,,,,moral_self_bias,20,18,59.7671615078,f,001,2018_Apr_02_1702,
正直,material/instr2_2.png,material/instr2_2.png,material/instr2_2.png,1,1,1,material/9.png,j,material/109.png,j,j,正直,秉直,friend,friend,friend,1,1,1,material/109.png,,,,,,,,,,,,,,,,,0,41,41,8,,,,,,,,,,,,,,,5,1.29389882088,,,,,,,,,moral_self_bias,20,18,59.7671615078,f,001,2018_Apr_02_1702,
机灵,material/instr2_2.png,material/instr2_2.png,material/instr2_2.png,1,1,1,material/19.png,j,material/119.png,j,j,灵活,灵活,friend,friend,friend,2,2,2,material/19.png,,,,,,,,,,,,,,,,,0,42,42,18,,,,,,,,,,,,,,,5,1.07628297806,,,,,,,,,moral_self_bias,20,18,59.7671615078,f,001,2018_Apr_02_1702,
浮夸,material/instr2_2.png,material/instr2_2.png,material/instr2_2.png,2,2,2,material/77.png,j,material/172.png,j,j,浮夸,软弱,friend,friend,friend,1,1,1,material/172.png,,,,,,,,,,,,,,,,,0,43,43,71,,,,,,,,,,,,,,,1,1.02473783493,,,,,,,,,moral_self_bias,20,18,59.7671615078,f,001,2018_Apr_02_1702,
勇敢,material/instr2_2.png,material/instr2_2.png,material/instr2_2.png,1,1,1,material/165.png,j,material/161.png,j,j,平等,独立,friend,friend,friend,1,1,1,material/61.png,,,,,,,,,,,,,,,,,0,44,44,60,,,,,,,,,,,,,,,5,0.958551168442,,,,,,,,,moral_self_bias,20,18,59.7671615078,f,001,2018_Apr_02_1702,
进取,material/instr2_1.png,material/instr2_1.png,material/instr2_1.png,1,1,1,material/30.png,f,material/130.png,f,f,上进,上进,self,self,self,2,2,2,material/30.png,,,,,,,,,,,,,,,,,0,45,45,29,,,,,,,,,,,,,,,5,1.30888295174,,,,,,,,,moral_self_bias,20,18,59.7671615078,f,001,2018_Apr_02_1702,
公平,material/instr2_2.png,material/instr2_2.png,material/instr2_2.png,1,1,1,material/7.png,j,material/107.png,j,j,公平,公正,friend,friend,friend,1,1,1,material/107.png,,,,,,,,,,,,,,,,,0,46,46,6,,,,,,,,,,,,,,,5,1.15923213959,,,,,,,,,moral_self_bias,20,18,59.7671615078,f,001,2018_Apr_02_1702,
敬业,material/instr2_2.png,material/instr2_2.png,material/instr2_2.png,1,1,1,material/62.png,j,material/162.png,j,j,坚韧,坚韧,friend,friend,friend,1,1,1,material/62.png,,,,,,,,,,,,,,,,,0,47,47,61,,,,,,,,,,,,,,,5,0.858679056168,,,,,,,,,moral_self_bias,20,18,59.7671615078,f,001,2018_Apr_02_1702,
无情,material/instr2_1.png,material/instr2_1.png,material/instr2_1.png,2,2,2,material/172.png,f,material/175.png,f,f,无情,浮夸,self,self,self,1,1,1,material/175.png,,,,,,,,,,,,,,,,,0,48,48,74,,,,,,,,,,,,,,,1,1.14149999619,,,,,,,,,moral_self_bias,20,18,59.7671615078,f,001,2018_Apr_02_1702,
好问,material/instr2_1.png,material/instr2_1.png,material/instr2_1.png,1,1,1,material/29.png,f,material/129.png,f,f,好学,好学,self,self,self,2,2,2,material/29.png,,,,,,,,,,,,,,,,,0,49,49,28,,,,,,,,,,,,,,,1,1.22486019135,,,,,,,,,moral_self_bias,20,18,59.7671615078,f,001,2018_Apr_02_1702,
贪污,material/instr2_1.png,material/instr2_1.png,material/instr2_1.png,2,2,2,material/33.png,f,material/133.png,f,f,贪污,腐败,self,self,self,1,1,1,material/133.png,,,,,,,,,,,,,,,,,0,50,50,32,,,,,,,,,,,,,,,1,1.2587749958,,,,,,,,,moral_self_bias,20,18,59.7671615078,f,001,2018_Apr_02_1702,
博学,material/instr2_1.png,material/instr2_1.png,material/instr2_1.png,1,1,1,material/22.png,f,material/122.png,f,f,才学,才学,self,self,self,2,2,2,material/22.png,,,,,,,,,,,,,,,,,0,51,51,21,,,,,,,,,,,,,,,1,1.50792789459,,,,,,,,,moral_self_bias,20,18,59.7671615078,f,001,2018_Apr_02_1702,
廉明,material/instr2_2.png,material/instr2_2.png,material/instr2_2.png,1,1,1,material/13.png,j,material/113.png,j,j,廉明,廉洁,friend,friend,friend,1,1,1,material/113.png,,,,,,,,,,,,,,,,,0,52,52,12,,,,,,,,,,,,,,,1,1.29202198982,,,,,,,,,moral_self_bias,20,18,59.7671615078,f,001,2018_Apr_02_1702,
机敏,material/instr2_2.png,material/instr2_2.png,material/instr2_2.png,1,1,1,material/18.png,j,material/118.png,j,j,敏锐,敏锐,friend,friend,friend,2,2,2,material/18.png,,,,,,,,,,,,,,,,,0,53,53,17,,,,,,,,,,,,,,,5,1.64232516289,,,,,,,,,moral_self_bias,20,18,59.7671615078,f,001,2018_Apr_02_1702,
无能,material/instr2_2.png,material/instr2_2.png,material/instr2_2.png,2,2,2,material/57.png,j,material/157.png,j,j,无知,无知,friend,friend,friend,2,2,2,material/57.png,,,,,,,,,,,,,,,,,0,54,54,56,,,,,,,,,,,,,,,1,0.974678039551,,,,,,,,,moral_self_bias,20,18,59.7671615078,f,001,2018_Apr_02_1702,
宽容,material/instr2_2.png,material/instr2_2.png,material/instr2_2.png,1,1,1,material/163.png,j,material/163.png,j,j,文明,宽容,friend,friend,friend,1,1,1,material/63.png,,,,,,,,,,,,,,,,,0,55,55,62,,,,,,,,,,,,,,,5,1.65808987617,,,,,,,,,moral_self_bias,20,18,59.7671615078,f,001,2018_Apr_02_1702,
机变,material/instr2_2.png,material/instr2_2.png,material/instr2_2.png,1,1,1,material/70.png,j,material/168.png,j,j,全面,全面,friend,friend,friend,2,2,2,material/70.png,,,,,,,,,,,,,,,,,0,56,56,67,,,,,,,,,,,,,,,1,1.45797801018,,,,,,,,,moral_self_bias,20,18,59.7671615078,f,001,2018_Apr_02_1702,
高效,material/instr2_1.png,material/instr2_1.png,material/instr2_1.png,1,1,1,material/169.png,f,material/171.png,f,f,颖悟,颖悟,self,self,self,2,2,2,material/169.png,,,,,,,,,,,,,,,,,0,57,57,70,,,,,,,,,,,,,,,1,1.35894918442,,,,,,,,,moral_self_bias,20,18,59.7671615078,f,001,2018_Apr_02_1702,
才尽,material/instr2_1.png,material/instr2_1.png,material/instr2_1.png,2,2,2,material/183.png,f,material/182.png,f,f,颓废,薄弱,self,self,self,2,2,2,material/79.png,,,,,,,,,,,,,,,,,0,58,58,81,,,,,,,,,,,,,,,5,1.57545399666,,,,,,,,,moral_self_bias,20,18,59.7671615078,f,001,2018_Apr_02_1702,
狠毒,material/instr2_2.png,material/instr2_2.png,material/instr2_2.png,2,2,2,material/40.png,j,material/140.png,j,j,狠毒,邪恶,friend,friend,friend,1,1,1,material/140.png,,,,,,,,,,,,,,,,,0,59,59,39,,,,,,,,,,,,,,,1,0.891752958298,,,,,,,,,moral_self_bias,20,18,59.7671615078,f,001,2018_Apr_02_1702,
残忍,material/instr2_2.png,material/instr2_2.png,material/instr2_2.png,2,2,2,material/41.png,j,material/141.png,j,j,残忍,歹毒,friend,friend,friend,1,1,1,material/141.png,,,,,,,,,,,,,,,,,0,60,60,40,,,,,,,,,,,,,,,1,0.84120798111,,,,,,,,,moral_self_bias,20,18,59.7671615078,f,001,2018_Apr_02_1702,
可恶,material/instr2_1.png,material/instr2_1.png,material/instr2_1.png,2,2,2,material/34.png,f,material/134.png,f,f,可恶,可恨,self,self,self,1,1,1,material/134.png,,,,,,,,,,,,,,,,,0,61,61,33,,,,,,,,,,,,,,,5,1.40947794914,,,,,,,,,moral_self_bias,20,18,59.7671615078,f,001,2018_Apr_02_1702,
勤快,material/instr2_2.png,material/instr2_2.png,material/instr2_2.png,1,1,1,material/26.png,j,material/126.png,j,j,刻苦,刻苦,friend,friend,friend,2,2,2,material/26.png,,,,,,,,,,,,,,,,,0,62,62,25,,,,,,,,,,,,,,,1,1.97499299049,,,,,,,,,moral_self_bias,20,18,59.7671615078,f,001,2018_Apr_02_1702,
迷糊,material/instr2_2.png,material/instr2_2.png,material/instr2_2.png,2,2,2,material/51.png,j,material/151.png,j,j,糊涂,糊涂,friend,friend,friend,2,2,2,material/51.png,,,,,,,,,,,,,,,,,0,63,63,50,,,,,,,,,,,,,,,1,2.1923019886,,,,,,,,,moral_self_bias,20,18,59.7671615078,f,001,2018_Apr_02_1702,
友善,material/instr2_1.png,material/instr2_1.png,material/instr2_1.png,1,1,1,material/4.png,f,material/104.png,f,f,友善,友爱,self,self,self,1,1,1,material/104.png,,,,,,,,,,,,,,,,,0,64,64,3,,,,,,,,,,,,,,,2,2.72579884529,,,,,,,,,moral_self_bias,20,18,59.7671615078,f,001,2018_Apr_02_1702,
自律,material/instr2_2.png,material/instr2_2.png,material/instr2_2.png,1,1,1,material/28.png,j,material/128.png,j,j,克己,克己,friend,friend,friend,2,2,2,material/28.png,,,,,,,,,,,,,,,,,0,65,65,27,,,,,,,,,,,,,,,5,1.59130501747,,,,,,,,,moral_self_bias,20,18,59.7671615078,f,001,2018_Apr_02_1702,
纯洁,material/instr2_2.png,material/instr2_2.png,material/instr2_2.png,1,1,1,material/15.png,j,material/115.png,j,j,纯洁,清白,friend,friend,friend,1,1,1,material/115.png,,,,,,,,,,,,,,,,,0,66,66,14,,,,,,,,,,,,,,,5,1.59227514267,,,,,,,,,moral_self_bias,20,18,59.7671615078,f,001,2018_Apr_02_1702,
薄弱,material/instr2_1.png,material/instr2_1.png,material/instr2_1.png,2,2,2,material/82.png,f,material/183.png,f,f,毛糙,窝囊,self,self,self,2,2,2,material/178.png,,,,,,,,,,,,,,,,,0,67,67,82,,,,,,,,,,,,,,,5,1.34216880798,,,,,,,,,moral_self_bias,20,18,59.7671615078,f,001,2018_Apr_02_1702,
迟钝,material/instr2_1.png,material/instr2_1.png,material/instr2_1.png,2,2,2,material/53.png,f,material/153.png,f,f,迟缓,迟缓,self,self,self,2,2,2,material/53.png,,,,,,,,,,,,,,,,,0,68,68,52,,,,,,,,,,,,,,,5,0.792514801025,,,,,,,,,moral_self_bias,20,18,59.7671615078,f,001,2018_Apr_02_1702,
缓慢,material/instr2_1.png,material/instr2_1.png,material/instr2_1.png,2,2,2,material/52.png,f,material/152.png,f,f,拖延,拖延,self,self,self,2,2,2,material/52.png,,,,,,,,,,,,,,,,,0,69,69,51,,,,,,,,,,,,,,,5,0.625918865204,,,,,,,,,moral_self_bias,20,18,59.7671615078,f,001,2018_Apr_02_1702,
博爱,material/instr2_1.png,material/instr2_1.png,material/instr2_1.png,1,1,1,material/1.png,f,material/101.png,f,f,博爱,善良,self,self,self,1,1,1,material/101.png,,,,,,,,,,,,,,,,,0,70,70,0,,,,,,,,,,,,,,,3,2.37585783005,,,,,,,,,moral_self_bias,20,18,59.7671615078,f,001,2018_Apr_02_1702,
坚忍,material/instr2_1.png,material/instr2_1.png,material/instr2_1.png,1,1,1,material/168.png,f,material/170.png,f,f,机变,机变,self,self,self,2,2,2,material/168.png,,,,,,,,,,,,,,,,,0,71,71,69,,,,,,,,,,,,,,,1,2.00880908966,,,,,,,,,moral_self_bias,20,18,59.7671615078,f,001,2018_Apr_02_1702,
高明,material/instr2_1.png,material/instr2_1.png,material/instr2_1.png,1,1,1,material/69.png,f,material/69.png,f,f,高明,高明,self,self,self,2,2,2,material/69.png,,,,,,,,,,,,,,,,,0,72,72,86,,,,,,,,,,,,,,,1,1.15942597389,,,,,,,,,moral_self_bias,20,18,59.7671615078,f,001,2018_Apr_02_1702,
诚信,material/instr2_1.png,material/instr2_1.png,material/instr2_1.png,1,1,1,material/5.png,f,material/105.png,f,f,诚信,守信,self,self,self,1,1,1,material/105.png,,,,,,,,,,,,,,,,,0,73,73,4,,,,,,,,,,,,,,,5,1.60871195793,,,,,,,,,moral_self_bias,20,18,59.7671615078,f,001,2018_Apr_02_1702,
聪颖,material/instr2_2.png,material/instr2_2.png,material/instr2_2.png,1,1,1,material/17.png,j,material/117.png,j,j,聪明,聪明,friend,friend,friend,2,2,2,material/17.png,,,,,,,,,,,,,,,,,0,74,74,16,,,,,,,,,,,,,,,5,1.54242086411,,,,,,,,,moral_self_bias,20,18,59.7671615078,f,001,2018_Apr_02_1702,
笃行,material/instr2_1.png,material/instr2_1.png,material/instr2_1.png,1,1,1,material/31.png,f,material/131.png,f,f,笃学,笃学,self,self,self,2,2,2,material/31.png,,,,,,,,,,,,,,,,,0,75,75,30,,,,,,,,,,,,,,,1,1.1247689724,,,,,,,,,moral_self_bias,20,18,59.7671615078,f,001,2018_Apr_02_1702,
奸诈,material/instr2_1.png,material/instr2_1.png,material/instr2_1.png,2,2,2,material/42.png,f,material/142.png,f,f,奸诈,阴险,self,self,self,1,1,1,material/142.png,,,,,,,,,,,,,,,,,0,76,76,41,,,,,,,,,,,,,,,1,1.79263710976,,,,,,,,,moral_self_bias,20,18,59.7671615078,f,001,2018_Apr_02_1702,
独立,material/instr2_1.png,material/instr2_1.png,material/instr2_1.png,1,1,1,material/64.png,f,material/165.png,f,f,谦虚,奉献,self,self,self,1,1,1,material/65.png,,,,,,,,,,,,,,,,,0,77,77,64,,,,,,,,,,,,,,,1,1.25912117958,,,,,,,,,moral_self_bias,20,18,59.7671615078,f,001,2018_Apr_02_1702,
卑鄙,material/instr2_2.png,material/instr2_2.png,material/instr2_2.png,2,2,2,material/37.png,j,material/137.png,j,j,卑鄙,无耻,friend,friend,friend,1,1,1,material/137.png,,,,,,,,,,,,,,,,,0,78,78,36,,,,,,,,,,,,,,,1,1.10621786118,,,,,,,,,moral_self_bias,20,18,59.7671615078,f,001,2018_Apr_02_1702,
高手,material/instr2_2.png,material/instr2_2.png,material/instr2_2.png,1,1,1,material/68.png,j,material/167.png,j,j,广博,广博,friend,friend,friend,2,2,2,material/68.png,,,,,,,,,,,,,,,,,0,79,79,66,,,,,,,,,,,,,,,1,1.53283596039,,,,,,,,,moral_self_bias,20,18,59.7671615078,f,001,2018_Apr_02_1702,
超群,material/instr2_2.png,material/instr2_2.png,material/instr2_2.png,1,1,1,material/27.png,j,material/127.png,j,j,卓越,卓越,friend,friend,friend,2,2,2,material/27.png,,,,,,,,,,,,,,,,,0,80,80,26,,,,,,,,,,,,,,,3,2.0001718998,,,,,,,,,moral_self_bias,20,18,59.7671615078,f,001,2018_Apr_02_1702,
笨拙,material/instr2_1.png,material/instr2_1.png,material/instr2_1.png,2,2,2,material/60.png,f,material/160.png,f,f,粗拙,粗拙,self,self,self,2,2,2,material/60.png,,,,,,,,,,,,,,,,,0,81,81,59,,,,,,,,,,,,,,,5,1.13371491432,,,,,,,,,moral_self_bias,20,18,59.7671615078,f,001,2018_Apr_02_1702,
厚道,material/instr2_2.png,material/instr2_2.png,material/instr2_2.png,1,1,1,material/6.png,j,material/106.png,j,j,厚道,诚实,friend,friend,friend,1,1,1,material/106.png,,,,,,,,,,,,,,,,,0,82,82,5,,,,,,,,,,,,,,,5,1.14257001877,,,,,,,,,moral_self_bias,20,18,59.7671615078,f,001,2018_Apr_02_1702,
差生,material/instr2_2.png,material/instr2_2.png,material/instr2_2.png,2,2,2,material/81.png,j,material/179.png,j,j,呆笨,无助,friend,friend,friend,2,2,2,material/83.png,,,,,,,,,,,,,,,,,0,83,83,78,,,,,,,,,,,,,,,1,1.22604799271,,,,,,,,,moral_self_bias,20,18,59.7671615078,f,001,2018_Apr_02_1702,
浅薄,material/instr2_2.png,material/instr2_2.png,material/instr2_2.png,2,2,2,material/58.png,j,material/158.png,j,j,肤浅,肤浅,friend,friend,friend,2,2,2,material/58.png,,,,,,,,,,,,,,,,,0,84,84,57,,,,,,,,,,,,,,,1,1.32520008087,,,,,,,,,moral_self_bias,20,18,59.7671615078,f,001,2018_Apr_02_1702,
机智,material/instr2_2.png,material/instr2_2.png,material/instr2_2.png,1,1,1,material/16.png,j,material/116.png,j,j,睿智,睿智,friend,friend,friend,2,2,2,material/16.png,,,,,,,,,,,,,,,,,0,85,85,15,,,,,,,,,,,,,,,5,1.44271397591,,,,,,,,,moral_self_bias,20,18,59.7671615078,f,001,2018_Apr_02_1702,
冷静,material/instr2_1.png,material/instr2_1.png,material/instr2_1.png,1,1,1,material/24.png,f,material/124.png,f,f,理智,理智,self,self,self,2,2,2,material/24.png,,,,,,,,,,,,,,,,,0,86,86,23,,,,,,,,,,,,,,,1,2.75900888443,,,,,,,,,moral_self_bias,20,18,59.7671615078,f,001,2018_Apr_02_1702,
自私,material/instr2_2.png,material/instr2_2.png,material/instr2_2.png,2,2,2,material/46.png,j,material/146.png,j,j,自私,小气,friend,friend,friend,1,1,1,material/146.png,,,,,,,,,,,,,,,,,0,87,87,45,,,,,,,,,,,,,,,1,1.22513699532,,,,,,,,,moral_self_bias,20,18,59.7671615078,f,001,2018_Apr_02_1702,
,,,,,,,,,,,,,,,,,,,,,9-2= ?,,,,,,,,,,,,,,,,,,,,0,0,0,14,,,,,,,,,,,,,,,,,,,,,moral_self_bias,20,18,59.7671615078,f,001,2018_Apr_02_1702,
,,,,,,,,,,,,,,,,,,,,,2+5= ?,,,,,,,,,,,,,,,,,,,,0,1,1,11,,,,,,,,,,,,,,,,,,,,,moral_self_bias,20,18,59.7671615078,f,001,2018_Apr_02_1702,
,,,,,,,,,,,,,,,,,,,,,8-4= ?,,,,,,,,,,,,,,,,,,,,0,2,2,40,,,,,,,,,,,,,,,,,,,,,moral_self_bias,20,18,59.7671615078,f,001,2018_Apr_02_1702,
,,,,,,,,,,,,,,,,,,,,,7-0= ?,,,,,,,,,,,,,,,,,,,,0,3,3,117,,,,,,,,,,,,,,,,,,,,,moral_self_bias,20,18,59.7671615078,f,001,2018_Apr_02_1702,
,,,,,,,,,,,,,,,,,,,,,8/4= ?,,,,,,,,,,,,,,,,,,,,0,4,4,57,,,,,,,,,,,,,,,,,,,,,moral_self_bias,20,18,59.7671615078,f,001,2018_Apr_02_1702,
,,,,,,,,,,,,,,,,,,,,,12/4= ?,,,,,,,,,,,,,,,,,,,,0,5,5,89,,,,,,,,,,,,,,,,,,,,,moral_self_bias,20,18,59.7671615078,f,001,2018_Apr_02_1702,
,,,,,,,,,,,,,,,,,,,,,1+2= ?,,,,,,,,,,,,,,,,,,,,0,6,6,1,,,,,,,,,,,,,,,,,,,,,moral_self_bias,20,18,59.7671615078,f,001,2018_Apr_02_1702,
,,,,,,,,,,,,,,,,,,,,,6+1= ?,,,,,,,,,,,,,,,,,,,,0,7,7,43,,,,,,,,,,,,,,,,,,,,,moral_self_bias,20,18,59.7671615078,f,001,2018_Apr_02_1702,
,,,,,,,,,,,,,,,,,,,,,8*1= ?,,,,,,,,,,,,,,,,,,,,0,8,8,111,,,,,,,,,,,,,,,,,,,,,moral_self_bias,20,18,59.7671615078,f,001,2018_Apr_02_1702,
,,,,,,,,,,,,,,,,,,,,,4+5= ?,,,,,,,,,,,,,,,,,,,,0,9,9,29,,,,,,,,,,,,,,,,,,,,,moral_self_bias,20,18,59.7671615078,f,001,2018_Apr_02_1702,
,,,,,,,,,,,,,,,,,,,,,9-3= ?,,,,,,,,,,,,,,,,,,,,0,10,10,15,,,,,,,,,,,,,,,,,,,,,moral_self_bias,20,18,59.7671615078,f,001,2018_Apr_02_1702,
,,,,,,,,,,,,,,,,,,,,,2+7= ?,,,,,,,,,,,,,,,,,,,,0,11,11,13,,,,,,,,,,,,,,,,,,,,,moral_self_bias,20,18,59.7671615078,f,001,2018_Apr_02_1702,
,,,,,,,,,,,,,,,,,,,,,50-42= ?,,,,,,,,,,,,,,,,,,,,0,12,12,81,,,,,,,,,,,,,,,,,,,,,moral_self_bias,20,18,59.7671615078,f,001,2018_Apr_02_1702,
,,,,,,,,,,,,,,,,,,,,,3+5= ?,,,,,,,,,,,,,,,,,,,,0,13,13,20,,,,,,,,,,,,,,,,,,,,,moral_self_bias,20,18,59.7671615078,f,001,2018_Apr_02_1702,
,,,,,,,,,,,,,,,,,,,,,4+1= ?,,,,,,,,,,,,,,,,,,,,0,14,14,25,,,,,,,,,,,,,,,,,,,,,moral_self_bias,20,18,59.7671615078,f,001,2018_Apr_02_1702,
,,,,,,,,,,,,,,,,,,,,,3*1= ?,,,,,,,,,,,,,,,,,,,,0,15,15,83,,,,,,,,,,,,,,,,,,,,,moral_self_bias,20,18,59.7671615078,f,001,2018_Apr_02_1702,
,,,,,,,,,,,,,,,,,,,,,7*1= ?,,,,,,,,,,,,,,,,,,,,0,16,16,113,,,,,,,,,,,,,,,,,,,,,moral_self_bias,20,18,59.7671615078,f,001,2018_Apr_02_1702,
,,,,,,,,,,,,,,,,,,,,,11-8= ?,,,,,,,,,,,,,,,,,,,,0,17,17,106,,,,,,,,,,,,,,,,,,,,,moral_self_bias,20,18,59.7671615078,f,001,2018_Apr_02_1702,
,,,,,,,,,,,,,,,,,,,,,4*1= ?,,,,,,,,,,,,,,,,,,,,0,18,18,85,,,,,,,,,,,,,,,,,,,,,moral_self_bias,20,18,59.7671615078,f,001,2018_Apr_02_1702,
,,,,,,,,,,,,,,,,,,,,,6*0= ?,,,,,,,,,,,,,,,,,,,,0,19,19,87,,,,,,,,,,,,,,,,,,,,,moral_self_bias,20,18,59.7671615078,f,001,2018_Apr_02_1702,
,,,,,,,,,,,,,,,,,,,,,3+1= ?,,,,,,,,,,,,,,,,,,,,0,20,20,16,,,,,,,,,,,,,,,,,,,,,moral_self_bias,20,18,59.7671615078,f,001,2018_Apr_02_1702,
,,,,,,,,,,,,,,,,,,,,,9-7= ?,,,,,,,,,,,,,,,,,,,,0,21,21,30,,,,,,,,,,,,,,,,,,,,,moral_self_bias,20,18,59.7671615078,f,001,2018_Apr_02_1702,
,,,,,,,,,,,,,,,,,,,,,1^2= ?,,,,,,,,,,,,,,,,,,,,0,22,22,51,,,,,,,,,,,,,,,,,,,,,moral_self_bias,20,18,59.7671615078,f,001,2018_Apr_02_1702,
,,,,,,,,,,,,,,,,,,,,,9-5= ?,,,,,,,,,,,,,,,,,,,,0,23,23,23,,,,,,,,,,,,,,,,,,,,,moral_self_bias,20,18,59.7671615078,f,001,2018_Apr_02_1702,
,,,,,,,,,,,,,,,,,,,,,19-17= ?,,,,,,,,,,,,,,,,,,,,0,24,24,100,,,,,,,,,,,,,,,,,,,,,moral_self_bias,20,18,59.7671615078,f,001,2018_Apr_02_1702,
,,,,,,,,,,,,,,,,,,,,,8-2= ?,,,,,,,,,,,,,,,,,,,,0,25,25,38,,,,,,,,,,,,,,,,,,,,,moral_self_bias,20,18,59.7671615078,f,001,2018_Apr_02_1702,
,,,,,,,,,,,,,,,,,,,,,15-10=？,,,,,,,,,,,,,,,,,,,,0,26,26,61,,,,,,,,,,,,,,,,,,,,,moral_self_bias,20,18,59.7671615078,f,001,2018_Apr_02_1702,
,,,,,,,,,,,,,,,,,,,,,4/4= ?,,,,,,,,,,,,,,,,,,,,0,27,27,55,,,,,,,,,,,,,,,,,,,,,moral_self_bias,20,18,59.7671615078,f,001,2018_Apr_02_1702,
,,,,,,,,,,,,,,,,,,,,,3+0= ?,,,,,,,,,,,,,,,,,,,,0,28,28,105,,,,,,,,,,,,,,,,,,,,,moral_self_bias,20,18,59.7671615078,f,001,2018_Apr_02_1702,
,,,,,,,,,,,,,,,,,,,,,22-22= ?,,,,,,,,,,,,,,,,,,,,0,29,29,93,,,,,,,,,,,,,,,,,,,,,moral_self_bias,20,18,59.7671615078,f,001,2018_Apr_02_1702,
,,,,,,,,,,,,,,,,,,,,,9-8= ?,,,,,,,,,,,,,,,,,,,,0,30,30,31,,,,,,,,,,,,,,,,,,,,,moral_self_bias,20,18,59.7671615078,f,001,2018_Apr_02_1702,
,,,,,,,,,,,,,,,,,,,,,9-6= ?,,,,,,,,,,,,,,,,,,,,0,31,31,24,,,,,,,,,,,,,,,,,,,,,moral_self_bias,20,18,59.7671615078,f,001,2018_Apr_02_1702,
,,,,,,,,,,,,,,,,,,,,,4+2= ?,,,,,,,,,,,,,,,,,,,,0,32,32,26,,,,,,,,,,,,,,,,,,,,,moral_self_bias,20,18,59.7671615078,f,001,2018_Apr_02_1702,
,,,,,,,,,,,,,,,,,,,,,11-3=？,,,,,,,,,,,,,,,,,,,,0,33,33,68,,,,,,,,,,,,,,,,,,,,,moral_self_bias,20,18,59.7671615078,f,001,2018_Apr_02_1702,
,,,,,,,,,,,,,,,,,,,,,1+9= ?,,,,,,,,,,,,,,,,,,,,0,34,34,3,,,,,,,,,,,,,,,,,,,,,moral_self_bias,20,18,59.7671615078,f,001,2018_Apr_02_1702,
,,,,,,,,,,,,,,,,,,,,,72/9= ?,,,,,,,,,,,,,,,,,,,,0,35,35,76,,,,,,,,,,,,,,,,,,,,,moral_self_bias,20,18,59.7671615078,f,001,2018_Apr_02_1702,
,,,,,,,,,,,,,,,,,,,,,4+3= ?,,,,,,,,,,,,,,,,,,,,0,36,36,27,,,,,,,,,,,,,,,,,,,,,moral_self_bias,20,18,59.7671615078,f,001,2018_Apr_02_1702,
,,,,,,,,,,,,,,,,,,,,,6+3= ?,,,,,,,,,,,,,,,,,,,,0,37,37,45,,,,,,,,,,,,,,,,,,,,,moral_self_bias,20,18,59.7671615078,f,001,2018_Apr_02_1702,
,,,,,,,,,,,,,,,,,,,,,17-12= ? ,,,,,,,,,,,,,,,,,,,,0,38,38,104,,,,,,,,,,,,,,,,,,,,,moral_self_bias,20,18,59.7671615078,f,001,2018_Apr_02_1702,
,,,,,,,,,,,,,,,,,,,,,7*0= ?,,,,,,,,,,,,,,,,,,,,0,39,39,88,,,,,,,,,,,,,,,,,,,,,moral_self_bias,20,18,59.7671615078,f,001,2018_Apr_02_1702,
,,,,,,,,,,,,,,,,,,,,,2*4= ?,,,,,,,,,,,,,,,,,,,,0,40,40,84,,,,,,,,,,,,,,,,,,,,,moral_self_bias,20,18,59.7671615078,f,001,2018_Apr_02_1702,
,,,,,,,,,,,,,,,,,,,,,3+6= ?,,,,,,,,,,,,,,,,,,,,0,41,41,21,,,,,,,,,,,,,,,,,,,,,moral_self_bias,20,18,59.7671615078,f,001,2018_Apr_02_1702,
,,,,,,,,,,,,,,,,,,,,,10-9= ?,,,,,,,,,,,,,,,,,,,,0,42,42,112,,,,,,,,,,,,,,,,,,,,,moral_self_bias,20,18,59.7671615078,f,001,2018_Apr_02_1702,
,,,,,,,,,,,,,,,,,,,,,3+4= ?,,,,,,,,,,,,,,,,,,,,0,43,43,19,,,,,,,,,,,,,,,,,,,,,moral_self_bias,20,18,59.7671615078,f,001,2018_Apr_02_1702,
,,,,,,,,,,,,,,,,,,,,,4*2= ?,,,,,,,,,,,,,,,,,,,,0,44,44,82,,,,,,,,,,,,,,,,,,,,,moral_self_bias,20,18,59.7671615078,f,001,2018_Apr_02_1702,
,,,,,,,,,,,,,,,,,,,,,21/7= ?,,,,,,,,,,,,,,,,,,,,0,45,45,70,,,,,,,,,,,,,,,,,,,,,moral_self_bias,20,18,59.7671615078,f,001,2018_Apr_02_1702,
,,,,,,,,,,,,,,,,,,,,,1+1= ?,,,,,,,,,,,,,,,,,,,,0,46,46,0,,,,,,,,,,,,,,,,,,,,,moral_self_bias,20,18,59.7671615078,f,001,2018_Apr_02_1702,
,,,,,,,,,,,,,,,,,,,,,5+2= ?,,,,,,,,,,,,,,,,,,,,0,47,47,35,,,,,,,,,,,,,,,,,,,,,moral_self_bias,20,18,59.7671615078,f,001,2018_Apr_02_1702,
,,,,,,,,,,,,,,,,,,,,,5-3= ?,,,,,,,,,,,,,,,,,,,,0,48,48,116,,,,,,,,,,,,,,,,,,,,,moral_self_bias,20,18,59.7671615078,f,001,2018_Apr_02_1702,
,,,,,,,,,,,,,,,,,,,,,10-5=？,,,,,,,,,,,,,,,,,,,,0,49,49,67,,,,,,,,,,,,,,,,,,,,,moral_self_bias,20,18,59.7671615078,f,001,2018_Apr_02_1702,
,,,,,,,,,,,,,,,,,,,,,81/9= ?,,,,,,,,,,,,,,,,,,,,0,50,50,75,,,,,,,,,,,,,,,,,,,,,moral_self_bias,20,18,59.7671615078,f,001,2018_Apr_02_1702,
,,,,,,,,,,,,,,,,,,,,,11-11= ?,,,,,,,,,,,,,,,,,,,,0,51,51,119,,,,,,,,,,,,,,,,,,,,,moral_self_bias,20,18,59.7671615078,f,001,2018_Apr_02_1702,
,,,,,,,,,,,,,,,,,,,,,1*9= ?,,,,,,,,,,,,,,,,,,,,0,52,52,109,,,,,,,,,,,,,,,,,,,,,moral_self_bias,20,18,59.7671615078,f,001,2018_Apr_02_1702,
,,,,,,,,,,,,,,,,,,,,,8+1= ?,,,,,,,,,,,,,,,,,,,,0,53,53,48,,,,,,,,,,,,,,,,,,,,,moral_self_bias,20,18,59.7671615078,f,001,2018_Apr_02_1702,
,,,,,,,,,,,,,,,,,,,,,6+2= ?,,,,,,,,,,,,,,,,,,,,0,54,54,44,,,,,,,,,,,,,,,,,,,,,moral_self_bias,20,18,59.7671615078,f,001,2018_Apr_02_1702,
,,,,,,,,,,,,,,,,,,,,,30-29= ?,,,,,,,,,,,,,,,,,,,,0,55,55,73,,,,,,,,,,,,,,,,,,,,,moral_self_bias,20,18,59.7671615078,f,001,2018_Apr_02_1702,
,,,,,,,,,,,,,,,,,,,,,18/2= ?,,,,,,,,,,,,,,,,,,,,0,56,56,97,,,,,,,,,,,,,,,,,,,,,moral_self_bias,20,18,59.7671615078,f,001,2018_Apr_02_1702,
,,,,,,,,,,,,,,,,,,,,,5+3= ?,,,,,,,,,,,,,,,,,,,,0,57,57,36,,,,,,,,,,,,,,,,,,,,,moral_self_bias,20,18,59.7671615078,f,001,2018_Apr_02_1702,
,,,,,,,,,,,,,,,,,,,,,90/45= ?,,,,,,,,,,,,,,,,,,,,0,58,58,74,,,,,,,,,,,,,,,,,,,,,moral_self_bias,20,18,59.7671615078,f,001,2018_Apr_02_1702,
,,,,,,,,,,,,,,,,,,,,,7+2= ?,,,,,,,,,,,,,,,,,,,,0,59,59,47,,,,,,,,,,,,,,,,,,,,,moral_self_bias,20,18,59.7671615078,f,001,2018_Apr_02_1702,
,,,,,,,,,,,,,,,,,,,,,11-5= ?,,,,,,,,,,,,,,,,,,,,0,60,60,107,,,,,,,,,,,,,,,,,,,,,moral_self_bias,20,18,59.7671615078,f,001,2018_Apr_02_1702,
,,,,,,,,,,,,,,,,,,,,,5*0= ?,,,,,,,,,,,,,,,,,,,,0,61,61,86,,,,,,,,,,,,,,,,,,,,,moral_self_bias,20,18,59.7671615078,f,001,2018_Apr_02_1702,
,,,,,,,,,,,,,,,,,,,,,8-5= ?,,,,,,,,,,,,,,,,,,,,0,62,62,41,,,,,,,,,,,,,,,,,,,,,moral_self_bias,20,18,59.7671615078,f,001,2018_Apr_02_1702,
,,,,,,,,,,,,,,,,,,,,,1+7= ?,,,,,,,,,,,,,,,,,,,,0,63,63,4,,,,,,,,,,,,,,,,,,,,,moral_self_bias,20,18,59.7671615078,f,001,2018_Apr_02_1702,
,,,,,,,,,,,,,,,,,,,,,7+1= ?,,,,,,,,,,,,,,,,,,,,0,64,64,46,,,,,,,,,,,,,,,,,,,,,moral_self_bias,20,18,59.7671615078,f,001,2018_Apr_02_1702,
,,,,,,,,,,,,,,,,,,,,,9-1=?,,,,,,,,,,,,,,,,,,,,0,65,65,2,,,,,,,,,,,,,,,,,,,,,moral_self_bias,20,18,59.7671615078,f,001,2018_Apr_02_1702,
,,,,,,,,,,,,,,,,,,,,,20/5=？,,,,,,,,,,,,,,,,,,,,0,66,66,69,,,,,,,,,,,,,,,,,,,,,moral_self_bias,20,18,59.7671615078,f,001,2018_Apr_02_1702,
,,,,,,,,,,,,,,,,,,,,,2+1= ?,,,,,,,,,,,,,,,,,,,,0,67,67,7,,,,,,,,,,,,,,,,,,,,,moral_self_bias,20,18,59.7671615078,f,001,2018_Apr_02_1702,
,,,,,,,,,,,,,,,,,,,,,8-3= ?,,,,,,,,,,,,,,,,,,,,0,68,68,39,,,,,,,,,,,,,,,,,,,,,moral_self_bias,20,18,59.7671615078,f,001,2018_Apr_02_1702,
,,,,,,,,,,,,,,,,,,,,,2+2= ?,,,,,,,,,,,,,,,,,,,,0,69,69,8,,,,,,,,,,,,,,,,,,,,,moral_self_bias,20,18,59.7671615078,f,001,2018_Apr_02_1702,
,,,,,,,,,,,,,,,,,,,,,2^2= ?,,,,,,,,,,,,,,,,,,,,0,70,70,49,,,,,,,,,,,,,,,,,,,,,moral_self_bias,20,18,59.7671615078,f,001,2018_Apr_02_1702,
,,,,,,,,,,,,,,,,,,,,,23^0= ?,,,,,,,,,,,,,,,,,,,,0,71,71,94,,,,,,,,,,,,,,,,,,,,,moral_self_bias,20,18,59.7671615078,f,001,2018_Apr_02_1702,
,,,,,,,,,,,,,,,,,,,,,4+4= ?,,,,,,,,,,,,,,,,,,,,0,72,72,28,,,,,,,,,,,,,,,,,,,,,moral_self_bias,20,18,59.7671615078,f,001,2018_Apr_02_1702,
,,,,,,,,,,,,,,,,,,,,,1+8= ?,,,,,,,,,,,,,,,,,,,,0,73,73,6,,,,,,,,,,,,,,,,,,,,,moral_self_bias,20,18,59.7671615078,f,001,2018_Apr_02_1702,
,,,,,,,,,,,,,,,,,,,,,13-5= ?,,,,,,,,,,,,,,,,,,,,0,74,74,98,,,,,,,,,,,,,,,,,,,,,moral_self_bias,20,18,59.7671615078,f,001,2018_Apr_02_1702,
,,,,,,,,,,,,,,,,,,,,,6/2= ?,,,,,,,,,,,,,,,,,,,,0,75,75,58,,,,,,,,,,,,,,,,,,,,,moral_self_bias,20,18,59.7671615078,f,001,2018_Apr_02_1702,
,,,,,,,,,,,,,,,,,,,,,22/11= ?,,,,,,,,,,,,,,,,,,,,0,76,76,71,,,,,,,,,,,,,,,,,,,,,moral_self_bias,20,18,59.7671615078,f,001,2018_Apr_02_1702,
,,,,,,,,,,,,,,,,,,,,,49/7 = ?,,,,,,,,,,,,,,,,,,,,0,77,77,78,,,,,,,,,,,,,,,,,,,,,moral_self_bias,20,18,59.7671615078,f,001,2018_Apr_02_1702,
,,,,,,,,,,,,,,,,,,,,,12/6= ?,,,,,,,,,,,,,,,,,,,,0,78,78,90,,,,,,,,,,,,,,,,,,,,,moral_self_bias,20,18,59.7671615078,f,001,2018_Apr_02_1702,
,,,,,,,,,,,,,,,,,,,,,18/9= ?,,,,,,,,,,,,,,,,,,,,0,79,79,96,,,,,,,,,,,,,,,,,,,,,moral_self_bias,20,18,59.7671615078,f,001,2018_Apr_02_1702,
,,,,,,,,,,,,,,,,,,,,,2+4= ?,,,,,,,,,,,,,,,,,,,,0,80,80,10,,,,,,,,,,,,,,,,,,,,,moral_self_bias,20,18,59.7671615078,f,001,2018_Apr_02_1702,
,,,,,,,,,,,,,,,,,,,,,3^1= ?,,,,,,,,,,,,,,,,,,,,0,81,81,101,,,,,,,,,,,,,,,,,,,,,moral_self_bias,20,18,59.7671615078,f,001,2018_Apr_02_1702,
,,,,,,,,,,,,,,,,,,,,,5+1= ?,,,,,,,,,,,,,,,,,,,,0,82,82,34,,,,,,,,,,,,,,,,,,,,,moral_self_bias,20,18,59.7671615078,f,001,2018_Apr_02_1702,
,,,,,,,,,,,,,,,,,,,,,9-4= ?,,,,,,,,,,,,,,,,,,,,0,83,83,22,,,,,,,,,,,,,,,,,,,,,moral_self_bias,20,18,59.7671615078,f,001,2018_Apr_02_1702,
,,,,,,,,,,,,,,,,,,,,,6^0= ?,,,,,,,,,,,,,,,,,,,,0,84,84,103,,,,,,,,,,,,,,,,,,,,,moral_self_bias,20,18,59.7671615078,f,001,2018_Apr_02_1702,
,,,,,,,,,,,,,,,,,,,,,5/1= ?,,,,,,,,,,,,,,,,,,,,0,85,85,59,,,,,,,,,,,,,,,,,,,,,moral_self_bias,20,18,59.7671615078,f,001,2018_Apr_02_1702,
,,,,,,,,,,,,,,,,,,,,,9+0= ?,,,,,,,,,,,,,,,,,,,,0,86,86,118,,,,,,,,,,,,,,,,,,,,,moral_self_bias,20,18,59.7671615078,f,001,2018_Apr_02_1702,
,,,,,,,,,,,,,,,,,,,,,2+6= ?,,,,,,,,,,,,,,,,,,,,0,87,87,12,,,,,,,,,,,,,,,,,,,,,moral_self_bias,20,18,59.7671615078,f,001,2018_Apr_02_1702,
,,,,,,,,,,,,,,,,,,,,,29-27= ?,,,,,,,,,,,,,,,,,,,,0,88,88,72,,,,,,,,,,,,,,,,,,,,,moral_self_bias,20,18,59.7671615078,f,001,2018_Apr_02_1702,
,,,,,,,,,,,,,,,,,,,,,16-11=？,,,,,,,,,,,,,,,,,,,,0,89,89,62,,,,,,,,,,,,,,,,,,,,,moral_self_bias,20,18,59.7671615078,f,001,2018_Apr_02_1702,
,,,,,,,,,,,,,,,,,,,,,14-9=？,,,,,,,,,,,,,,,,,,,,0,90,90,63,,,,,,,,,,,,,,,,,,,,,moral_self_bias,20,18,59.7671615078,f,001,2018_Apr_02_1702,
,,,,,,,,,,,,,,,,,,,,,12-5=？,,,,,,,,,,,,,,,,,,,,0,91,91,65,,,,,,,,,,,,,,,,,,,,,moral_self_bias,20,18,59.7671615078,f,001,2018_Apr_02_1702,
,,,,,,,,,,,,,,,,,,,,,9-9= ?,,,,,,,,,,,,,,,,,,,,0,92,92,32,,,,,,,,,,,,,,,,,,,,,moral_self_bias,20,18,59.7671615078,f,001,2018_Apr_02_1702,
,,,,,,,,,,,,,,,,,,,,,6^0= ?,,,,,,,,,,,,,,,,,,,,0,93,93,114,,,,,,,,,,,,,,,,,,,,,moral_self_bias,20,18,59.7671615078,f,001,2018_Apr_02_1702,
,,,,,,,,,,,,,,,,,,,,,1-1= ?,,,,,,,,,,,,,,,,,,,,0,94,94,52,,,,,,,,,,,,,,,,,,,,,moral_self_bias,20,18,59.7671615078,f,001,2018_Apr_02_1702,
,,,,,,,,,,,,,,,,,,,,,8-1= ?,,,,,,,,,,,,,,,,,,,,0,95,95,33,,,,,,,,,,,,,,,,,,,,,moral_self_bias,20,18,59.7671615078,f,001,2018_Apr_02_1702,
,,,,,,,,,,,,,,,,,,,,,43-34= ?,,,,,,,,,,,,,,,,,,,,0,96,96,79,,,,,,,,,,,,,,,,,,,,,moral_self_bias,20,18,59.7671615078,f,001,2018_Apr_02_1702,
,,,,,,,,,,,,,,,,,,,,,13-6=？,,,,,,,,,,,,,,,,,,,,0,97,97,64,,,,,,,,,,,,,,,,,,,,,moral_self_bias,20,18,59.7671615078,f,001,2018_Apr_02_1702,
,,,,,,,,,,,,,,,,,,,,,1+6= ?,,,,,,,,,,,,,,,,,,,,0,98,98,5,,,,,,,,,,,,,,,,,,,,,moral_self_bias,20,18,59.7671615078,f,001,2018_Apr_02_1702,
,,,,,,,,,,,,,,,,,,,,,12-12= ?,,,,,,,,,,,,,,,,,,,,0,99,99,99,,,,,,,,,,,,,,,,,,,,,moral_self_bias,20,18,59.7671615078,f,001,2018_Apr_02_1702,
,,,,,,,,,,,,,,,,,,,,,3+2= ?,,,,,,,,,,,,,,,,,,,,0,100,100,17,,,,,,,,,,,,,,,,,,,,,moral_self_bias,20,18,59.7671615078,f,001,2018_Apr_02_1702,
,,,,,,,,,,,,,,,,,,,,,9/3= ?,,,,,,,,,,,,,,,,,,,,0,101,101,56,,,,,,,,,,,,,,,,,,,,,moral_self_bias,20,18,59.7671615078,f,001,2018_Apr_02_1702,
,,,,,,,,,,,,,,,,,,,,,2*3= ?,,,,,,,,,,,,,,,,,,,,0,102,102,108,,,,,,,,,,,,,,,,,,,,,moral_self_bias,20,18,59.7671615078,f,001,2018_Apr_02_1702,
,,,,,,,,,,,,,,,,,,,,,3^2= ?,,,,,,,,,,,,,,,,,,,,0,103,103,50,,,,,,,,,,,,,,,,,,,,,moral_self_bias,20,18,59.7671615078,f,001,2018_Apr_02_1702,
,,,,,,,,,,,,,,,,,,,,,56/7= ?,,,,,,,,,,,,,,,,,,,,0,104,104,77,,,,,,,,,,,,,,,,,,,,,moral_self_bias,20,18,59.7671615078,f,001,2018_Apr_02_1702,
,,,,,,,,,,,,,,,,,,,,,3*3= ?,,,,,,,,,,,,,,,,,,,,0,105,105,54,,,,,,,,,,,,,,,,,,,,,moral_self_bias,20,18,59.7671615078,f,001,2018_Apr_02_1702,
,,,,,,,,,,,,,,,,,,,,,4^1= ?,,,,,,,,,,,,,,,,,,,,0,106,106,102,,,,,,,,,,,,,,,,,,,,,moral_self_bias,20,18,59.7671615078,f,001,2018_Apr_02_1702,
,,,,,,,,,,,,,,,,,,,,,3*2= ?,,,,,,,,,,,,,,,,,,,,0,107,107,53,,,,,,,,,,,,,,,,,,,,,moral_self_bias,20,18,59.7671615078,f,001,2018_Apr_02_1702,
,,,,,,,,,,,,,,,,,,,,,11-4=？,,,,,,,,,,,,,,,,,,,,0,108,108,66,,,,,,,,,,,,,,,,,,,,,moral_self_bias,20,18,59.7671615078,f,001,2018_Apr_02_1702,
,,,,,,,,,,,,,,,,,,,,,12/12= ?,,,,,,,,,,,,,,,,,,,,0,109,109,91,,,,,,,,,,,,,,,,,,,,,moral_self_bias,20,18,59.7671615078,f,001,2018_Apr_02_1702,
,,,,,,,,,,,,,,,,,,,,,12-7= ?,,,,,,,,,,,,,,,,,,,,0,110,110,115,,,,,,,,,,,,,,,,,,,,,moral_self_bias,20,18,59.7671615078,f,001,2018_Apr_02_1702,
,,,,,,,,,,,,,,,,,,,,,32-23=？,,,,,,,,,,,,,,,,,,,,0,111,111,60,,,,,,,,,,,,,,,,,,,,,moral_self_bias,20,18,59.7671615078,f,001,2018_Apr_02_1702,
,,,,,,,,,,,,,,,,,,,,,21/3= ? ,,,,,,,,,,,,,,,,,,,,0,112,112,95,,,,,,,,,,,,,,,,,,,,,moral_self_bias,20,18,59.7671615078,f,001,2018_Apr_02_1702,
,,,,,,,,,,,,,,,,,,,,,32-32= ?,,,,,,,,,,,,,,,,,,,,0,113,113,80,,,,,,,,,,,,,,,,,,,,,moral_self_bias,20,18,59.7671615078,f,001,2018_Apr_02_1702,
,,,,,,,,,,,,,,,,,,,,,13-9= ?,,,,,,,,,,,,,,,,,,,,0,114,114,92,,,,,,,,,,,,,,,,,,,,,moral_self_bias,20,18,59.7671615078,f,001,2018_Apr_02_1702,
,,,,,,,,,,,,,,,,,,,,,8-6= ?,,,,,,,,,,,,,,,,,,,,0,115,115,42,,,,,,,,,,,,,,,,,,,,,moral_self_bias,20,18,59.7671615078,f,001,2018_Apr_02_1702,
,,,,,,,,,,,,,,,,,,,,,2+3= ?,,,,,,,,,,,,,,,,,,,,0,116,116,9,,,,,,,,,,,,,,,,,,,,,moral_self_bias,20,18,59.7671615078,f,001,2018_Apr_02_1702,
,,,,,,,,,,,,,,,,,,,,,3+3= ?,,,,,,,,,,,,,,,,,,,,0,117,117,18,,,,,,,,,,,,,,,,,,,,,moral_self_bias,20,18,59.7671615078,f,001,2018_Apr_02_1702,
,,,,,,,,,,,,,,,,,,,,,5+4= ?,,,,,,,,,,,,,,,,,,,,0,118,118,37,,,,,,,,,,,,,,,,,,,,,moral_self_bias,20,18,59.7671615078,f,001,2018_Apr_02_1702,
,,,,,,,,,,,,,,,,,,,,,1*8= ?,,,,,,,,,,,,,,,,,,,,0,119,119,110,,,,,,,,,,,,,,,,,,,,,moral_self_bias,20,18,59.7671615078,f,001,2018_Apr_02_1702,
,,,,,,,,,,,,,,,,,,,,,,,,,,,,,,,,,,,,,,,,,,,,,,,,,,,,,,,,,2,6.48403596878,,,,,,,moral_self_bias,20,18,59.7671615078,f,001,2018_Apr_02_1702,
,,,,,,,,,,,,,,,,,,,,,,material/69.png,1,高明,material/69.png,1,material/69.png,高明,1,f,f,f,2,2,2,高明,,,,,,,,,0,0,0,166,,,,,,,,,,,j,0,4.37491393089,,,,moral_self_bias,20,18,59.7671615078,f,001,2018_Apr_02_1702,
,,,,,,,,,,,,,,,,,,,,,,material/21.png,1,干练,material/121.png,1,material/21.png,精干,1,f,f,f,2,2,2,干练,,,,,,,,,0,1,1,100,,,,,,,,,,,j,0,4.15541386604,,,,moral_self_bias,20,18,59.7671615078,f,001,2018_Apr_02_1702,
,,,,,,,,,,,,,,,,,,,,,,material/10.png,1,坚毅,material/110.png,1,material/110.png,坚毅,1,f,f,f,1,1,1,顽强,,,,,,,,,0,2,2,89,,,,,,,,,,,j,0,2.05861210823,,,,moral_self_bias,20,18,59.7671615078,f,001,2018_Apr_02_1702,
,,,,,,,,,,,,,,,,,,,,,,material/157.png,2,无能,material/57.png,2,material/157.png,无知,2,j,j,j,2,2,2,无能,,,,,,,,,0,3,3,56,0,0,0,0,,,,,,,f,0,1.1080930233,f,0,4.84085822105,moral_self_bias,20,18,59.7671615078,f,001,2018_Apr_02_1702,
,,,,,,,,,,,,,,,,,,,,,,material/157.png,2,无能,material/57.png,2,material/157.png,无知,2,j,j,j,2,2,2,无能,,,,,,,,,0,3,3,56,,,,,,,,,,,,,,,,,moral_self_bias,20,18,59.7671615078,f,001,2018_Apr_02_1702,
,,,,,,,,,,,,,,,,,,,,,,material/149.png,2,白痴,material/49.png,2,material/149.png,痴呆,2,j,j,j,2,2,2,白痴,,,,,,,,,0,4,4,48,0,0,0,0,,,,,,,f,0,5.22456002235,f,0,1.94052910805,moral_self_bias,20,18,59.7671615078,f,001,2018_Apr_02_1702,
,,,,,,,,,,,,,,,,,,,,,,material/149.png,2,白痴,material/49.png,2,material/149.png,痴呆,2,j,j,j,2,2,2,白痴,,,,,,,,,0,4,4,48,,,,,,,,,,,,,,,,,moral_self_bias,20,18,59.7671615078,f,001,2018_Apr_02_1702,
,,,,,,,,,,,,,,,,,,,,,,material/102.png,1,善心,material/2.png,1,material/2.png,善心,1,j,j,j,1,1,1,爱心,,,,,,,,,0,5,5,1,,,,,,,,,,,j,1,1.67400884628,,,,moral_self_bias,20,18,59.7671615078,f,001,2018_Apr_02_1702,
,,,,,,,,,,,,,,,,,,,,,,material/181.png,2,怠惰,material/180.png,2,material/180.png,怠惰,2,f,f,f,2,2,2,犹豫,,,,,,,,,0,6,6,159,0,0,0,0,,,,,,,f,1,1.5245859623,f,0,0.808742046356,moral_self_bias,20,18,59.7671615078,f,001,2018_Apr_02_1702,
,,,,,,,,,,,,,,,,,,,,,,material/181.png,2,怠惰,material/180.png,2,material/180.png,怠惰,2,f,f,f,2,2,2,犹豫,,,,,,,,,0,6,6,159,,,,,,,,,,,,,,,,,moral_self_bias,20,18,59.7671615078,f,001,2018_Apr_02_1702,
,,,,,,,,,,,,,,,,,,,,,,material/43.png,2,虚荣,material/143.png,2,material/143.png,虚荣,2,f,f,f,1,1,1,拜金,,,,,,,,,0,7,7,122,0,0,0,0,,,,,,,f,1,2.54161214828,f,0,0.55885887146,moral_self_bias,20,18,59.7671615078,f,001,2018_Apr_02_1702,
,,,,,,,,,,,,,,,,,,,,,,material/43.png,2,虚荣,material/143.png,2,material/143.png,虚荣,2,f,f,f,1,1,1,拜金,,,,,,,,,0,7,7,122,,,,,,,,,,,,,,,,,moral_self_bias,20,18,59.7671615078,f,001,2018_Apr_02_1702,
,,,,,,,,,,,,,,,,,,,,,,material/7.png,1,公平,material/107.png,1,material/107.png,公平,1,f,f,f,1,1,1,公正,,,,,,,,,0,8,8,86,0,0,0,0,,,,,,,f,1,0.825382947922,f,0,0.3766310215,moral_self_bias,20,18,59.7671615078,f,001,2018_Apr_02_1702,
,,,,,,,,,,,,,,,,,,,,,,material/7.png,1,公平,material/107.png,1,material/107.png,公平,1,f,f,f,1,1,1,公正,,,,,,,,,0,8,8,86,,,,,,,,,,,,,,,,,moral_self_bias,20,18,59.7671615078,f,001,2018_Apr_02_1702,
,,,,,,,,,,,,,,,,,,,,,,material/101.png,1,善良,material/1.png,1,material/1.png,善良,1,j,j,j,1,1,1,博爱,,,,,,,,,0,9,9,0,0,0,0,0,,,,,,,f,0,0.541783094406,f,0,0.507772922516,moral_self_bias,20,18,59.7671615078,f,001,2018_Apr_02_1702,
,,,,,,,,,,,,,,,,,,,,,,material/101.png,1,善良,material/1.png,1,material/1.png,善良,1,j,j,j,1,1,1,博爱,,,,,,,,,0,9,9,0,,,,,,,,,,,,,,,,,moral_self_bias,20,18,59.7671615078,f,001,2018_Apr_02_1702,
,,,,,,,,,,,,,,,,,,,,,,material/35.png,2,冷血,material/135.png,2,material/135.png,冷血,2,f,f,f,1,1,1,冷漠,,,,,,,,,0,10,10,114,,,,,,,,,,,j,0,0.791251897812,,,,moral_self_bias,20,18,59.7671615078,f,001,2018_Apr_02_1702,
,,,,,,,,,,,,,,,,,,,,,,material/68.png,1,广博,material/167.png,1,material/68.png,高手,1,f,f,f,2,2,2,广博,,,,,,,,,0,11,11,146,,,,,,,,,,,j,0,2.32456493378,,,,moral_self_bias,20,18,59.7671615078,f,001,2018_Apr_02_1702,
,,,,,,,,,,,,,,,,,,,,,,material/139.png,2,凶残,material/39.png,2,material/39.png,凶残,2,j,j,j,1,1,1,恶毒,,,,,,,,,0,12,12,38,,,,,,,,,,,j,1,3.67515492439,,,,moral_self_bias,20,18,59.7671615078,f,001,2018_Apr_02_1702,
,,,,,,,,,,,,,,,,,,,,,,material/59.png,2,智障,material/159.png,2,material/59.png,弱智,2,f,f,f,2,2,2,智障,,,,,,,,,0,13,13,138,0,0,0,0,,,,,,,f,1,1.74086904526,f,0,2.80722618103,moral_self_bias,20,18,59.7671615078,f,001,2018_Apr_02_1702,
,,,,,,,,,,,,,,,,,,,,,,material/59.png,2,智障,material/159.png,2,material/59.png,弱智,2,f,f,f,2,2,2,智障,,,,,,,,,0,13,13,138,,,,,,,,,,,,,,,,,moral_self_bias,20,18,59.7671615078,f,001,2018_Apr_02_1702,
,,,,,,,,,,,,,,,,,,,,,,material/124.png,1,冷静,material/24.png,1,material/124.png,理智,1,j,j,j,2,2,2,冷静,,,,,,,,,0,14,14,23,0,0,0,0,,,,,,,f,0,2.21692991257,f,0,0.757920980453,moral_self_bias,20,18,59.7671615078,f,001,2018_Apr_02_1702,
,,,,,,,,,,,,,,,,,,,,,,material/124.png,1,冷静,material/24.png,1,material/124.png,理智,1,j,j,j,2,2,2,冷静,,,,,,,,,0,14,14,23,,,,,,,,,,,,,,,,,moral_self_bias,20,18,59.7671615078,f,001,2018_Apr_02_1702,
,,,,,,,,,,,,,,,,,,,,,,material/170.png,1,坚忍,material/71.png,1,material/170.png,严谨,1,j,j,j,2,2,2,坚忍,,,,,,,,,0,15,15,68,,,,,,,,,,,j,1,3.62540197372,,,,moral_self_bias,20,18,59.7671615078,f,001,2018_Apr_02_1702,
,,,,,,,,,,,,,,,,,,,,,,material/70.png,1,全面,material/168.png,1,material/70.png,机变,1,f,f,f,2,2,2,全面,,,,,,,,,0,16,16,147,,,,,,,,,,,j,0,4.79984807968,,,,moral_self_bias,20,18,59.7671615078,f,001,2018_Apr_02_1702,
,,,,,,,,,,,,,,,,,,,,,,material/60.png,2,粗拙,material/160.png,2,material/60.png,笨拙,2,f,f,f,2,2,2,粗拙,,,,,,,,,0,17,17,139,,,,,,,,,,,j,0,1.07449817657,,,,moral_self_bias,20,18,59.7671615078,f,001,2018_Apr_02_1702,
,,,,,,,,,,,,,,,,,,,,,,material/3.png,1,仁厚,material/103.png,1,material/103.png,仁厚,1,f,f,f,1,1,1,仁慈,,,,,,,,,0,18,18,82,,,,,,,,,,,j,0,0.708145141602,,,,moral_self_bias,20,18,59.7671615078,f,001,2018_Apr_02_1702,
,,,,,,,,,,,,,,,,,,,,,,material/174.png,2,虚伪,material/76.png,2,material/76.png,虚伪,2,j,j,j,1,1,1,不义,,,,,,,,,0,19,19,72,0,0,0,0,,,,,,,f,0,1.01755309105,f,0,2.6911149025,moral_self_bias,20,18,59.7671615078,f,001,2018_Apr_02_1702,
,,,,,,,,,,,,,,,,,,,,,,material/174.png,2,虚伪,material/76.png,2,material/76.png,虚伪,2,j,j,j,1,1,1,不义,,,,,,,,,0,19,19,72,,,,,,,,,,,,,,,,,moral_self_bias,20,18,59.7671615078,f,001,2018_Apr_02_1702,
,,,,,,,,,,,,,,,,,,,,,,material/168.png,1,机变,material/170.png,1,material/168.png,坚忍,1,f,f,f,2,2,2,机变,,,,,,,,,0,20,20,149,0,0,0,0,,,,,,,f,1,2.30775785446,j,1,0.741384983063,moral_self_bias,20,18,59.7671615078,f,001,2018_Apr_02_1702,
,,,,,,,,,,,,,,,,,,,,,,material/168.png,1,机变,material/170.png,1,material/168.png,坚忍,1,f,f,f,2,2,2,机变,,,,,,,,,0,20,20,149,,,,,,,,,,,,,,,,,moral_self_bias,20,18,59.7671615078,f,001,2018_Apr_02_1702,
,,,,,,,,,,,,,,,,,,,,,,material/19.png,1,灵活,material/119.png,1,material/19.png,机灵,1,f,f,f,2,2,2,灵活,,,,,,,,,0,21,21,98,0,0,0,0,,,,,,,f,1,1.14121484756,j,1,0.651043891907,moral_self_bias,20,18,59.7671615078,f,001,2018_Apr_02_1702,
,,,,,,,,,,,,,,,,,,,,,,material/19.png,1,灵活,material/119.png,1,material/19.png,机灵,1,f,f,f,2,2,2,灵活,,,,,,,,,0,21,21,98,,,,,,,,,,,,,,,,,moral_self_bias,20,18,59.7671615078,f,001,2018_Apr_02_1702,
,,,,,,,,,,,,,,,,,,,,,,material/58.png,2,肤浅,material/158.png,2,material/58.png,浅薄,2,f,f,f,2,2,2,肤浅,,,,,,,,,0,22,22,137,0,0,0,0,,,,,,,f,1,0.825353860855,f,0,1.32519102097,moral_self_bias,20,18,59.7671615078,f,001,2018_Apr_02_1702,
,,,,,,,,,,,,,,,,,,,,,,material/58.png,2,肤浅,material/158.png,2,material/58.png,浅薄,2,f,f,f,2,2,2,肤浅,,,,,,,,,0,22,22,137,,,,,,,,,,,,,,,,,moral_self_bias,20,18,59.7671615078,f,001,2018_Apr_02_1702,
,,,,,,,,,,,,,,,,,,,,,,material/15.png,1,纯洁,material/115.png,1,material/115.png,纯洁,1,f,f,f,1,1,1,清白,,,,,,,,,0,23,23,94,0,0,0,0,,,,,,,f,1,0.974037885666,j,1,0.558322906494,moral_self_bias,20,18,59.7671615078,f,001,2018_Apr_02_1702,
,,,,,,,,,,,,,,,,,,,,,,material/15.png,1,纯洁,material/115.png,1,material/115.png,纯洁,1,f,f,f,1,1,1,清白,,,,,,,,,0,23,23,94,,,,,,,,,,,,,,,,,moral_self_bias,20,18,59.7671615078,f,001,2018_Apr_02_1702,
,,,,,,,,,,,,,,,,,,,,,,material/73.png,2,恶心,material/177.png,2,material/177.png,恶心,2,f,f,f,1,1,1,残虐,,,,,,,,,0,24,24,156,,,,,,,,,,,j,0,2.19096517563,,,,moral_self_bias,20,18,59.7671615078,f,001,2018_Apr_02_1702,
,,,,,,,,,,,,,,,,,,,,,,material/22.png,1,才学,material/122.png,1,material/22.png,博学,1,f,f,f,2,2,2,才学,,,,,,,,,0,25,25,101,,,,,,,,,,,j,0,1.14162397385,,,,moral_self_bias,20,18,59.7671615078,f,001,2018_Apr_02_1702,
,,,,,,,,,,,,,,,,,,,,,,material/5.png,1,诚信,material/105.png,1,material/105.png,诚信,1,f,f,f,1,1,1,守信,,,,,,,,,0,26,26,84,,,,,,,,,,,j,0,0.824568986893,,,,moral_self_bias,20,18,59.7671615078,f,001,2018_Apr_02_1702,
,,,,,,,,,,,,,,,,,,,,,,material/33.png,2,贪污,material/133.png,2,material/133.png,贪污,2,f,f,f,1,1,1,腐败,,,,,,,,,0,27,27,112,,,,,,,,,,,j,0,0.875412940979,,,,moral_self_bias,20,18,59.7671615078,f,001,2018_Apr_02_1702,
,,,,,,,,,,,,,,,,,,,,,,material/16.png,1,睿智,material/116.png,1,material/16.png,机智,1,f,f,f,2,2,2,睿智,,,,,,,,,0,28,28,95,0,0,0,0,,,,,,,f,1,1.62456989288,j,1,1.64080405235,moral_self_bias,20,18,59.7671615078,f,001,2018_Apr_02_1702,
,,,,,,,,,,,,,,,,,,,,,,material/16.png,1,睿智,material/116.png,1,material/16.png,机智,1,f,f,f,2,2,2,睿智,,,,,,,,,0,28,28,95,,,,,,,,,,,,,,,,,moral_self_bias,20,18,59.7671615078,f,001,2018_Apr_02_1702,
,,,,,,,,,,,,,,,,,,,,,,material/11.png,1,高尚,material/111.png,1,material/111.png,高尚,1,f,f,f,1,1,1,高雅,,,,,,,,,0,29,29,90,0,0,0,0,,,,,,,f,1,1.04156398773,j,1,0.307803153992,moral_self_bias,20,18,59.7671615078,f,001,2018_Apr_02_1702,
,,,,,,,,,,,,,,,,,,,,,,material/11.png,1,高尚,material/111.png,1,material/111.png,高尚,1,f,f,f,1,1,1,高雅,,,,,,,,,0,29,29,90,,,,,,,,,,,,,,,,,moral_self_bias,20,18,59.7671615078,f,001,2018_Apr_02_1702,
,,,,,,,,,,,,,,,,,,,,,,material/29.png,1,好学,material/129.png,1,material/29.png,好问,1,f,f,f,2,2,2,好学,,,,,,,,,0,30,30,108,,,,,,,,,,,j,0,1.21689915657,,,,moral_self_bias,20,18,59.7671615078,f,001,2018_Apr_02_1702,
,,,,,,,,,,,,,,,,,,,,,,material/178.png,2,窝囊,material/82.png,2,material/82.png,窝囊,2,j,j,j,2,2,2,毛糙,,,,,,,,,0,31,31,78,,,,,,,,,,,j,1,1.40018987656,,,,moral_self_bias,20,18,59.7671615078,f,001,2018_Apr_02_1702,
,,,,,,,,,,,,,,,,,,,,,,material/183.png,2,颓废,material/182.png,2,material/79.png,才尽,2,f,f,f,2,2,2,薄弱,,,,,,,,,0,32,32,161,0,0,0,0,,,,,,,f,1,1.11561799049,j,1,0.825250148773,moral_self_bias,20,18,59.7671615078,f,001,2018_Apr_02_1702,
,,,,,,,,,,,,,,,,,,,,,,material/183.png,2,颓废,material/182.png,2,material/79.png,才尽,2,f,f,f,2,2,2,薄弱,,,,,,,,,0,32,32,161,,,,,,,,,,,,,,,,,moral_self_bias,20,18,59.7671615078,f,001,2018_Apr_02_1702,
,,,,,,,,,,,,,,,,,,,,,,material/119.png,1,机灵,material/19.png,1,material/119.png,灵活,1,j,j,j,2,2,2,机灵,,,,,,,,,0,33,33,18,0,0,0,0,,,,,,,f,0,0.84206199646,j,1,0.590398073196,moral_self_bias,20,18,59.7671615078,f,001,2018_Apr_02_1702,
,,,,,,,,,,,,,,,,,,,,,,material/119.png,1,机灵,material/19.png,1,material/119.png,灵活,1,j,j,j,2,2,2,机灵,,,,,,,,,0,33,33,18,,,,,,,,,,,,,,,,,moral_self_bias,20,18,59.7671615078,f,001,2018_Apr_02_1702,
,,,,,,,,,,,,,,,,,,,,,,material/28.png,1,克己,material/128.png,1,material/28.png,自律,1,f,f,f,2,2,2,克己,,,,,,,,,0,34,34,107,0,0,0,0,,,,,,,f,1,0.824448108673,j,1,0.291445970535,moral_self_bias,20,18,59.7671615078,f,001,2018_Apr_02_1702,
,,,,,,,,,,,,,,,,,,,,,,material/28.png,1,克己,material/128.png,1,material/28.png,自律,1,f,f,f,2,2,2,克己,,,,,,,,,0,34,34,107,,,,,,,,,,,,,,,,,moral_self_bias,20,18,59.7671615078,f,001,2018_Apr_02_1702,
,,,,,,,,,,,,,,,,,,,,,,material/42.png,2,奸诈,material/142.png,2,material/142.png,奸诈,2,f,f,f,1,1,1,阴险,,,,,,,,,0,35,35,121,,,,,,,,,,,j,0,0.841140031815,,,,moral_self_bias,20,18,59.7671615078,f,001,2018_Apr_02_1702,
,,,,,,,,,,,,,,,,,,,,,,material/137.png,2,无耻,material/37.png,2,material/37.png,无耻,2,j,j,j,1,1,1,卑鄙,,,,,,,,,0,36,36,36,,,,,,,,,,,j,1,0.774767160416,,,,moral_self_bias,20,18,59.7671615078,f,001,2018_Apr_02_1702,
,,,,,,,,,,,,,,,,,,,,,,material/172.png,2,无情,material/175.png,2,material/175.png,无情,2,f,f,f,1,1,1,浮夸,,,,,,,,,0,37,37,154,,,,,,,,,,,j,0,0.492336988449,,,,moral_self_bias,20,18,59.7671615078,f,001,2018_Apr_02_1702,
,,,,,,,,,,,,,,,,,,,,,,material/180.png,2,无助,material/79.png,2,material/81.png,颓废,2,j,j,j,2,2,2,怠惰,,,,,,,,,0,38,38,75,,,,,,,,,,,j,1,0.57519197464,,,,moral_self_bias,20,18,59.7671615078,f,001,2018_Apr_02_1702,
,,,,,,,,,,,,,,,,,,,,,,material/147.png,2,刻板,material/47.png,2,material/147.png,死板,2,j,j,j,2,2,2,刻板,,,,,,,,,0,39,39,46,,,,,,,,,,,j,1,0.558582782745,,,,moral_self_bias,20,18,59.7671615078,f,001,2018_Apr_02_1702,
,,,,,,,,,,,,,,,,,,,,,,material/107.png,1,公正,material/7.png,1,material/7.png,公正,1,j,j,j,1,1,1,公平,,,,,,,,,0,40,40,6,0,0,0,0,,,,,,,f,0,0.840794801712,j,1,0.624759912491,moral_self_bias,20,18,59.7671615078,f,001,2018_Apr_02_1702,
,,,,,,,,,,,,,,,,,,,,,,material/107.png,1,公正,material/7.png,1,material/7.png,公正,1,j,j,j,1,1,1,公平,,,,,,,,,0,40,40,6,,,,,,,,,,,,,,,,,moral_self_bias,20,18,59.7671615078,f,001,2018_Apr_02_1702,
,,,,,,,,,,,,,,,,,,,,,,material/2.png,1,爱心,material/102.png,1,material/102.png,爱心,1,f,f,f,1,1,1,善心,,,,,,,,,0,41,41,81,0,0,0,0,,,,,,,f,1,0.67386507988,f,0,1.16727089882,moral_self_bias,20,18,59.7671615078,f,001,2018_Apr_02_1702,
,,,,,,,,,,,,,,,,,,,,,,material/2.png,1,爱心,material/102.png,1,material/102.png,爱心,1,f,f,f,1,1,1,善心,,,,,,,,,0,41,41,81,,,,,,,,,,,,,,,,,moral_self_bias,20,18,59.7671615078,f,001,2018_Apr_02_1702,
,,,,,,,,,,,,,,,,,,,,,,material/154.png,2,依靠,material/54.png,2,material/154.png,依赖,2,j,j,j,2,2,2,依靠,,,,,,,,,0,42,42,53,0,0,0,0,,,,,,,f,0,0.925385951996,f,0,0.475835084915,moral_self_bias,20,18,59.7671615078,f,001,2018_Apr_02_1702,
,,,,,,,,,,,,,,,,,,,,,,material/154.png,2,依靠,material/54.png,2,material/154.png,依赖,2,j,j,j,2,2,2,依靠,,,,,,,,,0,42,42,53,,,,,,,,,,,,,,,,,moral_self_bias,20,18,59.7671615078,f,001,2018_Apr_02_1702,
,,,,,,,,,,,,,,,,,,,,,,material/173.png,2,不义,material/174.png,2,material/174.png,不义,2,f,f,f,1,1,1,黑心,,,,,,,,,0,43,43,153,,,,,,,,,,,j,0,1.15718817711,,,,moral_self_bias,20,18,59.7671615078,f,001,2018_Apr_02_1702,
,,,,,,,,,,,,,,,,,,,,,,material/9.png,1,正直,material/109.png,1,material/109.png,正直,1,f,f,f,1,1,1,秉直,,,,,,,,,0,44,44,88,,,,,,,,,,,j,0,0.35792183876,,,,moral_self_bias,20,18,59.7671615078,f,001,2018_Apr_02_1702,
,,,,,,,,,,,,,,,,,,,,,,material/161.png,1,奉献,material/164.png,1,material/64.png,孝顺,1,f,f,f,1,1,1,勇敢,,,,,,,,,0,45,45,143,,,,,,,,,,,j,0,1.17576909065,,,,moral_self_bias,20,18,59.7671615078,f,001,2018_Apr_02_1702,
,,,,,,,,,,,,,,,,,,,,,,material/169.png,1,颖悟,material/171.png,1,material/169.png,高效,1,f,f,f,2,2,2,颖悟,,,,,,,,,0,46,46,150,0,0,0,0,,,,,,,f,1,0.74129319191,j,1,1.30953598022,moral_self_bias,20,18,59.7671615078,f,001,2018_Apr_02_1702,
,,,,,,,,,,,,,,,,,,,,,,material/169.png,1,颖悟,material/171.png,1,material/169.png,高效,1,f,f,f,2,2,2,颖悟,,,,,,,,,0,46,46,150,,,,,,,,,,,,,,,,,moral_self_bias,20,18,59.7671615078,f,001,2018_Apr_02_1702,
,,,,,,,,,,,,,,,,,,,,,,material/82.png,2,毛糙,material/183.png,2,material/178.png,薄弱,2,f,f,f,2,2,2,窝囊,,,,,,,,,0,47,47,162,0,0,0,0,,,,,,,f,1,1.52378487587,f,0,0.3590528965,moral_self_bias,20,18,59.7671615078,f,001,2018_Apr_02_1702,
,,,,,,,,,,,,,,,,,,,,,,material/82.png,2,毛糙,material/183.png,2,material/178.png,薄弱,2,f,f,f,2,2,2,窝囊,,,,,,,,,0,47,47,162,,,,,,,,,,,,,,,,,moral_self_bias,20,18,59.7671615078,f,001,2018_Apr_02_1702,
,,,,,,,,,,,,,,,,,,,,,,material/110.png,1,顽强,material/10.png,1,material/10.png,顽强,1,j,j,j,1,1,1,坚毅,,,,,,,,,0,48,48,9,0,0,0,0,,,,,,,f,0,0.974410772324,j,1,0.558226108551,moral_self_bias,20,18,59.7671615078,f,001,2018_Apr_02_1702,
,,,,,,,,,,,,,,,,,,,,,,material/110.png,1,顽强,material/10.png,1,material/10.png,顽强,1,j,j,j,1,1,1,坚毅,,,,,,,,,0,48,48,9,,,,,,,,,,,,,,,,,moral_self_bias,20,18,59.7671615078,f,001,2018_Apr_02_1702,
,,,,,,,,,,,,,,,,,,,,,,material/72.png,2,软弱,material/77.png,2,material/77.png,软弱,2,j,j,j,1,1,1,谄媚,,,,,,,,,0,49,49,73,0,0,0,0,,,,,,,f,0,0.707770824432,f,0,0.757737159729,moral_self_bias,20,18,59.7671615078,f,001,2018_Apr_02_1702,
,,,,,,,,,,,,,,,,,,,,,,material/72.png,2,软弱,material/77.png,2,material/77.png,软弱,2,j,j,j,1,1,1,谄媚,,,,,,,,,0,49,49,73,,,,,,,,,,,,,,,,,moral_self_bias,20,18,59.7671615078,f,001,2018_Apr_02_1702,
,,,,,,,,,,,,,,,,,,,,,,material/71.png,1,严谨,material/68.png,1,material/71.png,广博,1,j,j,j,2,2,2,严谨,,,,,,,,,0,50,50,66,,,,,,,,,,,j,1,2.06720709801,,,,moral_self_bias,20,18,59.7671615078,f,001,2018_Apr_02_1702,
,,,,,,,,,,,,,,,,,,,,,,material/78.png,2,厌学,material/181.png,2,material/184.png,犹豫,2,f,f,f,2,2,2,草率,,,,,,,,,0,51,51,160,,,,,,,,,,,j,0,0.74156999588,,,,moral_self_bias,20,18,59.7671615078,f,001,2018_Apr_02_1702,
,,,,,,,,,,,,,,,,,,,,,,material/80.png,2,才尽,material/83.png,2,material/182.png,呆笨,2,j,j,j,2,2,2,健忘,,,,,,,,,0,52,52,79,0,0,0,0,,,,,,,f,0,0.808448791504,f,0,0.390938997269,moral_self_bias,20,18,59.7671615078,f,001,2018_Apr_02_1702,
,,,,,,,,,,,,,,,,,,,,,,material/80.png,2,才尽,material/83.png,2,material/182.png,呆笨,2,j,j,j,2,2,2,健忘,,,,,,,,,0,52,52,79,,,,,,,,,,,,,,,,,moral_self_bias,20,18,59.7671615078,f,001,2018_Apr_02_1702,
,,,,,,,,,,,,,,,,,,,,,,material/121.png,1,精干,material/21.png,1,material/121.png,干练,1,j,j,j,2,2,2,精干,,,,,,,,,0,53,53,20,0,0,0,0,,,,,,,f,0,0.973742961884,j,1,0.808450937271,moral_self_bias,20,18,59.7671615078,f,001,2018_Apr_02_1702,
,,,,,,,,,,,,,,,,,,,,,,material/121.png,1,精干,material/21.png,1,material/121.png,干练,1,j,j,j,2,2,2,精干,,,,,,,,,0,53,53,20,,,,,,,,,,,,,,,,,moral_self_bias,20,18,59.7671615078,f,001,2018_Apr_02_1702,
,,,,,,,,,,,,,,,,,,,,,,material/46.png,2,自私,material/146.png,2,material/146.png,自私,2,f,f,f,1,1,1,小气,,,,,,,,,0,54,54,125,0,0,0,0,,,,,,,f,1,0.824739933014,f,0,0.658352136612,moral_self_bias,20,18,59.7671615078,f,001,2018_Apr_02_1702,
,,,,,,,,,,,,,,,,,,,,,,material/46.png,2,自私,material/146.png,2,material/146.png,自私,2,f,f,f,1,1,1,小气,,,,,,,,,0,54,54,125,,,,,,,,,,,,,,,,,moral_self_bias,20,18,59.7671615078,f,001,2018_Apr_02_1702,
,,,,,,,,,,,,,,,,,,,,,,material/140.png,2,邪恶,material/40.png,2,material/40.png,邪恶,2,j,j,j,1,1,1,狠毒,,,,,,,,,0,55,55,39,0,0,0,0,,,,,,,f,0,0.574575901031,f,0,0.573433160782,moral_self_bias,20,18,59.7671615078,f,001,2018_Apr_02_1702,
,,,,,,,,,,,,,,,,,,,,,,material/140.png,2,邪恶,material/40.png,2,material/40.png,邪恶,2,j,j,j,1,1,1,狠毒,,,,,,,,,0,55,55,39,,,,,,,,,,,,,,,,,moral_self_bias,20,18,59.7671615078,f,001,2018_Apr_02_1702,
,,,,,,,,,,,,,,,,,,,,,,material/125.png,1,果敢,material/25.png,1,material/125.png,果断,1,j,j,j,2,2,2,果敢,,,,,,,,,0,56,56,24,0,0,0,0,,,,,,,f,0,1.24152684212,f,0,0.391291856766,moral_self_bias,20,18,59.7671615078,f,001,2018_Apr_02_1702,
,,,,,,,,,,,,,,,,,,,,,,material/125.png,1,果敢,material/25.png,1,material/125.png,果断,1,j,j,j,2,2,2,果敢,,,,,,,,,0,56,56,24,,,,,,,,,,,,,,,,,moral_self_bias,20,18,59.7671615078,f,001,2018_Apr_02_1702,
,,,,,,,,,,,,,,,,,,,,,,material/109.png,1,秉直,material/9.png,1,material/9.png,秉直,1,j,j,j,1,1,1,正直,,,,,,,,,0,57,57,8,0,0,0,0,,,,,,,f,0,1.04139113426,j,1,1.50919294357,moral_self_bias,20,18,59.7671615078,f,001,2018_Apr_02_1702,
,,,,,,,,,,,,,,,,,,,,,,material/109.png,1,秉直,material/9.png,1,material/9.png,秉直,1,j,j,j,1,1,1,正直,,,,,,,,,0,57,57,8,,,,,,,,,,,,,,,,,moral_self_bias,20,18,59.7671615078,f,001,2018_Apr_02_1702,
,,,,,,,,,,,,,,,,,,,,,,material/167.png,1,高手,material/169.png,1,material/167.png,颖悟,1,f,f,f,2,2,2,高手,,,,,,,,,0,58,58,148,0,0,0,0,,,,,,,f,1,1.12449884415,j,1,0.85647892952,moral_self_bias,20,18,59.7671615078,f,001,2018_Apr_02_1702,
,,,,,,,,,,,,,,,,,,,,,,material/167.png,1,高手,material/169.png,1,material/167.png,颖悟,1,f,f,f,2,2,2,高手,,,,,,,,,0,58,58,148,,,,,,,,,,,,,,,,,moral_self_bias,20,18,59.7671615078,f,001,2018_Apr_02_1702,
,,,,,,,,,,,,,,,,,,,,,,material/138.png,2,无德,material/38.png,2,material/38.png,无德,2,j,j,j,1,1,1,缺德,,,,,,,,,0,59,59,37,,,,,,,,,,,j,1,1.30799198151,,,,moral_self_bias,20,18,59.7671615078,f,001,2018_Apr_02_1702,
,,,,,,,,,,,,,,,,,,,,,,material/79.png,2,薄弱,material/81.png,2,material/183.png,无助,2,j,j,j,2,2,2,颓废,,,,,,,,,0,60,60,77,,,,,,,,,,,j,1,0.641598939896,,,,moral_self_bias,20,18,59.7671615078,f,001,2018_Apr_02_1702,
,,,,,,,,,,,,,,,,,,,,,,material/122.png,1,博学,material/22.png,1,material/122.png,才学,1,j,j,j,2,2,2,博学,,,,,,,,,0,61,61,21,0,0,0,0,,,,,,,f,0,2.24116492271,j,1,0.67568898201,moral_self_bias,20,18,59.7671615078,f,001,2018_Apr_02_1702,
,,,,,,,,,,,,,,,,,,,,,,material/122.png,1,博学,material/22.png,1,material/122.png,才学,1,j,j,j,2,2,2,博学,,,,,,,,,0,61,61,21,,,,,,,,,,,,,,,,,moral_self_bias,20,18,59.7671615078,f,001,2018_Apr_02_1702,
,,,,,,,,,,,,,,,,,,,,,,material/81.png,2,呆笨,material/179.png,2,material/83.png,差生,2,f,f,f,2,2,2,无助,,,,,,,,,0,62,62,158,,,,,,,,,,,j,0,1.27419495583,,,,moral_self_bias,20,18,59.7671615078,f,001,2018_Apr_02_1702,
,,,,,,,,,,,,,,,,,,,,,,material/103.png,1,仁慈,material/3.png,1,material/3.png,仁慈,1,j,j,j,1,1,1,仁厚,,,,,,,,,0,63,63,2,0,0,0,0,,,,,,,f,0,1.40070700645,j,1,1.25684380531,moral_self_bias,20,18,59.7671615078,f,001,2018_Apr_02_1702,
,,,,,,,,,,,,,,,,,,,,,,material/103.png,1,仁慈,material/3.png,1,material/3.png,仁慈,1,j,j,j,1,1,1,仁厚,,,,,,,,,0,63,63,2,,,,,,,,,,,,,,,,,moral_self_bias,20,18,59.7671615078,f,001,2018_Apr_02_1702,
,,,,,,,,,,,,,,,,,,,,,,material/24.png,1,理智,material/124.png,1,material/24.png,冷静,1,f,f,f,2,2,2,理智,,,,,,,,,0,64,64,103,0,0,0,0,,,,,,,f,1,0.840913057327,j,1,0.52557682991,moral_self_bias,20,18,59.7671615078,f,001,2018_Apr_02_1702,
,,,,,,,,,,,,,,,,,,,,,,material/24.png,1,理智,material/124.png,1,material/24.png,冷静,1,f,f,f,2,2,2,理智,,,,,,,,,0,64,64,103,,,,,,,,,,,,,,,,,moral_self_bias,20,18,59.7671615078,f,001,2018_Apr_02_1702,
,,,,,,,,,,,,,,,,,,,,,,material/111.png,1,高雅,material/11.png,1,material/11.png,高雅,1,j,j,j,1,1,1,高尚,,,,,,,,,0,65,65,10,0,0,0,0,,,,,,,f,0,2.07462096214,j,1,1.40905690193,moral_self_bias,20,18,59.7671615078,f,001,2018_Apr_02_1702,
,,,,,,,,,,,,,,,,,,,,,,material/111.png,1,高雅,material/11.png,1,material/11.png,高雅,1,j,j,j,1,1,1,高尚,,,,,,,,,0,65,65,10,,,,,,,,,,,,,,,,,moral_self_bias,20,18,59.7671615078,f,001,2018_Apr_02_1702,
,,,,,,,,,,,,,,,,,,,,,,material/144.png,2,失信,material/44.png,2,material/44.png,失信,2,j,j,j,1,1,1,爽约,,,,,,,,,0,66,66,43,,,,,,,,,,,j,1,1.10883593559,,,,moral_self_bias,20,18,59.7671615078,f,001,2018_Apr_02_1702,
,,,,,,,,,,,,,,,,,,,,,,material/131.png,1,笃行,material/31.png,1,material/131.png,笃学,1,j,j,j,2,2,2,笃行,,,,,,,,,0,67,67,30,,,,,,,,,,,j,1,0.574781894684,,,,moral_self_bias,20,18,59.7671615078,f,001,2018_Apr_02_1702,
,,,,,,,,,,,,,,,,,,,,,,material/57.png,2,无知,material/157.png,2,material/57.png,无能,2,f,f,f,2,2,2,无知,,,,,,,,,0,68,68,136,,,,,,,,,,,j,0,1.20822310448,,,,moral_self_bias,20,18,59.7671615078,f,001,2018_Apr_02_1702,
,,,,,,,,,,,,,,,,,,,,,,material/14.png,1,忠贞,material/114.png,1,material/114.png,忠贞,1,f,f,f,1,1,1,爱国,,,,,,,,,0,69,69,93,,,,,,,,,,,j,0,0.873608112335,,,,moral_self_bias,20,18,59.7671615078,f,001,2018_Apr_02_1702,
,,,,,,,,,,,,,,,,,,,,,,material/26.png,1,刻苦,material/126.png,1,material/26.png,勤快,1,f,f,f,2,2,2,刻苦,,,,,,,,,0,70,70,105,,,,,,,,,,,j,0,0.758209943771,,,,moral_self_bias,20,18,59.7671615078,f,001,2018_Apr_02_1702,
,,,,,,,,,,,,,,,,,,,,,,material/156.png,2,愚钝,material/56.png,2,material/156.png,愚昧,2,j,j,j,2,2,2,愚钝,,,,,,,,,0,71,71,55,,,,,,,,,,,j,1,0.606935024261,,,,moral_self_bias,20,18,59.7671615078,f,001,2018_Apr_02_1702,
,,,,,,,,,,,,,,,,,,,,,,material/127.png,1,超群,material/27.png,1,material/127.png,卓越,1,j,j,j,2,2,2,超群,,,,,,,,,0,72,72,26,,,,,,,,,,,j,1,1.15799403191,,,,moral_self_bias,20,18,59.7671615078,f,001,2018_Apr_02_1702,
,,,,,,,,,,,,,,,,,,,,,,material/84.png,2,犹豫,material/84.png,2,material/181.png,顽愚,2,f,f,f,2,2,2,顽愚,,,,,,,,,0,73,73,167,0,0,0,0,,,,,,,f,1,0.858199119568,f,0,0.7909719944,moral_self_bias,20,18,59.7671615078,f,001,2018_Apr_02_1702,
,,,,,,,,,,,,,,,,,,,,,,material/84.png,2,犹豫,material/84.png,2,material/181.png,顽愚,2,f,f,f,2,2,2,顽愚,,,,,,,,,0,73,73,167,,,,,,,,,,,,,,,,,moral_self_bias,20,18,59.7671615078,f,001,2018_Apr_02_1702,
,,,,,,,,,,,,,,,,,,,,,,material/56.png,2,愚昧,material/156.png,2,material/56.png,愚钝,2,f,f,f,2,2,2,愚昧,,,,,,,,,0,74,74,135,0,0,0,0,,,,,,,f,1,0.80858206749,f,0,0.325664043427,moral_self_bias,20,18,59.7671615078,f,001,2018_Apr_02_1702,
,,,,,,,,,,,,,,,,,,,,,,material/56.png,2,愚昧,material/156.png,2,material/56.png,愚钝,2,f,f,f,2,2,2,愚昧,,,,,,,,,0,74,74,135,,,,,,,,,,,,,,,,,moral_self_bias,20,18,59.7671615078,f,001,2018_Apr_02_1702,
,,,,,,,,,,,,,,,,,,,,,,material/65.png,1,勇敢,material/61.png,1,material/161.png,平等,1,j,j,j,1,1,1,谦虚,,,,,,,,,0,75,75,60,,,,,,,,,,,j,1,1.2082130909,,,,moral_self_bias,20,18,59.7671615078,f,001,2018_Apr_02_1702,
,,,,,,,,,,,,,,,,,,,,,,material/136.png,2,说谎,material/36.png,2,material/36.png,说谎,2,j,j,j,1,1,1,撒谎,,,,,,,,,0,76,76,35,,,,,,,,,,,j,1,0.806861877441,,,,moral_self_bias,20,18,59.7671615078,f,001,2018_Apr_02_1702,
,,,,,,,,,,,,,,,,,,,,,,material/55.png,2,盲从,material/155.png,2,material/55.png,盲目,2,f,f,f,2,2,2,盲从,,,,,,,,,0,77,77,134,0,0,0,0,,,,,,,f,1,1.00825500488,f,0,0.257337093353,moral_self_bias,20,18,59.7671615078,f,001,2018_Apr_02_1702,
,,,,,,,,,,,,,,,,,,,,,,material/55.png,2,盲从,material/155.png,2,material/55.png,盲目,2,f,f,f,2,2,2,盲从,,,,,,,,,0,77,77,134,,,,,,,,,,,,,,,,,moral_self_bias,20,18,59.7671615078,f,001,2018_Apr_02_1702,
,,,,,,,,,,,,,,,,,,,,,,material/27.png,1,卓越,material/127.png,1,material/27.png,超群,1,f,f,f,2,2,2,卓越,,,,,,,,,0,78,78,106,,,,,,,,,,,j,0,0.874675035477,,,,moral_self_bias,20,18,59.7671615078,f,001,2018_Apr_02_1702,
,,,,,,,,,,,,,,,,,,,,,,material/18.png,1,敏锐,material/118.png,1,material/18.png,机敏,1,f,f,f,2,2,2,敏锐,,,,,,,,,0,79,79,97,0,0,0,0,,,,,,,f,1,1.17532706261,f,0,0.241002082825,moral_self_bias,20,18,59.7671615078,f,001,2018_Apr_02_1702,
,,,,,,,,,,,,,,,,,,,,,,material/18.png,1,敏锐,material/118.png,1,material/18.png,机敏,1,f,f,f,2,2,2,敏锐,,,,,,,,,0,79,79,97,,,,,,,,,,,,,,,,,moral_self_bias,20,18,59.7671615078,f,001,2018_Apr_02_1702,
,,,,,,,,,,,,,,,,,,,,,,material/77.png,2,浮夸,material/172.png,2,material/172.png,浮夸,2,f,f,f,1,1,1,软弱,,,,,,,,,0,80,80,151,,,,,,,,,,,j,0,0.807294130325,,,,moral_self_bias,20,18,59.7671615078,f,001,2018_Apr_02_1702,
,,,,,,,,,,,,,,,,,,,,,,material/123.png,1,多才,material/23.png,1,material/123.png,有才,1,j,j,j,2,2,2,多才,,,,,,,,,0,81,81,22,0,0,0,0,,,,,,,f,0,0.916875123978,j,1,0.458012104034,moral_self_bias,20,18,59.7671615078,f,001,2018_Apr_02_1702,
,,,,,,,,,,,,,,,,,,,,,,material/123.png,1,多才,material/23.png,1,material/123.png,有才,1,j,j,j,2,2,2,多才,,,,,,,,,0,81,81,22,,,,,,,,,,,,,,,,,moral_self_bias,20,18,59.7671615078,f,001,2018_Apr_02_1702,
,,,,,,,,,,,,,,,,,,,,,,material/160.png,2,笨拙,material/60.png,2,material/160.png,粗拙,2,j,j,j,2,2,2,笨拙,,,,,,,,,0,82,82,59,0,0,0,0,,,,,,,f,0,0.691498041153,f,0,0.408674001694,moral_self_bias,20,18,59.7671615078,f,001,2018_Apr_02_1702,
,,,,,,,,,,,,,,,,,,,,,,material/160.png,2,笨拙,material/60.png,2,material/160.png,粗拙,2,j,j,j,2,2,2,笨拙,,,,,,,,,0,82,82,59,,,,,,,,,,,,,,,,,moral_self_bias,20,18,59.7671615078,f,001,2018_Apr_02_1702,
,,,,,,,,,,,,,,,,,,,,,,material/158.png,2,浅薄,material/58.png,2,material/158.png,肤浅,2,j,j,j,2,2,2,浅薄,,,,,,,,,0,83,83,57,0,0,0,0,,,,,,,f,0,0.607304811478,f,0,0.341331005096,moral_self_bias,20,18,59.7671615078,f,001,2018_Apr_02_1702,
,,,,,,,,,,,,,,,,,,,,,,material/158.png,2,浅薄,material/58.png,2,material/158.png,肤浅,2,j,j,j,2,2,2,浅薄,,,,,,,,,0,83,83,57,,,,,,,,,,,,,,,,,moral_self_bias,20,18,59.7671615078,f,001,2018_Apr_02_1702,
,,,,,,,,,,,,,,,,,,,,,,material/120.png,1,能干,material/20.png,1,material/120.png,厉害,1,j,j,j,2,2,2,能干,,,,,,,,,0,84,84,19,,,,,,,,,,,j,1,3.6416208744,,,,moral_self_bias,20,18,59.7671615078,f,001,2018_Apr_02_1702,
,,,,,,,,,,,,,,,,,,,,,,material/53.png,2,迟缓,material/153.png,2,material/53.png,迟钝,2,f,f,f,2,2,2,迟缓,,,,,,,,,0,85,85,132,0,0,0,0,,,,,,,f,1,2.80724000931,f,0,0.94108915329,moral_self_bias,20,18,59.7671615078,f,001,2018_Apr_02_1702,
,,,,,,,,,,,,,,,,,,,,,,material/53.png,2,迟缓,material/153.png,2,material/53.png,迟钝,2,f,f,f,2,2,2,迟缓,,,,,,,,,0,85,85,132,,,,,,,,,,,,,,,,,moral_self_bias,20,18,59.7671615078,f,001,2018_Apr_02_1702,
,,,,,,,,,,,,,,,,,,,,,,material/145.png,2,下流,material/45.png,2,material/45.png,下流,2,j,j,j,1,1,1,小人,,,,,,,,,0,86,86,44,,,,,,,,,,,j,1,3.64072585106,,,,moral_self_bias,20,18,59.7671615078,f,001,2018_Apr_02_1702,
,,,,,,,,,,,,,,,,,,,,,,material/75.png,2,卑劣,material/74.png,2,material/74.png,卑劣,2,j,j,j,1,1,1,害人,,,,,,,,,0,87,87,70,,,,,,,,,,,j,1,1.74148201942,,,,moral_self_bias,20,18,59.7671615078,f,001,2018_Apr_02_1702,
,,,,,,,,,,,,,,,,,,,,,,material/134.png,2,可恨,material/34.png,2,material/34.png,可恨,2,j,j,j,1,1,1,可恶,,,,,,,,,0,88,88,33,0,0,0,0,,,,,,,f,0,3.47436213493,f,0,0.858858108521,moral_self_bias,20,18,59.7671615078,f,001,2018_Apr_02_1702,
,,,,,,,,,,,,,,,,,,,,,,material/134.png,2,可恨,material/34.png,2,material/34.png,可恨,2,j,j,j,1,1,1,可恶,,,,,,,,,0,88,88,33,,,,,,,,,,,,,,,,,moral_self_bias,20,18,59.7671615078,f,001,2018_Apr_02_1702,
,,,,,,,,,,,,,,,,,,,,,,material/76.png,2,放纵,material/176.png,2,material/176.png,放纵,2,f,f,f,1,1,1,虚伪,,,,,,,,,0,89,89,155,,,,,,,,,,,j,0,1.55726885796,,,,moral_self_bias,20,18,59.7671615078,f,001,2018_Apr_02_1702,
,,,,,,,,,,,,,,,,,,,,,,material/126.png,1,勤快,material/26.png,1,material/126.png,刻苦,1,j,j,j,2,2,2,勤快,,,,,,,,,0,90,90,25,0,0,0,0,,,,,,,f,0,5.54079914093,j,1,1.57551693916,moral_self_bias,20,18,59.7671615078,f,001,2018_Apr_02_1702,
,,,,,,,,,,,,,,,,,,,,,,material/126.png,1,勤快,material/26.png,1,material/126.png,刻苦,1,j,j,j,2,2,2,勤快,,,,,,,,,0,90,90,25,,,,,,,,,,,,,,,,,moral_self_bias,20,18,59.7671615078,f,001,2018_Apr_02_1702,
,,,,,,,,,,,,,,,,,,,,,,material/12.png,1,忠心,material/112.png,1,material/112.png,忠心,1,f,f,f,1,1,1,忠诚,,,,,,,,,0,91,91,91,0,0,0,0,,,,,,,f,1,1.0580830574,j,1,0.358151912689,moral_self_bias,20,18,59.7671615078,f,001,2018_Apr_02_1702,
,,,,,,,,,,,,,,,,,,,,,,material/12.png,1,忠心,material/112.png,1,material/112.png,忠心,1,f,f,f,1,1,1,忠诚,,,,,,,,,0,91,91,91,,,,,,,,,,,,,,,,,moral_self_bias,20,18,59.7671615078,f,001,2018_Apr_02_1702,
,,,,,,,,,,,,,,,,,,,,,,material/39.png,2,恶毒,material/139.png,2,material/139.png,恶毒,2,f,f,f,1,1,1,凶残,,,,,,,,,0,92,92,118,,,,,,,,,,,j,0,0.824723005295,,,,moral_self_bias,20,18,59.7671615078,f,001,2018_Apr_02_1702,
,,,,,,,,,,,,,,,,,,,,,,material/25.png,1,果断,material/125.png,1,material/25.png,果敢,1,f,f,f,2,2,2,果断,,,,,,,,,0,93,93,104,0,0,0,0,,,,,,,f,1,4.02457308769,f,0,0.70857000351,moral_self_bias,20,18,59.7671615078,f,001,2018_Apr_02_1702,
,,,,,,,,,,,,,,,,,,,,,,material/25.png,1,果断,material/125.png,1,material/25.png,果敢,1,f,f,f,2,2,2,果断,,,,,,,,,0,93,93,104,,,,,,,,,,,,,,,,,moral_self_bias,20,18,59.7671615078,f,001,2018_Apr_02_1702,
,,,,,,,,,,,,,,,,,,,,,,material/184.png,2,草率,material/80.png,2,material/78.png,健忘,2,j,j,j,2,2,2,厌学,,,,,,,,,0,94,94,76,,,,,,,,,,,j,1,1.04124712944,,,,moral_self_bias,20,18,59.7671615078,f,001,2018_Apr_02_1702,
,,,,,,,,,,,,,,,,,,,,,,material/117.png,1,聪颖,material/17.png,1,material/117.png,聪明,1,j,j,j,2,2,2,聪颖,,,,,,,,,0,95,95,16,,,,,,,,,,,j,1,1.30699086189,,,,moral_self_bias,20,18,59.7671615078,f,001,2018_Apr_02_1702,
,,,,,,,,,,,,,,,,,,,,,,material/141.png,2,歹毒,material/41.png,2,material/41.png,歹毒,2,j,j,j,1,1,1,残忍,,,,,,,,,0,96,96,40,,,,,,,,,,,j,1,0.907339096069,,,,moral_self_bias,20,18,59.7671615078,f,001,2018_Apr_02_1702,
,,,,,,,,,,,,,,,,,,,,,,material/130.png,1,进取,material/30.png,1,material/130.png,上进,1,j,j,j,2,2,2,进取,,,,,,,,,0,97,97,29,,,,,,,,,,,j,1,1.5401968956,,,,moral_self_bias,20,18,59.7671615078,f,001,2018_Apr_02_1702,
,,,,,,,,,,,,,,,,,,,,,,material/164.png,1,宽容,material/63.png,1,material/163.png,文明,1,j,j,j,1,1,1,孝顺,,,,,,,,,0,98,98,62,0,0,0,0,,,,,,,f,0,1.05802893639,j,1,0.949312925339,moral_self_bias,20,18,59.7671615078,f,001,2018_Apr_02_1702,
,,,,,,,,,,,,,,,,,,,,,,material/164.png,1,宽容,material/63.png,1,material/163.png,文明,1,j,j,j,1,1,1,孝顺,,,,,,,,,0,98,98,62,,,,,,,,,,,,,,,,,moral_self_bias,20,18,59.7671615078,f,001,2018_Apr_02_1702,
,,,,,,,,,,,,,,,,,,,,,,material/113.png,1,廉洁,material/13.png,1,material/13.png,廉洁,1,j,j,j,1,1,1,廉明,,,,,,,,,0,99,99,12,0,0,0,0,,,,,,,f,0,2.008644104,j,1,0.840512037277,moral_self_bias,20,18,59.7671615078,f,001,2018_Apr_02_1702,
,,,,,,,,,,,,,,,,,,,,,,material/113.png,1,廉洁,material/13.png,1,material/13.png,廉洁,1,j,j,j,1,1,1,廉明,,,,,,,,,0,99,99,12,,,,,,,,,,,,,,,,,moral_self_bias,20,18,59.7671615078,f,001,2018_Apr_02_1702,
,,,,,,,,,,,,,,,,,,,,,,material/74.png,2,黑心,material/173.png,2,material/173.png,黑心,2,f,f,f,1,1,1,卑劣,,,,,,,,,0,100,100,152,,,,,,,,,,,j,0,0.940999031067,,,,moral_self_bias,20,18,59.7671615078,f,001,2018_Apr_02_1702,
,,,,,,,,,,,,,,,,,,,,,,material/66.png,1,独立,material/66.png,1,material/165.png,正义,1,f,f,f,1,1,1,正义,,,,,,,,,0,101,101,164,0,0,0,0,,,,,,,f,1,0.924586057663,f,0,0.473700046539,moral_self_bias,20,18,59.7671615078,f,001,2018_Apr_02_1702,
,,,,,,,,,,,,,,,,,,,,,,material/66.png,1,独立,material/66.png,1,material/165.png,正义,1,f,f,f,1,1,1,正义,,,,,,,,,0,101,101,164,,,,,,,,,,,,,,,,,moral_self_bias,20,18,59.7671615078,f,001,2018_Apr_02_1702,
,,,,,,,,,,,,,,,,,,,,,,material/153.png,2,迟钝,material/53.png,2,material/153.png,迟缓,2,j,j,j,2,2,2,迟钝,,,,,,,,,0,102,102,52,0,0,0,0,,,,,,,f,0,1.26622796059,f,0,0.383526086807,moral_self_bias,20,18,59.7671615078,f,001,2018_Apr_02_1702,
,,,,,,,,,,,,,,,,,,,,,,material/153.png,2,迟钝,material/53.png,2,material/153.png,迟缓,2,j,j,j,2,2,2,迟钝,,,,,,,,,0,102,102,52,,,,,,,,,,,,,,,,,moral_self_bias,20,18,59.7671615078,f,001,2018_Apr_02_1702,
,,,,,,,,,,,,,,,,,,,,,,material/62.png,1,坚韧,material/162.png,1,material/62.png,敬业,1,f,f,f,1,1,1,坚韧,,,,,,,,,0,103,103,141,,,,,,,,,,,j,0,0.741044044495,,,,moral_self_bias,20,18,59.7671615078,f,001,2018_Apr_02_1702,
,,,,,,,,,,,,,,,,,,,,,,material/175.png,2,残虐,material/73.png,2,material/73.png,残虐,2,f,f,f,1,1,1,无情,,,,,,,,,0,104,104,165,0,0,0,0,,,,,,,f,1,0.757791042328,f,0,0.340885877609,moral_self_bias,20,18,59.7671615078,f,001,2018_Apr_02_1702,
,,,,,,,,,,,,,,,,,,,,,,material/175.png,2,残虐,material/73.png,2,material/73.png,残虐,2,f,f,f,1,1,1,无情,,,,,,,,,0,104,104,165,,,,,,,,,,,,,,,,,moral_self_bias,20,18,59.7671615078,f,001,2018_Apr_02_1702,
,,,,,,,,,,,,,,,,,,,,,,material/64.png,1,谦虚,material/165.png,1,material/65.png,独立,1,f,f,f,1,1,1,奉献,,,,,,,,,0,105,105,144,0,0,0,0,,,,,,,f,1,1.7745039463,f,0,0.341666221619,moral_self_bias,20,18,59.7671615078,f,001,2018_Apr_02_1702,
,,,,,,,,,,,,,,,,,,,,,,material/64.png,1,谦虚,material/165.png,1,material/65.png,独立,1,f,f,f,1,1,1,奉献,,,,,,,,,0,105,105,144,,,,,,,,,,,,,,,,,moral_self_bias,20,18,59.7671615078,f,001,2018_Apr_02_1702,
,,,,,,,,,,,,,,,,,,,,,,material/166.png,1,孝顺,material/64.png,1,material/164.png,奉献,1,j,j,j,1,1,1,仗义,,,,,,,,,0,106,106,63,,,,,,,,,,,j,1,2.17332696915,,,,moral_self_bias,20,18,59.7671615078,f,001,2018_Apr_02_1702,
,,,,,,,,,,,,,,,,,,,,,,material/152.png,2,缓慢,material/52.png,2,material/152.png,拖延,2,j,j,j,2,2,2,缓慢,,,,,,,,,0,107,107,51,0,0,0,0,,,,,,,f,0,0.824239015579,f,0,0.340861082077,moral_self_bias,20,18,59.7671615078,f,001,2018_Apr_02_1702,
,,,,,,,,,,,,,,,,,,,,,,material/152.png,2,缓慢,material/52.png,2,material/152.png,拖延,2,j,j,j,2,2,2,缓慢,,,,,,,,,0,107,107,51,,,,,,,,,,,,,,,,,moral_self_bias,20,18,59.7671615078,f,001,2018_Apr_02_1702,
,,,,,,,,,,,,,,,,,,,,,,material/177.png,2,谄媚,material/72.png,2,material/72.png,谄媚,2,j,j,j,1,1,1,恶心,,,,,,,,,0,108,108,69,,,,,,,,,,,j,1,1.14108395576,,,,moral_self_bias,20,18,59.7671615078,f,001,2018_Apr_02_1702,
,,,,,,,,,,,,,,,,,,,,,,material/8.png,1,无私,material/108.png,1,material/108.png,无私,1,f,f,f,1,1,1,公道,,,,,,,,,0,109,109,87,0,0,0,0,,,,,,,f,1,1.53324890137,j,1,0.441118955612,moral_self_bias,20,18,59.7671615078,f,001,2018_Apr_02_1702,
,,,,,,,,,,,,,,,,,,,,,,material/8.png,1,无私,material/108.png,1,material/108.png,无私,1,f,f,f,1,1,1,公道,,,,,,,,,0,109,109,87,,,,,,,,,,,,,,,,,moral_self_bias,20,18,59.7671615078,f,001,2018_Apr_02_1702,
,,,,,,,,,,,,,,,,,,,,,,material/176.png,2,害人,material/75.png,2,material/75.png,害人,2,j,j,j,1,1,1,放纵,,,,,,,,,0,110,110,71,,,,,,,,,,,j,1,1.25803995132,,,,moral_self_bias,20,18,59.7671615078,f,001,2018_Apr_02_1702,
,,,,,,,,,,,,,,,,,,,,,,material/20.png,1,厉害,material/120.png,1,material/20.png,能干,1,f,f,f,2,2,2,厉害,,,,,,,,,0,111,111,99,0,0,0,0,,,,,,,f,1,0.991353988647,j,1,0.657851934433,moral_self_bias,20,18,59.7671615078,f,001,2018_Apr_02_1702,
,,,,,,,,,,,,,,,,,,,,,,material/20.png,1,厉害,material/120.png,1,material/20.png,能干,1,f,f,f,2,2,2,厉害,,,,,,,,,0,111,111,99,,,,,,,,,,,,,,,,,moral_self_bias,20,18,59.7671615078,f,001,2018_Apr_02_1702,
,,,,,,,,,,,,,,,,,,,,,,material/171.png,1,高效,material/67.png,1,material/171.png,骁勇,1,j,j,j,2,2,2,高效,,,,,,,,,0,112,112,65,,,,,,,,,,,j,1,1.33320403099,,,,moral_self_bias,20,18,59.7671615078,f,001,2018_Apr_02_1702,
,,,,,,,,,,,,,,,,,,,,,,material/105.png,1,守信,material/5.png,1,material/5.png,守信,1,j,j,j,1,1,1,诚信,,,,,,,,,0,113,113,4,0,0,0,0,,,,,,,f,0,4.14156794548,j,1,0.374740123749,moral_self_bias,20,18,59.7671615078,f,001,2018_Apr_02_1702,
,,,,,,,,,,,,,,,,,,,,,,material/105.png,1,守信,material/5.png,1,material/5.png,守信,1,j,j,j,1,1,1,诚信,,,,,,,,,0,113,113,4,,,,,,,,,,,,,,,,,moral_self_bias,20,18,59.7671615078,f,001,2018_Apr_02_1702,
,,,,,,,,,,,,,,,,,,,,,,material/44.png,2,爽约,material/144.png,2,material/144.png,爽约,2,f,f,f,1,1,1,失信,,,,,,,,,0,114,114,123,,,,,,,,,,,j,0,1.20756912231,,,,moral_self_bias,20,18,59.7671615078,f,001,2018_Apr_02_1702,
,,,,,,,,,,,,,,,,,,,,,,material/179.png,2,顽愚,material/178.png,2,material/84.png,毛糙,2,f,f,f,2,2,2,差生,,,,,,,,,0,115,115,157,,,,,,,,,,,j,0,0.674949884415,,,,moral_self_bias,20,18,59.7671615078,f,001,2018_Apr_02_1702,
,,,,,,,,,,,,,,,,,,,,,,material/34.png,2,可恶,material/134.png,2,material/134.png,可恶,2,f,f,f,1,1,1,可恨,,,,,,,,,0,116,116,113,,,,,,,,,,,j,0,1.32511901855,,,,moral_self_bias,20,18,59.7671615078,f,001,2018_Apr_02_1702,
,,,,,,,,,,,,,,,,,,,,,,material/129.png,1,好问,material/29.png,1,material/129.png,好学,1,j,j,j,2,2,2,好问,,,,,,,,,0,117,117,28,0,0,0,0,,,,,,,f,0,1.72446107864,f,0,1.46679711342,moral_self_bias,20,18,59.7671615078,f,001,2018_Apr_02_1702,
,,,,,,,,,,,,,,,,,,,,,,material/129.png,1,好问,material/29.png,1,material/129.png,好学,1,j,j,j,2,2,2,好问,,,,,,,,,0,117,117,28,,,,,,,,,,,,,,,,,moral_self_bias,20,18,59.7671615078,f,001,2018_Apr_02_1702,
,,,,,,,,,,,,,,,,,,,,,,material/163.png,1,文明,material/163.png,1,material/63.png,宽容,1,f,f,f,1,1,1,宽容,,,,,,,,,0,118,118,142,0,0,0,0,,,,,,,f,1,2.45832395554,j,1,0.308845996857,moral_self_bias,20,18,59.7671615078,f,001,2018_Apr_02_1702,
,,,,,,,,,,,,,,,,,,,,,,material/163.png,1,文明,material/163.png,1,material/63.png,宽容,1,f,f,f,1,1,1,宽容,,,,,,,,,0,118,118,142,,,,,,,,,,,,,,,,,moral_self_bias,20,18,59.7671615078,f,001,2018_Apr_02_1702,
,,,,,,,,,,,,,,,,,,,,,,material/115.png,1,清白,material/15.png,1,material/15.png,清白,1,j,j,j,1,1,1,纯洁,,,,,,,,,0,119,119,14,,,,,,,,,,,j,1,1.2579729557,,,,moral_self_bias,20,18,59.7671615078,f,001,2018_Apr_02_1702,
,,,,,,,,,,,,,,,,,,,,,,material/37.png,2,卑鄙,material/137.png,2,material/137.png,卑鄙,2,f,f,f,1,1,1,无耻,,,,,,,,,0,120,120,116,,,,,,,,,,,j,0,0.89117193222,,,,moral_self_bias,20,18,59.7671615078,f,001,2018_Apr_02_1702,
,,,,,,,,,,,,,,,,,,,,,,material/128.png,1,自律,material/28.png,1,material/128.png,克己,1,j,j,j,2,2,2,自律,,,,,,,,,0,121,121,27,0,0,0,0,,,,,,,f,0,1.09196400642,f,0,1.39171004295,moral_self_bias,20,18,59.7671615078,f,001,2018_Apr_02_1702,
,,,,,,,,,,,,,,,,,,,,,,material/128.png,1,自律,material/28.png,1,material/128.png,克己,1,j,j,j,2,2,2,自律,,,,,,,,,0,121,121,27,,,,,,,,,,,,,,,,,moral_self_bias,20,18,59.7671615078,f,001,2018_Apr_02_1702,
,,,,,,,,,,,,,,,,,,,,,,material/63.png,1,正义,material/166.png,1,material/66.png,仗义,1,f,f,f,1,1,1,文明,,,,,,,,,0,122,122,145,0,0,0,0,,,,,,,f,1,1.82552790642,j,1,2.00815796852,moral_self_bias,20,18,59.7671615078,f,001,2018_Apr_02_1702,
,,,,,,,,,,,,,,,,,,,,,,material/63.png,1,正义,material/166.png,1,material/66.png,仗义,1,f,f,f,1,1,1,文明,,,,,,,,,0,122,122,145,,,,,,,,,,,,,,,,,moral_self_bias,20,18,59.7671615078,f,001,2018_Apr_02_1702,
,,,,,,,,,,,,,,,,,,,,,,material/23.png,1,有才,material/123.png,1,material/23.png,多才,1,f,f,f,2,2,2,有才,,,,,,,,,0,123,123,102,0,0,0,0,,,,,,,f,1,1.60791802406,j,1,1.05827903748,moral_self_bias,20,18,59.7671615078,f,001,2018_Apr_02_1702,
,,,,,,,,,,,,,,,,,,,,,,material/23.png,1,有才,material/123.png,1,material/23.png,多才,1,f,f,f,2,2,2,有才,,,,,,,,,0,123,123,102,,,,,,,,,,,,,,,,,moral_self_bias,20,18,59.7671615078,f,001,2018_Apr_02_1702,
,,,,,,,,,,,,,,,,,,,,,,material/45.png,2,小人,material/145.png,2,material/145.png,小人,2,f,f,f,1,1,1,下流,,,,,,,,,0,124,124,124,,,,,,,,,,,j,0,0.816928863525,,,,moral_self_bias,20,18,59.7671615078,f,001,2018_Apr_02_1702,
,,,,,,,,,,,,,,,,,,,,,,material/6.png,1,厚道,material/106.png,1,material/106.png,厚道,1,f,f,f,1,1,1,诚实,,,,,,,,,0,125,125,85,0,0,0,0,,,,,,,f,1,3.94053912163,j,1,1.45851707458,moral_self_bias,20,18,59.7671615078,f,001,2018_Apr_02_1702,
,,,,,,,,,,,,,,,,,,,,,,material/6.png,1,厚道,material/106.png,1,material/106.png,厚道,1,f,f,f,1,1,1,诚实,,,,,,,,,0,125,125,85,,,,,,,,,,,,,,,,,moral_self_bias,20,18,59.7671615078,f,001,2018_Apr_02_1702,
,,,,,,,,,,,,,,,,,,,,,,material/54.png,2,依赖,material/154.png,2,material/54.png,依靠,2,f,f,f,2,2,2,依赖,,,,,,,,,0,126,126,133,0,0,0,0,,,,,,,f,1,0.774662971497,j,1,0.323610067368,moral_self_bias,20,18,59.7671615078,f,001,2018_Apr_02_1702,
,,,,,,,,,,,,,,,,,,,,,,material/54.png,2,依赖,material/154.png,2,material/54.png,依靠,2,f,f,f,2,2,2,依赖,,,,,,,,,0,126,126,133,,,,,,,,,,,,,,,,,moral_self_bias,20,18,59.7671615078,f,001,2018_Apr_02_1702,
,,,,,,,,,,,,,,,,,,,,,,material/132.png,2,不忠,material/32.png,2,material/32.png,不忠,2,j,j,j,1,1,1,背叛,,,,,,,,,0,127,127,31,,,,,,,,,,,j,1,0.941427946091,,,,moral_self_bias,20,18,59.7671615078,f,001,2018_Apr_02_1702,
,,,,,,,,,,,,,,,,,,,,,,material/30.png,1,上进,material/130.png,1,material/30.png,进取,1,f,f,f,2,2,2,上进,,,,,,,,,0,128,128,109,0,0,0,0,,,,,,,f,1,1.20882201195,f,0,0.825230836868,moral_self_bias,20,18,59.7671615078,f,001,2018_Apr_02_1702,
,,,,,,,,,,,,,,,,,,,,,,material/30.png,1,上进,material/130.png,1,material/30.png,进取,1,f,f,f,2,2,2,上进,,,,,,,,,0,128,128,109,,,,,,,,,,,,,,,,,moral_self_bias,20,18,59.7671615078,f,001,2018_Apr_02_1702,
,,,,,,,,,,,,,,,,,,,,,,material/106.png,1,诚实,material/6.png,1,material/6.png,诚实,1,j,j,j,1,1,1,厚道,,,,,,,,,0,129,129,5,0,0,0,0,,,,,,,f,0,2.20718693733,f,0,0.374331951141,moral_self_bias,20,18,59.7671615078,f,001,2018_Apr_02_1702,
,,,,,,,,,,,,,,,,,,,,,,material/106.png,1,诚实,material/6.png,1,material/6.png,诚实,1,j,j,j,1,1,1,厚道,,,,,,,,,0,129,129,5,,,,,,,,,,,,,,,,,moral_self_bias,20,18,59.7671615078,f,001,2018_Apr_02_1702,
,,,,,,,,,,,,,,,,,,,,,,material/52.png,2,拖延,material/152.png,2,material/52.png,缓慢,2,f,f,f,2,2,2,拖延,,,,,,,,,0,130,130,131,0,0,0,0,,,,,,,f,1,0.750102043152,f,0,0.900154829025,moral_self_bias,20,18,59.7671615078,f,001,2018_Apr_02_1702,
,,,,,,,,,,,,,,,,,,,,,,material/52.png,2,拖延,material/152.png,2,material/52.png,缓慢,2,f,f,f,2,2,2,拖延,,,,,,,,,0,130,130,131,,,,,,,,,,,,,,,,,moral_self_bias,20,18,59.7671615078,f,001,2018_Apr_02_1702,
,,,,,,,,,,,,,,,,,,,,,,material/114.png,1,爱国,material/14.png,1,material/14.png,爱国,1,j,j,j,1,1,1,忠贞,,,,,,,,,0,131,131,13,0,0,0,0,,,,,,,f,0,2.05836606026,j,1,0.550099849701,moral_self_bias,20,18,59.7671615078,f,001,2018_Apr_02_1702,
,,,,,,,,,,,,,,,,,,,,,,material/114.png,1,爱国,material/14.png,1,material/14.png,爱国,1,j,j,j,1,1,1,忠贞,,,,,,,,,0,131,131,13,,,,,,,,,,,,,,,,,moral_self_bias,20,18,59.7671615078,f,001,2018_Apr_02_1702,
,,,,,,,,,,,,,,,,,,,,,,material/143.png,2,拜金,material/43.png,2,material/43.png,拜金,2,j,j,j,1,1,1,虚荣,,,,,,,,,0,132,132,42,0,0,0,0,,,,,,,f,0,1.09066319466,j,1,0.425818920135,moral_self_bias,20,18,59.7671615078,f,001,2018_Apr_02_1702,
,,,,,,,,,,,,,,,,,,,,,,material/143.png,2,拜金,material/43.png,2,material/43.png,拜金,2,j,j,j,1,1,1,虚荣,,,,,,,,,0,132,132,42,,,,,,,,,,,,,,,,,moral_self_bias,20,18,59.7671615078,f,001,2018_Apr_02_1702,
,,,,,,,,,,,,,,,,,,,,,,material/4.png,1,友善,material/104.png,1,material/104.png,友善,1,f,f,f,1,1,1,友爱,,,,,,,,,0,133,133,83,,,,,,,,,,,j,0,0.224602937698,,,,moral_self_bias,20,18,59.7671615078,f,001,2018_Apr_02_1702,
,,,,,,,,,,,,,,,,,,,,,,material/135.png,2,冷漠,material/35.png,2,material/35.png,冷漠,2,j,j,j,1,1,1,冷血,,,,,,,,,0,134,134,34,,,,,,,,,,,j,1,2.09201693535,,,,moral_self_bias,20,18,59.7671615078,f,001,2018_Apr_02_1702,
,,,,,,,,,,,,,,,,,,,,,,material/148.png,2,笨蛋,material/48.png,2,material/148.png,愚蠢,2,j,j,j,2,2,2,笨蛋,,,,,,,,,0,135,135,47,0,0,0,0,,,,,,,f,0,0.824135780334,f,0,0.358389854431,moral_self_bias,20,18,59.7671615078,f,001,2018_Apr_02_1702,
,,,,,,,,,,,,,,,,,,,,,,material/148.png,2,笨蛋,material/48.png,2,material/148.png,愚蠢,2,j,j,j,2,2,2,笨蛋,,,,,,,,,0,135,135,47,,,,,,,,,,,,,,,,,moral_self_bias,20,18,59.7671615078,f,001,2018_Apr_02_1702,
,,,,,,,,,,,,,,,,,,,,,,material/50.png,2,愚笨,material/150.png,2,material/50.png,鲁钝,2,f,f,f,2,2,2,愚笨,,,,,,,,,0,136,136,129,0,0,0,0,,,,,,,f,1,0.8238260746,f,0,0.300945997238,moral_self_bias,20,18,59.7671615078,f,001,2018_Apr_02_1702,
,,,,,,,,,,,,,,,,,,,,,,material/50.png,2,愚笨,material/150.png,2,material/50.png,鲁钝,2,f,f,f,2,2,2,愚笨,,,,,,,,,0,136,136,129,,,,,,,,,,,,,,,,,moral_self_bias,20,18,59.7671615078,f,001,2018_Apr_02_1702,
,,,,,,,,,,,,,,,,,,,,,,material/146.png,2,小气,material/46.png,2,material/46.png,小气,2,j,j,j,1,1,1,自私,,,,,,,,,0,137,137,45,0,0,0,0,,,,,,,f,0,0.791450023651,f,0,0.324203968048,moral_self_bias,20,18,59.7671615078,f,001,2018_Apr_02_1702,
,,,,,,,,,,,,,,,,,,,,,,material/146.png,2,小气,material/46.png,2,material/46.png,小气,2,j,j,j,1,1,1,自私,,,,,,,,,0,137,137,45,,,,,,,,,,,,,,,,,moral_self_bias,20,18,59.7671615078,f,001,2018_Apr_02_1702,
,,,,,,,,,,,,,,,,,,,,,,material/51.png,2,糊涂,material/151.png,2,material/51.png,迷糊,2,f,f,f,2,2,2,糊涂,,,,,,,,,0,138,138,130,0,0,0,0,,,,,,,f,1,0.984134912491,f,0,0.458133935928,moral_self_bias,20,18,59.7671615078,f,001,2018_Apr_02_1702,
,,,,,,,,,,,,,,,,,,,,,,material/51.png,2,糊涂,material/151.png,2,material/51.png,迷糊,2,f,f,f,2,2,2,糊涂,,,,,,,,,0,138,138,130,,,,,,,,,,,,,,,,,moral_self_bias,20,18,59.7671615078,f,001,2018_Apr_02_1702,
,,,,,,,,,,,,,,,,,,,,,,material/13.png,1,廉明,material/113.png,1,material/113.png,廉明,1,f,f,f,1,1,1,廉洁,,,,,,,,,0,139,139,92,,,,,,,,,,,j,0,1.27472186089,,,,moral_self_bias,20,18,59.7671615078,f,001,2018_Apr_02_1702,
,,,,,,,,,,,,,,,,,,,,,,material/108.png,1,公道,material/8.png,1,material/8.png,公道,1,j,j,j,1,1,1,无私,,,,,,,,,0,140,140,7,0,0,0,0,,,,,,,f,0,1.67461395264,j,1,0.958019018173,moral_self_bias,20,18,59.7671615078,f,001,2018_Apr_02_1702,
,,,,,,,,,,,,,,,,,,,,,,material/108.png,1,公道,material/8.png,1,material/8.png,公道,1,j,j,j,1,1,1,无私,,,,,,,,,0,140,140,7,,,,,,,,,,,,,,,,,moral_self_bias,20,18,59.7671615078,f,001,2018_Apr_02_1702,
,,,,,,,,,,,,,,,,,,,,,,material/155.png,2,盲目,material/55.png,2,material/155.png,盲从,2,j,j,j,2,2,2,盲目,,,,,,,,,0,141,141,54,0,0,0,0,,,,,,,f,0,1.15767383575,f,0,0.30831694603,moral_self_bias,20,18,59.7671615078,f,001,2018_Apr_02_1702,
,,,,,,,,,,,,,,,,,,,,,,material/155.png,2,盲目,material/55.png,2,material/155.png,盲从,2,j,j,j,2,2,2,盲目,,,,,,,,,0,141,141,54,,,,,,,,,,,,,,,,,moral_self_bias,20,18,59.7671615078,f,001,2018_Apr_02_1702,
,,,,,,,,,,,,,,,,,,,,,,material/151.png,2,迷糊,material/51.png,2,material/151.png,糊涂,2,j,j,j,2,2,2,迷糊,,,,,,,,,0,142,142,50,0,0,0,0,,,,,,,f,0,1.35749387741,f,0,0.241590976715,moral_self_bias,20,18,59.7671615078,f,001,2018_Apr_02_1702,
,,,,,,,,,,,,,,,,,,,,,,material/151.png,2,迷糊,material/51.png,2,material/151.png,糊涂,2,j,j,j,2,2,2,迷糊,,,,,,,,,0,142,142,50,,,,,,,,,,,,,,,,,moral_self_bias,20,18,59.7671615078,f,001,2018_Apr_02_1702,
,,,,,,,,,,,,,,,,,,,,,,material/133.png,2,腐败,material/33.png,2,material/33.png,腐败,2,j,j,j,1,1,1,贪污,,,,,,,,,0,143,143,32,,,,,,,,,,,j,1,1.03410601616,,,,moral_self_bias,20,18,59.7671615078,f,001,2018_Apr_02_1702,
,,,,,,,,,,,,,,,,,,,,,,material/40.png,2,狠毒,material/140.png,2,material/140.png,狠毒,2,f,f,f,1,1,1,邪恶,,,,,,,,,0,144,144,119,,,,,,,,,,,j,0,1.02406811714,,,,moral_self_bias,20,18,59.7671615078,f,001,2018_Apr_02_1702,
,,,,,,,,,,,,,,,,,,,,,,material/17.png,1,聪明,material/117.png,1,material/17.png,聪颖,1,f,f,f,2,2,2,聪明,,,,,,,,,0,145,145,96,,,,,,,,,,,j,0,0.874521970749,,,,moral_self_bias,20,18,59.7671615078,f,001,2018_Apr_02_1702,
,,,,,,,,,,,,,,,,,,,,,,material/165.png,1,平等,material/161.png,1,material/61.png,勇敢,1,f,f,f,1,1,1,独立,,,,,,,,,0,146,146,140,,,,,,,,,,,j,0,1.84063792229,,,,moral_self_bias,20,18,59.7671615078,f,001,2018_Apr_02_1702,
,,,,,,,,,,,,,,,,,,,,,,material/112.png,1,忠诚,material/12.png,1,material/12.png,忠诚,1,j,j,j,1,1,1,忠心,,,,,,,,,0,147,147,11,0,0,0,0,,,,,,,f,0,1.20854997635,f,0,0.525105953217,moral_self_bias,20,18,59.7671615078,f,001,2018_Apr_02_1702,
,,,,,,,,,,,,,,,,,,,,,,material/112.png,1,忠诚,material/12.png,1,material/12.png,忠诚,1,j,j,j,1,1,1,忠心,,,,,,,,,0,147,147,11,,,,,,,,,,,,,,,,,moral_self_bias,20,18,59.7671615078,f,001,2018_Apr_02_1702,
,,,,,,,,,,,,,,,,,,,,,,material/38.png,2,缺德,material/138.png,2,material/138.png,缺德,2,f,f,f,1,1,1,无德,,,,,,,,,0,148,148,117,0,0,0,0,,,,,,,f,1,0.892168998718,f,0,0.307900905609,moral_self_bias,20,18,59.7671615078,f,001,2018_Apr_02_1702,
,,,,,,,,,,,,,,,,,,,,,,material/38.png,2,缺德,material/138.png,2,material/138.png,缺德,2,f,f,f,1,1,1,无德,,,,,,,,,0,148,148,117,,,,,,,,,,,,,,,,,moral_self_bias,20,18,59.7671615078,f,001,2018_Apr_02_1702,
,,,,,,,,,,,,,,,,,,,,,,material/41.png,2,残忍,material/141.png,2,material/141.png,残忍,2,f,f,f,1,1,1,歹毒,,,,,,,,,0,149,149,120,0,0,0,0,,,,,,,f,1,0.707696914673,f,0,0.241695165634,moral_self_bias,20,18,59.7671615078,f,001,2018_Apr_02_1702,
,,,,,,,,,,,,,,,,,,,,,,material/41.png,2,残忍,material/141.png,2,material/141.png,残忍,2,f,f,f,1,1,1,歹毒,,,,,,,,,0,149,149,120,,,,,,,,,,,,,,,,,moral_self_bias,20,18,59.7671615078,f,001,2018_Apr_02_1702,
,,,,,,,,,,,,,,,,,,,,,,material/182.png,2,健忘,material/184.png,2,material/80.png,厌学,2,f,f,f,2,2,2,才尽,,,,,,,,,0,150,150,163,,,,,,,,,,,j,0,1.14127206802,,,,moral_self_bias,20,18,59.7671615078,f,001,2018_Apr_02_1702,
,,,,,,,,,,,,,,,,,,,,,,material/83.png,2,差生,material/78.png,2,material/179.png,草率,2,j,j,j,2,2,2,呆笨,,,,,,,,,0,151,151,74,0,0,0,0,,,,,,,f,0,2.00761795044,f,0,0.616590023041,moral_self_bias,20,18,59.7671615078,f,001,2018_Apr_02_1702,
,,,,,,,,,,,,,,,,,,,,,,material/83.png,2,差生,material/78.png,2,material/179.png,草率,2,j,j,j,2,2,2,呆笨,,,,,,,,,0,151,151,74,,,,,,,,,,,,,,,,,moral_self_bias,20,18,59.7671615078,f,001,2018_Apr_02_1702,
,,,,,,,,,,,,,,,,,,,,,,material/47.png,2,死板,material/147.png,2,material/47.png,刻板,2,f,f,f,2,2,2,死板,,,,,,,,,0,152,152,126,0,0,0,0,,,,,,,f,1,0.74128818512,f,0,0.2414021492,moral_self_bias,20,18,59.7671615078,f,001,2018_Apr_02_1702,
,,,,,,,,,,,,,,,,,,,,,,material/47.png,2,死板,material/147.png,2,material/47.png,刻板,2,f,f,f,2,2,2,死板,,,,,,,,,0,152,152,126,,,,,,,,,,,,,,,,,moral_self_bias,20,18,59.7671615078,f,001,2018_Apr_02_1702,
,,,,,,,,,,,,,,,,,,,,,,material/150.png,2,鲁钝,material/50.png,2,material/150.png,愚笨,2,j,j,j,2,2,2,鲁钝,,,,,,,,,0,153,153,49,0,0,0,0,,,,,,,f,0,0.666492938995,f,0,0.341205120087,moral_self_bias,20,18,59.7671615078,f,001,2018_Apr_02_1702,
,,,,,,,,,,,,,,,,,,,,,,material/150.png,2,鲁钝,material/50.png,2,material/150.png,愚笨,2,j,j,j,2,2,2,鲁钝,,,,,,,,,0,153,153,49,,,,,,,,,,,,,,,,,moral_self_bias,20,18,59.7671615078,f,001,2018_Apr_02_1702,
,,,,,,,,,,,,,,,,,,,,,,material/31.png,1,笃学,material/131.png,1,material/31.png,笃行,1,f,f,f,2,2,2,笃学,,,,,,,,,0,154,154,110,,,,,,,,,,,j,0,1.20816397667,,,,moral_self_bias,20,18,59.7671615078,f,001,2018_Apr_02_1702,
,,,,,,,,,,,,,,,,,,,,,,material/1.png,1,博爱,material/101.png,1,material/101.png,博爱,1,f,f,f,1,1,1,善良,,,,,,,,,0,155,155,80,,,,,,,,,,,j,0,0.841435909271,,,,moral_self_bias,20,18,59.7671615078,f,001,2018_Apr_02_1702,
,,,,,,,,,,,,,,,,,,,,,,material/61.png,1,仗义,material/65.png,1,material/166.png,谦虚,1,j,j,j,1,1,1,平等,,,,,,,,,0,156,156,64,,,,,,,,,,,j,1,0.674046039581,,,,moral_self_bias,20,18,59.7671615078,f,001,2018_Apr_02_1702,
,,,,,,,,,,,,,,,,,,,,,,material/104.png,1,友爱,material/4.png,1,material/4.png,友爱,1,j,j,j,1,1,1,友善,,,,,,,,,0,157,157,3,0,0,0,0,,,,,,,f,0,0.683459997177,j,1,1.59044694901,moral_self_bias,20,18,59.7671615078,f,001,2018_Apr_02_1702,
,,,,,,,,,,,,,,,,,,,,,,material/104.png,1,友爱,material/4.png,1,material/4.png,友爱,1,j,j,j,1,1,1,友善,,,,,,,,,0,157,157,3,,,,,,,,,,,,,,,,,moral_self_bias,20,18,59.7671615078,f,001,2018_Apr_02_1702,
,,,,,,,,,,,,,,,,,,,,,,material/67.png,1,骁勇,material/70.png,1,material/67.png,全面,1,j,j,j,2,2,2,骁勇,,,,,,,,,0,158,158,67,0,0,0,0,,,,,,,f,0,1.2001979351,j,1,1.70726704597,moral_self_bias,20,18,59.7671615078,f,001,2018_Apr_02_1702,
,,,,,,,,,,,,,,,,,,,,,,material/67.png,1,骁勇,material/70.png,1,material/67.png,全面,1,j,j,j,2,2,2,骁勇,,,,,,,,,0,158,158,67,,,,,,,,,,,,,,,,,moral_self_bias,20,18,59.7671615078,f,001,2018_Apr_02_1702,
,,,,,,,,,,,,,,,,,,,,,,material/116.png,1,机智,material/16.png,1,material/116.png,睿智,1,j,j,j,2,2,2,机智,,,,,,,,,0,159,159,15,0,0,0,0,,,,,,,f,0,0.790871143341,j,1,0.390648126602,moral_self_bias,20,18,59.7671615078,f,001,2018_Apr_02_1702,
,,,,,,,,,,,,,,,,,,,,,,material/116.png,1,机智,material/16.png,1,material/116.png,睿智,1,j,j,j,2,2,2,机智,,,,,,,,,0,159,159,15,,,,,,,,,,,,,,,,,moral_self_bias,20,18,59.7671615078,f,001,2018_Apr_02_1702,
,,,,,,,,,,,,,,,,,,,,,,material/159.png,2,弱智,material/59.png,2,material/159.png,智障,2,j,j,j,2,2,2,弱智,,,,,,,,,0,160,160,58,0,0,0,0,,,,,,,f,0,1.42451691628,f,0,0.766623020172,moral_self_bias,20,18,59.7671615078,f,001,2018_Apr_02_1702,
,,,,,,,,,,,,,,,,,,,,,,material/159.png,2,弱智,material/59.png,2,material/159.png,智障,2,j,j,j,2,2,2,弱智,,,,,,,,,0,160,160,58,,,,,,,,,,,,,,,,,moral_self_bias,20,18,59.7671615078,f,001,2018_Apr_02_1702,
,,,,,,,,,,,,,,,,,,,,,,material/118.png,1,机敏,material/18.png,1,material/118.png,敏锐,1,j,j,j,2,2,2,机敏,,,,,,,,,0,161,161,17,0,0,0,0,,,,,,,f,0,2.15855383873,f,0,0.291692972183,moral_self_bias,20,18,59.7671615078,f,001,2018_Apr_02_1702,
,,,,,,,,,,,,,,,,,,,,,,material/118.png,1,机敏,material/18.png,1,material/118.png,敏锐,1,j,j,j,2,2,2,机敏,,,,,,,,,0,161,161,17,,,,,,,,,,,,,,,,,moral_self_bias,20,18,59.7671615078,f,001,2018_Apr_02_1702,
,,,,,,,,,,,,,,,,,,,,,,material/142.png,2,阴险,material/42.png,2,material/42.png,阴险,2,j,j,j,1,1,1,奸诈,,,,,,,,,0,162,162,41,,,,,,,,,,,j,1,1.03287792206,,,,moral_self_bias,20,18,59.7671615078,f,001,2018_Apr_02_1702,
,,,,,,,,,,,,,,,,,,,,,,material/48.png,2,愚蠢,material/148.png,2,material/48.png,笨蛋,2,f,f,f,2,2,2,愚蠢,,,,,,,,,0,163,163,127,,,,,,,,,,,j,0,1.00750494003,,,,moral_self_bias,20,18,59.7671615078,f,001,2018_Apr_02_1702,
,,,,,,,,,,,,,,,,,,,,,,material/49.png,2,痴呆,material/149.png,2,material/49.png,白痴,2,f,f,f,2,2,2,痴呆,,,,,,,,,0,164,164,128,,,,,,,,,,,j,0,1.59186005592,,,,moral_self_bias,20,18,59.7671615078,f,001,2018_Apr_02_1702,
,,,,,,,,,,,,,,,,,,,,,,material/32.png,2,背叛,material/132.png,2,material/132.png,背叛,2,f,f,f,1,1,1,不忠,,,,,,,,,0,165,165,111,,,,,,,,,,,j,0,1.3410987854,,,,moral_self_bias,20,18,59.7671615078,f,001,2018_Apr_02_1702,
,,,,,,,,,,,,,,,,,,,,,,material/162.png,1,敬业,material/62.png,1,material/162.png,坚韧,1,j,j,j,1,1,1,敬业,,,,,,,,,0,166,166,61,0,0,0,0,,,,,,,f,0,3.91733908653,f,0,0.374286174774,moral_self_bias,20,18,59.7671615078,f,001,2018_Apr_02_1702,
,,,,,,,,,,,,,,,,,,,,,,material/162.png,1,敬业,material/62.png,1,material/162.png,坚韧,1,j,j,j,1,1,1,敬业,,,,,,,,,0,166,166,61,,,,,,,,,,,,,,,,,moral_self_bias,20,18,59.7671615078,f,001,2018_Apr_02_1702,
,,,,,,,,,,,,,,,,,,,,,,material/36.png,2,撒谎,material/136.png,2,material/136.png,撒谎,2,f,f,f,1,1,1,说谎,,,,,,,,,0,167,167,115,,,,,,,,,,,j,0,1.27507281303,,,,moral_self_bias,20,18,59.7671615078,f,001,2018_Apr_02_1702,
