Block1_Old,Num_Source3,Num_Source2,Num_Source1,valence1,valence2,valence3,Num_Old2,Corr_S1,Num_Old1,Corr_S3,Corr_S2,Block3_Old,Block2_Old,Source_2,Source_3,Source_1,domain3,domain2,domain1,Num_Old3,math,Num_All2,valence_all1,All_Words3,Num_All1,valence_all2,Num_All3,All_Words1,valence_all3,Corr_Rec2,Corr_Rec3,Corr_Rec1,domian_all3,domian_all2,domian_all1,All_Words2,trials.thisRepN,trials.thisTrialN,trials.thisN,trials.thisIndex,trials_2.thisRepN,trials_2.thisTrialN,trials_2.thisN,trials_2.thisIndex,trials_4.thisRepN,trials_4.thisTrialN,trials_4.thisN,trials_4.thisIndex,trials_3.thisRepN,trials_3.thisTrialN,trials_3.thisN,trials_3.thisIndex,block_resp_1.keys,block_resp_1.rt,words_rating.keys,words_rating.rt,block_resp_2.keys,block_resp_2.rt,Rec_resp.keys,Rec_resp.corr,Rec_resp.rt,Source_resp.keys,Source_resp.corr,Source_resp.rt,expName,participant,Age,frameRate,Sex,session,date,
,,,,,,,,,,,,,,,,,,,,,,,,,,,,,,,,,,,,,,,,,,,,,,,,,,,,,1,31.8764379025,,,,,,,,,,,moral_self_bias,25,19,60.0131922157,f,001,2018_Apr_02_1842,
贪污,material/instr2_1.png,material/instr2_1.png,material/instr2_1.png,2,2,2,material/33.png,f,material/133.png,f,f,贪污,腐败,self,self,self,1,1,1,material/133.png,,,,,,,,,,,,,,,,,0,0,0,32,,,,,,,,,,,,,,,4,2.392578125,,,,,,,,,moral_self_bias,25,19,60.0131922157,f,001,2018_Apr_02_1842,
高明,material/instr2_1.png,material/instr2_1.png,material/instr2_1.png,1,1,1,material/69.png,f,material/69.png,f,f,高明,高明,self,self,self,2,2,2,material/69.png,,,,,,,,,,,,,,,,,0,1,1,86,,,,,,,,,,,,,,,4,1.65868997574,,,,,,,,,moral_self_bias,25,19,60.0131922157,f,001,2018_Apr_02_1842,
奸诈,material/instr2_1.png,material/instr2_1.png,material/instr2_1.png,2,2,2,material/42.png,f,material/142.png,f,f,奸诈,阴险,self,self,self,1,1,1,material/142.png,,,,,,,,,,,,,,,,,0,2,2,41,,,,,,,,,,,,,,,5,1.55861997604,,,,,,,,,moral_self_bias,25,19,60.0131922157,f,001,2018_Apr_02_1842,
卑鄙,material/instr2_2.png,material/instr2_2.png,material/instr2_2.png,2,2,2,material/37.png,j,material/137.png,j,j,卑鄙,无耻,friend,friend,friend,1,1,1,material/137.png,,,,,,,,,,,,,,,,,0,3,3,36,,,,,,,,,,,,,,,5,1.37547302246,,,,,,,,,moral_self_bias,25,19,60.0131922157,f,001,2018_Apr_02_1842,
才尽,material/instr2_1.png,material/instr2_1.png,material/instr2_1.png,2,2,2,material/183.png,f,material/182.png,f,f,颓废,薄弱,self,self,self,2,2,2,material/79.png,,,,,,,,,,,,,,,,,0,4,4,81,,,,,,,,,,,,,,,4,1.34203720093,,,,,,,,,moral_self_bias,25,19,60.0131922157,f,001,2018_Apr_02_1842,
机变,material/instr2_2.png,material/instr2_2.png,material/instr2_2.png,1,1,1,material/70.png,j,material/168.png,j,j,全面,全面,friend,friend,friend,2,2,2,material/70.png,,,,,,,,,,,,,,,,,0,5,5,67,,,,,,,,,,,,,,,4,1.99233603477,,,,,,,,,moral_self_bias,25,19,60.0131922157,f,001,2018_Apr_02_1842,
廉明,material/instr2_2.png,material/instr2_2.png,material/instr2_2.png,1,1,1,material/13.png,j,material/113.png,j,j,廉明,廉洁,friend,friend,friend,1,1,1,material/113.png,,,,,,,,,,,,,,,,,0,6,6,12,,,,,,,,,,,,,,,4,1.09214496613,,,,,,,,,moral_self_bias,25,19,60.0131922157,f,001,2018_Apr_02_1842,
浅薄,material/instr2_2.png,material/instr2_2.png,material/instr2_2.png,2,2,2,material/58.png,j,material/158.png,j,j,肤浅,肤浅,friend,friend,friend,2,2,2,material/58.png,,,,,,,,,,,,,,,,,0,7,7,57,,,,,,,,,,,,,,,2,1.8587539196,,,,,,,,,moral_self_bias,25,19,60.0131922157,f,001,2018_Apr_02_1842,
聪颖,material/instr2_2.png,material/instr2_2.png,material/instr2_2.png,1,1,1,material/17.png,j,material/117.png,j,j,聪明,聪明,friend,friend,friend,2,2,2,material/17.png,,,,,,,,,,,,,,,,,0,8,8,16,,,,,,,,,,,,,,,5,1.12445688248,,,,,,,,,moral_self_bias,25,19,60.0131922157,f,001,2018_Apr_02_1842,
迷糊,material/instr2_2.png,material/instr2_2.png,material/instr2_2.png,2,2,2,material/51.png,j,material/151.png,j,j,糊涂,糊涂,friend,friend,friend,2,2,2,material/51.png,,,,,,,,,,,,,,,,,0,9,9,50,,,,,,,,,,,,,,,4,1.44257497787,,,,,,,,,moral_self_bias,25,19,60.0131922157,f,001,2018_Apr_02_1842,
坚忍,material/instr2_1.png,material/instr2_1.png,material/instr2_1.png,1,1,1,material/168.png,f,material/170.png,f,f,机变,机变,self,self,self,2,2,2,material/168.png,,,,,,,,,,,,,,,,,0,10,10,69,,,,,,,,,,,,,,,4,1.958589077,,,,,,,,,moral_self_bias,25,19,60.0131922157,f,001,2018_Apr_02_1842,
多才,material/instr2_1.png,material/instr2_1.png,material/instr2_1.png,1,1,1,material/23.png,f,material/123.png,f,f,有才,有才,self,self,self,2,2,2,material/23.png,,,,,,,,,,,,,,,,,0,11,11,22,,,,,,,,,,,,,,,4,1.1425909996,,,,,,,,,moral_self_bias,25,19,60.0131922157,f,001,2018_Apr_02_1842,
机智,material/instr2_2.png,material/instr2_2.png,material/instr2_2.png,1,1,1,material/16.png,j,material/116.png,j,j,睿智,睿智,friend,friend,friend,2,2,2,material/16.png,,,,,,,,,,,,,,,,,0,12,12,15,,,,,,,,,,,,,,,4,1.3754119873,,,,,,,,,moral_self_bias,25,19,60.0131922157,f,001,2018_Apr_02_1842,
博学,material/instr2_1.png,material/instr2_1.png,material/instr2_1.png,1,1,1,material/22.png,f,material/122.png,f,f,才学,才学,self,self,self,2,2,2,material/22.png,,,,,,,,,,,,,,,,,0,13,13,21,,,,,,,,,,,,,,,4,2.49186491966,,,,,,,,,moral_self_bias,25,19,60.0131922157,f,001,2018_Apr_02_1842,
超群,material/instr2_2.png,material/instr2_2.png,material/instr2_2.png,1,1,1,material/27.png,j,material/127.png,j,j,卓越,卓越,friend,friend,friend,2,2,2,material/27.png,,,,,,,,,,,,,,,,,0,14,14,26,,,,,,,,,,,,,,,4,1.41656684875,,,,,,,,,moral_self_bias,25,19,60.0131922157,f,001,2018_Apr_02_1842,
残忍,material/instr2_2.png,material/instr2_2.png,material/instr2_2.png,2,2,2,material/41.png,j,material/141.png,j,j,残忍,歹毒,friend,friend,friend,1,1,1,material/141.png,,,,,,,,,,,,,,,,,0,15,15,40,,,,,,,,,,,,,,,2,2.15884995461,,,,,,,,,moral_self_bias,25,19,60.0131922157,f,001,2018_Apr_02_1842,
可恶,material/instr2_1.png,material/instr2_1.png,material/instr2_1.png,2,2,2,material/34.png,f,material/134.png,f,f,可恶,可恨,self,self,self,1,1,1,material/134.png,,,,,,,,,,,,,,,,,0,16,16,33,,,,,,,,,,,,,,,4,1.45867681503,,,,,,,,,moral_self_bias,25,19,60.0131922157,f,001,2018_Apr_02_1842,
高效,material/instr2_1.png,material/instr2_1.png,material/instr2_1.png,1,1,1,material/169.png,f,material/171.png,f,f,颖悟,颖悟,self,self,self,2,2,2,material/169.png,,,,,,,,,,,,,,,,,0,17,17,70,,,,,,,,,,,,,,,4,1.3085000515,,,,,,,,,moral_self_bias,25,19,60.0131922157,f,001,2018_Apr_02_1842,
勇敢,material/instr2_2.png,material/instr2_2.png,material/instr2_2.png,1,1,1,material/165.png,j,material/161.png,j,j,平等,独立,friend,friend,friend,1,1,1,material/61.png,,,,,,,,,,,,,,,,,0,18,18,60,,,,,,,,,,,,,,,4,1.79134702682,,,,,,,,,moral_self_bias,25,19,60.0131922157,f,001,2018_Apr_02_1842,
毛糙,material/instr2_2.png,material/instr2_2.png,material/instr2_2.png,2,2,2,material/179.png,j,material/178.png,j,j,顽愚,差生,friend,friend,friend,2,2,2,material/84.png,,,,,,,,,,,,,,,,,0,19,19,77,,,,,,,,,,,,,,,4,1.72534704208,,,,,,,,,moral_self_bias,25,19,60.0131922157,f,001,2018_Apr_02_1842,
笨拙,material/instr2_1.png,material/instr2_1.png,material/instr2_1.png,2,2,2,material/60.png,f,material/160.png,f,f,粗拙,粗拙,self,self,self,2,2,2,material/60.png,,,,,,,,,,,,,,,,,0,20,20,59,,,,,,,,,,,,,,,4,1.49136304855,,,,,,,,,moral_self_bias,25,19,60.0131922157,f,001,2018_Apr_02_1842,
仁厚,material/instr2_1.png,material/instr2_1.png,material/instr2_1.png,1,1,1,material/3.png,f,material/103.png,f,f,仁厚,仁慈,self,self,self,1,1,1,material/103.png,,,,,,,,,,,,,,,,,0,21,21,2,,,,,,,,,,,,,,,3,2.27661299706,,,,,,,,,moral_self_bias,25,19,60.0131922157,f,001,2018_Apr_02_1842,
刻板,material/instr2_2.png,material/instr2_2.png,material/instr2_2.png,2,2,2,material/47.png,j,material/147.png,j,j,死板,死板,friend,friend,friend,2,2,2,material/47.png,,,,,,,,,,,,,,,,,0,22,22,46,,,,,,,,,,,,,,,2,1.7418859005,,,,,,,,,moral_self_bias,25,19,60.0131922157,f,001,2018_Apr_02_1842,
冷静,material/instr2_1.png,material/instr2_1.png,material/instr2_1.png,1,1,1,material/24.png,f,material/124.png,f,f,理智,理智,self,self,self,2,2,2,material/24.png,,,,,,,,,,,,,,,,,0,23,23,23,,,,,,,,,,,,,,,3,2.83409905434,,,,,,,,,moral_self_bias,25,19,60.0131922157,f,001,2018_Apr_02_1842,
能干,material/instr2_2.png,material/instr2_2.png,material/instr2_2.png,1,1,1,material/20.png,j,material/120.png,j,j,厉害,厉害,friend,friend,friend,2,2,2,material/20.png,,,,,,,,,,,,,,,,,0,24,24,19,,,,,,,,,,,,,,,4,1.30806398392,,,,,,,,,moral_self_bias,25,19,60.0131922157,f,001,2018_Apr_02_1842,
敬业,material/instr2_2.png,material/instr2_2.png,material/instr2_2.png,1,1,1,material/62.png,j,material/162.png,j,j,坚韧,坚韧,friend,friend,friend,1,1,1,material/62.png,,,,,,,,,,,,,,,,,0,25,25,61,,,,,,,,,,,,,,,4,1.67529582977,,,,,,,,,moral_self_bias,25,19,60.0131922157,f,001,2018_Apr_02_1842,
坚毅,material/instr2_2.png,material/instr2_2.png,material/instr2_2.png,1,1,1,material/10.png,j,material/110.png,j,j,坚毅,顽强,friend,friend,friend,1,1,1,material/110.png,,,,,,,,,,,,,,,,,0,26,26,9,,,,,,,,,,,,,,,4,0.924576044083,,,,,,,,,moral_self_bias,25,19,60.0131922157,f,001,2018_Apr_02_1842,
机灵,material/instr2_2.png,material/instr2_2.png,material/instr2_2.png,1,1,1,material/19.png,j,material/119.png,j,j,灵活,灵活,friend,friend,friend,2,2,2,material/19.png,,,,,,,,,,,,,,,,,0,27,27,18,,,,,,,,,,,,,,,4,0.822237014771,,,,,,,,,moral_self_bias,25,19,60.0131922157,f,001,2018_Apr_02_1842,
勤快,material/instr2_2.png,material/instr2_2.png,material/instr2_2.png,1,1,1,material/26.png,j,material/126.png,j,j,刻苦,刻苦,friend,friend,friend,2,2,2,material/26.png,,,,,,,,,,,,,,,,,0,28,28,25,,,,,,,,,,,,,,,4,1.25866484642,,,,,,,,,moral_self_bias,25,19,60.0131922157,f,001,2018_Apr_02_1842,
缺德,material/instr2_2.png,material/instr2_2.png,material/instr2_2.png,2,2,2,material/38.png,j,material/138.png,j,j,缺德,无德,friend,friend,friend,1,1,1,material/138.png,,,,,,,,,,,,,,,,,0,29,29,37,,,,,,,,,,,,,,,1,1.80870008469,,,,,,,,,moral_self_bias,25,19,60.0131922157,f,001,2018_Apr_02_1842,
薄弱,material/instr2_1.png,material/instr2_1.png,material/instr2_1.png,2,2,2,material/82.png,f,material/183.png,f,f,毛糙,窝囊,self,self,self,2,2,2,material/178.png,,,,,,,,,,,,,,,,,0,30,30,82,,,,,,,,,,,,,,,5,2.34281396866,,,,,,,,,moral_self_bias,25,19,60.0131922157,f,001,2018_Apr_02_1842,
忠贞,material/instr2_2.png,material/instr2_2.png,material/instr2_2.png,1,1,1,material/14.png,j,material/114.png,j,j,忠贞,爱国,friend,friend,friend,1,1,1,material/114.png,,,,,,,,,,,,,,,,,0,31,31,13,,,,,,,,,,,,,,,4,2.5756790638,,,,,,,,,moral_self_bias,25,19,60.0131922157,f,001,2018_Apr_02_1842,
黑心,material/instr2_2.png,material/instr2_2.png,material/instr2_2.png,2,2,2,material/74.png,j,material/173.png,j,j,黑心,卑劣,friend,friend,friend,1,1,1,material/173.png,,,,,,,,,,,,,,,,,0,32,32,72,,,,,,,,,,,,,,,2,1.85882496834,,,,,,,,,moral_self_bias,25,19,60.0131922157,f,001,2018_Apr_02_1842,
弱智,material/instr2_1.png,material/instr2_1.png,material/instr2_1.png,2,2,2,material/59.png,f,material/159.png,f,f,智障,智障,self,self,self,2,2,2,material/59.png,,,,,,,,,,,,,,,,,0,33,33,58,,,,,,,,,,,,,,,5,1.58320188522,,,,,,,,,moral_self_bias,25,19,60.0131922157,f,001,2018_Apr_02_1842,
忠心,material/instr2_1.png,material/instr2_1.png,material/instr2_1.png,1,1,1,material/12.png,f,material/112.png,f,f,忠心,忠诚,self,self,self,1,1,1,material/112.png,,,,,,,,,,,,,,,,,0,34,34,11,,,,,,,,,,,,,,,4,2.30886697769,,,,,,,,,moral_self_bias,25,19,60.0131922157,f,001,2018_Apr_02_1842,
诚信,material/instr2_1.png,material/instr2_1.png,material/instr2_1.png,1,1,1,material/5.png,f,material/105.png,f,f,诚信,守信,self,self,self,1,1,1,material/105.png,,,,,,,,,,,,,,,,,0,35,35,4,,,,,,,,,,,,,,,4,1.39219594002,,,,,,,,,moral_self_bias,25,19,60.0131922157,f,001,2018_Apr_02_1842,
缓慢,material/instr2_1.png,material/instr2_1.png,material/instr2_1.png,2,2,2,material/52.png,f,material/152.png,f,f,拖延,拖延,self,self,self,2,2,2,material/52.png,,,,,,,,,,,,,,,,,0,36,36,51,,,,,,,,,,,,,,,5,1.59206104279,,,,,,,,,moral_self_bias,25,19,60.0131922157,f,001,2018_Apr_02_1842,
爱心,material/instr2_1.png,material/instr2_1.png,material/instr2_1.png,1,1,1,material/2.png,f,material/102.png,f,f,爱心,善心,self,self,self,1,1,1,material/102.png,,,,,,,,,,,,,,,,,0,37,37,1,,,,,,,,,,,,,,,5,1.69230413437,,,,,,,,,moral_self_bias,25,19,60.0131922157,f,001,2018_Apr_02_1842,
仗义,material/instr2_1.png,material/instr2_1.png,material/instr2_1.png,1,1,1,material/63.png,f,material/166.png,f,f,正义,文明,self,self,self,1,1,1,material/66.png,,,,,,,,,,,,,,,,,0,38,38,65,,,,,,,,,,,,,,,5,0.958909988403,,,,,,,,,moral_self_bias,25,19,60.0131922157,f,001,2018_Apr_02_1842,
果敢,material/instr2_1.png,material/instr2_1.png,material/instr2_1.png,1,1,1,material/25.png,f,material/125.png,f,f,果断,果断,self,self,self,2,2,2,material/25.png,,,,,,,,,,,,,,,,,0,39,39,24,,,,,,,,,,,,,,,4,1.75940990448,,,,,,,,,moral_self_bias,25,19,60.0131922157,f,001,2018_Apr_02_1842,
小人,material/instr2_2.png,material/instr2_2.png,material/instr2_2.png,2,2,2,material/45.png,j,material/145.png,j,j,小人,下流,friend,friend,friend,1,1,1,material/145.png,,,,,,,,,,,,,,,,,0,40,40,44,,,,,,,,,,,,,,,1,1.92577505112,,,,,,,,,moral_self_bias,25,19,60.0131922157,f,001,2018_Apr_02_1842,
恶心,material/instr2_1.png,material/instr2_1.png,material/instr2_1.png,2,2,2,material/73.png,f,material/177.png,f,f,恶心,残虐,self,self,self,1,1,1,material/177.png,,,,,,,,,,,,,,,,,0,41,41,76,,,,,,,,,,,,,,,4,2.17288184166,,,,,,,,,moral_self_bias,25,19,60.0131922157,f,001,2018_Apr_02_1842,
白痴,material/instr2_2.png,material/instr2_2.png,material/instr2_2.png,2,2,2,material/49.png,j,material/149.png,j,j,痴呆,痴呆,friend,friend,friend,2,2,2,material/49.png,,,,,,,,,,,,,,,,,0,42,42,48,,,,,,,,,,,,,,,2,2.30665493011,,,,,,,,,moral_self_bias,25,19,60.0131922157,f,001,2018_Apr_02_1842,
笨蛋,material/instr2_2.png,material/instr2_2.png,material/instr2_2.png,2,2,2,material/48.png,j,material/148.png,j,j,愚蠢,愚蠢,friend,friend,friend,2,2,2,material/48.png,,,,,,,,,,,,,,,,,0,43,43,47,,,,,,,,,,,,,,,2,1.85846304893,,,,,,,,,moral_self_bias,25,19,60.0131922157,f,001,2018_Apr_02_1842,
迟钝,material/instr2_1.png,material/instr2_1.png,material/instr2_1.png,2,2,2,material/53.png,f,material/153.png,f,f,迟缓,迟缓,self,self,self,2,2,2,material/53.png,,,,,,,,,,,,,,,,,0,44,44,52,,,,,,,,,,,,,,,4,1.45838904381,,,,,,,,,moral_self_bias,25,19,60.0131922157,f,001,2018_Apr_02_1842,
宽容,material/instr2_2.png,material/instr2_2.png,material/instr2_2.png,1,1,1,material/163.png,j,material/163.png,j,j,文明,宽容,friend,friend,friend,1,1,1,material/63.png,,,,,,,,,,,,,,,,,0,45,45,62,,,,,,,,,,,,,,,2,1.34222006798,,,,,,,,,moral_self_bias,25,19,60.0131922157,f,001,2018_Apr_02_1842,
正直,material/instr2_2.png,material/instr2_2.png,material/instr2_2.png,1,1,1,material/9.png,j,material/109.png,j,j,正直,秉直,friend,friend,friend,1,1,1,material/109.png,,,,,,,,,,,,,,,,,0,46,46,8,,,,,,,,,,,,,,,4,1.67631006241,,,,,,,,,moral_self_bias,25,19,60.0131922157,f,001,2018_Apr_02_1842,
高尚,material/instr2_1.png,material/instr2_1.png,material/instr2_1.png,1,1,1,material/11.png,f,material/111.png,f,f,高尚,高雅,self,self,self,1,1,1,material/111.png,,,,,,,,,,,,,,,,,0,47,47,10,,,,,,,,,,,,,,,2,1.82499694824,,,,,,,,,moral_self_bias,25,19,60.0131922157,f,001,2018_Apr_02_1842,
愚钝,material/instr2_1.png,material/instr2_1.png,material/instr2_1.png,2,2,2,material/56.png,f,material/156.png,f,f,愚昧,愚昧,self,self,self,2,2,2,material/56.png,,,,,,,,,,,,,,,,,0,48,48,55,,,,,,,,,,,,,,,4,1.35893201828,,,,,,,,,moral_self_bias,25,19,60.0131922157,f,001,2018_Apr_02_1842,
鲁钝,material/instr2_2.png,material/instr2_2.png,material/instr2_2.png,2,2,2,material/50.png,j,material/150.png,j,j,愚笨,愚笨,friend,friend,friend,2,2,2,material/50.png,,,,,,,,,,,,,,,,,0,49,49,49,,,,,,,,,,,,,,,2,2.4584980011,,,,,,,,,moral_self_bias,25,19,60.0131922157,f,001,2018_Apr_02_1842,
残虐,material/instr2_1.png,material/instr2_1.png,material/instr2_1.png,2,2,2,material/175.png,f,material/73.png,f,f,残虐,无情,self,self,self,1,1,1,material/73.png,,,,,,,,,,,,,,,,,0,50,50,85,,,,,,,,,,,,,,,5,1.70879077911,,,,,,,,,moral_self_bias,25,19,60.0131922157,f,001,2018_Apr_02_1842,
笃行,material/instr2_1.png,material/instr2_1.png,material/instr2_1.png,1,1,1,material/31.png,f,material/131.png,f,f,笃学,笃学,self,self,self,2,2,2,material/31.png,,,,,,,,,,,,,,,,,0,51,51,30,,,,,,,,,,,,,,,5,0.892423868179,,,,,,,,,moral_self_bias,25,19,60.0131922157,f,001,2018_Apr_02_1842,
独立,material/instr2_1.png,material/instr2_1.png,material/instr2_1.png,1,1,1,material/64.png,f,material/165.png,f,f,谦虚,奉献,self,self,self,1,1,1,material/65.png,,,,,,,,,,,,,,,,,0,52,52,64,,,,,,,,,,,,,,,5,0.926162004471,,,,,,,,,moral_self_bias,25,19,60.0131922157,f,001,2018_Apr_02_1842,
无私,material/instr2_2.png,material/instr2_2.png,material/instr2_2.png,1,1,1,material/8.png,j,material/108.png,j,j,无私,公道,friend,friend,friend,1,1,1,material/108.png,,,,,,,,,,,,,,,,,0,53,53,7,,,,,,,,,,,,,,,4,1.7415368557,,,,,,,,,moral_self_bias,25,19,60.0131922157,f,001,2018_Apr_02_1842,
自私,material/instr2_2.png,material/instr2_2.png,material/instr2_2.png,2,2,2,material/46.png,j,material/146.png,j,j,自私,小气,friend,friend,friend,1,1,1,material/146.png,,,,,,,,,,,,,,,,,0,54,54,45,,,,,,,,,,,,,,,2,1.4499130249,,,,,,,,,moral_self_bias,25,19,60.0131922157,f,001,2018_Apr_02_1842,
背叛,material/instr2_1.png,material/instr2_1.png,material/instr2_1.png,2,2,2,material/32.png,f,material/132.png,f,f,背叛,不忠,self,self,self,1,1,1,material/132.png,,,,,,,,,,,,,,,,,0,55,55,31,,,,,,,,,,,,,,,5,1.47517490387,,,,,,,,,moral_self_bias,25,19,60.0131922157,f,001,2018_Apr_02_1842,
厚道,material/instr2_2.png,material/instr2_2.png,material/instr2_2.png,1,1,1,material/6.png,j,material/106.png,j,j,厚道,诚实,friend,friend,friend,1,1,1,material/106.png,,,,,,,,,,,,,,,,,0,56,56,5,,,,,,,,,,,,,,,4,1.30807995796,,,,,,,,,moral_self_bias,25,19,60.0131922157,f,001,2018_Apr_02_1842,
无情,material/instr2_1.png,material/instr2_1.png,material/instr2_1.png,2,2,2,material/172.png,f,material/175.png,f,f,无情,浮夸,self,self,self,1,1,1,material/175.png,,,,,,,,,,,,,,,,,0,57,57,74,,,,,,,,,,,,,,,5,1.02549982071,,,,,,,,,moral_self_bias,25,19,60.0131922157,f,001,2018_Apr_02_1842,
好问,material/instr2_1.png,material/instr2_1.png,material/instr2_1.png,1,1,1,material/29.png,f,material/129.png,f,f,好学,好学,self,self,self,2,2,2,material/29.png,,,,,,,,,,,,,,,,,0,58,58,28,,,,,,,,,,,,,,,4,1.45866799355,,,,,,,,,moral_self_bias,25,19,60.0131922157,f,001,2018_Apr_02_1842,
狠毒,material/instr2_2.png,material/instr2_2.png,material/instr2_2.png,2,2,2,material/40.png,j,material/140.png,j,j,狠毒,邪恶,friend,friend,friend,1,1,1,material/140.png,,,,,,,,,,,,,,,,,0,59,59,39,,,,,,,,,,,,,,,2,1.74143099785,,,,,,,,,moral_self_bias,25,19,60.0131922157,f,001,2018_Apr_02_1842,
孝顺,material/instr2_1.png,material/instr2_1.png,material/instr2_1.png,1,1,1,material/161.png,f,material/164.png,f,f,奉献,勇敢,self,self,self,1,1,1,material/64.png,,,,,,,,,,,,,,,,,0,60,60,63,,,,,,,,,,,,,,,5,2.02522301674,,,,,,,,,moral_self_bias,25,19,60.0131922157,f,001,2018_Apr_02_1842,
友善,material/instr2_1.png,material/instr2_1.png,material/instr2_1.png,1,1,1,material/4.png,f,material/104.png,f,f,友善,友爱,self,self,self,1,1,1,material/104.png,,,,,,,,,,,,,,,,,0,61,61,3,,,,,,,,,,,,,,,4,1.72493910789,,,,,,,,,moral_self_bias,25,19,60.0131922157,f,001,2018_Apr_02_1842,
精干,material/instr2_1.png,material/instr2_1.png,material/instr2_1.png,1,1,1,material/21.png,f,material/121.png,f,f,干练,干练,self,self,self,2,2,2,material/21.png,,,,,,,,,,,,,,,,,0,62,62,20,,,,,,,,,,,,,,,4,1.04299616814,,,,,,,,,moral_self_bias,25,19,60.0131922157,f,001,2018_Apr_02_1842,
差生,material/instr2_2.png,material/instr2_2.png,material/instr2_2.png,2,2,2,material/81.png,j,material/179.png,j,j,呆笨,无助,friend,friend,friend,2,2,2,material/83.png,,,,,,,,,,,,,,,,,0,63,63,78,,,,,,,,,,,,,,,1,2.29222989082,,,,,,,,,moral_self_bias,25,19,60.0131922157,f,001,2018_Apr_02_1842,
浮夸,material/instr2_2.png,material/instr2_2.png,material/instr2_2.png,2,2,2,material/77.png,j,material/172.png,j,j,浮夸,软弱,friend,friend,friend,1,1,1,material/172.png,,,,,,,,,,,,,,,,,0,64,64,71,,,,,,,,,,,,,,,2,1.49207091331,,,,,,,,,moral_self_bias,25,19,60.0131922157,f,001,2018_Apr_02_1842,
顽愚,material/instr2_1.png,material/instr2_1.png,material/instr2_1.png,2,2,2,material/84.png,f,material/84.png,f,f,犹豫,顽愚,self,self,self,2,2,2,material/181.png,,,,,,,,,,,,,,,,,0,65,65,87,,,,,,,,,,,,,,,4,1.65050911903,,,,,,,,,moral_self_bias,25,19,60.0131922157,f,001,2018_Apr_02_1842,
自律,material/instr2_2.png,material/instr2_2.png,material/instr2_2.png,1,1,1,material/28.png,j,material/128.png,j,j,克己,克己,friend,friend,friend,2,2,2,material/28.png,,,,,,,,,,,,,,,,,0,66,66,27,,,,,,,,,,,,,,,4,1.29239296913,,,,,,,,,moral_self_bias,25,19,60.0131922157,f,001,2018_Apr_02_1842,
依靠,material/instr2_1.png,material/instr2_1.png,material/instr2_1.png,2,2,2,material/54.png,f,material/154.png,f,f,依赖,依赖,self,self,self,2,2,2,material/54.png,,,,,,,,,,,,,,,,,0,67,67,53,,,,,,,,,,,,,,,4,1.92635393143,,,,,,,,,moral_self_bias,25,19,60.0131922157,f,001,2018_Apr_02_1842,
不义,material/instr2_2.png,material/instr2_2.png,material/instr2_2.png,2,2,2,material/173.png,j,material/174.png,j,j,不义,黑心,friend,friend,friend,1,1,1,material/174.png,,,,,,,,,,,,,,,,,0,68,68,73,,,,,,,,,,,,,,,2,1.70867109299,,,,,,,,,moral_self_bias,25,19,60.0131922157,f,001,2018_Apr_02_1842,
博爱,material/instr2_1.png,material/instr2_1.png,material/instr2_1.png,1,1,1,material/1.png,f,material/101.png,f,f,博爱,善良,self,self,self,1,1,1,material/101.png,,,,,,,,,,,,,,,,,0,69,69,0,,,,,,,,,,,,,,,5,1.85902881622,,,,,,,,,moral_self_bias,25,19,60.0131922157,f,001,2018_Apr_02_1842,
爽约,material/instr2_2.png,material/instr2_2.png,material/instr2_2.png,2,2,2,material/44.png,j,material/144.png,j,j,爽约,失信,friend,friend,friend,1,1,1,material/144.png,,,,,,,,,,,,,,,,,0,70,70,43,,,,,,,,,,,,,,,2,1.94217419624,,,,,,,,,moral_self_bias,25,19,60.0131922157,f,001,2018_Apr_02_1842,
颖悟,material/instr2_2.png,material/instr2_2.png,material/instr2_2.png,1,1,1,material/167.png,j,material/169.png,j,j,高手,高手,friend,friend,friend,2,2,2,material/167.png,,,,,,,,,,,,,,,,,0,71,71,68,,,,,,,,,,,,,,,5,1.49190092087,,,,,,,,,moral_self_bias,25,19,60.0131922157,f,001,2018_Apr_02_1842,
怠惰,material/instr2_2.png,material/instr2_2.png,material/instr2_2.png,2,2,2,material/181.png,j,material/180.png,j,j,怠惰,犹豫,friend,friend,friend,2,2,2,material/180.png,,,,,,,,,,,,,,,,,0,72,72,79,,,,,,,,,,,,,,,2,1.14240717888,,,,,,,,,moral_self_bias,25,19,60.0131922157,f,001,2018_Apr_02_1842,
虚荣,material/instr2_1.png,material/instr2_1.png,material/instr2_1.png,2,2,2,material/43.png,f,material/143.png,f,f,虚荣,拜金,self,self,self,1,1,1,material/143.png,,,,,,,,,,,,,,,,,0,73,73,42,,,,,,,,,,,,,,,5,1.15885090828,,,,,,,,,moral_self_bias,25,19,60.0131922157,f,001,2018_Apr_02_1842,
无能,material/instr2_2.png,material/instr2_2.png,material/instr2_2.png,2,2,2,material/57.png,j,material/157.png,j,j,无知,无知,friend,friend,friend,2,2,2,material/57.png,,,,,,,,,,,,,,,,,0,74,74,56,,,,,,,,,,,,,,,2,1.225481987,,,,,,,,,moral_self_bias,25,19,60.0131922157,f,001,2018_Apr_02_1842,
放纵,material/instr2_1.png,material/instr2_1.png,material/instr2_1.png,2,2,2,material/76.png,f,material/176.png,f,f,放纵,虚伪,self,self,self,1,1,1,material/176.png,,,,,,,,,,,,,,,,,0,75,75,75,,,,,,,,,,,,,,,5,1.20036101341,,,,,,,,,moral_self_bias,25,19,60.0131922157,f,001,2018_Apr_02_1842,
盲目,material/instr2_1.png,material/instr2_1.png,material/instr2_1.png,2,2,2,material/55.png,f,material/155.png,f,f,盲从,盲从,self,self,self,2,2,2,material/55.png,,,,,,,,,,,,,,,,,0,76,76,54,,,,,,,,,,,,,,,4,1.4420170784,,,,,,,,,moral_self_bias,25,19,60.0131922157,f,001,2018_Apr_02_1842,
机敏,material/instr2_2.png,material/instr2_2.png,material/instr2_2.png,1,1,1,material/18.png,j,material/118.png,j,j,敏锐,敏锐,friend,friend,friend,2,2,2,material/18.png,,,,,,,,,,,,,,,,,0,77,77,17,,,,,,,,,,,,,,,2,1.6259560585,,,,,,,,,moral_self_bias,25,19,60.0131922157,f,001,2018_Apr_02_1842,
冷血,material/instr2_1.png,material/instr2_1.png,material/instr2_1.png,2,2,2,material/35.png,f,material/135.png,f,f,冷血,冷漠,self,self,self,1,1,1,material/135.png,,,,,,,,,,,,,,,,,0,78,78,34,,,,,,,,,,,,,,,5,1.05855488777,,,,,,,,,moral_self_bias,25,19,60.0131922157,f,001,2018_Apr_02_1842,
纯洁,material/instr2_2.png,material/instr2_2.png,material/instr2_2.png,1,1,1,material/15.png,j,material/115.png,j,j,纯洁,清白,friend,friend,friend,1,1,1,material/115.png,,,,,,,,,,,,,,,,,0,79,79,14,,,,,,,,,,,,,,,3,2.08311295509,,,,,,,,,moral_self_bias,25,19,60.0131922157,f,001,2018_Apr_02_1842,
公平,material/instr2_2.png,material/instr2_2.png,material/instr2_2.png,1,1,1,material/7.png,j,material/107.png,j,j,公平,公正,friend,friend,friend,1,1,1,material/107.png,,,,,,,,,,,,,,,,,0,80,80,6,,,,,,,,,,,,,,,4,1.27551388741,,,,,,,,,moral_self_bias,25,19,60.0131922157,f,001,2018_Apr_02_1842,
厌学,material/instr2_2.png,material/instr2_2.png,material/instr2_2.png,2,2,2,material/182.png,j,material/184.png,j,j,健忘,才尽,friend,friend,friend,2,2,2,material/80.png,,,,,,,,,,,,,,,,,0,81,81,83,,,,,,,,,,,,,,,2,1.49268913269,,,,,,,,,moral_self_bias,25,19,60.0131922157,f,001,2018_Apr_02_1842,
恶毒,material/instr2_2.png,material/instr2_2.png,material/instr2_2.png,2,2,2,material/39.png,j,material/139.png,j,j,恶毒,凶残,friend,friend,friend,1,1,1,material/139.png,,,,,,,,,,,,,,,,,0,82,82,38,,,,,,,,,,,,,,,2,0.808797121048,,,,,,,,,moral_self_bias,25,19,60.0131922157,f,001,2018_Apr_02_1842,
高手,material/instr2_2.png,material/instr2_2.png,material/instr2_2.png,1,1,1,material/68.png,j,material/167.png,j,j,广博,广博,friend,friend,friend,2,2,2,material/68.png,,,,,,,,,,,,,,,,,0,83,83,66,,,,,,,,,,,,,,,4,1.64191603661,,,,,,,,,moral_self_bias,25,19,60.0131922157,f,001,2018_Apr_02_1842,
撒谎,material/instr2_1.png,material/instr2_1.png,material/instr2_1.png,2,2,2,material/36.png,f,material/136.png,f,f,撒谎,说谎,self,self,self,1,1,1,material/136.png,,,,,,,,,,,,,,,,,0,84,84,35,,,,,,,,,,,,,,,4,2.69213485718,,,,,,,,,moral_self_bias,25,19,60.0131922157,f,001,2018_Apr_02_1842,
进取,material/instr2_1.png,material/instr2_1.png,material/instr2_1.png,1,1,1,material/30.png,f,material/130.png,f,f,上进,上进,self,self,self,2,2,2,material/30.png,,,,,,,,,,,,,,,,,0,85,85,29,,,,,,,,,,,,,,,3,1.92662000656,,,,,,,,,moral_self_bias,25,19,60.0131922157,f,001,2018_Apr_02_1842,
正义,material/instr2_1.png,material/instr2_1.png,material/instr2_1.png,1,1,1,material/66.png,f,material/66.png,f,f,独立,正义,self,self,self,1,1,1,material/165.png,,,,,,,,,,,,,,,,,0,86,86,84,,,,,,,,,,,,,,,5,1.60905480385,,,,,,,,,moral_self_bias,25,19,60.0131922157,f,001,2018_Apr_02_1842,
犹豫,material/instr2_1.png,material/instr2_1.png,material/instr2_1.png,2,2,2,material/78.png,f,material/181.png,f,f,厌学,草率,self,self,self,2,2,2,material/184.png,,,,,,,,,,,,,,,,,0,87,87,80,,,,,,,,,,,,,,,4,1.34250807762,,,,,,,,,moral_self_bias,25,19,60.0131922157,f,001,2018_Apr_02_1842,
,,,,,,,,,,,,,,,,,,,,,9-5= ?,,,,,,,,,,,,,,,,,,,,0,0,0,23,,,,,,,,,,,,,,,,,,,,,moral_self_bias,25,19,60.0131922157,f,001,2018_Apr_02_1842,
,,,,,,,,,,,,,,,,,,,,,8-3= ?,,,,,,,,,,,,,,,,,,,,0,1,1,39,,,,,,,,,,,,,,,,,,,,,moral_self_bias,25,19,60.0131922157,f,001,2018_Apr_02_1842,
,,,,,,,,,,,,,,,,,,,,,3+2= ?,,,,,,,,,,,,,,,,,,,,0,2,2,17,,,,,,,,,,,,,,,,,,,,,moral_self_bias,25,19,60.0131922157,f,001,2018_Apr_02_1842,
,,,,,,,,,,,,,,,,,,,,,7+1= ?,,,,,,,,,,,,,,,,,,,,0,3,3,46,,,,,,,,,,,,,,,,,,,,,moral_self_bias,25,19,60.0131922157,f,001,2018_Apr_02_1842,
,,,,,,,,,,,,,,,,,,,,,3+5= ?,,,,,,,,,,,,,,,,,,,,0,4,4,20,,,,,,,,,,,,,,,,,,,,,moral_self_bias,25,19,60.0131922157,f,001,2018_Apr_02_1842,
,,,,,,,,,,,,,,,,,,,,,11-11= ?,,,,,,,,,,,,,,,,,,,,0,5,5,119,,,,,,,,,,,,,,,,,,,,,moral_self_bias,25,19,60.0131922157,f,001,2018_Apr_02_1842,
,,,,,,,,,,,,,,,,,,,,,9-3= ?,,,,,,,,,,,,,,,,,,,,0,6,6,15,,,,,,,,,,,,,,,,,,,,,moral_self_bias,25,19,60.0131922157,f,001,2018_Apr_02_1842,
,,,,,,,,,,,,,,,,,,,,,3+4= ?,,,,,,,,,,,,,,,,,,,,0,7,7,19,,,,,,,,,,,,,,,,,,,,,moral_self_bias,25,19,60.0131922157,f,001,2018_Apr_02_1842,
,,,,,,,,,,,,,,,,,,,,,4+2= ?,,,,,,,,,,,,,,,,,,,,0,8,8,26,,,,,,,,,,,,,,,,,,,,,moral_self_bias,25,19,60.0131922157,f,001,2018_Apr_02_1842,
,,,,,,,,,,,,,,,,,,,,,6^0= ?,,,,,,,,,,,,,,,,,,,,0,9,9,114,,,,,,,,,,,,,,,,,,,,,moral_self_bias,25,19,60.0131922157,f,001,2018_Apr_02_1842,
,,,,,,,,,,,,,,,,,,,,,10-5=？,,,,,,,,,,,,,,,,,,,,0,10,10,67,,,,,,,,,,,,,,,,,,,,,moral_self_bias,25,19,60.0131922157,f,001,2018_Apr_02_1842,
,,,,,,,,,,,,,,,,,,,,,6+1= ?,,,,,,,,,,,,,,,,,,,,0,11,11,43,,,,,,,,,,,,,,,,,,,,,moral_self_bias,25,19,60.0131922157,f,001,2018_Apr_02_1842,
,,,,,,,,,,,,,,,,,,,,,2+5= ?,,,,,,,,,,,,,,,,,,,,0,12,12,11,,,,,,,,,,,,,,,,,,,,,moral_self_bias,25,19,60.0131922157,f,001,2018_Apr_02_1842,
,,,,,,,,,,,,,,,,,,,,,3*3= ?,,,,,,,,,,,,,,,,,,,,0,13,13,54,,,,,,,,,,,,,,,,,,,,,moral_self_bias,25,19,60.0131922157,f,001,2018_Apr_02_1842,
,,,,,,,,,,,,,,,,,,,,,32-32= ?,,,,,,,,,,,,,,,,,,,,0,14,14,80,,,,,,,,,,,,,,,,,,,,,moral_self_bias,25,19,60.0131922157,f,001,2018_Apr_02_1842,
,,,,,,,,,,,,,,,,,,,,,43-34= ?,,,,,,,,,,,,,,,,,,,,0,15,15,79,,,,,,,,,,,,,,,,,,,,,moral_self_bias,25,19,60.0131922157,f,001,2018_Apr_02_1842,
,,,,,,,,,,,,,,,,,,,,,1+7= ?,,,,,,,,,,,,,,,,,,,,0,16,16,4,,,,,,,,,,,,,,,,,,,,,moral_self_bias,25,19,60.0131922157,f,001,2018_Apr_02_1842,
,,,,,,,,,,,,,,,,,,,,,5-3= ?,,,,,,,,,,,,,,,,,,,,0,17,17,116,,,,,,,,,,,,,,,,,,,,,moral_self_bias,25,19,60.0131922157,f,001,2018_Apr_02_1842,
,,,,,,,,,,,,,,,,,,,,,3*2= ?,,,,,,,,,,,,,,,,,,,,0,18,18,53,,,,,,,,,,,,,,,,,,,,,moral_self_bias,25,19,60.0131922157,f,001,2018_Apr_02_1842,
,,,,,,,,,,,,,,,,,,,,,9+0= ?,,,,,,,,,,,,,,,,,,,,0,19,19,118,,,,,,,,,,,,,,,,,,,,,moral_self_bias,25,19,60.0131922157,f,001,2018_Apr_02_1842,
,,,,,,,,,,,,,,,,,,,,,32-23=？,,,,,,,,,,,,,,,,,,,,0,20,20,60,,,,,,,,,,,,,,,,,,,,,moral_self_bias,25,19,60.0131922157,f,001,2018_Apr_02_1842,
,,,,,,,,,,,,,,,,,,,,,5+4= ?,,,,,,,,,,,,,,,,,,,,0,21,21,37,,,,,,,,,,,,,,,,,,,,,moral_self_bias,25,19,60.0131922157,f,001,2018_Apr_02_1842,
,,,,,,,,,,,,,,,,,,,,,6+2= ?,,,,,,,,,,,,,,,,,,,,0,22,22,44,,,,,,,,,,,,,,,,,,,,,moral_self_bias,25,19,60.0131922157,f,001,2018_Apr_02_1842,
,,,,,,,,,,,,,,,,,,,,,5*0= ?,,,,,,,,,,,,,,,,,,,,0,23,23,86,,,,,,,,,,,,,,,,,,,,,moral_self_bias,25,19,60.0131922157,f,001,2018_Apr_02_1842,
,,,,,,,,,,,,,,,,,,,,,4/4= ?,,,,,,,,,,,,,,,,,,,,0,24,24,55,,,,,,,,,,,,,,,,,,,,,moral_self_bias,25,19,60.0131922157,f,001,2018_Apr_02_1842,
,,,,,,,,,,,,,,,,,,,,,3^2= ?,,,,,,,,,,,,,,,,,,,,0,25,25,50,,,,,,,,,,,,,,,,,,,,,moral_self_bias,25,19,60.0131922157,f,001,2018_Apr_02_1842,
,,,,,,,,,,,,,,,,,,,,,6/2= ?,,,,,,,,,,,,,,,,,,,,0,26,26,58,,,,,,,,,,,,,,,,,,,,,moral_self_bias,25,19,60.0131922157,f,001,2018_Apr_02_1842,
,,,,,,,,,,,,,,,,,,,,,49/7 = ?,,,,,,,,,,,,,,,,,,,,0,27,27,78,,,,,,,,,,,,,,,,,,,,,moral_self_bias,25,19,60.0131922157,f,001,2018_Apr_02_1842,
,,,,,,,,,,,,,,,,,,,,,9-7= ?,,,,,,,,,,,,,,,,,,,,0,28,28,30,,,,,,,,,,,,,,,,,,,,,moral_self_bias,25,19,60.0131922157,f,001,2018_Apr_02_1842,
,,,,,,,,,,,,,,,,,,,,,9/3= ?,,,,,,,,,,,,,,,,,,,,0,29,29,56,,,,,,,,,,,,,,,,,,,,,moral_self_bias,25,19,60.0131922157,f,001,2018_Apr_02_1842,
,,,,,,,,,,,,,,,,,,,,,11-4=？,,,,,,,,,,,,,,,,,,,,0,30,30,66,,,,,,,,,,,,,,,,,,,,,moral_self_bias,25,19,60.0131922157,f,001,2018_Apr_02_1842,
,,,,,,,,,,,,,,,,,,,,,2*3= ?,,,,,,,,,,,,,,,,,,,,0,31,31,108,,,,,,,,,,,,,,,,,,,,,moral_self_bias,25,19,60.0131922157,f,001,2018_Apr_02_1842,
,,,,,,,,,,,,,,,,,,,,,1^2= ?,,,,,,,,,,,,,,,,,,,,0,32,32,51,,,,,,,,,,,,,,,,,,,,,moral_self_bias,25,19,60.0131922157,f,001,2018_Apr_02_1842,
,,,,,,,,,,,,,,,,,,,,,3*1= ?,,,,,,,,,,,,,,,,,,,,0,33,33,83,,,,,,,,,,,,,,,,,,,,,moral_self_bias,25,19,60.0131922157,f,001,2018_Apr_02_1842,
,,,,,,,,,,,,,,,,,,,,,9-1=?,,,,,,,,,,,,,,,,,,,,0,34,34,2,,,,,,,,,,,,,,,,,,,,,moral_self_bias,25,19,60.0131922157,f,001,2018_Apr_02_1842,
,,,,,,,,,,,,,,,,,,,,,90/45= ?,,,,,,,,,,,,,,,,,,,,0,35,35,74,,,,,,,,,,,,,,,,,,,,,moral_self_bias,25,19,60.0131922157,f,001,2018_Apr_02_1842,
,,,,,,,,,,,,,,,,,,,,,22/11= ?,,,,,,,,,,,,,,,,,,,,0,36,36,71,,,,,,,,,,,,,,,,,,,,,moral_self_bias,25,19,60.0131922157,f,001,2018_Apr_02_1842,
,,,,,,,,,,,,,,,,,,,,,7*1= ?,,,,,,,,,,,,,,,,,,,,0,37,37,113,,,,,,,,,,,,,,,,,,,,,moral_self_bias,25,19,60.0131922157,f,001,2018_Apr_02_1842,
,,,,,,,,,,,,,,,,,,,,,7-0= ?,,,,,,,,,,,,,,,,,,,,0,38,38,117,,,,,,,,,,,,,,,,,,,,,moral_self_bias,25,19,60.0131922157,f,001,2018_Apr_02_1842,
,,,,,,,,,,,,,,,,,,,,,1*9= ?,,,,,,,,,,,,,,,,,,,,0,39,39,109,,,,,,,,,,,,,,,,,,,,,moral_self_bias,25,19,60.0131922157,f,001,2018_Apr_02_1842,
,,,,,,,,,,,,,,,,,,,,,11-3=？,,,,,,,,,,,,,,,,,,,,0,40,40,68,,,,,,,,,,,,,,,,,,,,,moral_self_bias,25,19,60.0131922157,f,001,2018_Apr_02_1842,
,,,,,,,,,,,,,,,,,,,,,10-9= ?,,,,,,,,,,,,,,,,,,,,0,41,41,112,,,,,,,,,,,,,,,,,,,,,moral_self_bias,25,19,60.0131922157,f,001,2018_Apr_02_1842,
,,,,,,,,,,,,,,,,,,,,,1+1= ?,,,,,,,,,,,,,,,,,,,,0,42,42,0,,,,,,,,,,,,,,,,,,,,,moral_self_bias,25,19,60.0131922157,f,001,2018_Apr_02_1842,
,,,,,,,,,,,,,,,,,,,,,14-9=？,,,,,,,,,,,,,,,,,,,,0,43,43,63,,,,,,,,,,,,,,,,,,,,,moral_self_bias,25,19,60.0131922157,f,001,2018_Apr_02_1842,
,,,,,,,,,,,,,,,,,,,,,8-2= ?,,,,,,,,,,,,,,,,,,,,0,44,44,38,,,,,,,,,,,,,,,,,,,,,moral_self_bias,25,19,60.0131922157,f,001,2018_Apr_02_1842,
,,,,,,,,,,,,,,,,,,,,,7+2= ?,,,,,,,,,,,,,,,,,,,,0,45,45,47,,,,,,,,,,,,,,,,,,,,,moral_self_bias,25,19,60.0131922157,f,001,2018_Apr_02_1842,
,,,,,,,,,,,,,,,,,,,,,21/3= ? ,,,,,,,,,,,,,,,,,,,,0,46,46,95,,,,,,,,,,,,,,,,,,,,,moral_self_bias,25,19,60.0131922157,f,001,2018_Apr_02_1842,
,,,,,,,,,,,,,,,,,,,,,30-29= ?,,,,,,,,,,,,,,,,,,,,0,47,47,73,,,,,,,,,,,,,,,,,,,,,moral_self_bias,25,19,60.0131922157,f,001,2018_Apr_02_1842,
,,,,,,,,,,,,,,,,,,,,,8-5= ?,,,,,,,,,,,,,,,,,,,,0,48,48,41,,,,,,,,,,,,,,,,,,,,,moral_self_bias,25,19,60.0131922157,f,001,2018_Apr_02_1842,
,,,,,,,,,,,,,,,,,,,,,56/7= ?,,,,,,,,,,,,,,,,,,,,0,49,49,77,,,,,,,,,,,,,,,,,,,,,moral_self_bias,25,19,60.0131922157,f,001,2018_Apr_02_1842,
,,,,,,,,,,,,,,,,,,,,,4*1= ?,,,,,,,,,,,,,,,,,,,,0,50,50,85,,,,,,,,,,,,,,,,,,,,,moral_self_bias,25,19,60.0131922157,f,001,2018_Apr_02_1842,
,,,,,,,,,,,,,,,,,,,,,3+3= ?,,,,,,,,,,,,,,,,,,,,0,51,51,18,,,,,,,,,,,,,,,,,,,,,moral_self_bias,25,19,60.0131922157,f,001,2018_Apr_02_1842,
,,,,,,,,,,,,,,,,,,,,,3+0= ?,,,,,,,,,,,,,,,,,,,,0,52,52,105,,,,,,,,,,,,,,,,,,,,,moral_self_bias,25,19,60.0131922157,f,001,2018_Apr_02_1842,
,,,,,,,,,,,,,,,,,,,,,9-9= ?,,,,,,,,,,,,,,,,,,,,0,53,53,32,,,,,,,,,,,,,,,,,,,,,moral_self_bias,25,19,60.0131922157,f,001,2018_Apr_02_1842,
,,,,,,,,,,,,,,,,,,,,,18/2= ?,,,,,,,,,,,,,,,,,,,,0,54,54,97,,,,,,,,,,,,,,,,,,,,,moral_self_bias,25,19,60.0131922157,f,001,2018_Apr_02_1842,
,,,,,,,,,,,,,,,,,,,,,2*4= ?,,,,,,,,,,,,,,,,,,,,0,55,55,84,,,,,,,,,,,,,,,,,,,,,moral_self_bias,25,19,60.0131922157,f,001,2018_Apr_02_1842,
,,,,,,,,,,,,,,,,,,,,,5+1= ?,,,,,,,,,,,,,,,,,,,,0,56,56,34,,,,,,,,,,,,,,,,,,,,,moral_self_bias,25,19,60.0131922157,f,001,2018_Apr_02_1842,
,,,,,,,,,,,,,,,,,,,,,16-11=？,,,,,,,,,,,,,,,,,,,,0,57,57,62,,,,,,,,,,,,,,,,,,,,,moral_self_bias,25,19,60.0131922157,f,001,2018_Apr_02_1842,
,,,,,,,,,,,,,,,,,,,,,6+3= ?,,,,,,,,,,,,,,,,,,,,0,58,58,45,,,,,,,,,,,,,,,,,,,,,moral_self_bias,25,19,60.0131922157,f,001,2018_Apr_02_1842,
,,,,,,,,,,,,,,,,,,,,,11-5= ?,,,,,,,,,,,,,,,,,,,,0,59,59,107,,,,,,,,,,,,,,,,,,,,,moral_self_bias,25,19,60.0131922157,f,001,2018_Apr_02_1842,
,,,,,,,,,,,,,,,,,,,,,2+1= ?,,,,,,,,,,,,,,,,,,,,0,60,60,7,,,,,,,,,,,,,,,,,,,,,moral_self_bias,25,19,60.0131922157,f,001,2018_Apr_02_1842,
,,,,,,,,,,,,,,,,,,,,,29-27= ?,,,,,,,,,,,,,,,,,,,,0,61,61,72,,,,,,,,,,,,,,,,,,,,,moral_self_bias,25,19,60.0131922157,f,001,2018_Apr_02_1842,
,,,,,,,,,,,,,,,,,,,,,2+6= ?,,,,,,,,,,,,,,,,,,,,0,62,62,12,,,,,,,,,,,,,,,,,,,,,moral_self_bias,25,19,60.0131922157,f,001,2018_Apr_02_1842,
,,,,,,,,,,,,,,,,,,,,,22-22= ?,,,,,,,,,,,,,,,,,,,,0,63,63,93,,,,,,,,,,,,,,,,,,,,,moral_self_bias,25,19,60.0131922157,f,001,2018_Apr_02_1842,
,,,,,,,,,,,,,,,,,,,,,20/5=？,,,,,,,,,,,,,,,,,,,,0,64,64,69,,,,,,,,,,,,,,,,,,,,,moral_self_bias,25,19,60.0131922157,f,001,2018_Apr_02_1842,
,,,,,,,,,,,,,,,,,,,,,12-7= ?,,,,,,,,,,,,,,,,,,,,0,65,65,115,,,,,,,,,,,,,,,,,,,,,moral_self_bias,25,19,60.0131922157,f,001,2018_Apr_02_1842,
,,,,,,,,,,,,,,,,,,,,,9-8= ?,,,,,,,,,,,,,,,,,,,,0,66,66,31,,,,,,,,,,,,,,,,,,,,,moral_self_bias,25,19,60.0131922157,f,001,2018_Apr_02_1842,
,,,,,,,,,,,,,,,,,,,,,1+9= ?,,,,,,,,,,,,,,,,,,,,0,67,67,3,,,,,,,,,,,,,,,,,,,,,moral_self_bias,25,19,60.0131922157,f,001,2018_Apr_02_1842,
,,,,,,,,,,,,,,,,,,,,,23^0= ?,,,,,,,,,,,,,,,,,,,,0,68,68,94,,,,,,,,,,,,,,,,,,,,,moral_self_bias,25,19,60.0131922157,f,001,2018_Apr_02_1842,
,,,,,,,,,,,,,,,,,,,,,9-4= ?,,,,,,,,,,,,,,,,,,,,0,69,69,22,,,,,,,,,,,,,,,,,,,,,moral_self_bias,25,19,60.0131922157,f,001,2018_Apr_02_1842,
,,,,,,,,,,,,,,,,,,,,,15-10=？,,,,,,,,,,,,,,,,,,,,0,70,70,61,,,,,,,,,,,,,,,,,,,,,moral_self_bias,25,19,60.0131922157,f,001,2018_Apr_02_1842,
,,,,,,,,,,,,,,,,,,,,,50-42= ?,,,,,,,,,,,,,,,,,,,,0,71,71,81,,,,,,,,,,,,,,,,,,,,,moral_self_bias,25,19,60.0131922157,f,001,2018_Apr_02_1842,
,,,,,,,,,,,,,,,,,,,,,8/4= ?,,,,,,,,,,,,,,,,,,,,0,72,72,57,,,,,,,,,,,,,,,,,,,,,moral_self_bias,25,19,60.0131922157,f,001,2018_Apr_02_1842,
,,,,,,,,,,,,,,,,,,,,,2^2= ?,,,,,,,,,,,,,,,,,,,,0,73,73,49,,,,,,,,,,,,,,,,,,,,,moral_self_bias,25,19,60.0131922157,f,001,2018_Apr_02_1842,
,,,,,,,,,,,,,,,,,,,,,4+4= ?,,,,,,,,,,,,,,,,,,,,0,74,74,28,,,,,,,,,,,,,,,,,,,,,moral_self_bias,25,19,60.0131922157,f,001,2018_Apr_02_1842,
,,,,,,,,,,,,,,,,,,,,,72/9= ?,,,,,,,,,,,,,,,,,,,,0,75,75,76,,,,,,,,,,,,,,,,,,,,,moral_self_bias,25,19,60.0131922157,f,001,2018_Apr_02_1842,
,,,,,,,,,,,,,,,,,,,,,12/6= ?,,,,,,,,,,,,,,,,,,,,0,76,76,90,,,,,,,,,,,,,,,,,,,,,moral_self_bias,25,19,60.0131922157,f,001,2018_Apr_02_1842,
,,,,,,,,,,,,,,,,,,,,,17-12= ? ,,,,,,,,,,,,,,,,,,,,0,77,77,104,,,,,,,,,,,,,,,,,,,,,moral_self_bias,25,19,60.0131922157,f,001,2018_Apr_02_1842,
,,,,,,,,,,,,,,,,,,,,,1*8= ?,,,,,,,,,,,,,,,,,,,,0,78,78,110,,,,,,,,,,,,,,,,,,,,,moral_self_bias,25,19,60.0131922157,f,001,2018_Apr_02_1842,
,,,,,,,,,,,,,,,,,,,,,11-8= ?,,,,,,,,,,,,,,,,,,,,0,79,79,106,,,,,,,,,,,,,,,,,,,,,moral_self_bias,25,19,60.0131922157,f,001,2018_Apr_02_1842,
,,,,,,,,,,,,,,,,,,,,,3+6= ?,,,,,,,,,,,,,,,,,,,,0,80,80,21,,,,,,,,,,,,,,,,,,,,,moral_self_bias,25,19,60.0131922157,f,001,2018_Apr_02_1842,
,,,,,,,,,,,,,,,,,,,,,8-6= ?,,,,,,,,,,,,,,,,,,,,0,81,81,42,,,,,,,,,,,,,,,,,,,,,moral_self_bias,25,19,60.0131922157,f,001,2018_Apr_02_1842,
,,,,,,,,,,,,,,,,,,,,,4^1= ?,,,,,,,,,,,,,,,,,,,,0,82,82,102,,,,,,,,,,,,,,,,,,,,,moral_self_bias,25,19,60.0131922157,f,001,2018_Apr_02_1842,
,,,,,,,,,,,,,,,,,,,,,1+8= ?,,,,,,,,,,,,,,,,,,,,0,83,83,6,,,,,,,,,,,,,,,,,,,,,moral_self_bias,25,19,60.0131922157,f,001,2018_Apr_02_1842,
,,,,,,,,,,,,,,,,,,,,,2+2= ?,,,,,,,,,,,,,,,,,,,,0,84,84,8,,,,,,,,,,,,,,,,,,,,,moral_self_bias,25,19,60.0131922157,f,001,2018_Apr_02_1842,
,,,,,,,,,,,,,,,,,,,,,1+2= ?,,,,,,,,,,,,,,,,,,,,0,85,85,1,,,,,,,,,,,,,,,,,,,,,moral_self_bias,25,19,60.0131922157,f,001,2018_Apr_02_1842,
,,,,,,,,,,,,,,,,,,,,,6*0= ?,,,,,,,,,,,,,,,,,,,,0,86,86,87,,,,,,,,,,,,,,,,,,,,,moral_self_bias,25,19,60.0131922157,f,001,2018_Apr_02_1842,
,,,,,,,,,,,,,,,,,,,,,2+4= ?,,,,,,,,,,,,,,,,,,,,0,87,87,10,,,,,,,,,,,,,,,,,,,,,moral_self_bias,25,19,60.0131922157,f,001,2018_Apr_02_1842,
,,,,,,,,,,,,,,,,,,,,,6^0= ?,,,,,,,,,,,,,,,,,,,,0,88,88,103,,,,,,,,,,,,,,,,,,,,,moral_self_bias,25,19,60.0131922157,f,001,2018_Apr_02_1842,
,,,,,,,,,,,,,,,,,,,,,13-9= ?,,,,,,,,,,,,,,,,,,,,0,89,89,92,,,,,,,,,,,,,,,,,,,,,moral_self_bias,25,19,60.0131922157,f,001,2018_Apr_02_1842,
,,,,,,,,,,,,,,,,,,,,,5+2= ?,,,,,,,,,,,,,,,,,,,,0,90,90,35,,,,,,,,,,,,,,,,,,,,,moral_self_bias,25,19,60.0131922157,f,001,2018_Apr_02_1842,
,,,,,,,,,,,,,,,,,,,,,12-12= ?,,,,,,,,,,,,,,,,,,,,0,91,91,99,,,,,,,,,,,,,,,,,,,,,moral_self_bias,25,19,60.0131922157,f,001,2018_Apr_02_1842,
,,,,,,,,,,,,,,,,,,,,,12/4= ?,,,,,,,,,,,,,,,,,,,,0,92,92,89,,,,,,,,,,,,,,,,,,,,,moral_self_bias,25,19,60.0131922157,f,001,2018_Apr_02_1842,
,,,,,,,,,,,,,,,,,,,,,2+7= ?,,,,,,,,,,,,,,,,,,,,0,93,93,13,,,,,,,,,,,,,,,,,,,,,moral_self_bias,25,19,60.0131922157,f,001,2018_Apr_02_1842,
,,,,,,,,,,,,,,,,,,,,,4*2= ?,,,,,,,,,,,,,,,,,,,,0,94,94,82,,,,,,,,,,,,,,,,,,,,,moral_self_bias,25,19,60.0131922157,f,001,2018_Apr_02_1842,
,,,,,,,,,,,,,,,,,,,,,21/7= ?,,,,,,,,,,,,,,,,,,,,0,95,95,70,,,,,,,,,,,,,,,,,,,,,moral_self_bias,25,19,60.0131922157,f,001,2018_Apr_02_1842,
,,,,,,,,,,,,,,,,,,,,,18/9= ?,,,,,,,,,,,,,,,,,,,,0,96,96,96,,,,,,,,,,,,,,,,,,,,,moral_self_bias,25,19,60.0131922157,f,001,2018_Apr_02_1842,
,,,,,,,,,,,,,,,,,,,,,1+6= ?,,,,,,,,,,,,,,,,,,,,0,97,97,5,,,,,,,,,,,,,,,,,,,,,moral_self_bias,25,19,60.0131922157,f,001,2018_Apr_02_1842,
,,,,,,,,,,,,,,,,,,,,,9-2= ?,,,,,,,,,,,,,,,,,,,,0,98,98,14,,,,,,,,,,,,,,,,,,,,,moral_self_bias,25,19,60.0131922157,f,001,2018_Apr_02_1842,
,,,,,,,,,,,,,,,,,,,,,13-5= ?,,,,,,,,,,,,,,,,,,,,0,99,99,98,,,,,,,,,,,,,,,,,,,,,moral_self_bias,25,19,60.0131922157,f,001,2018_Apr_02_1842,
,,,,,,,,,,,,,,,,,,,,,2+3= ?,,,,,,,,,,,,,,,,,,,,0,100,100,9,,,,,,,,,,,,,,,,,,,,,moral_self_bias,25,19,60.0131922157,f,001,2018_Apr_02_1842,
,,,,,,,,,,,,,,,,,,,,,4+5= ?,,,,,,,,,,,,,,,,,,,,0,101,101,29,,,,,,,,,,,,,,,,,,,,,moral_self_bias,25,19,60.0131922157,f,001,2018_Apr_02_1842,
,,,,,,,,,,,,,,,,,,,,,5/1= ?,,,,,,,,,,,,,,,,,,,,0,102,102,59,,,,,,,,,,,,,,,,,,,,,moral_self_bias,25,19,60.0131922157,f,001,2018_Apr_02_1842,
,,,,,,,,,,,,,,,,,,,,,5+3= ?,,,,,,,,,,,,,,,,,,,,0,103,103,36,,,,,,,,,,,,,,,,,,,,,moral_self_bias,25,19,60.0131922157,f,001,2018_Apr_02_1842,
,,,,,,,,,,,,,,,,,,,,,13-6=？,,,,,,,,,,,,,,,,,,,,0,104,104,64,,,,,,,,,,,,,,,,,,,,,moral_self_bias,25,19,60.0131922157,f,001,2018_Apr_02_1842,
,,,,,,,,,,,,,,,,,,,,,8-4= ?,,,,,,,,,,,,,,,,,,,,0,105,105,40,,,,,,,,,,,,,,,,,,,,,moral_self_bias,25,19,60.0131922157,f,001,2018_Apr_02_1842,
,,,,,,,,,,,,,,,,,,,,,9-6= ?,,,,,,,,,,,,,,,,,,,,0,106,106,24,,,,,,,,,,,,,,,,,,,,,moral_self_bias,25,19,60.0131922157,f,001,2018_Apr_02_1842,
,,,,,,,,,,,,,,,,,,,,,4+3= ?,,,,,,,,,,,,,,,,,,,,0,107,107,27,,,,,,,,,,,,,,,,,,,,,moral_self_bias,25,19,60.0131922157,f,001,2018_Apr_02_1842,
,,,,,,,,,,,,,,,,,,,,,8*1= ?,,,,,,,,,,,,,,,,,,,,0,108,108,111,,,,,,,,,,,,,,,,,,,,,moral_self_bias,25,19,60.0131922157,f,001,2018_Apr_02_1842,
,,,,,,,,,,,,,,,,,,,,,3+1= ?,,,,,,,,,,,,,,,,,,,,0,109,109,16,,,,,,,,,,,,,,,,,,,,,moral_self_bias,25,19,60.0131922157,f,001,2018_Apr_02_1842,
,,,,,,,,,,,,,,,,,,,,,12-5=？,,,,,,,,,,,,,,,,,,,,0,110,110,65,,,,,,,,,,,,,,,,,,,,,moral_self_bias,25,19,60.0131922157,f,001,2018_Apr_02_1842,
,,,,,,,,,,,,,,,,,,,,,3^1= ?,,,,,,,,,,,,,,,,,,,,0,111,111,101,,,,,,,,,,,,,,,,,,,,,moral_self_bias,25,19,60.0131922157,f,001,2018_Apr_02_1842,
,,,,,,,,,,,,,,,,,,,,,12/12= ?,,,,,,,,,,,,,,,,,,,,0,112,112,91,,,,,,,,,,,,,,,,,,,,,moral_self_bias,25,19,60.0131922157,f,001,2018_Apr_02_1842,
,,,,,,,,,,,,,,,,,,,,,4+1= ?,,,,,,,,,,,,,,,,,,,,0,113,113,25,,,,,,,,,,,,,,,,,,,,,moral_self_bias,25,19,60.0131922157,f,001,2018_Apr_02_1842,
,,,,,,,,,,,,,,,,,,,,,81/9= ?,,,,,,,,,,,,,,,,,,,,0,114,114,75,,,,,,,,,,,,,,,,,,,,,moral_self_bias,25,19,60.0131922157,f,001,2018_Apr_02_1842,
,,,,,,,,,,,,,,,,,,,,,1-1= ?,,,,,,,,,,,,,,,,,,,,0,115,115,52,,,,,,,,,,,,,,,,,,,,,moral_self_bias,25,19,60.0131922157,f,001,2018_Apr_02_1842,
,,,,,,,,,,,,,,,,,,,,,19-17= ?,,,,,,,,,,,,,,,,,,,,0,116,116,100,,,,,,,,,,,,,,,,,,,,,moral_self_bias,25,19,60.0131922157,f,001,2018_Apr_02_1842,
,,,,,,,,,,,,,,,,,,,,,8-1= ?,,,,,,,,,,,,,,,,,,,,0,117,117,33,,,,,,,,,,,,,,,,,,,,,moral_self_bias,25,19,60.0131922157,f,001,2018_Apr_02_1842,
,,,,,,,,,,,,,,,,,,,,,7*0= ?,,,,,,,,,,,,,,,,,,,,0,118,118,88,,,,,,,,,,,,,,,,,,,,,moral_self_bias,25,19,60.0131922157,f,001,2018_Apr_02_1842,
,,,,,,,,,,,,,,,,,,,,,8+1= ?,,,,,,,,,,,,,,,,,,,,0,119,119,48,,,,,,,,,,,,,,,,,,,,,moral_self_bias,25,19,60.0131922157,f,001,2018_Apr_02_1842,
,,,,,,,,,,,,,,,,,,,,,,,,,,,,,,,,,,,,,,,,,,,,,,,,,,,,,,,,,1,6.59325814247,,,,,,,moral_self_bias,25,19,60.0131922157,f,001,2018_Apr_02_1842,
,,,,,,,,,,,,,,,,,,,,,,material/171.png,1,高效,material/67.png,1,material/171.png,骁勇,1,j,j,j,2,2,2,高效,,,,,,,,,0,0,0,65,,,,,,,,,,,j,1,16.1411249638,,,,moral_self_bias,25,19,60.0131922157,f,001,2018_Apr_02_1842,
,,,,,,,,,,,,,,,,,,,,,,material/159.png,2,弱智,material/59.png,2,material/159.png,智障,2,j,j,j,2,2,2,弱智,,,,,,,,,0,1,1,58,,,,,,,,,,,j,1,2.67412185669,,,,moral_self_bias,25,19,60.0131922157,f,001,2018_Apr_02_1842,
,,,,,,,,,,,,,,,,,,,,,,material/181.png,2,怠惰,material/180.png,2,material/180.png,怠惰,2,f,f,f,2,2,2,犹豫,,,,,,,,,0,2,2,159,0,0,0,0,,,,,,,f,1,1.92356491089,j,0,11.2590129375,moral_self_bias,25,19,60.0131922157,f,001,2018_Apr_02_1842,
,,,,,,,,,,,,,,,,,,,,,,material/181.png,2,怠惰,material/180.png,2,material/180.png,怠惰,2,f,f,f,2,2,2,犹豫,,,,,,,,,0,2,2,159,,,,,,,,,,,,,,,,,moral_self_bias,25,19,60.0131922157,f,001,2018_Apr_02_1842,
,,,,,,,,,,,,,,,,,,,,,,material/8.png,1,无私,material/108.png,1,material/108.png,无私,1,f,f,f,1,1,1,公道,,,,,,,,,0,3,3,87,0,0,0,0,,,,,,,f,1,8.25814008713,j,0,1.17563390732,moral_self_bias,25,19,60.0131922157,f,001,2018_Apr_02_1842,
,,,,,,,,,,,,,,,,,,,,,,material/8.png,1,无私,material/108.png,1,material/108.png,无私,1,f,f,f,1,1,1,公道,,,,,,,,,0,3,3,87,,,,,,,,,,,,,,,,,moral_self_bias,25,19,60.0131922157,f,001,2018_Apr_02_1842,
,,,,,,,,,,,,,,,,,,,,,,material/75.png,2,卑劣,material/74.png,2,material/74.png,卑劣,2,j,j,j,1,1,1,害人,,,,,,,,,0,4,4,70,0,0,0,0,,,,,,,f,0,3.39051294327,f,1,3.77356100082,moral_self_bias,25,19,60.0131922157,f,001,2018_Apr_02_1842,
,,,,,,,,,,,,,,,,,,,,,,material/75.png,2,卑劣,material/74.png,2,material/74.png,卑劣,2,j,j,j,1,1,1,害人,,,,,,,,,0,4,4,70,,,,,,,,,,,,,,,,,moral_self_bias,25,19,60.0131922157,f,001,2018_Apr_02_1842,
,,,,,,,,,,,,,,,,,,,,,,material/64.png,1,谦虚,material/165.png,1,material/65.png,独立,1,f,f,f,1,1,1,奉献,,,,,,,,,0,5,5,144,0,0,0,0,,,,,,,f,1,5.07547903061,f,1,1.19181799889,moral_self_bias,25,19,60.0131922157,f,001,2018_Apr_02_1842,
,,,,,,,,,,,,,,,,,,,,,,material/64.png,1,谦虚,material/165.png,1,material/65.png,独立,1,f,f,f,1,1,1,奉献,,,,,,,,,0,5,5,144,,,,,,,,,,,,,,,,,moral_self_bias,25,19,60.0131922157,f,001,2018_Apr_02_1842,
,,,,,,,,,,,,,,,,,,,,,,material/10.png,1,坚毅,material/110.png,1,material/110.png,坚毅,1,f,f,f,1,1,1,顽强,,,,,,,,,0,6,6,89,0,0,0,0,,,,,,,f,1,16.3912959099,j,0,0.825371026993,moral_self_bias,25,19,60.0131922157,f,001,2018_Apr_02_1842,
,,,,,,,,,,,,,,,,,,,,,,material/10.png,1,坚毅,material/110.png,1,material/110.png,坚毅,1,f,f,f,1,1,1,顽强,,,,,,,,,0,6,6,89,,,,,,,,,,,,,,,,,moral_self_bias,25,19,60.0131922157,f,001,2018_Apr_02_1842,
,,,,,,,,,,,,,,,,,,,,,,material/18.png,1,敏锐,material/118.png,1,material/18.png,机敏,1,f,f,f,2,2,2,敏锐,,,,,,,,,0,7,7,97,0,0,0,0,,,,,,,f,1,3.27503204346,j,0,0.441255092621,moral_self_bias,25,19,60.0131922157,f,001,2018_Apr_02_1842,
,,,,,,,,,,,,,,,,,,,,,,material/18.png,1,敏锐,material/118.png,1,material/18.png,机敏,1,f,f,f,2,2,2,敏锐,,,,,,,,,0,7,7,97,,,,,,,,,,,,,,,,,moral_self_bias,25,19,60.0131922157,f,001,2018_Apr_02_1842,
,,,,,,,,,,,,,,,,,,,,,,material/30.png,1,上进,material/130.png,1,material/30.png,进取,1,f,f,f,2,2,2,上进,,,,,,,,,0,8,8,109,,,,,,,,,,,j,0,3.0413749218,,,,moral_self_bias,25,19,60.0131922157,f,001,2018_Apr_02_1842,
,,,,,,,,,,,,,,,,,,,,,,material/135.png,2,冷漠,material/35.png,2,material/35.png,冷漠,2,j,j,j,1,1,1,冷血,,,,,,,,,0,9,9,34,,,,,,,,,,,j,1,13.5746200085,,,,moral_self_bias,25,19,60.0131922157,f,001,2018_Apr_02_1842,
,,,,,,,,,,,,,,,,,,,,,,material/164.png,1,宽容,material/63.png,1,material/163.png,文明,1,j,j,j,1,1,1,孝顺,,,,,,,,,0,10,10,62,,,,,,,,,,,j,1,1.23294591904,,,,moral_self_bias,25,19,60.0131922157,f,001,2018_Apr_02_1842,
,,,,,,,,,,,,,,,,,,,,,,material/24.png,1,理智,material/124.png,1,material/24.png,冷静,1,f,f,f,2,2,2,理智,,,,,,,,,0,11,11,103,,,,,,,,,,,j,0,2.32454013824,,,,moral_self_bias,25,19,60.0131922157,f,001,2018_Apr_02_1842,
,,,,,,,,,,,,,,,,,,,,,,material/158.png,2,浅薄,material/58.png,2,material/158.png,肤浅,2,j,j,j,2,2,2,浅薄,,,,,,,,,0,12,12,57,,,,,,,,,,,j,1,1.94019699097,,,,moral_self_bias,25,19,60.0131922157,f,001,2018_Apr_02_1842,
,,,,,,,,,,,,,,,,,,,,,,material/57.png,2,无知,material/157.png,2,material/57.png,无能,2,f,f,f,2,2,2,无知,,,,,,,,,0,13,13,136,0,0,0,0,,,,,,,f,1,1.50753712654,j,0,4.59067606926,moral_self_bias,25,19,60.0131922157,f,001,2018_Apr_02_1842,
,,,,,,,,,,,,,,,,,,,,,,material/57.png,2,无知,material/157.png,2,material/57.png,无能,2,f,f,f,2,2,2,无知,,,,,,,,,0,13,13,136,,,,,,,,,,,,,,,,,moral_self_bias,25,19,60.0131922157,f,001,2018_Apr_02_1842,
,,,,,,,,,,,,,,,,,,,,,,material/114.png,1,爱国,material/14.png,1,material/14.png,爱国,1,j,j,j,1,1,1,忠贞,,,,,,,,,0,14,14,13,,,,,,,,,,,j,1,1.17250990868,,,,moral_self_bias,25,19,60.0131922157,f,001,2018_Apr_02_1842,
,,,,,,,,,,,,,,,,,,,,,,material/49.png,2,痴呆,material/149.png,2,material/49.png,白痴,2,f,f,f,2,2,2,痴呆,,,,,,,,,0,15,15,128,0,0,0,0,,,,,,,f,1,3.85026621819,j,0,9.47372317314,moral_self_bias,25,19,60.0131922157,f,001,2018_Apr_02_1842,
,,,,,,,,,,,,,,,,,,,,,,material/49.png,2,痴呆,material/149.png,2,material/49.png,白痴,2,f,f,f,2,2,2,痴呆,,,,,,,,,0,15,15,128,,,,,,,,,,,,,,,,,moral_self_bias,25,19,60.0131922157,f,001,2018_Apr_02_1842,
,,,,,,,,,,,,,,,,,,,,,,material/71.png,1,严谨,material/68.png,1,material/71.png,广博,1,j,j,j,2,2,2,严谨,,,,,,,,,0,16,16,66,,,,,,,,,,,j,1,1.09112691879,,,,moral_self_bias,25,19,60.0131922157,f,001,2018_Apr_02_1842,
,,,,,,,,,,,,,,,,,,,,,,material/151.png,2,迷糊,material/51.png,2,material/151.png,糊涂,2,j,j,j,2,2,2,迷糊,,,,,,,,,0,17,17,50,0,0,0,0,,,,,,,f,0,2.15723896027,j,0,0.674582004547,moral_self_bias,25,19,60.0131922157,f,001,2018_Apr_02_1842,
,,,,,,,,,,,,,,,,,,,,,,material/151.png,2,迷糊,material/51.png,2,material/151.png,糊涂,2,j,j,j,2,2,2,迷糊,,,,,,,,,0,17,17,50,,,,,,,,,,,,,,,,,moral_self_bias,25,19,60.0131922157,f,001,2018_Apr_02_1842,
,,,,,,,,,,,,,,,,,,,,,,material/178.png,2,窝囊,material/82.png,2,material/82.png,窝囊,2,j,j,j,2,2,2,毛糙,,,,,,,,,0,18,18,78,,,,,,,,,,,j,1,1.24160003662,,,,moral_self_bias,25,19,60.0131922157,f,001,2018_Apr_02_1842,
,,,,,,,,,,,,,,,,,,,,,,material/154.png,2,依靠,material/54.png,2,material/154.png,依赖,2,j,j,j,2,2,2,依靠,,,,,,,,,0,19,19,53,0,0,0,0,,,,,,,f,0,1.02466583252,f,1,2.15818619728,moral_self_bias,25,19,60.0131922157,f,001,2018_Apr_02_1842,
,,,,,,,,,,,,,,,,,,,,,,material/154.png,2,依靠,material/54.png,2,material/154.png,依赖,2,j,j,j,2,2,2,依靠,,,,,,,,,0,19,19,53,,,,,,,,,,,,,,,,,moral_self_bias,25,19,60.0131922157,f,001,2018_Apr_02_1842,
,,,,,,,,,,,,,,,,,,,,,,material/44.png,2,爽约,material/144.png,2,material/144.png,爽约,2,f,f,f,1,1,1,失信,,,,,,,,,0,20,20,123,0,0,0,0,,,,,,,f,1,1.80762696266,j,0,1.09233689308,moral_self_bias,25,19,60.0131922157,f,001,2018_Apr_02_1842,
,,,,,,,,,,,,,,,,,,,,,,material/44.png,2,爽约,material/144.png,2,material/144.png,爽约,2,f,f,f,1,1,1,失信,,,,,,,,,0,20,20,123,,,,,,,,,,,,,,,,,moral_self_bias,25,19,60.0131922157,f,001,2018_Apr_02_1842,
,,,,,,,,,,,,,,,,,,,,,,material/172.png,2,无情,material/175.png,2,material/175.png,无情,2,f,f,f,1,1,1,浮夸,,,,,,,,,0,21,21,154,0,0,0,0,,,,,,,f,1,1.87457084656,f,1,1.92564797401,moral_self_bias,25,19,60.0131922157,f,001,2018_Apr_02_1842,
,,,,,,,,,,,,,,,,,,,,,,material/172.png,2,无情,material/175.png,2,material/175.png,无情,2,f,f,f,1,1,1,浮夸,,,,,,,,,0,21,21,154,,,,,,,,,,,,,,,,,moral_self_bias,25,19,60.0131922157,f,001,2018_Apr_02_1842,
,,,,,,,,,,,,,,,,,,,,,,material/118.png,1,机敏,material/18.png,1,material/118.png,敏锐,1,j,j,j,2,2,2,机敏,,,,,,,,,0,22,22,17,0,0,0,0,,,,,,,f,0,9.89117598534,j,0,0.633929014206,moral_self_bias,25,19,60.0131922157,f,001,2018_Apr_02_1842,
,,,,,,,,,,,,,,,,,,,,,,material/118.png,1,机敏,material/18.png,1,material/118.png,敏锐,1,j,j,j,2,2,2,机敏,,,,,,,,,0,22,22,17,,,,,,,,,,,,,,,,,moral_self_bias,25,19,60.0131922157,f,001,2018_Apr_02_1842,
,,,,,,,,,,,,,,,,,,,,,,material/119.png,1,机灵,material/19.png,1,material/119.png,灵活,1,j,j,j,2,2,2,机灵,,,,,,,,,0,23,23,18,,,,,,,,,,,j,1,1.17482995987,,,,moral_self_bias,25,19,60.0131922157,f,001,2018_Apr_02_1842,
,,,,,,,,,,,,,,,,,,,,,,material/140.png,2,邪恶,material/40.png,2,material/40.png,邪恶,2,j,j,j,1,1,1,狠毒,,,,,,,,,0,24,24,39,0,0,0,0,,,,,,,f,0,1.70770215988,f,1,0.87411904335,moral_self_bias,25,19,60.0131922157,f,001,2018_Apr_02_1842,
,,,,,,,,,,,,,,,,,,,,,,material/140.png,2,邪恶,material/40.png,2,material/40.png,邪恶,2,j,j,j,1,1,1,狠毒,,,,,,,,,0,24,24,39,,,,,,,,,,,,,,,,,moral_self_bias,25,19,60.0131922157,f,001,2018_Apr_02_1842,
,,,,,,,,,,,,,,,,,,,,,,material/50.png,2,愚笨,material/150.png,2,material/50.png,鲁钝,2,f,f,f,2,2,2,愚笨,,,,,,,,,0,25,25,129,0,0,0,0,,,,,,,f,1,1.39243817329,f,1,3.1570661068,moral_self_bias,25,19,60.0131922157,f,001,2018_Apr_02_1842,
,,,,,,,,,,,,,,,,,,,,,,material/50.png,2,愚笨,material/150.png,2,material/50.png,鲁钝,2,f,f,f,2,2,2,愚笨,,,,,,,,,0,25,25,129,,,,,,,,,,,,,,,,,moral_self_bias,25,19,60.0131922157,f,001,2018_Apr_02_1842,
,,,,,,,,,,,,,,,,,,,,,,material/29.png,1,好学,material/129.png,1,material/29.png,好问,1,f,f,f,2,2,2,好学,,,,,,,,,0,26,26,108,0,0,0,0,,,,,,,f,1,2.62474012375,f,1,6.59203314781,moral_self_bias,25,19,60.0131922157,f,001,2018_Apr_02_1842,
,,,,,,,,,,,,,,,,,,,,,,material/29.png,1,好学,material/129.png,1,material/29.png,好问,1,f,f,f,2,2,2,好学,,,,,,,,,0,26,26,108,,,,,,,,,,,,,,,,,moral_self_bias,25,19,60.0131922157,f,001,2018_Apr_02_1842,
,,,,,,,,,,,,,,,,,,,,,,material/80.png,2,才尽,material/83.png,2,material/182.png,呆笨,2,j,j,j,2,2,2,健忘,,,,,,,,,0,27,27,79,,,,,,,,,,,j,1,1.09114694595,,,,moral_self_bias,25,19,60.0131922157,f,001,2018_Apr_02_1842,
,,,,,,,,,,,,,,,,,,,,,,material/165.png,1,平等,material/161.png,1,material/61.png,勇敢,1,f,f,f,1,1,1,独立,,,,,,,,,0,28,28,140,0,0,0,0,,,,,,,f,1,4.21717619896,j,0,0.325098991394,moral_self_bias,25,19,60.0131922157,f,001,2018_Apr_02_1842,
,,,,,,,,,,,,,,,,,,,,,,material/165.png,1,平等,material/161.png,1,material/61.png,勇敢,1,f,f,f,1,1,1,独立,,,,,,,,,0,28,28,140,,,,,,,,,,,,,,,,,moral_self_bias,25,19,60.0131922157,f,001,2018_Apr_02_1842,
,,,,,,,,,,,,,,,,,,,,,,material/51.png,2,糊涂,material/151.png,2,material/51.png,迷糊,2,f,f,f,2,2,2,糊涂,,,,,,,,,0,29,29,130,0,0,0,0,,,,,,,f,1,2.69094586372,j,0,0.159422159195,moral_self_bias,25,19,60.0131922157,f,001,2018_Apr_02_1842,
,,,,,,,,,,,,,,,,,,,,,,material/51.png,2,糊涂,material/151.png,2,material/51.png,迷糊,2,f,f,f,2,2,2,糊涂,,,,,,,,,0,29,29,130,,,,,,,,,,,,,,,,,moral_self_bias,25,19,60.0131922157,f,001,2018_Apr_02_1842,
,,,,,,,,,,,,,,,,,,,,,,material/153.png,2,迟钝,material/53.png,2,material/153.png,迟缓,2,j,j,j,2,2,2,迟钝,,,,,,,,,0,30,30,52,0,0,0,0,,,,,,,f,0,4.11708903313,j,0,1.90742397308,moral_self_bias,25,19,60.0131922157,f,001,2018_Apr_02_1842,
,,,,,,,,,,,,,,,,,,,,,,material/153.png,2,迟钝,material/53.png,2,material/153.png,迟缓,2,j,j,j,2,2,2,迟钝,,,,,,,,,0,30,30,52,,,,,,,,,,,,,,,,,moral_self_bias,25,19,60.0131922157,f,001,2018_Apr_02_1842,
,,,,,,,,,,,,,,,,,,,,,,material/127.png,1,超群,material/27.png,1,material/127.png,卓越,1,j,j,j,2,2,2,超群,,,,,,,,,0,31,31,26,,,,,,,,,,,j,1,4.49116802216,,,,moral_self_bias,25,19,60.0131922157,f,001,2018_Apr_02_1842,
,,,,,,,,,,,,,,,,,,,,,,material/35.png,2,冷血,material/135.png,2,material/135.png,冷血,2,f,f,f,1,1,1,冷漠,,,,,,,,,0,32,32,114,,,,,,,,,,,j,0,2.02405714989,,,,moral_self_bias,25,19,60.0131922157,f,001,2018_Apr_02_1842,
,,,,,,,,,,,,,,,,,,,,,,material/160.png,2,笨拙,material/60.png,2,material/160.png,粗拙,2,j,j,j,2,2,2,笨拙,,,,,,,,,0,33,33,59,,,,,,,,,,,j,1,1.29136300087,,,,moral_self_bias,25,19,60.0131922157,f,001,2018_Apr_02_1842,
,,,,,,,,,,,,,,,,,,,,,,material/52.png,2,拖延,material/152.png,2,material/52.png,缓慢,2,f,f,f,2,2,2,拖延,,,,,,,,,0,34,34,131,,,,,,,,,,,j,0,8.27470111847,,,,moral_self_bias,25,19,60.0131922157,f,001,2018_Apr_02_1842,
,,,,,,,,,,,,,,,,,,,,,,material/103.png,1,仁慈,material/3.png,1,material/3.png,仁慈,1,j,j,j,1,1,1,仁厚,,,,,,,,,0,35,35,2,0,0,0,0,,,,,,,f,0,1.71728301048,f,1,0.757751226425,moral_self_bias,25,19,60.0131922157,f,001,2018_Apr_02_1842,
,,,,,,,,,,,,,,,,,,,,,,material/103.png,1,仁慈,material/3.png,1,material/3.png,仁慈,1,j,j,j,1,1,1,仁厚,,,,,,,,,0,35,35,2,,,,,,,,,,,,,,,,,moral_self_bias,25,19,60.0131922157,f,001,2018_Apr_02_1842,
,,,,,,,,,,,,,,,,,,,,,,material/34.png,2,可恶,material/134.png,2,material/134.png,可恶,2,f,f,f,1,1,1,可恨,,,,,,,,,0,36,36,113,0,0,0,0,,,,,,,f,1,1.44182920456,j,0,1.93396997452,moral_self_bias,25,19,60.0131922157,f,001,2018_Apr_02_1842,
,,,,,,,,,,,,,,,,,,,,,,material/34.png,2,可恶,material/134.png,2,material/134.png,可恶,2,f,f,f,1,1,1,可恨,,,,,,,,,0,36,36,113,,,,,,,,,,,,,,,,,moral_self_bias,25,19,60.0131922157,f,001,2018_Apr_02_1842,
,,,,,,,,,,,,,,,,,,,,,,material/152.png,2,缓慢,material/52.png,2,material/152.png,拖延,2,j,j,j,2,2,2,缓慢,,,,,,,,,0,37,37,51,0,0,0,0,,,,,,,f,0,1.0741379261,f,1,2.19192290306,moral_self_bias,25,19,60.0131922157,f,001,2018_Apr_02_1842,
,,,,,,,,,,,,,,,,,,,,,,material/152.png,2,缓慢,material/52.png,2,material/152.png,拖延,2,j,j,j,2,2,2,缓慢,,,,,,,,,0,37,37,51,,,,,,,,,,,,,,,,,moral_self_bias,25,19,60.0131922157,f,001,2018_Apr_02_1842,
,,,,,,,,,,,,,,,,,,,,,,material/82.png,2,毛糙,material/183.png,2,material/178.png,薄弱,2,f,f,f,2,2,2,窝囊,,,,,,,,,0,38,38,162,,,,,,,,,,,j,0,1.50675296783,,,,moral_self_bias,25,19,60.0131922157,f,001,2018_Apr_02_1842,
,,,,,,,,,,,,,,,,,,,,,,material/122.png,1,博学,material/22.png,1,material/122.png,才学,1,j,j,j,2,2,2,博学,,,,,,,,,0,39,39,21,0,0,0,0,,,,,,,f,0,3.47455883026,j,0,1.34149599075,moral_self_bias,25,19,60.0131922157,f,001,2018_Apr_02_1842,
,,,,,,,,,,,,,,,,,,,,,,material/122.png,1,博学,material/22.png,1,material/122.png,才学,1,j,j,j,2,2,2,博学,,,,,,,,,0,39,39,21,,,,,,,,,,,,,,,,,moral_self_bias,25,19,60.0131922157,f,001,2018_Apr_02_1842,
,,,,,,,,,,,,,,,,,,,,,,material/16.png,1,睿智,material/116.png,1,material/16.png,机智,1,f,f,f,2,2,2,睿智,,,,,,,,,0,40,40,95,0,0,0,0,,,,,,,f,1,2.51757717133,j,0,7.09137201309,moral_self_bias,25,19,60.0131922157,f,001,2018_Apr_02_1842,
,,,,,,,,,,,,,,,,,,,,,,material/16.png,1,睿智,material/116.png,1,material/16.png,机智,1,f,f,f,2,2,2,睿智,,,,,,,,,0,40,40,95,,,,,,,,,,,,,,,,,moral_self_bias,25,19,60.0131922157,f,001,2018_Apr_02_1842,
,,,,,,,,,,,,,,,,,,,,,,material/54.png,2,依赖,material/154.png,2,material/54.png,依靠,2,f,f,f,2,2,2,依赖,,,,,,,,,0,41,41,133,0,0,0,0,,,,,,,f,1,1.85109210014,f,1,0.690769195557,moral_self_bias,25,19,60.0131922157,f,001,2018_Apr_02_1842,
,,,,,,,,,,,,,,,,,,,,,,material/54.png,2,依赖,material/154.png,2,material/54.png,依靠,2,f,f,f,2,2,2,依赖,,,,,,,,,0,41,41,133,,,,,,,,,,,,,,,,,moral_self_bias,25,19,60.0131922157,f,001,2018_Apr_02_1842,
,,,,,,,,,,,,,,,,,,,,,,material/37.png,2,卑鄙,material/137.png,2,material/137.png,卑鄙,2,f,f,f,1,1,1,无耻,,,,,,,,,0,42,42,116,0,0,0,0,,,,,,,f,1,1.27511096001,f,1,0.857715129852,moral_self_bias,25,19,60.0131922157,f,001,2018_Apr_02_1842,
,,,,,,,,,,,,,,,,,,,,,,material/37.png,2,卑鄙,material/137.png,2,material/137.png,卑鄙,2,f,f,f,1,1,1,无耻,,,,,,,,,0,42,42,116,,,,,,,,,,,,,,,,,moral_self_bias,25,19,60.0131922157,f,001,2018_Apr_02_1842,
,,,,,,,,,,,,,,,,,,,,,,material/48.png,2,愚蠢,material/148.png,2,material/48.png,笨蛋,2,f,f,f,2,2,2,愚蠢,,,,,,,,,0,43,43,127,0,0,0,0,,,,,,,f,1,4.42394804955,j,0,0.174957990646,moral_self_bias,25,19,60.0131922157,f,001,2018_Apr_02_1842,
,,,,,,,,,,,,,,,,,,,,,,material/48.png,2,愚蠢,material/148.png,2,material/48.png,笨蛋,2,f,f,f,2,2,2,愚蠢,,,,,,,,,0,43,43,127,,,,,,,,,,,,,,,,,moral_self_bias,25,19,60.0131922157,f,001,2018_Apr_02_1842,
,,,,,,,,,,,,,,,,,,,,,,material/117.png,1,聪颖,material/17.png,1,material/117.png,聪明,1,j,j,j,2,2,2,聪颖,,,,,,,,,0,44,44,16,0,0,0,0,,,,,,,f,0,3.59114122391,j,0,0.358247995377,moral_self_bias,25,19,60.0131922157,f,001,2018_Apr_02_1842,
,,,,,,,,,,,,,,,,,,,,,,material/117.png,1,聪颖,material/17.png,1,material/117.png,聪明,1,j,j,j,2,2,2,聪颖,,,,,,,,,0,44,44,16,,,,,,,,,,,,,,,,,moral_self_bias,25,19,60.0131922157,f,001,2018_Apr_02_1842,
,,,,,,,,,,,,,,,,,,,,,,material/15.png,1,纯洁,material/115.png,1,material/115.png,纯洁,1,f,f,f,1,1,1,清白,,,,,,,,,0,45,45,94,0,0,0,0,,,,,,,f,1,1.60877299309,j,0,1.65849590302,moral_self_bias,25,19,60.0131922157,f,001,2018_Apr_02_1842,
,,,,,,,,,,,,,,,,,,,,,,material/15.png,1,纯洁,material/115.png,1,material/115.png,纯洁,1,f,f,f,1,1,1,清白,,,,,,,,,0,45,45,94,,,,,,,,,,,,,,,,,moral_self_bias,25,19,60.0131922157,f,001,2018_Apr_02_1842,
,,,,,,,,,,,,,,,,,,,,,,material/155.png,2,盲目,material/55.png,2,material/155.png,盲从,2,j,j,j,2,2,2,盲目,,,,,,,,,0,46,46,54,0,0,0,0,,,,,,,f,0,2.00868988037,f,1,0.575742006302,moral_self_bias,25,19,60.0131922157,f,001,2018_Apr_02_1842,
,,,,,,,,,,,,,,,,,,,,,,material/155.png,2,盲目,material/55.png,2,material/155.png,盲从,2,j,j,j,2,2,2,盲目,,,,,,,,,0,46,46,54,,,,,,,,,,,,,,,,,moral_self_bias,25,19,60.0131922157,f,001,2018_Apr_02_1842,
,,,,,,,,,,,,,,,,,,,,,,material/56.png,2,愚昧,material/156.png,2,material/56.png,愚钝,2,f,f,f,2,2,2,愚昧,,,,,,,,,0,47,47,135,0,0,0,0,,,,,,,f,1,1.00780487061,f,1,0.392442941666,moral_self_bias,25,19,60.0131922157,f,001,2018_Apr_02_1842,
,,,,,,,,,,,,,,,,,,,,,,material/56.png,2,愚昧,material/156.png,2,material/56.png,愚钝,2,f,f,f,2,2,2,愚昧,,,,,,,,,0,47,47,135,,,,,,,,,,,,,,,,,moral_self_bias,25,19,60.0131922157,f,001,2018_Apr_02_1842,
,,,,,,,,,,,,,,,,,,,,,,material/138.png,2,无德,material/38.png,2,material/38.png,无德,2,j,j,j,1,1,1,缺德,,,,,,,,,0,48,48,37,,,,,,,,,,,j,1,2.42430019379,,,,moral_self_bias,25,19,60.0131922157,f,001,2018_Apr_02_1842,
,,,,,,,,,,,,,,,,,,,,,,material/2.png,1,爱心,material/102.png,1,material/102.png,爱心,1,f,f,f,1,1,1,善心,,,,,,,,,0,49,49,81,0,0,0,0,,,,,,,f,1,5.65834593773,f,1,0.734336853027,moral_self_bias,25,19,60.0131922157,f,001,2018_Apr_02_1842,
,,,,,,,,,,,,,,,,,,,,,,material/2.png,1,爱心,material/102.png,1,material/102.png,爱心,1,f,f,f,1,1,1,善心,,,,,,,,,0,49,49,81,,,,,,,,,,,,,,,,,moral_self_bias,25,19,60.0131922157,f,001,2018_Apr_02_1842,
,,,,,,,,,,,,,,,,,,,,,,material/19.png,1,灵活,material/119.png,1,material/19.png,机灵,1,f,f,f,2,2,2,灵活,,,,,,,,,0,50,50,98,,,,,,,,,,,j,0,1.17485785484,,,,moral_self_bias,25,19,60.0131922157,f,001,2018_Apr_02_1842,
,,,,,,,,,,,,,,,,,,,,,,material/59.png,2,智障,material/159.png,2,material/59.png,弱智,2,f,f,f,2,2,2,智障,,,,,,,,,0,51,51,138,0,0,0,0,,,,,,,f,1,2.40830111504,j,0,1.00825214386,moral_self_bias,25,19,60.0131922157,f,001,2018_Apr_02_1842,
,,,,,,,,,,,,,,,,,,,,,,material/59.png,2,智障,material/159.png,2,material/59.png,弱智,2,f,f,f,2,2,2,智障,,,,,,,,,0,51,51,138,,,,,,,,,,,,,,,,,moral_self_bias,25,19,60.0131922157,f,001,2018_Apr_02_1842,
,,,,,,,,,,,,,,,,,,,,,,material/121.png,1,精干,material/21.png,1,material/121.png,干练,1,j,j,j,2,2,2,精干,,,,,,,,,0,52,52,20,,,,,,,,,,,j,1,3.62320494652,,,,moral_self_bias,25,19,60.0131922157,f,001,2018_Apr_02_1842,
,,,,,,,,,,,,,,,,,,,,,,material/25.png,1,果断,material/125.png,1,material/25.png,果敢,1,f,f,f,2,2,2,果断,,,,,,,,,0,53,53,104,0,0,0,0,,,,,,,f,1,1.25739502907,j,0,0.941909074783,moral_self_bias,25,19,60.0131922157,f,001,2018_Apr_02_1842,
,,,,,,,,,,,,,,,,,,,,,,material/25.png,1,果断,material/125.png,1,material/25.png,果敢,1,f,f,f,2,2,2,果断,,,,,,,,,0,53,53,104,,,,,,,,,,,,,,,,,moral_self_bias,25,19,60.0131922157,f,001,2018_Apr_02_1842,
,,,,,,,,,,,,,,,,,,,,,,material/179.png,2,顽愚,material/178.png,2,material/84.png,毛糙,2,f,f,f,2,2,2,差生,,,,,,,,,0,54,54,157,,,,,,,,,,,j,0,0.924427032471,,,,moral_self_bias,25,19,60.0131922157,f,001,2018_Apr_02_1842,
,,,,,,,,,,,,,,,,,,,,,,material/27.png,1,卓越,material/127.png,1,material/27.png,超群,1,f,f,f,2,2,2,卓越,,,,,,,,,0,55,55,106,0,0,0,0,,,,,,,f,1,1.14174890518,j,0,1.30844807625,moral_self_bias,25,19,60.0131922157,f,001,2018_Apr_02_1842,
,,,,,,,,,,,,,,,,,,,,,,material/27.png,1,卓越,material/127.png,1,material/27.png,超群,1,f,f,f,2,2,2,卓越,,,,,,,,,0,55,55,106,,,,,,,,,,,,,,,,,moral_self_bias,25,19,60.0131922157,f,001,2018_Apr_02_1842,
,,,,,,,,,,,,,,,,,,,,,,material/72.png,2,软弱,material/77.png,2,material/77.png,软弱,2,j,j,j,1,1,1,谄媚,,,,,,,,,0,56,56,73,,,,,,,,,,,j,1,1.97430920601,,,,moral_self_bias,25,19,60.0131922157,f,001,2018_Apr_02_1842,
,,,,,,,,,,,,,,,,,,,,,,material/129.png,1,好问,material/29.png,1,material/129.png,好学,1,j,j,j,2,2,2,好问,,,,,,,,,0,57,57,28,,,,,,,,,,,j,1,2.00161099434,,,,moral_self_bias,25,19,60.0131922157,f,001,2018_Apr_02_1842,
,,,,,,,,,,,,,,,,,,,,,,material/58.png,2,肤浅,material/158.png,2,material/58.png,浅薄,2,f,f,f,2,2,2,肤浅,,,,,,,,,0,58,58,137,,,,,,,,,,,j,0,0.741295814514,,,,moral_self_bias,25,19,60.0131922157,f,001,2018_Apr_02_1842,
,,,,,,,,,,,,,,,,,,,,,,material/65.png,1,勇敢,material/61.png,1,material/161.png,平等,1,j,j,j,1,1,1,谦虚,,,,,,,,,0,59,59,60,,,,,,,,,,,j,1,1.79073596001,,,,moral_self_bias,25,19,60.0131922157,f,001,2018_Apr_02_1842,
,,,,,,,,,,,,,,,,,,,,,,material/170.png,1,坚忍,material/71.png,1,material/170.png,严谨,1,j,j,j,2,2,2,坚忍,,,,,,,,,0,60,60,68,,,,,,,,,,,j,1,8.75577998161,,,,moral_self_bias,25,19,60.0131922157,f,001,2018_Apr_02_1842,
,,,,,,,,,,,,,,,,,,,,,,material/70.png,1,全面,material/168.png,1,material/70.png,机变,1,f,f,f,2,2,2,全面,,,,,,,,,0,61,61,147,,,,,,,,,,,j,0,1.1746468544,,,,moral_self_bias,25,19,60.0131922157,f,001,2018_Apr_02_1842,
,,,,,,,,,,,,,,,,,,,,,,material/61.png,1,仗义,material/65.png,1,material/166.png,谦虚,1,j,j,j,1,1,1,平等,,,,,,,,,0,62,62,64,0,0,0,0,,,,,,,f,0,7.10794210434,j,0,0.525218963623,moral_self_bias,25,19,60.0131922157,f,001,2018_Apr_02_1842,
,,,,,,,,,,,,,,,,,,,,,,material/61.png,1,仗义,material/65.png,1,material/166.png,谦虚,1,j,j,j,1,1,1,平等,,,,,,,,,0,62,62,64,,,,,,,,,,,,,,,,,moral_self_bias,25,19,60.0131922157,f,001,2018_Apr_02_1842,
,,,,,,,,,,,,,,,,,,,,,,material/176.png,2,害人,material/75.png,2,material/75.png,害人,2,j,j,j,1,1,1,放纵,,,,,,,,,0,63,63,71,,,,,,,,,,,j,1,0.924787998199,,,,moral_self_bias,25,19,60.0131922157,f,001,2018_Apr_02_1842,
,,,,,,,,,,,,,,,,,,,,,,material/33.png,2,贪污,material/133.png,2,material/133.png,贪污,2,f,f,f,1,1,1,腐败,,,,,,,,,0,64,64,112,0,0,0,0,,,,,,,f,1,1.60766196251,f,1,0.758249998093,moral_self_bias,25,19,60.0131922157,f,001,2018_Apr_02_1842,
,,,,,,,,,,,,,,,,,,,,,,material/33.png,2,贪污,material/133.png,2,material/133.png,贪污,2,f,f,f,1,1,1,腐败,,,,,,,,,0,64,64,112,,,,,,,,,,,,,,,,,moral_self_bias,25,19,60.0131922157,f,001,2018_Apr_02_1842,
,,,,,,,,,,,,,,,,,,,,,,material/46.png,2,自私,material/146.png,2,material/146.png,自私,2,f,f,f,1,1,1,小气,,,,,,,,,0,65,65,125,0,0,0,0,,,,,,,f,1,1.09137392044,f,1,0.508530855179,moral_self_bias,25,19,60.0131922157,f,001,2018_Apr_02_1842,
,,,,,,,,,,,,,,,,,,,,,,material/46.png,2,自私,material/146.png,2,material/146.png,自私,2,f,f,f,1,1,1,小气,,,,,,,,,0,65,65,125,,,,,,,,,,,,,,,,,moral_self_bias,25,19,60.0131922157,f,001,2018_Apr_02_1842,
,,,,,,,,,,,,,,,,,,,,,,material/17.png,1,聪明,material/117.png,1,material/17.png,聪颖,1,f,f,f,2,2,2,聪明,,,,,,,,,0,66,66,96,0,0,0,0,,,,,,,f,1,2.07477402687,j,0,0.324162960052,moral_self_bias,25,19,60.0131922157,f,001,2018_Apr_02_1842,
,,,,,,,,,,,,,,,,,,,,,,material/17.png,1,聪明,material/117.png,1,material/17.png,聪颖,1,f,f,f,2,2,2,聪明,,,,,,,,,0,66,66,96,,,,,,,,,,,,,,,,,moral_self_bias,25,19,60.0131922157,f,001,2018_Apr_02_1842,
,,,,,,,,,,,,,,,,,,,,,,material/132.png,2,不忠,material/32.png,2,material/32.png,不忠,2,j,j,j,1,1,1,背叛,,,,,,,,,0,67,67,31,0,0,0,0,,,,,,,f,0,4.29142689705,j,0,0.740829944611,moral_self_bias,25,19,60.0131922157,f,001,2018_Apr_02_1842,
,,,,,,,,,,,,,,,,,,,,,,material/132.png,2,不忠,material/32.png,2,material/32.png,不忠,2,j,j,j,1,1,1,背叛,,,,,,,,,0,67,67,31,,,,,,,,,,,,,,,,,moral_self_bias,25,19,60.0131922157,f,001,2018_Apr_02_1842,
,,,,,,,,,,,,,,,,,,,,,,material/6.png,1,厚道,material/106.png,1,material/106.png,厚道,1,f,f,f,1,1,1,诚实,,,,,,,,,0,68,68,85,,,,,,,,,,,j,0,5.52210402489,,,,moral_self_bias,25,19,60.0131922157,f,001,2018_Apr_02_1842,
,,,,,,,,,,,,,,,,,,,,,,material/69.png,1,高明,material/69.png,1,material/69.png,高明,1,f,f,f,2,2,2,高明,,,,,,,,,0,69,69,166,,,,,,,,,,,j,0,1.32379579544,,,,moral_self_bias,25,19,60.0131922157,f,001,2018_Apr_02_1842,
,,,,,,,,,,,,,,,,,,,,,,material/174.png,2,虚伪,material/76.png,2,material/76.png,虚伪,2,j,j,j,1,1,1,不义,,,,,,,,,0,70,70,72,,,,,,,,,,,j,1,14.8251838684,,,,moral_self_bias,25,19,60.0131922157,f,001,2018_Apr_02_1842,
,,,,,,,,,,,,,,,,,,,,,,material/145.png,2,下流,material/45.png,2,material/45.png,下流,2,j,j,j,1,1,1,小人,,,,,,,,,0,71,71,44,,,,,,,,,,,j,1,1.22364902496,,,,moral_self_bias,25,19,60.0131922157,f,001,2018_Apr_02_1842,
,,,,,,,,,,,,,,,,,,,,,,material/5.png,1,诚信,material/105.png,1,material/105.png,诚信,1,f,f,f,1,1,1,守信,,,,,,,,,0,72,72,84,,,,,,,,,,,j,0,1.00784611702,,,,moral_self_bias,25,19,60.0131922157,f,001,2018_Apr_02_1842,
,,,,,,,,,,,,,,,,,,,,,,material/128.png,1,自律,material/28.png,1,material/128.png,克己,1,j,j,j,2,2,2,自律,,,,,,,,,0,73,73,27,,,,,,,,,,,j,1,0.823333978653,,,,moral_self_bias,25,19,60.0131922157,f,001,2018_Apr_02_1842,
,,,,,,,,,,,,,,,,,,,,,,material/111.png,1,高雅,material/11.png,1,material/11.png,高雅,1,j,j,j,1,1,1,高尚,,,,,,,,,0,74,74,10,,,,,,,,,,,j,1,1.24178504944,,,,moral_self_bias,25,19,60.0131922157,f,001,2018_Apr_02_1842,
,,,,,,,,,,,,,,,,,,,,,,material/112.png,1,忠诚,material/12.png,1,material/12.png,忠诚,1,j,j,j,1,1,1,忠心,,,,,,,,,0,75,75,11,,,,,,,,,,,j,1,11.0078341961,,,,moral_self_bias,25,19,60.0131922157,f,001,2018_Apr_02_1842,
,,,,,,,,,,,,,,,,,,,,,,material/66.png,1,独立,material/66.png,1,material/165.png,正义,1,f,f,f,1,1,1,正义,,,,,,,,,0,76,76,164,0,0,0,0,,,,,,,f,1,1.22521901131,f,1,2.69132804871,moral_self_bias,25,19,60.0131922157,f,001,2018_Apr_02_1842,
,,,,,,,,,,,,,,,,,,,,,,material/66.png,1,独立,material/66.png,1,material/165.png,正义,1,f,f,f,1,1,1,正义,,,,,,,,,0,76,76,164,,,,,,,,,,,,,,,,,moral_self_bias,25,19,60.0131922157,f,001,2018_Apr_02_1842,
,,,,,,,,,,,,,,,,,,,,,,material/163.png,1,文明,material/163.png,1,material/63.png,宽容,1,f,f,f,1,1,1,宽容,,,,,,,,,0,77,77,142,0,0,0,0,,,,,,,f,1,4.32340693474,f,1,1.99052381516,moral_self_bias,25,19,60.0131922157,f,001,2018_Apr_02_1842,
,,,,,,,,,,,,,,,,,,,,,,material/163.png,1,文明,material/163.png,1,material/63.png,宽容,1,f,f,f,1,1,1,宽容,,,,,,,,,0,77,77,142,,,,,,,,,,,,,,,,,moral_self_bias,25,19,60.0131922157,f,001,2018_Apr_02_1842,
,,,,,,,,,,,,,,,,,,,,,,material/20.png,1,厉害,material/120.png,1,material/20.png,能干,1,f,f,f,2,2,2,厉害,,,,,,,,,0,78,78,99,,,,,,,,,,,j,0,5.2716319561,,,,moral_self_bias,25,19,60.0131922157,f,001,2018_Apr_02_1842,
,,,,,,,,,,,,,,,,,,,,,,material/83.png,2,差生,material/78.png,2,material/179.png,草率,2,j,j,j,2,2,2,呆笨,,,,,,,,,0,79,79,74,,,,,,,,,,,j,1,0.742156982422,,,,moral_self_bias,25,19,60.0131922157,f,001,2018_Apr_02_1842,
,,,,,,,,,,,,,,,,,,,,,,material/53.png,2,迟缓,material/153.png,2,material/53.png,迟钝,2,f,f,f,2,2,2,迟缓,,,,,,,,,0,80,80,132,0,0,0,0,,,,,,,f,1,1.97399401665,j,0,0.341558933258,moral_self_bias,25,19,60.0131922157,f,001,2018_Apr_02_1842,
,,,,,,,,,,,,,,,,,,,,,,material/53.png,2,迟缓,material/153.png,2,material/53.png,迟钝,2,f,f,f,2,2,2,迟缓,,,,,,,,,0,80,80,132,,,,,,,,,,,,,,,,,moral_self_bias,25,19,60.0131922157,f,001,2018_Apr_02_1842,
,,,,,,,,,,,,,,,,,,,,,,material/42.png,2,奸诈,material/142.png,2,material/142.png,奸诈,2,f,f,f,1,1,1,阴险,,,,,,,,,0,81,81,121,0,0,0,0,,,,,,,f,1,1.37496089935,f,1,0.257864952087,moral_self_bias,25,19,60.0131922157,f,001,2018_Apr_02_1842,
,,,,,,,,,,,,,,,,,,,,,,material/42.png,2,奸诈,material/142.png,2,material/142.png,奸诈,2,f,f,f,1,1,1,阴险,,,,,,,,,0,81,81,121,,,,,,,,,,,,,,,,,moral_self_bias,25,19,60.0131922157,f,001,2018_Apr_02_1842,
,,,,,,,,,,,,,,,,,,,,,,material/126.png,1,勤快,material/26.png,1,material/126.png,刻苦,1,j,j,j,2,2,2,勤快,,,,,,,,,0,82,82,25,0,0,0,0,,,,,,,f,0,2.30701398849,j,0,0.375844955444,moral_self_bias,25,19,60.0131922157,f,001,2018_Apr_02_1842,
,,,,,,,,,,,,,,,,,,,,,,material/126.png,1,勤快,material/26.png,1,material/126.png,刻苦,1,j,j,j,2,2,2,勤快,,,,,,,,,0,82,82,25,,,,,,,,,,,,,,,,,moral_self_bias,25,19,60.0131922157,f,001,2018_Apr_02_1842,
,,,,,,,,,,,,,,,,,,,,,,material/177.png,2,谄媚,material/72.png,2,material/72.png,谄媚,2,j,j,j,1,1,1,恶心,,,,,,,,,0,83,83,69,,,,,,,,,,,j,1,0.941889047623,,,,moral_self_bias,25,19,60.0131922157,f,001,2018_Apr_02_1842,
,,,,,,,,,,,,,,,,,,,,,,material/22.png,1,才学,material/122.png,1,material/22.png,博学,1,f,f,f,2,2,2,才学,,,,,,,,,0,84,84,101,0,0,0,0,,,,,,,f,1,7.02116703987,f,1,1.31653809547,moral_self_bias,25,19,60.0131922157,f,001,2018_Apr_02_1842,
,,,,,,,,,,,,,,,,,,,,,,material/22.png,1,才学,material/122.png,1,material/22.png,博学,1,f,f,f,2,2,2,才学,,,,,,,,,0,84,84,101,,,,,,,,,,,,,,,,,moral_self_bias,25,19,60.0131922157,f,001,2018_Apr_02_1842,
,,,,,,,,,,,,,,,,,,,,,,material/146.png,2,小气,material/46.png,2,material/46.png,小气,2,j,j,j,1,1,1,自私,,,,,,,,,0,85,85,45,,,,,,,,,,,j,1,1.19139814377,,,,moral_self_bias,25,19,60.0131922157,f,001,2018_Apr_02_1842,
,,,,,,,,,,,,,,,,,,,,,,material/139.png,2,凶残,material/39.png,2,material/39.png,凶残,2,j,j,j,1,1,1,恶毒,,,,,,,,,0,86,86,38,0,0,0,0,,,,,,,f,0,0.841047048569,f,1,0.458618879318,moral_self_bias,25,19,60.0131922157,f,001,2018_Apr_02_1842,
,,,,,,,,,,,,,,,,,,,,,,material/139.png,2,凶残,material/39.png,2,material/39.png,凶残,2,j,j,j,1,1,1,恶毒,,,,,,,,,0,86,86,38,,,,,,,,,,,,,,,,,moral_self_bias,25,19,60.0131922157,f,001,2018_Apr_02_1842,
,,,,,,,,,,,,,,,,,,,,,,material/124.png,1,冷静,material/24.png,1,material/124.png,理智,1,j,j,j,2,2,2,冷静,,,,,,,,,0,87,87,23,0,0,0,0,,,,,,,f,0,7.09155082703,j,0,0.124552965164,moral_self_bias,25,19,60.0131922157,f,001,2018_Apr_02_1842,
,,,,,,,,,,,,,,,,,,,,,,material/124.png,1,冷静,material/24.png,1,material/124.png,理智,1,j,j,j,2,2,2,冷静,,,,,,,,,0,87,87,23,,,,,,,,,,,,,,,,,moral_self_bias,25,19,60.0131922157,f,001,2018_Apr_02_1842,
,,,,,,,,,,,,,,,,,,,,,,material/113.png,1,廉洁,material/13.png,1,material/13.png,廉洁,1,j,j,j,1,1,1,廉明,,,,,,,,,0,88,88,12,0,0,0,0,,,,,,,f,0,4.50698900223,j,0,0.158426046371,moral_self_bias,25,19,60.0131922157,f,001,2018_Apr_02_1842,
,,,,,,,,,,,,,,,,,,,,,,material/113.png,1,廉洁,material/13.png,1,material/13.png,廉洁,1,j,j,j,1,1,1,廉明,,,,,,,,,0,88,88,12,,,,,,,,,,,,,,,,,moral_self_bias,25,19,60.0131922157,f,001,2018_Apr_02_1842,
,,,,,,,,,,,,,,,,,,,,,,material/184.png,2,草率,material/80.png,2,material/78.png,健忘,2,j,j,j,2,2,2,厌学,,,,,,,,,0,89,89,76,,,,,,,,,,,j,1,1.33406591415,,,,moral_self_bias,25,19,60.0131922157,f,001,2018_Apr_02_1842,
,,,,,,,,,,,,,,,,,,,,,,material/157.png,2,无能,material/57.png,2,material/157.png,无知,2,j,j,j,2,2,2,无能,,,,,,,,,0,90,90,56,,,,,,,,,,,j,1,3.01639389992,,,,moral_self_bias,25,19,60.0131922157,f,001,2018_Apr_02_1842,
,,,,,,,,,,,,,,,,,,,,,,material/84.png,2,犹豫,material/84.png,2,material/181.png,顽愚,2,f,f,f,2,2,2,顽愚,,,,,,,,,0,91,91,167,,,,,,,,,,,j,0,0.823975086212,,,,moral_self_bias,25,19,60.0131922157,f,001,2018_Apr_02_1842,
,,,,,,,,,,,,,,,,,,,,,,material/182.png,2,健忘,material/184.png,2,material/80.png,厌学,2,f,f,f,2,2,2,才尽,,,,,,,,,0,92,92,163,0,0,0,0,,,,,,,f,1,1.02446699142,j,0,4.07419896126,moral_self_bias,25,19,60.0131922157,f,001,2018_Apr_02_1842,
,,,,,,,,,,,,,,,,,,,,,,material/182.png,2,健忘,material/184.png,2,material/80.png,厌学,2,f,f,f,2,2,2,才尽,,,,,,,,,0,92,92,163,,,,,,,,,,,,,,,,,moral_self_bias,25,19,60.0131922157,f,001,2018_Apr_02_1842,
,,,,,,,,,,,,,,,,,,,,,,material/180.png,2,无助,material/79.png,2,material/81.png,颓废,2,j,j,j,2,2,2,怠惰,,,,,,,,,0,93,93,75,,,,,,,,,,,j,1,3.27431106567,,,,moral_self_bias,25,19,60.0131922157,f,001,2018_Apr_02_1842,
,,,,,,,,,,,,,,,,,,,,,,material/150.png,2,鲁钝,material/50.png,2,material/150.png,愚笨,2,j,j,j,2,2,2,鲁钝,,,,,,,,,0,94,94,49,0,0,0,0,,,,,,,f,0,2.27517008781,j,0,0.41771197319,moral_self_bias,25,19,60.0131922157,f,001,2018_Apr_02_1842,
,,,,,,,,,,,,,,,,,,,,,,material/150.png,2,鲁钝,material/50.png,2,material/150.png,愚笨,2,j,j,j,2,2,2,鲁钝,,,,,,,,,0,94,94,49,,,,,,,,,,,,,,,,,moral_self_bias,25,19,60.0131922157,f,001,2018_Apr_02_1842,
,,,,,,,,,,,,,,,,,,,,,,material/1.png,1,博爱,material/101.png,1,material/101.png,博爱,1,f,f,f,1,1,1,善良,,,,,,,,,0,95,95,80,0,0,0,0,,,,,,,f,1,2.20796895027,f,1,0.524779081345,moral_self_bias,25,19,60.0131922157,f,001,2018_Apr_02_1842,
,,,,,,,,,,,,,,,,,,,,,,material/1.png,1,博爱,material/101.png,1,material/101.png,博爱,1,f,f,f,1,1,1,善良,,,,,,,,,0,95,95,80,,,,,,,,,,,,,,,,,moral_self_bias,25,19,60.0131922157,f,001,2018_Apr_02_1842,
,,,,,,,,,,,,,,,,,,,,,,material/60.png,2,粗拙,material/160.png,2,material/60.png,笨拙,2,f,f,f,2,2,2,粗拙,,,,,,,,,0,96,96,139,,,,,,,,,,,j,0,13.0420050621,,,,moral_self_bias,25,19,60.0131922157,f,001,2018_Apr_02_1842,
,,,,,,,,,,,,,,,,,,,,,,material/38.png,2,缺德,material/138.png,2,material/138.png,缺德,2,f,f,f,1,1,1,无德,,,,,,,,,0,97,97,117,0,0,0,0,,,,,,,f,1,1.3913629055,f,1,1.25773406029,moral_self_bias,25,19,60.0131922157,f,001,2018_Apr_02_1842,
,,,,,,,,,,,,,,,,,,,,,,material/38.png,2,缺德,material/138.png,2,material/138.png,缺德,2,f,f,f,1,1,1,无德,,,,,,,,,0,97,97,117,,,,,,,,,,,,,,,,,moral_self_bias,25,19,60.0131922157,f,001,2018_Apr_02_1842,
,,,,,,,,,,,,,,,,,,,,,,material/168.png,1,机变,material/170.png,1,material/168.png,坚忍,1,f,f,f,2,2,2,机变,,,,,,,,,0,98,98,149,,,,,,,,,,,j,0,0.791431903839,,,,moral_self_bias,25,19,60.0131922157,f,001,2018_Apr_02_1842,
,,,,,,,,,,,,,,,,,,,,,,material/63.png,1,正义,material/166.png,1,material/66.png,仗义,1,f,f,f,1,1,1,文明,,,,,,,,,0,99,99,145,0,0,0,0,,,,,,,f,1,0.908341169357,f,1,0.374171972275,moral_self_bias,25,19,60.0131922157,f,001,2018_Apr_02_1842,
,,,,,,,,,,,,,,,,,,,,,,material/63.png,1,正义,material/166.png,1,material/66.png,仗义,1,f,f,f,1,1,1,文明,,,,,,,,,0,99,99,145,,,,,,,,,,,,,,,,,moral_self_bias,25,19,60.0131922157,f,001,2018_Apr_02_1842,
,,,,,,,,,,,,,,,,,,,,,,material/115.png,1,清白,material/15.png,1,material/15.png,清白,1,j,j,j,1,1,1,纯洁,,,,,,,,,0,100,100,14,,,,,,,,,,,j,1,4.32448792458,,,,moral_self_bias,25,19,60.0131922157,f,001,2018_Apr_02_1842,
,,,,,,,,,,,,,,,,,,,,,,material/156.png,2,愚钝,material/56.png,2,material/156.png,愚昧,2,j,j,j,2,2,2,愚钝,,,,,,,,,0,101,101,55,,,,,,,,,,,j,1,1.00855517387,,,,moral_self_bias,25,19,60.0131922157,f,001,2018_Apr_02_1842,
,,,,,,,,,,,,,,,,,,,,,,material/166.png,1,孝顺,material/64.png,1,material/164.png,奉献,1,j,j,j,1,1,1,仗义,,,,,,,,,0,102,102,63,,,,,,,,,,,j,1,0.807476997375,,,,moral_self_bias,25,19,60.0131922157,f,001,2018_Apr_02_1842,
,,,,,,,,,,,,,,,,,,,,,,material/148.png,2,笨蛋,material/48.png,2,material/148.png,愚蠢,2,j,j,j,2,2,2,笨蛋,,,,,,,,,0,103,103,47,,,,,,,,,,,j,1,0.800208091736,,,,moral_self_bias,25,19,60.0131922157,f,001,2018_Apr_02_1842,
,,,,,,,,,,,,,,,,,,,,,,material/31.png,1,笃学,material/131.png,1,material/31.png,笃行,1,f,f,f,2,2,2,笃学,,,,,,,,,0,104,104,110,0,0,0,0,,,,,,,f,1,1.19112992287,f,1,0.358869075775,moral_self_bias,25,19,60.0131922157,f,001,2018_Apr_02_1842,
,,,,,,,,,,,,,,,,,,,,,,material/31.png,1,笃学,material/131.png,1,material/31.png,笃行,1,f,f,f,2,2,2,笃学,,,,,,,,,0,104,104,110,,,,,,,,,,,,,,,,,moral_self_bias,25,19,60.0131922157,f,001,2018_Apr_02_1842,
,,,,,,,,,,,,,,,,,,,,,,material/68.png,1,广博,material/167.png,1,material/68.png,高手,1,f,f,f,2,2,2,广博,,,,,,,,,0,105,105,146,0,0,0,0,,,,,,,f,1,2.27457809448,j,0,3.75803112984,moral_self_bias,25,19,60.0131922157,f,001,2018_Apr_02_1842,
,,,,,,,,,,,,,,,,,,,,,,material/68.png,1,广博,material/167.png,1,material/68.png,高手,1,f,f,f,2,2,2,广博,,,,,,,,,0,105,105,146,,,,,,,,,,,,,,,,,moral_self_bias,25,19,60.0131922157,f,001,2018_Apr_02_1842,
,,,,,,,,,,,,,,,,,,,,,,material/11.png,1,高尚,material/111.png,1,material/111.png,高尚,1,f,f,f,1,1,1,高雅,,,,,,,,,0,106,106,90,,,,,,,,,,,j,0,1.25954604149,,,,moral_self_bias,25,19,60.0131922157,f,001,2018_Apr_02_1842,
,,,,,,,,,,,,,,,,,,,,,,material/110.png,1,顽强,material/10.png,1,material/10.png,顽强,1,j,j,j,1,1,1,坚毅,,,,,,,,,0,107,107,9,,,,,,,,,,,j,1,11.2235040665,,,,moral_self_bias,25,19,60.0131922157,f,001,2018_Apr_02_1842,
,,,,,,,,,,,,,,,,,,,,,,material/43.png,2,虚荣,material/143.png,2,material/143.png,虚荣,2,f,f,f,1,1,1,拜金,,,,,,,,,0,108,108,122,0,0,0,0,,,,,,,f,1,1.15753102303,f,1,0.357870101929,moral_self_bias,25,19,60.0131922157,f,001,2018_Apr_02_1842,
,,,,,,,,,,,,,,,,,,,,,,material/43.png,2,虚荣,material/143.png,2,material/143.png,虚荣,2,f,f,f,1,1,1,拜金,,,,,,,,,0,108,108,122,,,,,,,,,,,,,,,,,moral_self_bias,25,19,60.0131922157,f,001,2018_Apr_02_1842,
,,,,,,,,,,,,,,,,,,,,,,material/101.png,1,善良,material/1.png,1,material/1.png,善良,1,j,j,j,1,1,1,博爱,,,,,,,,,0,109,109,0,,,,,,,,,,,j,1,1.64099311829,,,,moral_self_bias,25,19,60.0131922157,f,001,2018_Apr_02_1842,
,,,,,,,,,,,,,,,,,,,,,,material/120.png,1,能干,material/20.png,1,material/120.png,厉害,1,j,j,j,2,2,2,能干,,,,,,,,,0,110,110,19,,,,,,,,,,,j,1,1.27407693863,,,,moral_self_bias,25,19,60.0131922157,f,001,2018_Apr_02_1842,
,,,,,,,,,,,,,,,,,,,,,,material/169.png,1,颖悟,material/171.png,1,material/169.png,高效,1,f,f,f,2,2,2,颖悟,,,,,,,,,0,111,111,150,,,,,,,,,,,j,0,0.825057029724,,,,moral_self_bias,25,19,60.0131922157,f,001,2018_Apr_02_1842,
,,,,,,,,,,,,,,,,,,,,,,material/12.png,1,忠心,material/112.png,1,material/112.png,忠心,1,f,f,f,1,1,1,忠诚,,,,,,,,,0,112,112,91,0,0,0,0,,,,,,,f,1,5.95751190186,j,0,3.12366580963,moral_self_bias,25,19,60.0131922157,f,001,2018_Apr_02_1842,
,,,,,,,,,,,,,,,,,,,,,,material/12.png,1,忠心,material/112.png,1,material/112.png,忠心,1,f,f,f,1,1,1,忠诚,,,,,,,,,0,112,112,91,,,,,,,,,,,,,,,,,moral_self_bias,25,19,60.0131922157,f,001,2018_Apr_02_1842,
,,,,,,,,,,,,,,,,,,,,,,material/41.png,2,残忍,material/141.png,2,material/141.png,残忍,2,f,f,f,1,1,1,歹毒,,,,,,,,,0,113,113,120,0,0,0,0,,,,,,,f,1,0.85878610611,f,1,0.874497175217,moral_self_bias,25,19,60.0131922157,f,001,2018_Apr_02_1842,
,,,,,,,,,,,,,,,,,,,,,,material/41.png,2,残忍,material/141.png,2,material/141.png,残忍,2,f,f,f,1,1,1,歹毒,,,,,,,,,0,113,113,120,,,,,,,,,,,,,,,,,moral_self_bias,25,19,60.0131922157,f,001,2018_Apr_02_1842,
,,,,,,,,,,,,,,,,,,,,,,material/13.png,1,廉明,material/113.png,1,material/113.png,廉明,1,f,f,f,1,1,1,廉洁,,,,,,,,,0,114,114,92,,,,,,,,,,,j,0,1.34105300903,,,,moral_self_bias,25,19,60.0131922157,f,001,2018_Apr_02_1842,
,,,,,,,,,,,,,,,,,,,,,,material/142.png,2,阴险,material/42.png,2,material/42.png,阴险,2,j,j,j,1,1,1,奸诈,,,,,,,,,0,115,115,41,0,0,0,0,,,,,,,f,0,4.99130606651,f,1,0.342206001282,moral_self_bias,25,19,60.0131922157,f,001,2018_Apr_02_1842,
,,,,,,,,,,,,,,,,,,,,,,material/142.png,2,阴险,material/42.png,2,material/42.png,阴险,2,j,j,j,1,1,1,奸诈,,,,,,,,,0,115,115,41,,,,,,,,,,,,,,,,,moral_self_bias,25,19,60.0131922157,f,001,2018_Apr_02_1842,
,,,,,,,,,,,,,,,,,,,,,,material/9.png,1,正直,material/109.png,1,material/109.png,正直,1,f,f,f,1,1,1,秉直,,,,,,,,,0,116,116,88,,,,,,,,,,,j,0,2.67494511604,,,,moral_self_bias,25,19,60.0131922157,f,001,2018_Apr_02_1842,
,,,,,,,,,,,,,,,,,,,,,,material/36.png,2,撒谎,material/136.png,2,material/136.png,撒谎,2,f,f,f,1,1,1,说谎,,,,,,,,,0,117,117,115,0,0,0,0,,,,,,,f,1,1.26620411873,f,1,0.291468858719,moral_self_bias,25,19,60.0131922157,f,001,2018_Apr_02_1842,
,,,,,,,,,,,,,,,,,,,,,,material/36.png,2,撒谎,material/136.png,2,material/136.png,撒谎,2,f,f,f,1,1,1,说谎,,,,,,,,,0,117,117,115,,,,,,,,,,,,,,,,,moral_self_bias,25,19,60.0131922157,f,001,2018_Apr_02_1842,
,,,,,,,,,,,,,,,,,,,,,,material/47.png,2,死板,material/147.png,2,material/47.png,刻板,2,f,f,f,2,2,2,死板,,,,,,,,,0,118,118,126,,,,,,,,,,,j,0,0.925218105316,,,,moral_self_bias,25,19,60.0131922157,f,001,2018_Apr_02_1842,
,,,,,,,,,,,,,,,,,,,,,,material/62.png,1,坚韧,material/162.png,1,material/62.png,敬业,1,f,f,f,1,1,1,坚韧,,,,,,,,,0,119,119,141,0,0,0,0,,,,,,,f,1,2.65838098526,j,0,0.558608055115,moral_self_bias,25,19,60.0131922157,f,001,2018_Apr_02_1842,
,,,,,,,,,,,,,,,,,,,,,,material/62.png,1,坚韧,material/162.png,1,material/62.png,敬业,1,f,f,f,1,1,1,坚韧,,,,,,,,,0,119,119,141,,,,,,,,,,,,,,,,,moral_self_bias,25,19,60.0131922157,f,001,2018_Apr_02_1842,
,,,,,,,,,,,,,,,,,,,,,,material/167.png,1,高手,material/169.png,1,material/167.png,颖悟,1,f,f,f,2,2,2,高手,,,,,,,,,0,120,120,148,0,0,0,0,,,,,,,f,1,1.42519402504,j,0,0.225743055344,moral_self_bias,25,19,60.0131922157,f,001,2018_Apr_02_1842,
,,,,,,,,,,,,,,,,,,,,,,material/167.png,1,高手,material/169.png,1,material/167.png,颖悟,1,f,f,f,2,2,2,高手,,,,,,,,,0,120,120,148,,,,,,,,,,,,,,,,,moral_self_bias,25,19,60.0131922157,f,001,2018_Apr_02_1842,
,,,,,,,,,,,,,,,,,,,,,,material/45.png,2,小人,material/145.png,2,material/145.png,小人,2,f,f,f,1,1,1,下流,,,,,,,,,0,121,121,124,,,,,,,,,,,j,0,1.49134993553,,,,moral_self_bias,25,19,60.0131922157,f,001,2018_Apr_02_1842,
,,,,,,,,,,,,,,,,,,,,,,material/14.png,1,忠贞,material/114.png,1,material/114.png,忠贞,1,f,f,f,1,1,1,爱国,,,,,,,,,0,122,122,93,0,0,0,0,,,,,,,f,1,1.35777497292,j,0,0.142226934433,moral_self_bias,25,19,60.0131922157,f,001,2018_Apr_02_1842,
,,,,,,,,,,,,,,,,,,,,,,material/14.png,1,忠贞,material/114.png,1,material/114.png,忠贞,1,f,f,f,1,1,1,爱国,,,,,,,,,0,122,122,93,,,,,,,,,,,,,,,,,moral_self_bias,25,19,60.0131922157,f,001,2018_Apr_02_1842,
,,,,,,,,,,,,,,,,,,,,,,material/21.png,1,干练,material/121.png,1,material/21.png,精干,1,f,f,f,2,2,2,干练,,,,,,,,,0,123,123,100,0,0,0,0,,,,,,,f,1,2.72474384308,j,0,0.740973949432,moral_self_bias,25,19,60.0131922157,f,001,2018_Apr_02_1842,
,,,,,,,,,,,,,,,,,,,,,,material/21.png,1,干练,material/121.png,1,material/21.png,精干,1,f,f,f,2,2,2,干练,,,,,,,,,0,123,123,100,,,,,,,,,,,,,,,,,moral_self_bias,25,19,60.0131922157,f,001,2018_Apr_02_1842,
,,,,,,,,,,,,,,,,,,,,,,material/130.png,1,进取,material/30.png,1,material/130.png,上进,1,j,j,j,2,2,2,进取,,,,,,,,,0,124,124,29,0,0,0,0,,,,,,,f,0,4.0582909584,j,0,0.141592979431,moral_self_bias,25,19,60.0131922157,f,001,2018_Apr_02_1842,
,,,,,,,,,,,,,,,,,,,,,,material/130.png,1,进取,material/30.png,1,material/130.png,上进,1,j,j,j,2,2,2,进取,,,,,,,,,0,124,124,29,,,,,,,,,,,,,,,,,moral_self_bias,25,19,60.0131922157,f,001,2018_Apr_02_1842,
,,,,,,,,,,,,,,,,,,,,,,material/144.png,2,失信,material/44.png,2,material/44.png,失信,2,j,j,j,1,1,1,爽约,,,,,,,,,0,125,125,43,,,,,,,,,,,j,1,7.6419069767,,,,moral_self_bias,25,19,60.0131922157,f,001,2018_Apr_02_1842,
,,,,,,,,,,,,,,,,,,,,,,material/77.png,2,浮夸,material/172.png,2,material/172.png,浮夸,2,f,f,f,1,1,1,软弱,,,,,,,,,0,126,126,151,,,,,,,,,,,j,0,3.04149603844,,,,moral_self_bias,25,19,60.0131922157,f,001,2018_Apr_02_1842,
,,,,,,,,,,,,,,,,,,,,,,material/183.png,2,颓废,material/182.png,2,material/79.png,才尽,2,f,f,f,2,2,2,薄弱,,,,,,,,,0,127,127,161,0,0,0,0,,,,,,,f,1,1.67434501648,j,0,4.91015195847,moral_self_bias,25,19,60.0131922157,f,001,2018_Apr_02_1842,
,,,,,,,,,,,,,,,,,,,,,,material/183.png,2,颓废,material/182.png,2,material/79.png,才尽,2,f,f,f,2,2,2,薄弱,,,,,,,,,0,127,127,161,,,,,,,,,,,,,,,,,moral_self_bias,25,19,60.0131922157,f,001,2018_Apr_02_1842,
,,,,,,,,,,,,,,,,,,,,,,material/26.png,1,刻苦,material/126.png,1,material/26.png,勤快,1,f,f,f,2,2,2,刻苦,,,,,,,,,0,128,128,105,,,,,,,,,,,j,0,2.35878491402,,,,moral_self_bias,25,19,60.0131922157,f,001,2018_Apr_02_1842,
,,,,,,,,,,,,,,,,,,,,,,material/73.png,2,恶心,material/177.png,2,material/177.png,恶心,2,f,f,f,1,1,1,残虐,,,,,,,,,0,129,129,156,,,,,,,,,,,j,0,0.775037050247,,,,moral_self_bias,25,19,60.0131922157,f,001,2018_Apr_02_1842,
,,,,,,,,,,,,,,,,,,,,,,material/40.png,2,狠毒,material/140.png,2,material/140.png,狠毒,2,f,f,f,1,1,1,邪恶,,,,,,,,,0,130,130,119,0,0,0,0,,,,,,,f,1,1.77557396889,f,1,1.4920899868,moral_self_bias,25,19,60.0131922157,f,001,2018_Apr_02_1842,
,,,,,,,,,,,,,,,,,,,,,,material/40.png,2,狠毒,material/140.png,2,material/140.png,狠毒,2,f,f,f,1,1,1,邪恶,,,,,,,,,0,130,130,119,,,,,,,,,,,,,,,,,moral_self_bias,25,19,60.0131922157,f,001,2018_Apr_02_1842,
,,,,,,,,,,,,,,,,,,,,,,material/125.png,1,果敢,material/25.png,1,material/125.png,果断,1,j,j,j,2,2,2,果敢,,,,,,,,,0,131,131,24,0,0,0,0,,,,,,,f,0,1.62501502037,f,1,1.89215707779,moral_self_bias,25,19,60.0131922157,f,001,2018_Apr_02_1842,
,,,,,,,,,,,,,,,,,,,,,,material/125.png,1,果敢,material/25.png,1,material/125.png,果断,1,j,j,j,2,2,2,果敢,,,,,,,,,0,131,131,24,,,,,,,,,,,,,,,,,moral_self_bias,25,19,60.0131922157,f,001,2018_Apr_02_1842,
,,,,,,,,,,,,,,,,,,,,,,material/78.png,2,厌学,material/181.png,2,material/184.png,犹豫,2,f,f,f,2,2,2,草率,,,,,,,,,0,132,132,160,0,0,0,0,,,,,,,f,1,1.50778317451,f,1,0.274467945099,moral_self_bias,25,19,60.0131922157,f,001,2018_Apr_02_1842,
,,,,,,,,,,,,,,,,,,,,,,material/78.png,2,厌学,material/181.png,2,material/184.png,犹豫,2,f,f,f,2,2,2,草率,,,,,,,,,0,132,132,160,,,,,,,,,,,,,,,,,moral_self_bias,25,19,60.0131922157,f,001,2018_Apr_02_1842,
,,,,,,,,,,,,,,,,,,,,,,material/67.png,1,骁勇,material/70.png,1,material/67.png,全面,1,j,j,j,2,2,2,骁勇,,,,,,,,,0,133,133,67,,,,,,,,,,,j,1,1.09149289131,,,,moral_self_bias,25,19,60.0131922157,f,001,2018_Apr_02_1842,
,,,,,,,,,,,,,,,,,,,,,,material/79.png,2,薄弱,material/81.png,2,material/183.png,无助,2,j,j,j,2,2,2,颓废,,,,,,,,,0,134,134,77,,,,,,,,,,,j,1,1.17434716225,,,,moral_self_bias,25,19,60.0131922157,f,001,2018_Apr_02_1842,
,,,,,,,,,,,,,,,,,,,,,,material/143.png,2,拜金,material/43.png,2,material/43.png,拜金,2,j,j,j,1,1,1,虚荣,,,,,,,,,0,135,135,42,,,,,,,,,,,j,1,0.666994094849,,,,moral_self_bias,25,19,60.0131922157,f,001,2018_Apr_02_1842,
,,,,,,,,,,,,,,,,,,,,,,material/3.png,1,仁厚,material/103.png,1,material/103.png,仁厚,1,f,f,f,1,1,1,仁慈,,,,,,,,,0,136,136,82,,,,,,,,,,,j,0,3.10735917091,,,,moral_self_bias,25,19,60.0131922157,f,001,2018_Apr_02_1842,
,,,,,,,,,,,,,,,,,,,,,,material/55.png,2,盲从,material/155.png,2,material/55.png,盲目,2,f,f,f,2,2,2,盲从,,,,,,,,,0,137,137,134,0,0,0,0,,,,,,,f,1,0.924129009247,f,1,2.37573885918,moral_self_bias,25,19,60.0131922157,f,001,2018_Apr_02_1842,
,,,,,,,,,,,,,,,,,,,,,,material/55.png,2,盲从,material/155.png,2,material/55.png,盲目,2,f,f,f,2,2,2,盲从,,,,,,,,,0,137,137,134,,,,,,,,,,,,,,,,,moral_self_bias,25,19,60.0131922157,f,001,2018_Apr_02_1842,
,,,,,,,,,,,,,,,,,,,,,,material/147.png,2,刻板,material/47.png,2,material/147.png,死板,2,j,j,j,2,2,2,刻板,,,,,,,,,0,138,138,46,,,,,,,,,,,j,1,1.24196410179,,,,moral_self_bias,25,19,60.0131922157,f,001,2018_Apr_02_1842,
,,,,,,,,,,,,,,,,,,,,,,material/28.png,1,克己,material/128.png,1,material/28.png,自律,1,f,f,f,2,2,2,克己,,,,,,,,,0,139,139,107,,,,,,,,,,,j,0,3.27421617508,,,,moral_self_bias,25,19,60.0131922157,f,001,2018_Apr_02_1842,
,,,,,,,,,,,,,,,,,,,,,,material/107.png,1,公正,material/7.png,1,material/7.png,公正,1,j,j,j,1,1,1,公平,,,,,,,,,0,140,140,6,,,,,,,,,,,j,1,7.58247303963,,,,moral_self_bias,25,19,60.0131922157,f,001,2018_Apr_02_1842,
,,,,,,,,,,,,,,,,,,,,,,material/134.png,2,可恨,material/34.png,2,material/34.png,可恨,2,j,j,j,1,1,1,可恶,,,,,,,,,0,141,141,33,,,,,,,,,,,j,1,0.674297094345,,,,moral_self_bias,25,19,60.0131922157,f,001,2018_Apr_02_1842,
,,,,,,,,,,,,,,,,,,,,,,material/104.png,1,友爱,material/4.png,1,material/4.png,友爱,1,j,j,j,1,1,1,友善,,,,,,,,,0,142,142,3,0,0,0,0,,,,,,,f,0,2.92514705658,f,1,3.72517585754,moral_self_bias,25,19,60.0131922157,f,001,2018_Apr_02_1842,
,,,,,,,,,,,,,,,,,,,,,,material/104.png,1,友爱,material/4.png,1,material/4.png,友爱,1,j,j,j,1,1,1,友善,,,,,,,,,0,142,142,3,,,,,,,,,,,,,,,,,moral_self_bias,25,19,60.0131922157,f,001,2018_Apr_02_1842,
,,,,,,,,,,,,,,,,,,,,,,material/4.png,1,友善,material/104.png,1,material/104.png,友善,1,f,f,f,1,1,1,友爱,,,,,,,,,0,143,143,83,,,,,,,,,,,j,0,2.14085793495,,,,moral_self_bias,25,19,60.0131922157,f,001,2018_Apr_02_1842,
,,,,,,,,,,,,,,,,,,,,,,material/161.png,1,奉献,material/164.png,1,material/64.png,孝顺,1,f,f,f,1,1,1,勇敢,,,,,,,,,0,144,144,143,0,0,0,0,,,,,,,f,1,1.02510786057,f,1,0.791234970093,moral_self_bias,25,19,60.0131922157,f,001,2018_Apr_02_1842,
,,,,,,,,,,,,,,,,,,,,,,material/161.png,1,奉献,material/164.png,1,material/64.png,孝顺,1,f,f,f,1,1,1,勇敢,,,,,,,,,0,144,144,143,,,,,,,,,,,,,,,,,moral_self_bias,25,19,60.0131922157,f,001,2018_Apr_02_1842,
,,,,,,,,,,,,,,,,,,,,,,material/141.png,2,歹毒,material/41.png,2,material/41.png,歹毒,2,j,j,j,1,1,1,残忍,,,,,,,,,0,145,145,40,,,,,,,,,,,j,1,1.21047210693,,,,moral_self_bias,25,19,60.0131922157,f,001,2018_Apr_02_1842,
,,,,,,,,,,,,,,,,,,,,,,material/105.png,1,守信,material/5.png,1,material/5.png,守信,1,j,j,j,1,1,1,诚信,,,,,,,,,0,146,146,4,0,0,0,0,,,,,,,f,0,3.70013284683,j,0,0.34087395668,moral_self_bias,25,19,60.0131922157,f,001,2018_Apr_02_1842,
,,,,,,,,,,,,,,,,,,,,,,material/105.png,1,守信,material/5.png,1,material/5.png,守信,1,j,j,j,1,1,1,诚信,,,,,,,,,0,146,146,4,,,,,,,,,,,,,,,,,moral_self_bias,25,19,60.0131922157,f,001,2018_Apr_02_1842,
,,,,,,,,,,,,,,,,,,,,,,material/109.png,1,秉直,material/9.png,1,material/9.png,秉直,1,j,j,j,1,1,1,正直,,,,,,,,,0,147,147,8,,,,,,,,,,,j,1,1.09066009521,,,,moral_self_bias,25,19,60.0131922157,f,001,2018_Apr_02_1842,
,,,,,,,,,,,,,,,,,,,,,,material/123.png,1,多才,material/23.png,1,material/123.png,有才,1,j,j,j,2,2,2,多才,,,,,,,,,0,148,148,22,0,0,0,0,,,,,,,f,0,2.31610703468,j,0,0.191332817078,moral_self_bias,25,19,60.0131922157,f,001,2018_Apr_02_1842,
,,,,,,,,,,,,,,,,,,,,,,material/123.png,1,多才,material/23.png,1,material/123.png,有才,1,j,j,j,2,2,2,多才,,,,,,,,,0,148,148,22,,,,,,,,,,,,,,,,,moral_self_bias,25,19,60.0131922157,f,001,2018_Apr_02_1842,
,,,,,,,,,,,,,,,,,,,,,,material/106.png,1,诚实,material/6.png,1,material/6.png,诚实,1,j,j,j,1,1,1,厚道,,,,,,,,,0,149,149,5,0,0,0,0,,,,,,,f,0,3.00771379471,j,0,0.158741950989,moral_self_bias,25,19,60.0131922157,f,001,2018_Apr_02_1842,
,,,,,,,,,,,,,,,,,,,,,,material/106.png,1,诚实,material/6.png,1,material/6.png,诚实,1,j,j,j,1,1,1,厚道,,,,,,,,,0,149,149,5,,,,,,,,,,,,,,,,,moral_self_bias,25,19,60.0131922157,f,001,2018_Apr_02_1842,
,,,,,,,,,,,,,,,,,,,,,,material/162.png,1,敬业,material/62.png,1,material/162.png,坚韧,1,j,j,j,1,1,1,敬业,,,,,,,,,0,150,150,61,0,0,0,0,,,,,,,f,0,1.83432102203,j,0,0.141201972961,moral_self_bias,25,19,60.0131922157,f,001,2018_Apr_02_1842,
,,,,,,,,,,,,,,,,,,,,,,material/162.png,1,敬业,material/62.png,1,material/162.png,坚韧,1,j,j,j,1,1,1,敬业,,,,,,,,,0,150,150,61,,,,,,,,,,,,,,,,,moral_self_bias,25,19,60.0131922157,f,001,2018_Apr_02_1842,
,,,,,,,,,,,,,,,,,,,,,,material/136.png,2,说谎,material/36.png,2,material/36.png,说谎,2,j,j,j,1,1,1,撒谎,,,,,,,,,0,151,151,35,0,0,0,0,,,,,,,f,0,4.5918610096,f,1,0.574958086014,moral_self_bias,25,19,60.0131922157,f,001,2018_Apr_02_1842,
,,,,,,,,,,,,,,,,,,,,,,material/136.png,2,说谎,material/36.png,2,material/36.png,说谎,2,j,j,j,1,1,1,撒谎,,,,,,,,,0,151,151,35,,,,,,,,,,,,,,,,,moral_self_bias,25,19,60.0131922157,f,001,2018_Apr_02_1842,
,,,,,,,,,,,,,,,,,,,,,,material/23.png,1,有才,material/123.png,1,material/23.png,多才,1,f,f,f,2,2,2,有才,,,,,,,,,0,152,152,102,0,0,0,0,,,,,,,f,1,1.80779409409,f,1,3.34103798866,moral_self_bias,25,19,60.0131922157,f,001,2018_Apr_02_1842,
,,,,,,,,,,,,,,,,,,,,,,material/23.png,1,有才,material/123.png,1,material/23.png,多才,1,f,f,f,2,2,2,有才,,,,,,,,,0,152,152,102,,,,,,,,,,,,,,,,,moral_self_bias,25,19,60.0131922157,f,001,2018_Apr_02_1842,
,,,,,,,,,,,,,,,,,,,,,,material/116.png,1,机智,material/16.png,1,material/116.png,睿智,1,j,j,j,2,2,2,机智,,,,,,,,,0,153,153,15,,,,,,,,,,,j,1,1.4404270649,,,,moral_self_bias,25,19,60.0131922157,f,001,2018_Apr_02_1842,
,,,,,,,,,,,,,,,,,,,,,,material/173.png,2,不义,material/174.png,2,material/174.png,不义,2,f,f,f,1,1,1,黑心,,,,,,,,,0,154,154,153,,,,,,,,,,,j,0,7.6407968998,,,,moral_self_bias,25,19,60.0131922157,f,001,2018_Apr_02_1842,
,,,,,,,,,,,,,,,,,,,,,,material/39.png,2,恶毒,material/139.png,2,material/139.png,恶毒,2,f,f,f,1,1,1,凶残,,,,,,,,,0,155,155,118,0,0,0,0,,,,,,,f,1,2.92450094223,f,1,0.70873093605,moral_self_bias,25,19,60.0131922157,f,001,2018_Apr_02_1842,
,,,,,,,,,,,,,,,,,,,,,,material/39.png,2,恶毒,material/139.png,2,material/139.png,恶毒,2,f,f,f,1,1,1,凶残,,,,,,,,,0,155,155,118,,,,,,,,,,,,,,,,,moral_self_bias,25,19,60.0131922157,f,001,2018_Apr_02_1842,
,,,,,,,,,,,,,,,,,,,,,,material/137.png,2,无耻,material/37.png,2,material/37.png,无耻,2,j,j,j,1,1,1,卑鄙,,,,,,,,,0,156,156,36,,,,,,,,,,,j,1,2.33344078064,,,,moral_self_bias,25,19,60.0131922157,f,001,2018_Apr_02_1842,
,,,,,,,,,,,,,,,,,,,,,,material/133.png,2,腐败,material/33.png,2,material/33.png,腐败,2,j,j,j,1,1,1,贪污,,,,,,,,,0,157,157,32,,,,,,,,,,,j,1,3.37441182137,,,,moral_self_bias,25,19,60.0131922157,f,001,2018_Apr_02_1842,
,,,,,,,,,,,,,,,,,,,,,,material/81.png,2,呆笨,material/179.png,2,material/83.png,差生,2,f,f,f,2,2,2,无助,,,,,,,,,0,158,158,158,0,0,0,0,,,,,,,f,1,2.12518000603,j,0,0.39142203331,moral_self_bias,25,19,60.0131922157,f,001,2018_Apr_02_1842,
,,,,,,,,,,,,,,,,,,,,,,material/81.png,2,呆笨,material/179.png,2,material/83.png,差生,2,f,f,f,2,2,2,无助,,,,,,,,,0,158,158,158,,,,,,,,,,,,,,,,,moral_self_bias,25,19,60.0131922157,f,001,2018_Apr_02_1842,
,,,,,,,,,,,,,,,,,,,,,,material/175.png,2,残虐,material/73.png,2,material/73.png,残虐,2,f,f,f,1,1,1,无情,,,,,,,,,0,159,159,165,0,0,0,0,,,,,,,f,1,2.77389097214,f,1,0.591389894485,moral_self_bias,25,19,60.0131922157,f,001,2018_Apr_02_1842,
,,,,,,,,,,,,,,,,,,,,,,material/175.png,2,残虐,material/73.png,2,material/73.png,残虐,2,f,f,f,1,1,1,无情,,,,,,,,,0,159,159,165,,,,,,,,,,,,,,,,,moral_self_bias,25,19,60.0131922157,f,001,2018_Apr_02_1842,
,,,,,,,,,,,,,,,,,,,,,,material/108.png,1,公道,material/8.png,1,material/8.png,公道,1,j,j,j,1,1,1,无私,,,,,,,,,0,160,160,7,,,,,,,,,,,j,1,0.857766151428,,,,moral_self_bias,25,19,60.0131922157,f,001,2018_Apr_02_1842,
,,,,,,,,,,,,,,,,,,,,,,material/149.png,2,白痴,material/49.png,2,material/149.png,痴呆,2,j,j,j,2,2,2,白痴,,,,,,,,,0,161,161,48,0,0,0,0,,,,,,,f,0,1.52394485474,f,1,0.416470050812,moral_self_bias,25,19,60.0131922157,f,001,2018_Apr_02_1842,
,,,,,,,,,,,,,,,,,,,,,,material/149.png,2,白痴,material/49.png,2,material/149.png,痴呆,2,j,j,j,2,2,2,白痴,,,,,,,,,0,161,161,48,,,,,,,,,,,,,,,,,moral_self_bias,25,19,60.0131922157,f,001,2018_Apr_02_1842,
,,,,,,,,,,,,,,,,,,,,,,material/74.png,2,黑心,material/173.png,2,material/173.png,黑心,2,f,f,f,1,1,1,卑劣,,,,,,,,,0,162,162,152,,,,,,,,,,,j,0,0.873527050018,,,,moral_self_bias,25,19,60.0131922157,f,001,2018_Apr_02_1842,
,,,,,,,,,,,,,,,,,,,,,,material/76.png,2,放纵,material/176.png,2,material/176.png,放纵,2,f,f,f,1,1,1,虚伪,,,,,,,,,0,163,163,155,0,0,0,0,,,,,,,f,1,1.67481398582,f,1,0.342674970627,moral_self_bias,25,19,60.0131922157,f,001,2018_Apr_02_1842,
,,,,,,,,,,,,,,,,,,,,,,material/76.png,2,放纵,material/176.png,2,material/176.png,放纵,2,f,f,f,1,1,1,虚伪,,,,,,,,,0,163,163,155,,,,,,,,,,,,,,,,,moral_self_bias,25,19,60.0131922157,f,001,2018_Apr_02_1842,
,,,,,,,,,,,,,,,,,,,,,,material/7.png,1,公平,material/107.png,1,material/107.png,公平,1,f,f,f,1,1,1,公正,,,,,,,,,0,164,164,86,,,,,,,,,,,j,0,0.824558019638,,,,moral_self_bias,25,19,60.0131922157,f,001,2018_Apr_02_1842,
,,,,,,,,,,,,,,,,,,,,,,material/32.png,2,背叛,material/132.png,2,material/132.png,背叛,2,f,f,f,1,1,1,不忠,,,,,,,,,0,165,165,111,0,0,0,0,,,,,,,f,1,3.217222929,j,0,5.17458701134,moral_self_bias,25,19,60.0131922157,f,001,2018_Apr_02_1842,
,,,,,,,,,,,,,,,,,,,,,,material/32.png,2,背叛,material/132.png,2,material/132.png,背叛,2,f,f,f,1,1,1,不忠,,,,,,,,,0,165,165,111,,,,,,,,,,,,,,,,,moral_self_bias,25,19,60.0131922157,f,001,2018_Apr_02_1842,
,,,,,,,,,,,,,,,,,,,,,,material/131.png,1,笃行,material/31.png,1,material/131.png,笃学,1,j,j,j,2,2,2,笃行,,,,,,,,,0,166,166,30,0,0,0,0,,,,,,,f,0,2.17457795143,f,1,0.257287979126,moral_self_bias,25,19,60.0131922157,f,001,2018_Apr_02_1842,
,,,,,,,,,,,,,,,,,,,,,,material/131.png,1,笃行,material/31.png,1,material/131.png,笃学,1,j,j,j,2,2,2,笃行,,,,,,,,,0,166,166,30,,,,,,,,,,,,,,,,,moral_self_bias,25,19,60.0131922157,f,001,2018_Apr_02_1842,
,,,,,,,,,,,,,,,,,,,,,,material/102.png,1,善心,material/2.png,1,material/2.png,善心,1,j,j,j,1,1,1,爱心,,,,,,,,,0,167,167,1,,,,,,,,,,,j,1,4.74272298813,,,,moral_self_bias,25,19,60.0131922157,f,001,2018_Apr_02_1842,
