Block1_Old,Num_Source3,Num_Source2,Num_Source1,valence1,valence2,valence3,Num_Old2,Corr_S1,Num_Old1,Corr_S3,Corr_S2,Block3_Old,Block2_Old,Source_2,Source_3,Source_1,domain3,domain2,domain1,Num_Old3,math,Num_All2,valence_all1,All_Words3,Num_All1,valence_all2,Num_All3,All_Words1,valence_all3,Corr_Rec2,Corr_Rec3,Corr_Rec1,domian_all3,domian_all2,domian_all1,All_Words2,trials.thisRepN,trials.thisTrialN,trials.thisN,trials.thisIndex,trials_2.thisRepN,trials_2.thisTrialN,trials_2.thisN,trials_2.thisIndex,trials_4.thisRepN,trials_4.thisTrialN,trials_4.thisN,trials_4.thisIndex,trials_3.thisRepN,trials_3.thisTrialN,trials_3.thisN,trials_3.thisIndex,block_resp_1.keys,block_resp_1.rt,words_rating.keys,words_rating.rt,block_resp_2.keys,block_resp_2.rt,Rec_resp.keys,Rec_resp.corr,Rec_resp.rt,Source_resp.keys,Source_resp.corr,Source_resp.rt,expName,participant,Age,frameRate,Sex,session,date,
,,,,,,,,,,,,,,,,,,,,,,,,,,,,,,,,,,,,,,,,,,,,,,,,,,,,,2,29.8419649601,,,,,,,,,,,moral_self_bias,26,19,59.9822954936,f,001,2018_Apr_02_1908,
机变,material/instr2_2.png,material/instr2_2.png,material/instr2_2.png,1,1,1,material/70.png,j,material/168.png,j,j,全面,全面,friend,friend,friend,2,2,2,material/70.png,,,,,,,,,,,,,,,,,0,0,0,67,,,,,,,,,,,,,,,4,1.02538204193,,,,,,,,,moral_self_bias,26,19,59.9822954936,f,001,2018_Apr_02_1908,
笨蛋,material/instr2_2.png,material/instr2_2.png,material/instr2_2.png,2,2,2,material/48.png,j,material/148.png,j,j,愚蠢,愚蠢,friend,friend,friend,2,2,2,material/48.png,,,,,,,,,,,,,,,,,0,1,1,47,,,,,,,,,,,,,,,1,0.658043146133,,,,,,,,,moral_self_bias,26,19,59.9822954936,f,001,2018_Apr_02_1908,
独立,material/instr2_1.png,material/instr2_1.png,material/instr2_1.png,1,1,1,material/64.png,f,material/165.png,f,f,谦虚,奉献,self,self,self,1,1,1,material/65.png,,,,,,,,,,,,,,,,,0,2,2,64,,,,,,,,,,,,,,,4,0.642746925354,,,,,,,,,moral_self_bias,26,19,59.9822954936,f,001,2018_Apr_02_1908,
笃行,material/instr2_1.png,material/instr2_1.png,material/instr2_1.png,1,1,1,material/31.png,f,material/131.png,f,f,笃学,笃学,self,self,self,2,2,2,material/31.png,,,,,,,,,,,,,,,,,0,3,3,30,,,,,,,,,,,,,,,4,0.508574008942,,,,,,,,,moral_self_bias,26,19,59.9822954936,f,001,2018_Apr_02_1908,
仗义,material/instr2_1.png,material/instr2_1.png,material/instr2_1.png,1,1,1,material/63.png,f,material/166.png,f,f,正义,文明,self,self,self,1,1,1,material/66.png,,,,,,,,,,,,,,,,,0,4,4,65,,,,,,,,,,,,,,,4,0.491470098495,,,,,,,,,moral_self_bias,26,19,59.9822954936,f,001,2018_Apr_02_1908,
好问,material/instr2_1.png,material/instr2_1.png,material/instr2_1.png,1,1,1,material/29.png,f,material/129.png,f,f,好学,好学,self,self,self,2,2,2,material/29.png,,,,,,,,,,,,,,,,,0,5,5,28,,,,,,,,,,,,,,,3,0.533586978912,,,,,,,,,moral_self_bias,26,19,59.9822954936,f,001,2018_Apr_02_1908,
毛糙,material/instr2_2.png,material/instr2_2.png,material/instr2_2.png,2,2,2,material/179.png,j,material/178.png,j,j,顽愚,差生,friend,friend,friend,2,2,2,material/84.png,,,,,,,,,,,,,,,,,0,6,6,77,,,,,,,,,,,,,,,3,0.392907142639,,,,,,,,,moral_self_bias,26,19,59.9822954936,f,001,2018_Apr_02_1908,
无情,material/instr2_1.png,material/instr2_1.png,material/instr2_1.png,2,2,2,material/172.png,f,material/175.png,f,f,无情,浮夸,self,self,self,1,1,1,material/175.png,,,,,,,,,,,,,,,,,0,7,7,74,,,,,,,,,,,,,,,4,0.616806983948,,,,,,,,,moral_self_bias,26,19,59.9822954936,f,001,2018_Apr_02_1908,
无能,material/instr2_2.png,material/instr2_2.png,material/instr2_2.png,2,2,2,material/57.png,j,material/157.png,j,j,无知,无知,friend,friend,friend,2,2,2,material/57.png,,,,,,,,,,,,,,,,,0,8,8,56,,,,,,,,,,,,,,,1,0.424608945847,,,,,,,,,moral_self_bias,26,19,59.9822954936,f,001,2018_Apr_02_1908,
依靠,material/instr2_1.png,material/instr2_1.png,material/instr2_1.png,2,2,2,material/54.png,f,material/154.png,f,f,依赖,依赖,self,self,self,2,2,2,material/54.png,,,,,,,,,,,,,,,,,0,9,9,53,,,,,,,,,,,,,,,1,0.442192077637,,,,,,,,,moral_self_bias,26,19,59.9822954936,f,001,2018_Apr_02_1908,
鲁钝,material/instr2_2.png,material/instr2_2.png,material/instr2_2.png,2,2,2,material/50.png,j,material/150.png,j,j,愚笨,愚笨,friend,friend,friend,2,2,2,material/50.png,,,,,,,,,,,,,,,,,0,10,10,49,,,,,,,,,,,,,,,1,0.725466966629,,,,,,,,,moral_self_bias,26,19,59.9822954936,f,001,2018_Apr_02_1908,
爱心,material/instr2_1.png,material/instr2_1.png,material/instr2_1.png,1,1,1,material/2.png,f,material/102.png,f,f,爱心,善心,self,self,self,1,1,1,material/102.png,,,,,,,,,,,,,,,,,0,11,11,1,,,,,,,,,,,,,,,4,0.559725046158,,,,,,,,,moral_self_bias,26,19,59.9822954936,f,001,2018_Apr_02_1908,
机灵,material/instr2_2.png,material/instr2_2.png,material/instr2_2.png,1,1,1,material/19.png,j,material/119.png,j,j,灵活,灵活,friend,friend,friend,2,2,2,material/19.png,,,,,,,,,,,,,,,,,0,12,12,18,,,,,,,,,,,,,,,4,0.45898604393,,,,,,,,,moral_self_bias,26,19,59.9822954936,f,001,2018_Apr_02_1908,
忠贞,material/instr2_2.png,material/instr2_2.png,material/instr2_2.png,1,1,1,material/14.png,j,material/114.png,j,j,忠贞,爱国,friend,friend,friend,1,1,1,material/114.png,,,,,,,,,,,,,,,,,0,13,13,13,,,,,,,,,,,,,,,4,0.442015886307,,,,,,,,,moral_self_bias,26,19,59.9822954936,f,001,2018_Apr_02_1908,
自私,material/instr2_2.png,material/instr2_2.png,material/instr2_2.png,2,2,2,material/46.png,j,material/146.png,j,j,自私,小气,friend,friend,friend,1,1,1,material/146.png,,,,,,,,,,,,,,,,,0,14,14,45,,,,,,,,,,,,,,,1,0.558758974075,,,,,,,,,moral_self_bias,26,19,59.9822954936,f,001,2018_Apr_02_1908,
残忍,material/instr2_2.png,material/instr2_2.png,material/instr2_2.png,2,2,2,material/41.png,j,material/141.png,j,j,残忍,歹毒,friend,friend,friend,1,1,1,material/141.png,,,,,,,,,,,,,,,,,0,15,15,40,,,,,,,,,,,,,,,1,0.42565703392,,,,,,,,,moral_self_bias,26,19,59.9822954936,f,001,2018_Apr_02_1908,
能干,material/instr2_2.png,material/instr2_2.png,material/instr2_2.png,1,1,1,material/20.png,j,material/120.png,j,j,厉害,厉害,friend,friend,friend,2,2,2,material/20.png,,,,,,,,,,,,,,,,,0,16,16,19,,,,,,,,,,,,,,,4,0.559713125229,,,,,,,,,moral_self_bias,26,19,59.9822954936,f,001,2018_Apr_02_1908,
博学,material/instr2_1.png,material/instr2_1.png,material/instr2_1.png,1,1,1,material/22.png,f,material/122.png,f,f,才学,才学,self,self,self,2,2,2,material/22.png,,,,,,,,,,,,,,,,,0,17,17,21,,,,,,,,,,,,,,,4,0.44199681282,,,,,,,,,moral_self_bias,26,19,59.9822954936,f,001,2018_Apr_02_1908,
刻板,material/instr2_2.png,material/instr2_2.png,material/instr2_2.png,2,2,2,material/47.png,j,material/147.png,j,j,死板,死板,friend,friend,friend,2,2,2,material/47.png,,,,,,,,,,,,,,,,,0,18,18,46,,,,,,,,,,,,,,,4,0.374862909317,,,,,,,,,moral_self_bias,26,19,59.9822954936,f,001,2018_Apr_02_1908,
弱智,material/instr2_1.png,material/instr2_1.png,material/instr2_1.png,2,2,2,material/59.png,f,material/159.png,f,f,智障,智障,self,self,self,2,2,2,material/59.png,,,,,,,,,,,,,,,,,0,19,19,58,,,,,,,,,,,,,,,1,0.542527198792,,,,,,,,,moral_self_bias,26,19,59.9822954936,f,001,2018_Apr_02_1908,
奸诈,material/instr2_1.png,material/instr2_1.png,material/instr2_1.png,2,2,2,material/42.png,f,material/142.png,f,f,奸诈,阴险,self,self,self,1,1,1,material/142.png,,,,,,,,,,,,,,,,,0,20,20,41,,,,,,,,,,,,,,,1,0.425715208054,,,,,,,,,moral_self_bias,26,19,59.9822954936,f,001,2018_Apr_02_1908,
勇敢,material/instr2_2.png,material/instr2_2.png,material/instr2_2.png,1,1,1,material/165.png,j,material/161.png,j,j,平等,独立,friend,friend,friend,1,1,1,material/61.png,,,,,,,,,,,,,,,,,0,21,21,60,,,,,,,,,,,,,,,1,0.607975006104,,,,,,,,,moral_self_bias,26,19,59.9822954936,f,001,2018_Apr_02_1908,
笨拙,material/instr2_1.png,material/instr2_1.png,material/instr2_1.png,2,2,2,material/60.png,f,material/160.png,f,f,粗拙,粗拙,self,self,self,2,2,2,material/60.png,,,,,,,,,,,,,,,,,0,22,22,59,,,,,,,,,,,,,,,1,0.459085941315,,,,,,,,,moral_self_bias,26,19,59.9822954936,f,001,2018_Apr_02_1908,
爽约,material/instr2_2.png,material/instr2_2.png,material/instr2_2.png,2,2,2,material/44.png,j,material/144.png,j,j,爽约,失信,friend,friend,friend,1,1,1,material/144.png,,,,,,,,,,,,,,,,,0,23,23,43,,,,,,,,,,,,,,,1,0.475805044174,,,,,,,,,moral_self_bias,26,19,59.9822954936,f,001,2018_Apr_02_1908,
缺德,material/instr2_2.png,material/instr2_2.png,material/instr2_2.png,2,2,2,material/38.png,j,material/138.png,j,j,缺德,无德,friend,friend,friend,1,1,1,material/138.png,,,,,,,,,,,,,,,,,0,24,24,37,,,,,,,,,,,,,,,1,0.459600925446,,,,,,,,,moral_self_bias,26,19,59.9822954936,f,001,2018_Apr_02_1908,
不义,material/instr2_2.png,material/instr2_2.png,material/instr2_2.png,2,2,2,material/173.png,j,material/174.png,j,j,不义,黑心,friend,friend,friend,1,1,1,material/174.png,,,,,,,,,,,,,,,,,0,25,25,73,,,,,,,,,,,,,,,1,0.542032003403,,,,,,,,,moral_self_bias,26,19,59.9822954936,f,001,2018_Apr_02_1908,
果敢,material/instr2_1.png,material/instr2_1.png,material/instr2_1.png,1,1,1,material/25.png,f,material/125.png,f,f,果断,果断,self,self,self,2,2,2,material/25.png,,,,,,,,,,,,,,,,,0,26,26,24,,,,,,,,,,,,,,,1,0.408834934235,,,,,,,,,moral_self_bias,26,19,59.9822954936,f,001,2018_Apr_02_1908,
勤快,material/instr2_2.png,material/instr2_2.png,material/instr2_2.png,1,1,1,material/26.png,j,material/126.png,j,j,刻苦,刻苦,friend,friend,friend,2,2,2,material/26.png,,,,,,,,,,,,,,,,,0,27,27,25,,,,,,,,,,,,,,,1,0.491635084152,,,,,,,,,moral_self_bias,26,19,59.9822954936,f,001,2018_Apr_02_1908,
高尚,material/instr2_1.png,material/instr2_1.png,material/instr2_1.png,1,1,1,material/11.png,f,material/111.png,f,f,高尚,高雅,self,self,self,1,1,1,material/111.png,,,,,,,,,,,,,,,,,0,28,28,10,,,,,,,,,,,,,,,4,0.442374944687,,,,,,,,,moral_self_bias,26,19,59.9822954936,f,001,2018_Apr_02_1908,
冷血,material/instr2_1.png,material/instr2_1.png,material/instr2_1.png,2,2,2,material/35.png,f,material/135.png,f,f,冷血,冷漠,self,self,self,1,1,1,material/135.png,,,,,,,,,,,,,,,,,0,29,29,34,,,,,,,,,,,,,,,1,0.642367124557,,,,,,,,,moral_self_bias,26,19,59.9822954936,f,001,2018_Apr_02_1908,
白痴,material/instr2_2.png,material/instr2_2.png,material/instr2_2.png,2,2,2,material/49.png,j,material/149.png,j,j,痴呆,痴呆,friend,friend,friend,2,2,2,material/49.png,,,,,,,,,,,,,,,,,0,30,30,48,,,,,,,,,,,,,,,1,0.442267894745,,,,,,,,,moral_self_bias,26,19,59.9822954936,f,001,2018_Apr_02_1908,
超群,material/instr2_2.png,material/instr2_2.png,material/instr2_2.png,1,1,1,material/27.png,j,material/127.png,j,j,卓越,卓越,friend,friend,friend,2,2,2,material/27.png,,,,,,,,,,,,,,,,,0,31,31,26,,,,,,,,,,,,,,,4,0.517152070999,,,,,,,,,moral_self_bias,26,19,59.9822954936,f,001,2018_Apr_02_1908,
贪污,material/instr2_1.png,material/instr2_1.png,material/instr2_1.png,2,2,2,material/33.png,f,material/133.png,f,f,贪污,腐败,self,self,self,1,1,1,material/133.png,,,,,,,,,,,,,,,,,0,32,32,32,,,,,,,,,,,,,,,1,0.458779096603,,,,,,,,,moral_self_bias,26,19,59.9822954936,f,001,2018_Apr_02_1908,
怠惰,material/instr2_2.png,material/instr2_2.png,material/instr2_2.png,2,2,2,material/181.png,j,material/180.png,j,j,怠惰,犹豫,friend,friend,friend,2,2,2,material/180.png,,,,,,,,,,,,,,,,,0,33,33,79,,,,,,,,,,,,,,,1,0.542451143265,,,,,,,,,moral_self_bias,26,19,59.9822954936,f,001,2018_Apr_02_1908,
残虐,material/instr2_1.png,material/instr2_1.png,material/instr2_1.png,2,2,2,material/175.png,f,material/73.png,f,f,残虐,无情,self,self,self,1,1,1,material/73.png,,,,,,,,,,,,,,,,,0,34,34,85,,,,,,,,,,,,,,,1,0.458391904831,,,,,,,,,moral_self_bias,26,19,59.9822954936,f,001,2018_Apr_02_1908,
卑鄙,material/instr2_2.png,material/instr2_2.png,material/instr2_2.png,2,2,2,material/37.png,j,material/137.png,j,j,卑鄙,无耻,friend,friend,friend,1,1,1,material/137.png,,,,,,,,,,,,,,,,,0,35,35,36,,,,,,,,,,,,,,,1,0.424659967422,,,,,,,,,moral_self_bias,26,19,59.9822954936,f,001,2018_Apr_02_1908,
聪颖,material/instr2_2.png,material/instr2_2.png,material/instr2_2.png,1,1,1,material/17.png,j,material/117.png,j,j,聪明,聪明,friend,friend,friend,2,2,2,material/17.png,,,,,,,,,,,,,,,,,0,36,36,16,,,,,,,,,,,,,,,4,0.425421953201,,,,,,,,,moral_self_bias,26,19,59.9822954936,f,001,2018_Apr_02_1908,
正直,material/instr2_2.png,material/instr2_2.png,material/instr2_2.png,1,1,1,material/9.png,j,material/109.png,j,j,正直,秉直,friend,friend,friend,1,1,1,material/109.png,,,,,,,,,,,,,,,,,0,37,37,8,,,,,,,,,,,,,,,1,0.459223985672,,,,,,,,,moral_self_bias,26,19,59.9822954936,f,001,2018_Apr_02_1908,
自律,material/instr2_2.png,material/instr2_2.png,material/instr2_2.png,1,1,1,material/28.png,j,material/128.png,j,j,克己,克己,friend,friend,friend,2,2,2,material/28.png,,,,,,,,,,,,,,,,,0,38,38,27,,,,,,,,,,,,,,,4,0.742183208466,,,,,,,,,moral_self_bias,26,19,59.9822954936,f,001,2018_Apr_02_1908,
愚钝,material/instr2_1.png,material/instr2_1.png,material/instr2_1.png,2,2,2,material/56.png,f,material/156.png,f,f,愚昧,愚昧,self,self,self,2,2,2,material/56.png,,,,,,,,,,,,,,,,,0,39,39,55,,,,,,,,,,,,,,,1,0.50886297226,,,,,,,,,moral_self_bias,26,19,59.9822954936,f,001,2018_Apr_02_1908,
纯洁,material/instr2_2.png,material/instr2_2.png,material/instr2_2.png,1,1,1,material/15.png,j,material/115.png,j,j,纯洁,清白,friend,friend,friend,1,1,1,material/115.png,,,,,,,,,,,,,,,,,0,40,40,14,,,,,,,,,,,,,,,4,0.441658973694,,,,,,,,,moral_self_bias,26,19,59.9822954936,f,001,2018_Apr_02_1908,
孝顺,material/instr2_1.png,material/instr2_1.png,material/instr2_1.png,1,1,1,material/161.png,f,material/164.png,f,f,奉献,勇敢,self,self,self,1,1,1,material/64.png,,,,,,,,,,,,,,,,,0,41,41,63,,,,,,,,,,,,,,,4,0.374842166901,,,,,,,,,moral_self_bias,26,19,59.9822954936,f,001,2018_Apr_02_1908,
高效,material/instr2_1.png,material/instr2_1.png,material/instr2_1.png,1,1,1,material/169.png,f,material/171.png,f,f,颖悟,颖悟,self,self,self,2,2,2,material/169.png,,,,,,,,,,,,,,,,,0,42,42,70,,,,,,,,,,,,,,,4,0.425987005234,,,,,,,,,moral_self_bias,26,19,59.9822954936,f,001,2018_Apr_02_1908,
缓慢,material/instr2_1.png,material/instr2_1.png,material/instr2_1.png,2,2,2,material/52.png,f,material/152.png,f,f,拖延,拖延,self,self,self,2,2,2,material/52.png,,,,,,,,,,,,,,,,,0,43,43,51,,,,,,,,,,,,,,,4,0.350197076797,,,,,,,,,moral_self_bias,26,19,59.9822954936,f,001,2018_Apr_02_1908,
精干,material/instr2_1.png,material/instr2_1.png,material/instr2_1.png,1,1,1,material/21.png,f,material/121.png,f,f,干练,干练,self,self,self,2,2,2,material/21.png,,,,,,,,,,,,,,,,,0,44,44,20,,,,,,,,,,,,,,,4,0.591701030731,,,,,,,,,moral_self_bias,26,19,59.9822954936,f,001,2018_Apr_02_1908,
进取,material/instr2_1.png,material/instr2_1.png,material/instr2_1.png,1,1,1,material/30.png,f,material/130.png,f,f,上进,上进,self,self,self,2,2,2,material/30.png,,,,,,,,,,,,,,,,,0,45,45,29,,,,,,,,,,,,,,,4,0.424567937851,,,,,,,,,moral_self_bias,26,19,59.9822954936,f,001,2018_Apr_02_1908,
迷糊,material/instr2_2.png,material/instr2_2.png,material/instr2_2.png,2,2,2,material/51.png,j,material/151.png,j,j,糊涂,糊涂,friend,friend,friend,2,2,2,material/51.png,,,,,,,,,,,,,,,,,0,46,46,50,,,,,,,,,,,,,,,1,0.64170384407,,,,,,,,,moral_self_bias,26,19,59.9822954936,f,001,2018_Apr_02_1908,
黑心,material/instr2_2.png,material/instr2_2.png,material/instr2_2.png,2,2,2,material/74.png,j,material/173.png,j,j,黑心,卑劣,friend,friend,friend,1,1,1,material/173.png,,,,,,,,,,,,,,,,,0,47,47,72,,,,,,,,,,,,,,,1,0.516488075256,,,,,,,,,moral_self_bias,26,19,59.9822954936,f,001,2018_Apr_02_1908,
顽愚,material/instr2_1.png,material/instr2_1.png,material/instr2_1.png,2,2,2,material/84.png,f,material/84.png,f,f,犹豫,顽愚,self,self,self,2,2,2,material/181.png,,,,,,,,,,,,,,,,,0,48,48,87,,,,,,,,,,,,,,,1,0.542196989059,,,,,,,,,moral_self_bias,26,19,59.9822954936,f,001,2018_Apr_02_1908,
恶心,material/instr2_1.png,material/instr2_1.png,material/instr2_1.png,2,2,2,material/73.png,f,material/177.png,f,f,恶心,残虐,self,self,self,1,1,1,material/177.png,,,,,,,,,,,,,,,,,0,49,49,76,,,,,,,,,,,,,,,1,0.375689983368,,,,,,,,,moral_self_bias,26,19,59.9822954936,f,001,2018_Apr_02_1908,
放纵,material/instr2_1.png,material/instr2_1.png,material/instr2_1.png,2,2,2,material/76.png,f,material/176.png,f,f,放纵,虚伪,self,self,self,1,1,1,material/176.png,,,,,,,,,,,,,,,,,0,50,50,75,,,,,,,,,,,,,,,1,0.359277963638,,,,,,,,,moral_self_bias,26,19,59.9822954936,f,001,2018_Apr_02_1908,
廉明,material/instr2_2.png,material/instr2_2.png,material/instr2_2.png,1,1,1,material/13.png,j,material/113.png,j,j,廉明,廉洁,friend,friend,friend,1,1,1,material/113.png,,,,,,,,,,,,,,,,,0,51,51,12,,,,,,,,,,,,,,,4,0.525645017624,,,,,,,,,moral_self_bias,26,19,59.9822954936,f,001,2018_Apr_02_1908,
狠毒,material/instr2_2.png,material/instr2_2.png,material/instr2_2.png,2,2,2,material/40.png,j,material/140.png,j,j,狠毒,邪恶,friend,friend,friend,1,1,1,material/140.png,,,,,,,,,,,,,,,,,0,52,52,39,,,,,,,,,,,,,,,1,0.482983112335,,,,,,,,,moral_self_bias,26,19,59.9822954936,f,001,2018_Apr_02_1908,
正义,material/instr2_1.png,material/instr2_1.png,material/instr2_1.png,1,1,1,material/66.png,f,material/66.png,f,f,独立,正义,self,self,self,1,1,1,material/165.png,,,,,,,,,,,,,,,,,0,53,53,84,,,,,,,,,,,,,,,4,0.509519100189,,,,,,,,,moral_self_bias,26,19,59.9822954936,f,001,2018_Apr_02_1908,
撒谎,material/instr2_1.png,material/instr2_1.png,material/instr2_1.png,2,2,2,material/36.png,f,material/136.png,f,f,撒谎,说谎,self,self,self,1,1,1,material/136.png,,,,,,,,,,,,,,,,,0,54,54,35,,,,,,,,,,,,,,,1,0.509083986282,,,,,,,,,moral_self_bias,26,19,59.9822954936,f,001,2018_Apr_02_1908,
迟钝,material/instr2_1.png,material/instr2_1.png,material/instr2_1.png,2,2,2,material/53.png,f,material/153.png,f,f,迟缓,迟缓,self,self,self,2,2,2,material/53.png,,,,,,,,,,,,,,,,,0,55,55,52,,,,,,,,,,,,,,,1,0.441556930542,,,,,,,,,moral_self_bias,26,19,59.9822954936,f,001,2018_Apr_02_1908,
高手,material/instr2_2.png,material/instr2_2.png,material/instr2_2.png,1,1,1,material/68.png,j,material/167.png,j,j,广博,广博,friend,friend,friend,2,2,2,material/68.png,,,,,,,,,,,,,,,,,0,56,56,66,,,,,,,,,,,,,,,4,0.527142047882,,,,,,,,,moral_self_bias,26,19,59.9822954936,f,001,2018_Apr_02_1908,
颖悟,material/instr2_2.png,material/instr2_2.png,material/instr2_2.png,1,1,1,material/167.png,j,material/169.png,j,j,高手,高手,friend,friend,friend,2,2,2,material/167.png,,,,,,,,,,,,,,,,,0,57,57,68,,,,,,,,,,,,,,,4,0.459078788757,,,,,,,,,moral_self_bias,26,19,59.9822954936,f,001,2018_Apr_02_1908,
厌学,material/instr2_2.png,material/instr2_2.png,material/instr2_2.png,2,2,2,material/182.png,j,material/184.png,j,j,健忘,才尽,friend,friend,friend,2,2,2,material/80.png,,,,,,,,,,,,,,,,,0,58,58,83,,,,,,,,,,,,,,,4,0.425701141357,,,,,,,,,moral_self_bias,26,19,59.9822954936,f,001,2018_Apr_02_1908,
虚荣,material/instr2_1.png,material/instr2_1.png,material/instr2_1.png,2,2,2,material/43.png,f,material/143.png,f,f,虚荣,拜金,self,self,self,1,1,1,material/143.png,,,,,,,,,,,,,,,,,0,59,59,42,,,,,,,,,,,,,,,4,0.544044971466,,,,,,,,,moral_self_bias,26,19,59.9822954936,f,001,2018_Apr_02_1908,
背叛,material/instr2_1.png,material/instr2_1.png,material/instr2_1.png,2,2,2,material/32.png,f,material/132.png,f,f,背叛,不忠,self,self,self,1,1,1,material/132.png,,,,,,,,,,,,,,,,,0,60,60,31,,,,,,,,,,,,,,,1,0.691742181778,,,,,,,,,moral_self_bias,26,19,59.9822954936,f,001,2018_Apr_02_1908,
才尽,material/instr2_1.png,material/instr2_1.png,material/instr2_1.png,2,2,2,material/183.png,f,material/182.png,f,f,颓废,薄弱,self,self,self,2,2,2,material/79.png,,,,,,,,,,,,,,,,,0,61,61,81,,,,,,,,,,,,,,,1,0.592196941376,,,,,,,,,moral_self_bias,26,19,59.9822954936,f,001,2018_Apr_02_1908,
犹豫,material/instr2_1.png,material/instr2_1.png,material/instr2_1.png,2,2,2,material/78.png,f,material/181.png,f,f,厌学,草率,self,self,self,2,2,2,material/184.png,,,,,,,,,,,,,,,,,0,62,62,80,,,,,,,,,,,,,,,2,0.726119041443,,,,,,,,,moral_self_bias,26,19,59.9822954936,f,001,2018_Apr_02_1908,
冷静,material/instr2_1.png,material/instr2_1.png,material/instr2_1.png,1,1,1,material/24.png,f,material/124.png,f,f,理智,理智,self,self,self,2,2,2,material/24.png,,,,,,,,,,,,,,,,,0,63,63,23,,,,,,,,,,,,,,,4,0.625288009644,,,,,,,,,moral_self_bias,26,19,59.9822954936,f,001,2018_Apr_02_1908,
差生,material/instr2_2.png,material/instr2_2.png,material/instr2_2.png,2,2,2,material/81.png,j,material/179.png,j,j,呆笨,无助,friend,friend,friend,2,2,2,material/83.png,,,,,,,,,,,,,,,,,0,64,64,78,,,,,,,,,,,,,,,1,0.567114114761,,,,,,,,,moral_self_bias,26,19,59.9822954936,f,001,2018_Apr_02_1908,
多才,material/instr2_1.png,material/instr2_1.png,material/instr2_1.png,1,1,1,material/23.png,f,material/123.png,f,f,有才,有才,self,self,self,2,2,2,material/23.png,,,,,,,,,,,,,,,,,0,65,65,22,,,,,,,,,,,,,,,4,0.525942802429,,,,,,,,,moral_self_bias,26,19,59.9822954936,f,001,2018_Apr_02_1908,
公平,material/instr2_2.png,material/instr2_2.png,material/instr2_2.png,1,1,1,material/7.png,j,material/107.png,j,j,公平,公正,friend,friend,friend,1,1,1,material/107.png,,,,,,,,,,,,,,,,,0,66,66,6,,,,,,,,,,,,,,,4,0.491849899292,,,,,,,,,moral_self_bias,26,19,59.9822954936,f,001,2018_Apr_02_1908,
浮夸,material/instr2_2.png,material/instr2_2.png,material/instr2_2.png,2,2,2,material/77.png,j,material/172.png,j,j,浮夸,软弱,friend,friend,friend,1,1,1,material/172.png,,,,,,,,,,,,,,,,,0,67,67,71,,,,,,,,,,,,,,,1,0.575863838196,,,,,,,,,moral_self_bias,26,19,59.9822954936,f,001,2018_Apr_02_1908,
盲目,material/instr2_1.png,material/instr2_1.png,material/instr2_1.png,2,2,2,material/55.png,f,material/155.png,f,f,盲从,盲从,self,self,self,2,2,2,material/55.png,,,,,,,,,,,,,,,,,0,68,68,54,,,,,,,,,,,,,,,1,0.608854055405,,,,,,,,,moral_self_bias,26,19,59.9822954936,f,001,2018_Apr_02_1908,
薄弱,material/instr2_1.png,material/instr2_1.png,material/instr2_1.png,2,2,2,material/82.png,f,material/183.png,f,f,毛糙,窝囊,self,self,self,2,2,2,material/178.png,,,,,,,,,,,,,,,,,0,69,69,82,,,,,,,,,,,,,,,1,0.608812093735,,,,,,,,,moral_self_bias,26,19,59.9822954936,f,001,2018_Apr_02_1908,
坚忍,material/instr2_1.png,material/instr2_1.png,material/instr2_1.png,1,1,1,material/168.png,f,material/170.png,f,f,机变,机变,self,self,self,2,2,2,material/168.png,,,,,,,,,,,,,,,,,0,70,70,69,,,,,,,,,,,,,,,3,0.859168052673,,,,,,,,,moral_self_bias,26,19,59.9822954936,f,001,2018_Apr_02_1908,
诚信,material/instr2_1.png,material/instr2_1.png,material/instr2_1.png,1,1,1,material/5.png,f,material/105.png,f,f,诚信,守信,self,self,self,1,1,1,material/105.png,,,,,,,,,,,,,,,,,0,71,71,4,,,,,,,,,,,,,,,4,0.656940937042,,,,,,,,,moral_self_bias,26,19,59.9822954936,f,001,2018_Apr_02_1908,
宽容,material/instr2_2.png,material/instr2_2.png,material/instr2_2.png,1,1,1,material/163.png,j,material/163.png,j,j,文明,宽容,friend,friend,friend,1,1,1,material/63.png,,,,,,,,,,,,,,,,,0,72,72,62,,,,,,,,,,,,,,,4,0.575846910477,,,,,,,,,moral_self_bias,26,19,59.9822954936,f,001,2018_Apr_02_1908,
忠心,material/instr2_1.png,material/instr2_1.png,material/instr2_1.png,1,1,1,material/12.png,f,material/112.png,f,f,忠心,忠诚,self,self,self,1,1,1,material/112.png,,,,,,,,,,,,,,,,,0,73,73,11,,,,,,,,,,,,,,,4,0.475627183914,,,,,,,,,moral_self_bias,26,19,59.9822954936,f,001,2018_Apr_02_1908,
无私,material/instr2_2.png,material/instr2_2.png,material/instr2_2.png,1,1,1,material/8.png,j,material/108.png,j,j,无私,公道,friend,friend,friend,1,1,1,material/108.png,,,,,,,,,,,,,,,,,0,74,74,7,,,,,,,,,,,,,,,4,0.44225692749,,,,,,,,,moral_self_bias,26,19,59.9822954936,f,001,2018_Apr_02_1908,
高明,material/instr2_1.png,material/instr2_1.png,material/instr2_1.png,1,1,1,material/69.png,f,material/69.png,f,f,高明,高明,self,self,self,2,2,2,material/69.png,,,,,,,,,,,,,,,,,0,75,75,86,,,,,,,,,,,,,,,4,0.383126020432,,,,,,,,,moral_self_bias,26,19,59.9822954936,f,001,2018_Apr_02_1908,
厚道,material/instr2_2.png,material/instr2_2.png,material/instr2_2.png,1,1,1,material/6.png,j,material/106.png,j,j,厚道,诚实,friend,friend,friend,1,1,1,material/106.png,,,,,,,,,,,,,,,,,0,76,76,5,,,,,,,,,,,,,,,4,0.407348871231,,,,,,,,,moral_self_bias,26,19,59.9822954936,f,001,2018_Apr_02_1908,
敬业,material/instr2_2.png,material/instr2_2.png,material/instr2_2.png,1,1,1,material/62.png,j,material/162.png,j,j,坚韧,坚韧,friend,friend,friend,1,1,1,material/62.png,,,,,,,,,,,,,,,,,0,77,77,61,,,,,,,,,,,,,,,4,0.408790111542,,,,,,,,,moral_self_bias,26,19,59.9822954936,f,001,2018_Apr_02_1908,
博爱,material/instr2_1.png,material/instr2_1.png,material/instr2_1.png,1,1,1,material/1.png,f,material/101.png,f,f,博爱,善良,self,self,self,1,1,1,material/101.png,,,,,,,,,,,,,,,,,0,78,78,0,,,,,,,,,,,,,,,4,0.373296022415,,,,,,,,,moral_self_bias,26,19,59.9822954936,f,001,2018_Apr_02_1908,
仁厚,material/instr2_1.png,material/instr2_1.png,material/instr2_1.png,1,1,1,material/3.png,f,material/103.png,f,f,仁厚,仁慈,self,self,self,1,1,1,material/103.png,,,,,,,,,,,,,,,,,0,79,79,2,,,,,,,,,,,,,,,4,0.391913890839,,,,,,,,,moral_self_bias,26,19,59.9822954936,f,001,2018_Apr_02_1908,
恶毒,material/instr2_2.png,material/instr2_2.png,material/instr2_2.png,2,2,2,material/39.png,j,material/139.png,j,j,恶毒,凶残,friend,friend,friend,1,1,1,material/139.png,,,,,,,,,,,,,,,,,0,80,80,38,,,,,,,,,,,,,,,1,0.541339874268,,,,,,,,,moral_self_bias,26,19,59.9822954936,f,001,2018_Apr_02_1908,
坚毅,material/instr2_2.png,material/instr2_2.png,material/instr2_2.png,1,1,1,material/10.png,j,material/110.png,j,j,坚毅,顽强,friend,friend,friend,1,1,1,material/110.png,,,,,,,,,,,,,,,,,0,81,81,9,,,,,,,,,,,,,,,4,0.641936063766,,,,,,,,,moral_self_bias,26,19,59.9822954936,f,001,2018_Apr_02_1908,
友善,material/instr2_1.png,material/instr2_1.png,material/instr2_1.png,1,1,1,material/4.png,f,material/104.png,f,f,友善,友爱,self,self,self,1,1,1,material/104.png,,,,,,,,,,,,,,,,,0,82,82,3,,,,,,,,,,,,,,,4,0.525584936142,,,,,,,,,moral_self_bias,26,19,59.9822954936,f,001,2018_Apr_02_1908,
机智,material/instr2_2.png,material/instr2_2.png,material/instr2_2.png,1,1,1,material/16.png,j,material/116.png,j,j,睿智,睿智,friend,friend,friend,2,2,2,material/16.png,,,,,,,,,,,,,,,,,0,83,83,15,,,,,,,,,,,,,,,5,0.50914812088,,,,,,,,,moral_self_bias,26,19,59.9822954936,f,001,2018_Apr_02_1908,
小人,material/instr2_2.png,material/instr2_2.png,material/instr2_2.png,2,2,2,material/45.png,j,material/145.png,j,j,小人,下流,friend,friend,friend,1,1,1,material/145.png,,,,,,,,,,,,,,,,,0,84,84,44,,,,,,,,,,,,,,,1,0.525177001953,,,,,,,,,moral_self_bias,26,19,59.9822954936,f,001,2018_Apr_02_1908,
机敏,material/instr2_2.png,material/instr2_2.png,material/instr2_2.png,1,1,1,material/18.png,j,material/118.png,j,j,敏锐,敏锐,friend,friend,friend,2,2,2,material/18.png,,,,,,,,,,,,,,,,,0,85,85,17,,,,,,,,,,,,,,,4,0.508800029755,,,,,,,,,moral_self_bias,26,19,59.9822954936,f,001,2018_Apr_02_1908,
可恶,material/instr2_1.png,material/instr2_1.png,material/instr2_1.png,2,2,2,material/34.png,f,material/134.png,f,f,可恶,可恨,self,self,self,1,1,1,material/134.png,,,,,,,,,,,,,,,,,0,86,86,33,,,,,,,,,,,,,,,1,0.558898925781,,,,,,,,,moral_self_bias,26,19,59.9822954936,f,001,2018_Apr_02_1908,
浅薄,material/instr2_2.png,material/instr2_2.png,material/instr2_2.png,2,2,2,material/58.png,j,material/158.png,j,j,肤浅,肤浅,friend,friend,friend,2,2,2,material/58.png,,,,,,,,,,,,,,,,,0,87,87,57,,,,,,,,,,,,,,,2,0.492108106613,,,,,,,,,moral_self_bias,26,19,59.9822954936,f,001,2018_Apr_02_1908,
,,,,,,,,,,,,,,,,,,,,,2+3= ?,,,,,,,,,,,,,,,,,,,,0,0,0,9,,,,,,,,,,,,,,,,,,,,,moral_self_bias,26,19,59.9822954936,f,001,2018_Apr_02_1908,
,,,,,,,,,,,,,,,,,,,,,12-12= ?,,,,,,,,,,,,,,,,,,,,0,1,1,99,,,,,,,,,,,,,,,,,,,,,moral_self_bias,26,19,59.9822954936,f,001,2018_Apr_02_1908,
,,,,,,,,,,,,,,,,,,,,,5+3= ?,,,,,,,,,,,,,,,,,,,,0,2,2,36,,,,,,,,,,,,,,,,,,,,,moral_self_bias,26,19,59.9822954936,f,001,2018_Apr_02_1908,
,,,,,,,,,,,,,,,,,,,,,29-27= ?,,,,,,,,,,,,,,,,,,,,0,3,3,72,,,,,,,,,,,,,,,,,,,,,moral_self_bias,26,19,59.9822954936,f,001,2018_Apr_02_1908,
,,,,,,,,,,,,,,,,,,,,,1+7= ?,,,,,,,,,,,,,,,,,,,,0,4,4,4,,,,,,,,,,,,,,,,,,,,,moral_self_bias,26,19,59.9822954936,f,001,2018_Apr_02_1908,
,,,,,,,,,,,,,,,,,,,,,3+3= ?,,,,,,,,,,,,,,,,,,,,0,5,5,18,,,,,,,,,,,,,,,,,,,,,moral_self_bias,26,19,59.9822954936,f,001,2018_Apr_02_1908,
,,,,,,,,,,,,,,,,,,,,,1+2= ?,,,,,,,,,,,,,,,,,,,,0,6,6,1,,,,,,,,,,,,,,,,,,,,,moral_self_bias,26,19,59.9822954936,f,001,2018_Apr_02_1908,
,,,,,,,,,,,,,,,,,,,,,12-7= ?,,,,,,,,,,,,,,,,,,,,0,7,7,115,,,,,,,,,,,,,,,,,,,,,moral_self_bias,26,19,59.9822954936,f,001,2018_Apr_02_1908,
,,,,,,,,,,,,,,,,,,,,,8+1= ?,,,,,,,,,,,,,,,,,,,,0,8,8,48,,,,,,,,,,,,,,,,,,,,,moral_self_bias,26,19,59.9822954936,f,001,2018_Apr_02_1908,
,,,,,,,,,,,,,,,,,,,,,3*3= ?,,,,,,,,,,,,,,,,,,,,0,9,9,54,,,,,,,,,,,,,,,,,,,,,moral_self_bias,26,19,59.9822954936,f,001,2018_Apr_02_1908,
,,,,,,,,,,,,,,,,,,,,,6^0= ?,,,,,,,,,,,,,,,,,,,,0,10,10,114,,,,,,,,,,,,,,,,,,,,,moral_self_bias,26,19,59.9822954936,f,001,2018_Apr_02_1908,
,,,,,,,,,,,,,,,,,,,,,5/1= ?,,,,,,,,,,,,,,,,,,,,0,11,11,59,,,,,,,,,,,,,,,,,,,,,moral_self_bias,26,19,59.9822954936,f,001,2018_Apr_02_1908,
,,,,,,,,,,,,,,,,,,,,,7-0= ?,,,,,,,,,,,,,,,,,,,,0,12,12,117,,,,,,,,,,,,,,,,,,,,,moral_self_bias,26,19,59.9822954936,f,001,2018_Apr_02_1908,
,,,,,,,,,,,,,,,,,,,,,18/9= ?,,,,,,,,,,,,,,,,,,,,0,13,13,96,,,,,,,,,,,,,,,,,,,,,moral_self_bias,26,19,59.9822954936,f,001,2018_Apr_02_1908,
,,,,,,,,,,,,,,,,,,,,,9-5= ?,,,,,,,,,,,,,,,,,,,,0,14,14,23,,,,,,,,,,,,,,,,,,,,,moral_self_bias,26,19,59.9822954936,f,001,2018_Apr_02_1908,
,,,,,,,,,,,,,,,,,,,,,90/45= ?,,,,,,,,,,,,,,,,,,,,0,15,15,74,,,,,,,,,,,,,,,,,,,,,moral_self_bias,26,19,59.9822954936,f,001,2018_Apr_02_1908,
,,,,,,,,,,,,,,,,,,,,,3+4= ?,,,,,,,,,,,,,,,,,,,,0,16,16,19,,,,,,,,,,,,,,,,,,,,,moral_self_bias,26,19,59.9822954936,f,001,2018_Apr_02_1908,
,,,,,,,,,,,,,,,,,,,,,2^2= ?,,,,,,,,,,,,,,,,,,,,0,17,17,49,,,,,,,,,,,,,,,,,,,,,moral_self_bias,26,19,59.9822954936,f,001,2018_Apr_02_1908,
,,,,,,,,,,,,,,,,,,,,,1*9= ?,,,,,,,,,,,,,,,,,,,,0,18,18,109,,,,,,,,,,,,,,,,,,,,,moral_self_bias,26,19,59.9822954936,f,001,2018_Apr_02_1908,
,,,,,,,,,,,,,,,,,,,,,23^0= ?,,,,,,,,,,,,,,,,,,,,0,19,19,94,,,,,,,,,,,,,,,,,,,,,moral_self_bias,26,19,59.9822954936,f,001,2018_Apr_02_1908,
,,,,,,,,,,,,,,,,,,,,,14-9=？,,,,,,,,,,,,,,,,,,,,0,20,20,63,,,,,,,,,,,,,,,,,,,,,moral_self_bias,26,19,59.9822954936,f,001,2018_Apr_02_1908,
,,,,,,,,,,,,,,,,,,,,,4*1= ?,,,,,,,,,,,,,,,,,,,,0,21,21,85,,,,,,,,,,,,,,,,,,,,,moral_self_bias,26,19,59.9822954936,f,001,2018_Apr_02_1908,
,,,,,,,,,,,,,,,,,,,,,4+2= ?,,,,,,,,,,,,,,,,,,,,0,22,22,26,,,,,,,,,,,,,,,,,,,,,moral_self_bias,26,19,59.9822954936,f,001,2018_Apr_02_1908,
,,,,,,,,,,,,,,,,,,,,,9-2= ?,,,,,,,,,,,,,,,,,,,,0,23,23,14,,,,,,,,,,,,,,,,,,,,,moral_self_bias,26,19,59.9822954936,f,001,2018_Apr_02_1908,
,,,,,,,,,,,,,,,,,,,,,2*3= ?,,,,,,,,,,,,,,,,,,,,0,24,24,108,,,,,,,,,,,,,,,,,,,,,moral_self_bias,26,19,59.9822954936,f,001,2018_Apr_02_1908,
,,,,,,,,,,,,,,,,,,,,,17-12= ? ,,,,,,,,,,,,,,,,,,,,0,25,25,104,,,,,,,,,,,,,,,,,,,,,moral_self_bias,26,19,59.9822954936,f,001,2018_Apr_02_1908,
,,,,,,,,,,,,,,,,,,,,,15-10=？,,,,,,,,,,,,,,,,,,,,0,26,26,61,,,,,,,,,,,,,,,,,,,,,moral_self_bias,26,19,59.9822954936,f,001,2018_Apr_02_1908,
,,,,,,,,,,,,,,,,,,,,,1+1= ?,,,,,,,,,,,,,,,,,,,,0,27,27,0,,,,,,,,,,,,,,,,,,,,,moral_self_bias,26,19,59.9822954936,f,001,2018_Apr_02_1908,
,,,,,,,,,,,,,,,,,,,,,3*1= ?,,,,,,,,,,,,,,,,,,,,0,28,28,83,,,,,,,,,,,,,,,,,,,,,moral_self_bias,26,19,59.9822954936,f,001,2018_Apr_02_1908,
,,,,,,,,,,,,,,,,,,,,,30-29= ?,,,,,,,,,,,,,,,,,,,,0,29,29,73,,,,,,,,,,,,,,,,,,,,,moral_self_bias,26,19,59.9822954936,f,001,2018_Apr_02_1908,
,,,,,,,,,,,,,,,,,,,,,2*4= ?,,,,,,,,,,,,,,,,,,,,0,30,30,84,,,,,,,,,,,,,,,,,,,,,moral_self_bias,26,19,59.9822954936,f,001,2018_Apr_02_1908,
,,,,,,,,,,,,,,,,,,,,,5*0= ?,,,,,,,,,,,,,,,,,,,,0,31,31,86,,,,,,,,,,,,,,,,,,,,,moral_self_bias,26,19,59.9822954936,f,001,2018_Apr_02_1908,
,,,,,,,,,,,,,,,,,,,,,32-23=？,,,,,,,,,,,,,,,,,,,,0,32,32,60,,,,,,,,,,,,,,,,,,,,,moral_self_bias,26,19,59.9822954936,f,001,2018_Apr_02_1908,
,,,,,,,,,,,,,,,,,,,,,11-8= ?,,,,,,,,,,,,,,,,,,,,0,33,33,106,,,,,,,,,,,,,,,,,,,,,moral_self_bias,26,19,59.9822954936,f,001,2018_Apr_02_1908,
,,,,,,,,,,,,,,,,,,,,,3+1= ?,,,,,,,,,,,,,,,,,,,,0,34,34,16,,,,,,,,,,,,,,,,,,,,,moral_self_bias,26,19,59.9822954936,f,001,2018_Apr_02_1908,
,,,,,,,,,,,,,,,,,,,,,6*0= ?,,,,,,,,,,,,,,,,,,,,0,35,35,87,,,,,,,,,,,,,,,,,,,,,moral_self_bias,26,19,59.9822954936,f,001,2018_Apr_02_1908,
,,,,,,,,,,,,,,,,,,,,,8*1= ?,,,,,,,,,,,,,,,,,,,,0,36,36,111,,,,,,,,,,,,,,,,,,,,,moral_self_bias,26,19,59.9822954936,f,001,2018_Apr_02_1908,
,,,,,,,,,,,,,,,,,,,,,8-4= ?,,,,,,,,,,,,,,,,,,,,0,37,37,40,,,,,,,,,,,,,,,,,,,,,moral_self_bias,26,19,59.9822954936,f,001,2018_Apr_02_1908,
,,,,,,,,,,,,,,,,,,,,,13-6=？,,,,,,,,,,,,,,,,,,,,0,38,38,64,,,,,,,,,,,,,,,,,,,,,moral_self_bias,26,19,59.9822954936,f,001,2018_Apr_02_1908,
,,,,,,,,,,,,,,,,,,,,,3+0= ?,,,,,,,,,,,,,,,,,,,,0,39,39,105,,,,,,,,,,,,,,,,,,,,,moral_self_bias,26,19,59.9822954936,f,001,2018_Apr_02_1908,
,,,,,,,,,,,,,,,,,,,,,3+2= ?,,,,,,,,,,,,,,,,,,,,0,40,40,17,,,,,,,,,,,,,,,,,,,,,moral_self_bias,26,19,59.9822954936,f,001,2018_Apr_02_1908,
,,,,,,,,,,,,,,,,,,,,,9-8= ?,,,,,,,,,,,,,,,,,,,,0,41,41,31,,,,,,,,,,,,,,,,,,,,,moral_self_bias,26,19,59.9822954936,f,001,2018_Apr_02_1908,
,,,,,,,,,,,,,,,,,,,,,4/4= ?,,,,,,,,,,,,,,,,,,,,0,42,42,55,,,,,,,,,,,,,,,,,,,,,moral_self_bias,26,19,59.9822954936,f,001,2018_Apr_02_1908,
,,,,,,,,,,,,,,,,,,,,,9/3= ?,,,,,,,,,,,,,,,,,,,,0,43,43,56,,,,,,,,,,,,,,,,,,,,,moral_self_bias,26,19,59.9822954936,f,001,2018_Apr_02_1908,
,,,,,,,,,,,,,,,,,,,,,8-5= ?,,,,,,,,,,,,,,,,,,,,0,44,44,41,,,,,,,,,,,,,,,,,,,,,moral_self_bias,26,19,59.9822954936,f,001,2018_Apr_02_1908,
,,,,,,,,,,,,,,,,,,,,,21/7= ?,,,,,,,,,,,,,,,,,,,,0,45,45,70,,,,,,,,,,,,,,,,,,,,,moral_self_bias,26,19,59.9822954936,f,001,2018_Apr_02_1908,
,,,,,,,,,,,,,,,,,,,,,1+8= ?,,,,,,,,,,,,,,,,,,,,0,46,46,6,,,,,,,,,,,,,,,,,,,,,moral_self_bias,26,19,59.9822954936,f,001,2018_Apr_02_1908,
,,,,,,,,,,,,,,,,,,,,,56/7= ?,,,,,,,,,,,,,,,,,,,,0,47,47,77,,,,,,,,,,,,,,,,,,,,,moral_self_bias,26,19,59.9822954936,f,001,2018_Apr_02_1908,
,,,,,,,,,,,,,,,,,,,,,32-32= ?,,,,,,,,,,,,,,,,,,,,0,48,48,80,,,,,,,,,,,,,,,,,,,,,moral_self_bias,26,19,59.9822954936,f,001,2018_Apr_02_1908,
,,,,,,,,,,,,,,,,,,,,,3^2= ?,,,,,,,,,,,,,,,,,,,,0,49,49,50,,,,,,,,,,,,,,,,,,,,,moral_self_bias,26,19,59.9822954936,f,001,2018_Apr_02_1908,
,,,,,,,,,,,,,,,,,,,,,13-5= ?,,,,,,,,,,,,,,,,,,,,0,50,50,98,,,,,,,,,,,,,,,,,,,,,moral_self_bias,26,19,59.9822954936,f,001,2018_Apr_02_1908,
,,,,,,,,,,,,,,,,,,,,,8-1= ?,,,,,,,,,,,,,,,,,,,,0,51,51,33,,,,,,,,,,,,,,,,,,,,,moral_self_bias,26,19,59.9822954936,f,001,2018_Apr_02_1908,
,,,,,,,,,,,,,,,,,,,,,1*8= ?,,,,,,,,,,,,,,,,,,,,0,52,52,110,,,,,,,,,,,,,,,,,,,,,moral_self_bias,26,19,59.9822954936,f,001,2018_Apr_02_1908,
,,,,,,,,,,,,,,,,,,,,,22/11= ?,,,,,,,,,,,,,,,,,,,,0,53,53,71,,,,,,,,,,,,,,,,,,,,,moral_self_bias,26,19,59.9822954936,f,001,2018_Apr_02_1908,
,,,,,,,,,,,,,,,,,,,,,9-3= ?,,,,,,,,,,,,,,,,,,,,0,54,54,15,,,,,,,,,,,,,,,,,,,,,moral_self_bias,26,19,59.9822954936,f,001,2018_Apr_02_1908,
,,,,,,,,,,,,,,,,,,,,,49/7 = ?,,,,,,,,,,,,,,,,,,,,0,55,55,78,,,,,,,,,,,,,,,,,,,,,moral_self_bias,26,19,59.9822954936,f,001,2018_Apr_02_1908,
,,,,,,,,,,,,,,,,,,,,,4*2= ?,,,,,,,,,,,,,,,,,,,,0,56,56,82,,,,,,,,,,,,,,,,,,,,,moral_self_bias,26,19,59.9822954936,f,001,2018_Apr_02_1908,
,,,,,,,,,,,,,,,,,,,,,2+5= ?,,,,,,,,,,,,,,,,,,,,0,57,57,11,,,,,,,,,,,,,,,,,,,,,moral_self_bias,26,19,59.9822954936,f,001,2018_Apr_02_1908,
,,,,,,,,,,,,,,,,,,,,,3+5= ?,,,,,,,,,,,,,,,,,,,,0,58,58,20,,,,,,,,,,,,,,,,,,,,,moral_self_bias,26,19,59.9822954936,f,001,2018_Apr_02_1908,
,,,,,,,,,,,,,,,,,,,,,10-5=？,,,,,,,,,,,,,,,,,,,,0,59,59,67,,,,,,,,,,,,,,,,,,,,,moral_self_bias,26,19,59.9822954936,f,001,2018_Apr_02_1908,
,,,,,,,,,,,,,,,,,,,,,8/4= ?,,,,,,,,,,,,,,,,,,,,0,60,60,57,,,,,,,,,,,,,,,,,,,,,moral_self_bias,26,19,59.9822954936,f,001,2018_Apr_02_1908,
,,,,,,,,,,,,,,,,,,,,,3^1= ?,,,,,,,,,,,,,,,,,,,,0,61,61,101,,,,,,,,,,,,,,,,,,,,,moral_self_bias,26,19,59.9822954936,f,001,2018_Apr_02_1908,
,,,,,,,,,,,,,,,,,,,,,1-1= ?,,,,,,,,,,,,,,,,,,,,0,62,62,52,,,,,,,,,,,,,,,,,,,,,moral_self_bias,26,19,59.9822954936,f,001,2018_Apr_02_1908,
,,,,,,,,,,,,,,,,,,,,,9-7= ?,,,,,,,,,,,,,,,,,,,,0,63,63,30,,,,,,,,,,,,,,,,,,,,,moral_self_bias,26,19,59.9822954936,f,001,2018_Apr_02_1908,
,,,,,,,,,,,,,,,,,,,,,11-5= ?,,,,,,,,,,,,,,,,,,,,0,64,64,107,,,,,,,,,,,,,,,,,,,,,moral_self_bias,26,19,59.9822954936,f,001,2018_Apr_02_1908,
,,,,,,,,,,,,,,,,,,,,,2+7= ?,,,,,,,,,,,,,,,,,,,,0,65,65,13,,,,,,,,,,,,,,,,,,,,,moral_self_bias,26,19,59.9822954936,f,001,2018_Apr_02_1908,
,,,,,,,,,,,,,,,,,,,,,8-6= ?,,,,,,,,,,,,,,,,,,,,0,66,66,42,,,,,,,,,,,,,,,,,,,,,moral_self_bias,26,19,59.9822954936,f,001,2018_Apr_02_1908,
,,,,,,,,,,,,,,,,,,,,,43-34= ?,,,,,,,,,,,,,,,,,,,,0,67,67,79,,,,,,,,,,,,,,,,,,,,,moral_self_bias,26,19,59.9822954936,f,001,2018_Apr_02_1908,
,,,,,,,,,,,,,,,,,,,,,6^0= ?,,,,,,,,,,,,,,,,,,,,0,68,68,103,,,,,,,,,,,,,,,,,,,,,moral_self_bias,26,19,59.9822954936,f,001,2018_Apr_02_1908,
,,,,,,,,,,,,,,,,,,,,,5+2= ?,,,,,,,,,,,,,,,,,,,,0,69,69,35,,,,,,,,,,,,,,,,,,,,,moral_self_bias,26,19,59.9822954936,f,001,2018_Apr_02_1908,
,,,,,,,,,,,,,,,,,,,,,9+0= ?,,,,,,,,,,,,,,,,,,,,0,70,70,118,,,,,,,,,,,,,,,,,,,,,moral_self_bias,26,19,59.9822954936,f,001,2018_Apr_02_1908,
,,,,,,,,,,,,,,,,,,,,,50-42= ?,,,,,,,,,,,,,,,,,,,,0,71,71,81,,,,,,,,,,,,,,,,,,,,,moral_self_bias,26,19,59.9822954936,f,001,2018_Apr_02_1908,
,,,,,,,,,,,,,,,,,,,,,9-6= ?,,,,,,,,,,,,,,,,,,,,0,72,72,24,,,,,,,,,,,,,,,,,,,,,moral_self_bias,26,19,59.9822954936,f,001,2018_Apr_02_1908,
,,,,,,,,,,,,,,,,,,,,,11-4=？,,,,,,,,,,,,,,,,,,,,0,73,73,66,,,,,,,,,,,,,,,,,,,,,moral_self_bias,26,19,59.9822954936,f,001,2018_Apr_02_1908,
,,,,,,,,,,,,,,,,,,,,,3+6= ?,,,,,,,,,,,,,,,,,,,,0,74,74,21,,,,,,,,,,,,,,,,,,,,,moral_self_bias,26,19,59.9822954936,f,001,2018_Apr_02_1908,
,,,,,,,,,,,,,,,,,,,,,12/12= ?,,,,,,,,,,,,,,,,,,,,0,75,75,91,,,,,,,,,,,,,,,,,,,,,moral_self_bias,26,19,59.9822954936,f,001,2018_Apr_02_1908,
,,,,,,,,,,,,,,,,,,,,,12-5=？,,,,,,,,,,,,,,,,,,,,0,76,76,65,,,,,,,,,,,,,,,,,,,,,moral_self_bias,26,19,59.9822954936,f,001,2018_Apr_02_1908,
,,,,,,,,,,,,,,,,,,,,,6/2= ?,,,,,,,,,,,,,,,,,,,,0,77,77,58,,,,,,,,,,,,,,,,,,,,,moral_self_bias,26,19,59.9822954936,f,001,2018_Apr_02_1908,
,,,,,,,,,,,,,,,,,,,,,18/2= ?,,,,,,,,,,,,,,,,,,,,0,78,78,97,,,,,,,,,,,,,,,,,,,,,moral_self_bias,26,19,59.9822954936,f,001,2018_Apr_02_1908,
,,,,,,,,,,,,,,,,,,,,,12/6= ?,,,,,,,,,,,,,,,,,,,,0,79,79,90,,,,,,,,,,,,,,,,,,,,,moral_self_bias,26,19,59.9822954936,f,001,2018_Apr_02_1908,
,,,,,,,,,,,,,,,,,,,,,4^1= ?,,,,,,,,,,,,,,,,,,,,0,80,80,102,,,,,,,,,,,,,,,,,,,,,moral_self_bias,26,19,59.9822954936,f,001,2018_Apr_02_1908,
,,,,,,,,,,,,,,,,,,,,,6+1= ?,,,,,,,,,,,,,,,,,,,,0,81,81,43,,,,,,,,,,,,,,,,,,,,,moral_self_bias,26,19,59.9822954936,f,001,2018_Apr_02_1908,
,,,,,,,,,,,,,,,,,,,,,16-11=？,,,,,,,,,,,,,,,,,,,,0,82,82,62,,,,,,,,,,,,,,,,,,,,,moral_self_bias,26,19,59.9822954936,f,001,2018_Apr_02_1908,
,,,,,,,,,,,,,,,,,,,,,11-3=？,,,,,,,,,,,,,,,,,,,,0,83,83,68,,,,,,,,,,,,,,,,,,,,,moral_self_bias,26,19,59.9822954936,f,001,2018_Apr_02_1908,
,,,,,,,,,,,,,,,,,,,,,21/3= ? ,,,,,,,,,,,,,,,,,,,,0,84,84,95,,,,,,,,,,,,,,,,,,,,,moral_self_bias,26,19,59.9822954936,f,001,2018_Apr_02_1908,
,,,,,,,,,,,,,,,,,,,,,2+1= ?,,,,,,,,,,,,,,,,,,,,0,85,85,7,,,,,,,,,,,,,,,,,,,,,moral_self_bias,26,19,59.9822954936,f,001,2018_Apr_02_1908,
,,,,,,,,,,,,,,,,,,,,,4+1= ?,,,,,,,,,,,,,,,,,,,,0,86,86,25,,,,,,,,,,,,,,,,,,,,,moral_self_bias,26,19,59.9822954936,f,001,2018_Apr_02_1908,
,,,,,,,,,,,,,,,,,,,,,13-9= ?,,,,,,,,,,,,,,,,,,,,0,87,87,92,,,,,,,,,,,,,,,,,,,,,moral_self_bias,26,19,59.9822954936,f,001,2018_Apr_02_1908,
,,,,,,,,,,,,,,,,,,,,,2+6= ?,,,,,,,,,,,,,,,,,,,,0,88,88,12,,,,,,,,,,,,,,,,,,,,,moral_self_bias,26,19,59.9822954936,f,001,2018_Apr_02_1908,
,,,,,,,,,,,,,,,,,,,,,8-3= ?,,,,,,,,,,,,,,,,,,,,0,89,89,39,,,,,,,,,,,,,,,,,,,,,moral_self_bias,26,19,59.9822954936,f,001,2018_Apr_02_1908,
,,,,,,,,,,,,,,,,,,,,,4+5= ?,,,,,,,,,,,,,,,,,,,,0,90,90,29,,,,,,,,,,,,,,,,,,,,,moral_self_bias,26,19,59.9822954936,f,001,2018_Apr_02_1908,
,,,,,,,,,,,,,,,,,,,,,1^2= ?,,,,,,,,,,,,,,,,,,,,0,91,91,51,,,,,,,,,,,,,,,,,,,,,moral_self_bias,26,19,59.9822954936,f,001,2018_Apr_02_1908,
,,,,,,,,,,,,,,,,,,,,,2+2= ?,,,,,,,,,,,,,,,,,,,,0,92,92,8,,,,,,,,,,,,,,,,,,,,,moral_self_bias,26,19,59.9822954936,f,001,2018_Apr_02_1908,
,,,,,,,,,,,,,,,,,,,,,4+3= ?,,,,,,,,,,,,,,,,,,,,0,93,93,27,,,,,,,,,,,,,,,,,,,,,moral_self_bias,26,19,59.9822954936,f,001,2018_Apr_02_1908,
,,,,,,,,,,,,,,,,,,,,,6+2= ?,,,,,,,,,,,,,,,,,,,,0,94,94,44,,,,,,,,,,,,,,,,,,,,,moral_self_bias,26,19,59.9822954936,f,001,2018_Apr_02_1908,
,,,,,,,,,,,,,,,,,,,,,72/9= ?,,,,,,,,,,,,,,,,,,,,0,95,95,76,,,,,,,,,,,,,,,,,,,,,moral_self_bias,26,19,59.9822954936,f,001,2018_Apr_02_1908,
,,,,,,,,,,,,,,,,,,,,,9-1=?,,,,,,,,,,,,,,,,,,,,0,96,96,2,,,,,,,,,,,,,,,,,,,,,moral_self_bias,26,19,59.9822954936,f,001,2018_Apr_02_1908,
,,,,,,,,,,,,,,,,,,,,,9-4= ?,,,,,,,,,,,,,,,,,,,,0,97,97,22,,,,,,,,,,,,,,,,,,,,,moral_self_bias,26,19,59.9822954936,f,001,2018_Apr_02_1908,
,,,,,,,,,,,,,,,,,,,,,5+4= ?,,,,,,,,,,,,,,,,,,,,0,98,98,37,,,,,,,,,,,,,,,,,,,,,moral_self_bias,26,19,59.9822954936,f,001,2018_Apr_02_1908,
,,,,,,,,,,,,,,,,,,,,,1+9= ?,,,,,,,,,,,,,,,,,,,,0,99,99,3,,,,,,,,,,,,,,,,,,,,,moral_self_bias,26,19,59.9822954936,f,001,2018_Apr_02_1908,
,,,,,,,,,,,,,,,,,,,,,3*2= ?,,,,,,,,,,,,,,,,,,,,0,100,100,53,,,,,,,,,,,,,,,,,,,,,moral_self_bias,26,19,59.9822954936,f,001,2018_Apr_02_1908,
,,,,,,,,,,,,,,,,,,,,,7+1= ?,,,,,,,,,,,,,,,,,,,,0,101,101,46,,,,,,,,,,,,,,,,,,,,,moral_self_bias,26,19,59.9822954936,f,001,2018_Apr_02_1908,
,,,,,,,,,,,,,,,,,,,,,12/4= ?,,,,,,,,,,,,,,,,,,,,0,102,102,89,,,,,,,,,,,,,,,,,,,,,moral_self_bias,26,19,59.9822954936,f,001,2018_Apr_02_1908,
,,,,,,,,,,,,,,,,,,,,,2+4= ?,,,,,,,,,,,,,,,,,,,,0,103,103,10,,,,,,,,,,,,,,,,,,,,,moral_self_bias,26,19,59.9822954936,f,001,2018_Apr_02_1908,
,,,,,,,,,,,,,,,,,,,,,22-22= ?,,,,,,,,,,,,,,,,,,,,0,104,104,93,,,,,,,,,,,,,,,,,,,,,moral_self_bias,26,19,59.9822954936,f,001,2018_Apr_02_1908,
,,,,,,,,,,,,,,,,,,,,,5-3= ?,,,,,,,,,,,,,,,,,,,,0,105,105,116,,,,,,,,,,,,,,,,,,,,,moral_self_bias,26,19,59.9822954936,f,001,2018_Apr_02_1908,
,,,,,,,,,,,,,,,,,,,,,1+6= ?,,,,,,,,,,,,,,,,,,,,0,106,106,5,,,,,,,,,,,,,,,,,,,,,moral_self_bias,26,19,59.9822954936,f,001,2018_Apr_02_1908,
,,,,,,,,,,,,,,,,,,,,,9-9= ?,,,,,,,,,,,,,,,,,,,,0,107,107,32,,,,,,,,,,,,,,,,,,,,,moral_self_bias,26,19,59.9822954936,f,001,2018_Apr_02_1908,
,,,,,,,,,,,,,,,,,,,,,20/5=？,,,,,,,,,,,,,,,,,,,,0,108,108,69,,,,,,,,,,,,,,,,,,,,,moral_self_bias,26,19,59.9822954936,f,001,2018_Apr_02_1908,
,,,,,,,,,,,,,,,,,,,,,19-17= ?,,,,,,,,,,,,,,,,,,,,0,109,109,100,,,,,,,,,,,,,,,,,,,,,moral_self_bias,26,19,59.9822954936,f,001,2018_Apr_02_1908,
,,,,,,,,,,,,,,,,,,,,,6+3= ?,,,,,,,,,,,,,,,,,,,,0,110,110,45,,,,,,,,,,,,,,,,,,,,,moral_self_bias,26,19,59.9822954936,f,001,2018_Apr_02_1908,
,,,,,,,,,,,,,,,,,,,,,81/9= ?,,,,,,,,,,,,,,,,,,,,0,111,111,75,,,,,,,,,,,,,,,,,,,,,moral_self_bias,26,19,59.9822954936,f,001,2018_Apr_02_1908,
,,,,,,,,,,,,,,,,,,,,,7*1= ?,,,,,,,,,,,,,,,,,,,,0,112,112,113,,,,,,,,,,,,,,,,,,,,,moral_self_bias,26,19,59.9822954936,f,001,2018_Apr_02_1908,
,,,,,,,,,,,,,,,,,,,,,8-2= ?,,,,,,,,,,,,,,,,,,,,0,113,113,38,,,,,,,,,,,,,,,,,,,,,moral_self_bias,26,19,59.9822954936,f,001,2018_Apr_02_1908,
,,,,,,,,,,,,,,,,,,,,,5+1= ?,,,,,,,,,,,,,,,,,,,,0,114,114,34,,,,,,,,,,,,,,,,,,,,,moral_self_bias,26,19,59.9822954936,f,001,2018_Apr_02_1908,
,,,,,,,,,,,,,,,,,,,,,7*0= ?,,,,,,,,,,,,,,,,,,,,0,115,115,88,,,,,,,,,,,,,,,,,,,,,moral_self_bias,26,19,59.9822954936,f,001,2018_Apr_02_1908,
,,,,,,,,,,,,,,,,,,,,,7+2= ?,,,,,,,,,,,,,,,,,,,,0,116,116,47,,,,,,,,,,,,,,,,,,,,,moral_self_bias,26,19,59.9822954936,f,001,2018_Apr_02_1908,
,,,,,,,,,,,,,,,,,,,,,11-11= ?,,,,,,,,,,,,,,,,,,,,0,117,117,119,,,,,,,,,,,,,,,,,,,,,moral_self_bias,26,19,59.9822954936,f,001,2018_Apr_02_1908,
,,,,,,,,,,,,,,,,,,,,,10-9= ?,,,,,,,,,,,,,,,,,,,,0,118,118,112,,,,,,,,,,,,,,,,,,,,,moral_self_bias,26,19,59.9822954936,f,001,2018_Apr_02_1908,
,,,,,,,,,,,,,,,,,,,,,4+4= ?,,,,,,,,,,,,,,,,,,,,0,119,119,28,,,,,,,,,,,,,,,,,,,,,moral_self_bias,26,19,59.9822954936,f,001,2018_Apr_02_1908,
,,,,,,,,,,,,,,,,,,,,,,,,,,,,,,,,,,,,,,,,,,,,,,,,,,,,,,,,,2,7.42704415321,,,,,,,moral_self_bias,26,19,59.9822954936,f,001,2018_Apr_02_1908,
,,,,,,,,,,,,,,,,,,,,,,material/167.png,1,高手,material/169.png,1,material/167.png,颖悟,1,f,f,f,2,2,2,高手,,,,,,,,,0,0,0,148,0,0,0,0,,,,,,,f,1,2.64183807373,f,0,10.9418179989,moral_self_bias,26,19,59.9822954936,f,001,2018_Apr_02_1908,
,,,,,,,,,,,,,,,,,,,,,,material/167.png,1,高手,material/169.png,1,material/167.png,颖悟,1,f,f,f,2,2,2,高手,,,,,,,,,0,0,0,148,,,,,,,,,,,,,,,,,moral_self_bias,26,19,59.9822954936,f,001,2018_Apr_02_1908,
,,,,,,,,,,,,,,,,,,,,,,material/125.png,1,果敢,material/25.png,1,material/125.png,果断,1,j,j,j,2,2,2,果敢,,,,,,,,,0,1,1,24,0,0,0,0,,,,,,,f,0,3.62439322472,f,0,1.27474999428,moral_self_bias,26,19,59.9822954936,f,001,2018_Apr_02_1908,
,,,,,,,,,,,,,,,,,,,,,,material/125.png,1,果敢,material/25.png,1,material/125.png,果断,1,j,j,j,2,2,2,果敢,,,,,,,,,0,1,1,24,,,,,,,,,,,,,,,,,moral_self_bias,26,19,59.9822954936,f,001,2018_Apr_02_1908,
,,,,,,,,,,,,,,,,,,,,,,material/26.png,1,刻苦,material/126.png,1,material/26.png,勤快,1,f,f,f,2,2,2,刻苦,,,,,,,,,0,2,2,105,0,0,0,0,,,,,,,f,1,2.15864610672,j,1,0.841140985489,moral_self_bias,26,19,59.9822954936,f,001,2018_Apr_02_1908,
,,,,,,,,,,,,,,,,,,,,,,material/26.png,1,刻苦,material/126.png,1,material/26.png,勤快,1,f,f,f,2,2,2,刻苦,,,,,,,,,0,2,2,105,,,,,,,,,,,,,,,,,moral_self_bias,26,19,59.9822954936,f,001,2018_Apr_02_1908,
,,,,,,,,,,,,,,,,,,,,,,material/49.png,2,痴呆,material/149.png,2,material/49.png,白痴,2,f,f,f,2,2,2,痴呆,,,,,,,,,0,3,3,128,0,0,0,0,,,,,,,f,1,2.43979001045,j,1,3.07402586937,moral_self_bias,26,19,59.9822954936,f,001,2018_Apr_02_1908,
,,,,,,,,,,,,,,,,,,,,,,material/49.png,2,痴呆,material/149.png,2,material/49.png,白痴,2,f,f,f,2,2,2,痴呆,,,,,,,,,0,3,3,128,,,,,,,,,,,,,,,,,moral_self_bias,26,19,59.9822954936,f,001,2018_Apr_02_1908,
,,,,,,,,,,,,,,,,,,,,,,material/24.png,1,理智,material/124.png,1,material/24.png,冷静,1,f,f,f,2,2,2,理智,,,,,,,,,0,4,4,103,0,0,0,0,,,,,,,f,1,3.12452888489,j,1,0.724200963974,moral_self_bias,26,19,59.9822954936,f,001,2018_Apr_02_1908,
,,,,,,,,,,,,,,,,,,,,,,material/24.png,1,理智,material/124.png,1,material/24.png,冷静,1,f,f,f,2,2,2,理智,,,,,,,,,0,4,4,103,,,,,,,,,,,,,,,,,moral_self_bias,26,19,59.9822954936,f,001,2018_Apr_02_1908,
,,,,,,,,,,,,,,,,,,,,,,material/119.png,1,机灵,material/19.png,1,material/119.png,灵活,1,j,j,j,2,2,2,机灵,,,,,,,,,0,5,5,18,,,,,,,,,,,j,1,1.2596590519,,,,moral_self_bias,26,19,59.9822954936,f,001,2018_Apr_02_1908,
,,,,,,,,,,,,,,,,,,,,,,material/11.png,1,高尚,material/111.png,1,material/111.png,高尚,1,f,f,f,1,1,1,高雅,,,,,,,,,0,6,6,90,,,,,,,,,,,j,0,3.59963607788,,,,moral_self_bias,26,19,59.9822954936,f,001,2018_Apr_02_1908,
,,,,,,,,,,,,,,,,,,,,,,material/147.png,2,刻板,material/47.png,2,material/147.png,死板,2,j,j,j,2,2,2,刻板,,,,,,,,,0,7,7,46,0,0,0,0,,,,,,,f,0,8.87447500229,j,1,0.21683382988,moral_self_bias,26,19,59.9822954936,f,001,2018_Apr_02_1908,
,,,,,,,,,,,,,,,,,,,,,,material/147.png,2,刻板,material/47.png,2,material/147.png,死板,2,j,j,j,2,2,2,刻板,,,,,,,,,0,7,7,46,,,,,,,,,,,,,,,,,moral_self_bias,26,19,59.9822954936,f,001,2018_Apr_02_1908,
,,,,,,,,,,,,,,,,,,,,,,material/142.png,2,阴险,material/42.png,2,material/42.png,阴险,2,j,j,j,1,1,1,奸诈,,,,,,,,,0,8,8,41,0,0,0,0,,,,,,,f,0,0.807897090912,j,1,0.209001064301,moral_self_bias,26,19,59.9822954936,f,001,2018_Apr_02_1908,
,,,,,,,,,,,,,,,,,,,,,,material/142.png,2,阴险,material/42.png,2,material/42.png,阴险,2,j,j,j,1,1,1,奸诈,,,,,,,,,0,8,8,41,,,,,,,,,,,,,,,,,moral_self_bias,26,19,59.9822954936,f,001,2018_Apr_02_1908,
,,,,,,,,,,,,,,,,,,,,,,material/157.png,2,无能,material/57.png,2,material/157.png,无知,2,j,j,j,2,2,2,无能,,,,,,,,,0,9,9,56,0,0,0,0,,,,,,,f,0,1.04121899605,j,1,0.157638072968,moral_self_bias,26,19,59.9822954936,f,001,2018_Apr_02_1908,
,,,,,,,,,,,,,,,,,,,,,,material/157.png,2,无能,material/57.png,2,material/157.png,无知,2,j,j,j,2,2,2,无能,,,,,,,,,0,9,9,56,,,,,,,,,,,,,,,,,moral_self_bias,26,19,59.9822954936,f,001,2018_Apr_02_1908,
,,,,,,,,,,,,,,,,,,,,,,material/39.png,2,恶毒,material/139.png,2,material/139.png,恶毒,2,f,f,f,1,1,1,凶残,,,,,,,,,0,10,10,118,0,0,0,0,,,,,,,f,1,2.15765690804,f,0,1.16706395149,moral_self_bias,26,19,59.9822954936,f,001,2018_Apr_02_1908,
,,,,,,,,,,,,,,,,,,,,,,material/39.png,2,恶毒,material/139.png,2,material/139.png,恶毒,2,f,f,f,1,1,1,凶残,,,,,,,,,0,10,10,118,,,,,,,,,,,,,,,,,moral_self_bias,26,19,59.9822954936,f,001,2018_Apr_02_1908,
,,,,,,,,,,,,,,,,,,,,,,material/54.png,2,依赖,material/154.png,2,material/54.png,依靠,2,f,f,f,2,2,2,依赖,,,,,,,,,0,11,11,133,,,,,,,,,,,j,0,2.55925488472,,,,moral_self_bias,26,19,59.9822954936,f,001,2018_Apr_02_1908,
,,,,,,,,,,,,,,,,,,,,,,material/139.png,2,凶残,material/39.png,2,material/39.png,凶残,2,j,j,j,1,1,1,恶毒,,,,,,,,,0,12,12,38,,,,,,,,,,,j,1,1.04122805595,,,,moral_self_bias,26,19,59.9822954936,f,001,2018_Apr_02_1908,
,,,,,,,,,,,,,,,,,,,,,,material/164.png,1,宽容,material/63.png,1,material/163.png,文明,1,j,j,j,1,1,1,孝顺,,,,,,,,,0,13,13,62,0,0,0,0,,,,,,,f,0,1.20800709724,f,0,0.292611122131,moral_self_bias,26,19,59.9822954936,f,001,2018_Apr_02_1908,
,,,,,,,,,,,,,,,,,,,,,,material/164.png,1,宽容,material/63.png,1,material/163.png,文明,1,j,j,j,1,1,1,孝顺,,,,,,,,,0,13,13,62,,,,,,,,,,,,,,,,,moral_self_bias,26,19,59.9822954936,f,001,2018_Apr_02_1908,
,,,,,,,,,,,,,,,,,,,,,,material/126.png,1,勤快,material/26.png,1,material/126.png,刻苦,1,j,j,j,2,2,2,勤快,,,,,,,,,0,14,14,25,0,0,0,0,,,,,,,f,0,1.67480397224,j,1,1.14132618904,moral_self_bias,26,19,59.9822954936,f,001,2018_Apr_02_1908,
,,,,,,,,,,,,,,,,,,,,,,material/126.png,1,勤快,material/26.png,1,material/126.png,刻苦,1,j,j,j,2,2,2,勤快,,,,,,,,,0,14,14,25,,,,,,,,,,,,,,,,,moral_self_bias,26,19,59.9822954936,f,001,2018_Apr_02_1908,
,,,,,,,,,,,,,,,,,,,,,,material/181.png,2,怠惰,material/180.png,2,material/180.png,怠惰,2,f,f,f,2,2,2,犹豫,,,,,,,,,0,15,15,159,,,,,,,,,,,j,0,1.52472805977,,,,moral_self_bias,26,19,59.9822954936,f,001,2018_Apr_02_1908,
,,,,,,,,,,,,,,,,,,,,,,material/79.png,2,薄弱,material/81.png,2,material/183.png,无助,2,j,j,j,2,2,2,颓废,,,,,,,,,0,16,16,77,0,0,0,0,,,,,,,f,0,0.992393016815,j,1,0.192589998245,moral_self_bias,26,19,59.9822954936,f,001,2018_Apr_02_1908,
,,,,,,,,,,,,,,,,,,,,,,material/79.png,2,薄弱,material/81.png,2,material/183.png,无助,2,j,j,j,2,2,2,颓废,,,,,,,,,0,16,16,77,,,,,,,,,,,,,,,,,moral_self_bias,26,19,59.9822954936,f,001,2018_Apr_02_1908,
,,,,,,,,,,,,,,,,,,,,,,material/132.png,2,不忠,material/32.png,2,material/32.png,不忠,2,j,j,j,1,1,1,背叛,,,,,,,,,0,17,17,31,0,0,0,0,,,,,,,f,0,6.30840706825,j,1,0.875820159912,moral_self_bias,26,19,59.9822954936,f,001,2018_Apr_02_1908,
,,,,,,,,,,,,,,,,,,,,,,material/132.png,2,不忠,material/32.png,2,material/32.png,不忠,2,j,j,j,1,1,1,背叛,,,,,,,,,0,17,17,31,,,,,,,,,,,,,,,,,moral_self_bias,26,19,59.9822954936,f,001,2018_Apr_02_1908,
,,,,,,,,,,,,,,,,,,,,,,material/184.png,2,草率,material/80.png,2,material/78.png,健忘,2,j,j,j,2,2,2,厌学,,,,,,,,,0,18,18,76,,,,,,,,,,,j,1,1.274132967,,,,moral_self_bias,26,19,59.9822954936,f,001,2018_Apr_02_1908,
,,,,,,,,,,,,,,,,,,,,,,material/150.png,2,鲁钝,material/50.png,2,material/150.png,愚笨,2,j,j,j,2,2,2,鲁钝,,,,,,,,,0,19,19,49,0,0,0,0,,,,,,,f,0,0.891417980194,f,0,0.691050052643,moral_self_bias,26,19,59.9822954936,f,001,2018_Apr_02_1908,
,,,,,,,,,,,,,,,,,,,,,,material/150.png,2,鲁钝,material/50.png,2,material/150.png,愚笨,2,j,j,j,2,2,2,鲁钝,,,,,,,,,0,19,19,49,,,,,,,,,,,,,,,,,moral_self_bias,26,19,59.9822954936,f,001,2018_Apr_02_1908,
,,,,,,,,,,,,,,,,,,,,,,material/28.png,1,克己,material/128.png,1,material/28.png,自律,1,f,f,f,2,2,2,克己,,,,,,,,,0,20,20,107,,,,,,,,,,,j,0,1.17529201508,,,,moral_self_bias,26,19,59.9822954936,f,001,2018_Apr_02_1908,
,,,,,,,,,,,,,,,,,,,,,,material/6.png,1,厚道,material/106.png,1,material/106.png,厚道,1,f,f,f,1,1,1,诚实,,,,,,,,,0,21,21,85,,,,,,,,,,,j,0,1.50806379318,,,,moral_self_bias,26,19,59.9822954936,f,001,2018_Apr_02_1908,
,,,,,,,,,,,,,,,,,,,,,,material/105.png,1,守信,material/5.png,1,material/5.png,守信,1,j,j,j,1,1,1,诚信,,,,,,,,,0,22,22,4,0,0,0,0,,,,,,,f,0,0.691679000854,f,0,0.557536840439,moral_self_bias,26,19,59.9822954936,f,001,2018_Apr_02_1908,
,,,,,,,,,,,,,,,,,,,,,,material/105.png,1,守信,material/5.png,1,material/5.png,守信,1,j,j,j,1,1,1,诚信,,,,,,,,,0,22,22,4,,,,,,,,,,,,,,,,,moral_self_bias,26,19,59.9822954936,f,001,2018_Apr_02_1908,
,,,,,,,,,,,,,,,,,,,,,,material/183.png,2,颓废,material/182.png,2,material/79.png,才尽,2,f,f,f,2,2,2,薄弱,,,,,,,,,0,23,23,161,,,,,,,,,,,j,0,0.974248886108,,,,moral_self_bias,26,19,59.9822954936,f,001,2018_Apr_02_1908,
,,,,,,,,,,,,,,,,,,,,,,material/12.png,1,忠心,material/112.png,1,material/112.png,忠心,1,f,f,f,1,1,1,忠诚,,,,,,,,,0,24,24,91,0,0,0,0,,,,,,,f,1,1.75817894936,j,1,0.541517019272,moral_self_bias,26,19,59.9822954936,f,001,2018_Apr_02_1908,
,,,,,,,,,,,,,,,,,,,,,,material/12.png,1,忠心,material/112.png,1,material/112.png,忠心,1,f,f,f,1,1,1,忠诚,,,,,,,,,0,24,24,91,,,,,,,,,,,,,,,,,moral_self_bias,26,19,59.9822954936,f,001,2018_Apr_02_1908,
,,,,,,,,,,,,,,,,,,,,,,material/5.png,1,诚信,material/105.png,1,material/105.png,诚信,1,f,f,f,1,1,1,守信,,,,,,,,,0,25,25,84,0,0,0,0,,,,,,,f,1,1.1074180603,f,0,1.19193887711,moral_self_bias,26,19,59.9822954936,f,001,2018_Apr_02_1908,
,,,,,,,,,,,,,,,,,,,,,,material/5.png,1,诚信,material/105.png,1,material/105.png,诚信,1,f,f,f,1,1,1,守信,,,,,,,,,0,25,25,84,,,,,,,,,,,,,,,,,moral_self_bias,26,19,59.9822954936,f,001,2018_Apr_02_1908,
,,,,,,,,,,,,,,,,,,,,,,material/174.png,2,虚伪,material/76.png,2,material/76.png,虚伪,2,j,j,j,1,1,1,不义,,,,,,,,,0,26,26,72,0,0,0,0,,,,,,,f,0,3.22515392303,j,1,0.200294017792,moral_self_bias,26,19,59.9822954936,f,001,2018_Apr_02_1908,
,,,,,,,,,,,,,,,,,,,,,,material/174.png,2,虚伪,material/76.png,2,material/76.png,虚伪,2,j,j,j,1,1,1,不义,,,,,,,,,0,26,26,72,,,,,,,,,,,,,,,,,moral_self_bias,26,19,59.9822954936,f,001,2018_Apr_02_1908,
,,,,,,,,,,,,,,,,,,,,,,material/56.png,2,愚昧,material/156.png,2,material/56.png,愚钝,2,f,f,f,2,2,2,愚昧,,,,,,,,,0,27,27,135,0,0,0,0,,,,,,,f,1,6.40796017647,f,0,0.351351976395,moral_self_bias,26,19,59.9822954936,f,001,2018_Apr_02_1908,
,,,,,,,,,,,,,,,,,,,,,,material/56.png,2,愚昧,material/156.png,2,material/56.png,愚钝,2,f,f,f,2,2,2,愚昧,,,,,,,,,0,27,27,135,,,,,,,,,,,,,,,,,moral_self_bias,26,19,59.9822954936,f,001,2018_Apr_02_1908,
,,,,,,,,,,,,,,,,,,,,,,material/80.png,2,才尽,material/83.png,2,material/182.png,呆笨,2,j,j,j,2,2,2,健忘,,,,,,,,,0,28,28,79,0,0,0,0,,,,,,,f,0,0.891565084457,j,1,2.32465314865,moral_self_bias,26,19,59.9822954936,f,001,2018_Apr_02_1908,
,,,,,,,,,,,,,,,,,,,,,,material/80.png,2,才尽,material/83.png,2,material/182.png,呆笨,2,j,j,j,2,2,2,健忘,,,,,,,,,0,28,28,79,,,,,,,,,,,,,,,,,moral_self_bias,26,19,59.9822954936,f,001,2018_Apr_02_1908,
,,,,,,,,,,,,,,,,,,,,,,material/106.png,1,诚实,material/6.png,1,material/6.png,诚实,1,j,j,j,1,1,1,厚道,,,,,,,,,0,29,29,5,,,,,,,,,,,j,1,2.05793118477,,,,moral_self_bias,26,19,59.9822954936,f,001,2018_Apr_02_1908,
,,,,,,,,,,,,,,,,,,,,,,material/116.png,1,机智,material/16.png,1,material/116.png,睿智,1,j,j,j,2,2,2,机智,,,,,,,,,0,30,30,15,0,0,0,0,,,,,,,f,0,0.707978963852,j,1,0.775003910065,moral_self_bias,26,19,59.9822954936,f,001,2018_Apr_02_1908,
,,,,,,,,,,,,,,,,,,,,,,material/116.png,1,机智,material/16.png,1,material/116.png,睿智,1,j,j,j,2,2,2,机智,,,,,,,,,0,30,30,15,,,,,,,,,,,,,,,,,moral_self_bias,26,19,59.9822954936,f,001,2018_Apr_02_1908,
,,,,,,,,,,,,,,,,,,,,,,material/68.png,1,广博,material/167.png,1,material/68.png,高手,1,f,f,f,2,2,2,广博,,,,,,,,,0,31,31,146,,,,,,,,,,,j,0,0.858680963516,,,,moral_self_bias,26,19,59.9822954936,f,001,2018_Apr_02_1908,
,,,,,,,,,,,,,,,,,,,,,,material/131.png,1,笃行,material/31.png,1,material/131.png,笃学,1,j,j,j,2,2,2,笃行,,,,,,,,,0,32,32,30,0,0,0,0,,,,,,,f,0,1.09177684784,f,0,0.22461104393,moral_self_bias,26,19,59.9822954936,f,001,2018_Apr_02_1908,
,,,,,,,,,,,,,,,,,,,,,,material/131.png,1,笃行,material/31.png,1,material/131.png,笃学,1,j,j,j,2,2,2,笃行,,,,,,,,,0,32,32,30,,,,,,,,,,,,,,,,,moral_self_bias,26,19,59.9822954936,f,001,2018_Apr_02_1908,
,,,,,,,,,,,,,,,,,,,,,,material/73.png,2,恶心,material/177.png,2,material/177.png,恶心,2,f,f,f,1,1,1,残虐,,,,,,,,,0,33,33,156,,,,,,,,,,,j,0,1.50804495811,,,,moral_self_bias,26,19,59.9822954936,f,001,2018_Apr_02_1908,
,,,,,,,,,,,,,,,,,,,,,,material/141.png,2,歹毒,material/41.png,2,material/41.png,歹毒,2,j,j,j,1,1,1,残忍,,,,,,,,,0,34,34,40,0,0,0,0,,,,,,,f,0,0.773509979248,j,1,0.50909113884,moral_self_bias,26,19,59.9822954936,f,001,2018_Apr_02_1908,
,,,,,,,,,,,,,,,,,,,,,,material/141.png,2,歹毒,material/41.png,2,material/41.png,歹毒,2,j,j,j,1,1,1,残忍,,,,,,,,,0,34,34,40,,,,,,,,,,,,,,,,,moral_self_bias,26,19,59.9822954936,f,001,2018_Apr_02_1908,
,,,,,,,,,,,,,,,,,,,,,,material/38.png,2,缺德,material/138.png,2,material/138.png,缺德,2,f,f,f,1,1,1,无德,,,,,,,,,0,35,35,117,,,,,,,,,,,j,0,0.924354076385,,,,moral_self_bias,26,19,59.9822954936,f,001,2018_Apr_02_1908,
,,,,,,,,,,,,,,,,,,,,,,material/22.png,1,才学,material/122.png,1,material/22.png,博学,1,f,f,f,2,2,2,才学,,,,,,,,,0,36,36,101,,,,,,,,,,,j,0,0.974667072296,,,,moral_self_bias,26,19,59.9822954936,f,001,2018_Apr_02_1908,
,,,,,,,,,,,,,,,,,,,,,,material/16.png,1,睿智,material/116.png,1,material/16.png,机智,1,f,f,f,2,2,2,睿智,,,,,,,,,0,37,37,95,0,0,0,0,,,,,,,f,1,0.808301925659,j,1,1.42551994324,moral_self_bias,26,19,59.9822954936,f,001,2018_Apr_02_1908,
,,,,,,,,,,,,,,,,,,,,,,material/16.png,1,睿智,material/116.png,1,material/16.png,机智,1,f,f,f,2,2,2,睿智,,,,,,,,,0,37,37,95,,,,,,,,,,,,,,,,,moral_self_bias,26,19,59.9822954936,f,001,2018_Apr_02_1908,
,,,,,,,,,,,,,,,,,,,,,,material/32.png,2,背叛,material/132.png,2,material/132.png,背叛,2,f,f,f,1,1,1,不忠,,,,,,,,,0,38,38,111,,,,,,,,,,,j,0,0.883340835571,,,,moral_self_bias,26,19,59.9822954936,f,001,2018_Apr_02_1908,
,,,,,,,,,,,,,,,,,,,,,,material/162.png,1,敬业,material/62.png,1,material/162.png,坚韧,1,j,j,j,1,1,1,敬业,,,,,,,,,0,39,39,61,0,0,0,0,,,,,,,f,0,1.3085539341,f,0,2.54088711739,moral_self_bias,26,19,59.9822954936,f,001,2018_Apr_02_1908,
,,,,,,,,,,,,,,,,,,,,,,material/162.png,1,敬业,material/62.png,1,material/162.png,坚韧,1,j,j,j,1,1,1,敬业,,,,,,,,,0,39,39,61,,,,,,,,,,,,,,,,,moral_self_bias,26,19,59.9822954936,f,001,2018_Apr_02_1908,
,,,,,,,,,,,,,,,,,,,,,,material/155.png,2,盲目,material/55.png,2,material/155.png,盲从,2,j,j,j,2,2,2,盲目,,,,,,,,,0,40,40,54,0,0,0,0,,,,,,,f,0,0.790804862976,f,0,0.225158929825,moral_self_bias,26,19,59.9822954936,f,001,2018_Apr_02_1908,
,,,,,,,,,,,,,,,,,,,,,,material/155.png,2,盲目,material/55.png,2,material/155.png,盲从,2,j,j,j,2,2,2,盲目,,,,,,,,,0,40,40,54,,,,,,,,,,,,,,,,,moral_self_bias,26,19,59.9822954936,f,001,2018_Apr_02_1908,
,,,,,,,,,,,,,,,,,,,,,,material/143.png,2,拜金,material/43.png,2,material/43.png,拜金,2,j,j,j,1,1,1,虚荣,,,,,,,,,0,41,41,42,0,0,0,0,,,,,,,f,0,1.04083895683,f,0,0.358543872833,moral_self_bias,26,19,59.9822954936,f,001,2018_Apr_02_1908,
,,,,,,,,,,,,,,,,,,,,,,material/143.png,2,拜金,material/43.png,2,material/43.png,拜金,2,j,j,j,1,1,1,虚荣,,,,,,,,,0,41,41,42,,,,,,,,,,,,,,,,,moral_self_bias,26,19,59.9822954936,f,001,2018_Apr_02_1908,
,,,,,,,,,,,,,,,,,,,,,,material/75.png,2,卑劣,material/74.png,2,material/74.png,卑劣,2,j,j,j,1,1,1,害人,,,,,,,,,0,42,42,70,0,0,0,0,,,,,,,f,0,2.80752587318,j,1,0.224858045578,moral_self_bias,26,19,59.9822954936,f,001,2018_Apr_02_1908,
,,,,,,,,,,,,,,,,,,,,,,material/75.png,2,卑劣,material/74.png,2,material/74.png,卑劣,2,j,j,j,1,1,1,害人,,,,,,,,,0,42,42,70,,,,,,,,,,,,,,,,,moral_self_bias,26,19,59.9822954936,f,001,2018_Apr_02_1908,
,,,,,,,,,,,,,,,,,,,,,,material/61.png,1,仗义,material/65.png,1,material/166.png,谦虚,1,j,j,j,1,1,1,平等,,,,,,,,,0,43,43,64,0,0,0,0,,,,,,,f,0,1.15033793449,j,1,0.223858118057,moral_self_bias,26,19,59.9822954936,f,001,2018_Apr_02_1908,
,,,,,,,,,,,,,,,,,,,,,,material/61.png,1,仗义,material/65.png,1,material/166.png,谦虚,1,j,j,j,1,1,1,平等,,,,,,,,,0,43,43,64,,,,,,,,,,,,,,,,,moral_self_bias,26,19,59.9822954936,f,001,2018_Apr_02_1908,
,,,,,,,,,,,,,,,,,,,,,,material/30.png,1,上进,material/130.png,1,material/30.png,进取,1,f,f,f,2,2,2,上进,,,,,,,,,0,44,44,109,0,0,0,0,,,,,,,f,1,1.80072784424,j,1,0.17555809021,moral_self_bias,26,19,59.9822954936,f,001,2018_Apr_02_1908,
,,,,,,,,,,,,,,,,,,,,,,material/30.png,1,上进,material/130.png,1,material/30.png,进取,1,f,f,f,2,2,2,上进,,,,,,,,,0,44,44,109,,,,,,,,,,,,,,,,,moral_self_bias,26,19,59.9822954936,f,001,2018_Apr_02_1908,
,,,,,,,,,,,,,,,,,,,,,,material/53.png,2,迟缓,material/153.png,2,material/53.png,迟钝,2,f,f,f,2,2,2,迟缓,,,,,,,,,0,45,45,132,,,,,,,,,,,j,0,1.39173603058,,,,moral_self_bias,26,19,59.9822954936,f,001,2018_Apr_02_1908,
,,,,,,,,,,,,,,,,,,,,,,material/169.png,1,颖悟,material/171.png,1,material/169.png,高效,1,f,f,f,2,2,2,颖悟,,,,,,,,,0,46,46,150,,,,,,,,,,,j,0,0.708191871643,,,,moral_self_bias,26,19,59.9822954936,f,001,2018_Apr_02_1908,
,,,,,,,,,,,,,,,,,,,,,,material/41.png,2,残忍,material/141.png,2,material/141.png,残忍,2,f,f,f,1,1,1,歹毒,,,,,,,,,0,47,47,120,,,,,,,,,,,j,0,0.925578117371,,,,moral_self_bias,26,19,59.9822954936,f,001,2018_Apr_02_1908,
,,,,,,,,,,,,,,,,,,,,,,material/122.png,1,博学,material/22.png,1,material/122.png,才学,1,j,j,j,2,2,2,博学,,,,,,,,,0,48,48,21,,,,,,,,,,,j,1,1.07507801056,,,,moral_self_bias,26,19,59.9822954936,f,001,2018_Apr_02_1908,
,,,,,,,,,,,,,,,,,,,,,,material/25.png,1,果断,material/125.png,1,material/25.png,果敢,1,f,f,f,2,2,2,果断,,,,,,,,,0,49,49,104,0,0,0,0,,,,,,,f,1,3.97526097298,f,0,1.80814194679,moral_self_bias,26,19,59.9822954936,f,001,2018_Apr_02_1908,
,,,,,,,,,,,,,,,,,,,,,,material/25.png,1,果断,material/125.png,1,material/25.png,果敢,1,f,f,f,2,2,2,果断,,,,,,,,,0,49,49,104,,,,,,,,,,,,,,,,,moral_self_bias,26,19,59.9822954936,f,001,2018_Apr_02_1908,
,,,,,,,,,,,,,,,,,,,,,,material/117.png,1,聪颖,material/17.png,1,material/117.png,聪明,1,j,j,j,2,2,2,聪颖,,,,,,,,,0,50,50,16,0,0,0,0,,,,,,,f,0,0.808039903641,f,0,0.590929985046,moral_self_bias,26,19,59.9822954936,f,001,2018_Apr_02_1908,
,,,,,,,,,,,,,,,,,,,,,,material/117.png,1,聪颖,material/17.png,1,material/117.png,聪明,1,j,j,j,2,2,2,聪颖,,,,,,,,,0,50,50,16,,,,,,,,,,,,,,,,,moral_self_bias,26,19,59.9822954936,f,001,2018_Apr_02_1908,
,,,,,,,,,,,,,,,,,,,,,,material/168.png,1,机变,material/170.png,1,material/168.png,坚忍,1,f,f,f,2,2,2,机变,,,,,,,,,0,51,51,149,0,0,0,0,,,,,,,f,1,0.508184194565,j,1,0.741864204407,moral_self_bias,26,19,59.9822954936,f,001,2018_Apr_02_1908,
,,,,,,,,,,,,,,,,,,,,,,material/168.png,1,机变,material/170.png,1,material/168.png,坚忍,1,f,f,f,2,2,2,机变,,,,,,,,,0,51,51,149,,,,,,,,,,,,,,,,,moral_self_bias,26,19,59.9822954936,f,001,2018_Apr_02_1908,
,,,,,,,,,,,,,,,,,,,,,,material/115.png,1,清白,material/15.png,1,material/15.png,清白,1,j,j,j,1,1,1,纯洁,,,,,,,,,0,52,52,14,0,0,0,0,,,,,,,f,0,1.02542901039,j,1,0.274430990219,moral_self_bias,26,19,59.9822954936,f,001,2018_Apr_02_1908,
,,,,,,,,,,,,,,,,,,,,,,material/115.png,1,清白,material/15.png,1,material/15.png,清白,1,j,j,j,1,1,1,纯洁,,,,,,,,,0,52,52,14,,,,,,,,,,,,,,,,,moral_self_bias,26,19,59.9822954936,f,001,2018_Apr_02_1908,
,,,,,,,,,,,,,,,,,,,,,,material/177.png,2,谄媚,material/72.png,2,material/72.png,谄媚,2,j,j,j,1,1,1,恶心,,,,,,,,,0,53,53,69,,,,,,,,,,,j,1,0.890615940094,,,,moral_self_bias,26,19,59.9822954936,f,001,2018_Apr_02_1908,
,,,,,,,,,,,,,,,,,,,,,,material/8.png,1,无私,material/108.png,1,material/108.png,无私,1,f,f,f,1,1,1,公道,,,,,,,,,0,54,54,87,,,,,,,,,,,j,0,1.09214806557,,,,moral_self_bias,26,19,59.9822954936,f,001,2018_Apr_02_1908,
,,,,,,,,,,,,,,,,,,,,,,material/7.png,1,公平,material/107.png,1,material/107.png,公平,1,f,f,f,1,1,1,公正,,,,,,,,,0,55,55,86,,,,,,,,,,,j,0,0.724318027496,,,,moral_self_bias,26,19,59.9822954936,f,001,2018_Apr_02_1908,
,,,,,,,,,,,,,,,,,,,,,,material/175.png,2,残虐,material/73.png,2,material/73.png,残虐,2,f,f,f,1,1,1,无情,,,,,,,,,0,56,56,165,,,,,,,,,,,j,0,0.808608055115,,,,moral_self_bias,26,19,59.9822954936,f,001,2018_Apr_02_1908,
,,,,,,,,,,,,,,,,,,,,,,material/13.png,1,廉明,material/113.png,1,material/113.png,廉明,1,f,f,f,1,1,1,廉洁,,,,,,,,,0,57,57,92,,,,,,,,,,,j,0,1.29265117645,,,,moral_self_bias,26,19,59.9822954936,f,001,2018_Apr_02_1908,
,,,,,,,,,,,,,,,,,,,,,,material/136.png,2,说谎,material/36.png,2,material/36.png,说谎,2,j,j,j,1,1,1,撒谎,,,,,,,,,0,58,58,35,,,,,,,,,,,j,1,0.64052605629,,,,moral_self_bias,26,19,59.9822954936,f,001,2018_Apr_02_1908,
,,,,,,,,,,,,,,,,,,,,,,material/146.png,2,小气,material/46.png,2,material/46.png,小气,2,j,j,j,1,1,1,自私,,,,,,,,,0,59,59,45,,,,,,,,,,,j,1,0.872816085815,,,,moral_self_bias,26,19,59.9822954936,f,001,2018_Apr_02_1908,
,,,,,,,,,,,,,,,,,,,,,,material/161.png,1,奉献,material/164.png,1,material/64.png,孝顺,1,f,f,f,1,1,1,勇敢,,,,,,,,,0,60,60,143,,,,,,,,,,,j,0,0.774748802185,,,,moral_self_bias,26,19,59.9822954936,f,001,2018_Apr_02_1908,
,,,,,,,,,,,,,,,,,,,,,,material/156.png,2,愚钝,material/56.png,2,material/156.png,愚昧,2,j,j,j,2,2,2,愚钝,,,,,,,,,0,61,61,55,0,0,0,0,,,,,,,f,0,0.724665164948,j,1,0.457983970642,moral_self_bias,26,19,59.9822954936,f,001,2018_Apr_02_1908,
,,,,,,,,,,,,,,,,,,,,,,material/156.png,2,愚钝,material/56.png,2,material/156.png,愚昧,2,j,j,j,2,2,2,愚钝,,,,,,,,,0,61,61,55,,,,,,,,,,,,,,,,,moral_self_bias,26,19,59.9822954936,f,001,2018_Apr_02_1908,
,,,,,,,,,,,,,,,,,,,,,,material/31.png,1,笃学,material/131.png,1,material/31.png,笃行,1,f,f,f,2,2,2,笃学,,,,,,,,,0,62,62,110,0,0,0,0,,,,,,,f,1,0.840619802475,j,1,0.316814184189,moral_self_bias,26,19,59.9822954936,f,001,2018_Apr_02_1908,
,,,,,,,,,,,,,,,,,,,,,,material/31.png,1,笃学,material/131.png,1,material/31.png,笃行,1,f,f,f,2,2,2,笃学,,,,,,,,,0,62,62,110,,,,,,,,,,,,,,,,,moral_self_bias,26,19,59.9822954936,f,001,2018_Apr_02_1908,
,,,,,,,,,,,,,,,,,,,,,,material/127.png,1,超群,material/27.png,1,material/127.png,卓越,1,j,j,j,2,2,2,超群,,,,,,,,,0,63,63,26,0,0,0,0,,,,,,,f,0,0.707304000854,j,1,0.257458925247,moral_self_bias,26,19,59.9822954936,f,001,2018_Apr_02_1908,
,,,,,,,,,,,,,,,,,,,,,,material/127.png,1,超群,material/27.png,1,material/127.png,卓越,1,j,j,j,2,2,2,超群,,,,,,,,,0,63,63,26,,,,,,,,,,,,,,,,,moral_self_bias,26,19,59.9822954936,f,001,2018_Apr_02_1908,
,,,,,,,,,,,,,,,,,,,,,,material/64.png,1,谦虚,material/165.png,1,material/65.png,独立,1,f,f,f,1,1,1,奉献,,,,,,,,,0,64,64,144,0,0,0,0,,,,,,,f,1,1.28310012817,j,1,0.124503850937,moral_self_bias,26,19,59.9822954936,f,001,2018_Apr_02_1908,
,,,,,,,,,,,,,,,,,,,,,,material/64.png,1,谦虚,material/165.png,1,material/65.png,独立,1,f,f,f,1,1,1,奉献,,,,,,,,,0,64,64,144,,,,,,,,,,,,,,,,,moral_self_bias,26,19,59.9822954936,f,001,2018_Apr_02_1908,
,,,,,,,,,,,,,,,,,,,,,,material/58.png,2,肤浅,material/158.png,2,material/58.png,浅薄,2,f,f,f,2,2,2,肤浅,,,,,,,,,0,65,65,137,,,,,,,,,,,j,0,1.37531208992,,,,moral_self_bias,26,19,59.9822954936,f,001,2018_Apr_02_1908,
,,,,,,,,,,,,,,,,,,,,,,material/43.png,2,虚荣,material/143.png,2,material/143.png,虚荣,2,f,f,f,1,1,1,拜金,,,,,,,,,0,66,66,122,0,0,0,0,,,,,,,f,1,0.490772008896,j,1,0.175072193146,moral_self_bias,26,19,59.9822954936,f,001,2018_Apr_02_1908,
,,,,,,,,,,,,,,,,,,,,,,material/43.png,2,虚荣,material/143.png,2,material/143.png,虚荣,2,f,f,f,1,1,1,拜金,,,,,,,,,0,66,66,122,,,,,,,,,,,,,,,,,moral_self_bias,26,19,59.9822954936,f,001,2018_Apr_02_1908,
,,,,,,,,,,,,,,,,,,,,,,material/78.png,2,厌学,material/181.png,2,material/184.png,犹豫,2,f,f,f,2,2,2,草率,,,,,,,,,0,67,67,160,0,0,0,0,,,,,,,f,1,0.758228063583,f,0,0.517416000366,moral_self_bias,26,19,59.9822954936,f,001,2018_Apr_02_1908,
,,,,,,,,,,,,,,,,,,,,,,material/78.png,2,厌学,material/181.png,2,material/184.png,犹豫,2,f,f,f,2,2,2,草率,,,,,,,,,0,67,67,160,,,,,,,,,,,,,,,,,moral_self_bias,26,19,59.9822954936,f,001,2018_Apr_02_1908,
,,,,,,,,,,,,,,,,,,,,,,material/19.png,1,灵活,material/119.png,1,material/19.png,机灵,1,f,f,f,2,2,2,灵活,,,,,,,,,0,68,68,98,0,0,0,0,,,,,,,f,1,1.32522988319,j,1,1.10928487778,moral_self_bias,26,19,59.9822954936,f,001,2018_Apr_02_1908,
,,,,,,,,,,,,,,,,,,,,,,material/19.png,1,灵活,material/119.png,1,material/19.png,机灵,1,f,f,f,2,2,2,灵活,,,,,,,,,0,68,68,98,,,,,,,,,,,,,,,,,moral_self_bias,26,19,59.9822954936,f,001,2018_Apr_02_1908,
,,,,,,,,,,,,,,,,,,,,,,material/140.png,2,邪恶,material/40.png,2,material/40.png,邪恶,2,j,j,j,1,1,1,狠毒,,,,,,,,,0,69,69,39,,,,,,,,,,,j,1,1.02454996109,,,,moral_self_bias,26,19,59.9822954936,f,001,2018_Apr_02_1908,
,,,,,,,,,,,,,,,,,,,,,,material/170.png,1,坚忍,material/71.png,1,material/170.png,严谨,1,j,j,j,2,2,2,坚忍,,,,,,,,,0,70,70,68,,,,,,,,,,,j,1,0.973832130432,,,,moral_self_bias,26,19,59.9822954936,f,001,2018_Apr_02_1908,
,,,,,,,,,,,,,,,,,,,,,,material/48.png,2,愚蠢,material/148.png,2,material/48.png,笨蛋,2,f,f,f,2,2,2,愚蠢,,,,,,,,,0,71,71,127,,,,,,,,,,,j,0,0.757586956024,,,,moral_self_bias,26,19,59.9822954936,f,001,2018_Apr_02_1908,
,,,,,,,,,,,,,,,,,,,,,,material/160.png,2,笨拙,material/60.png,2,material/160.png,粗拙,2,j,j,j,2,2,2,笨拙,,,,,,,,,0,72,72,59,0,0,0,0,,,,,,,f,0,2.95766615868,j,1,0.324812889099,moral_self_bias,26,19,59.9822954936,f,001,2018_Apr_02_1908,
,,,,,,,,,,,,,,,,,,,,,,material/160.png,2,笨拙,material/60.png,2,material/160.png,粗拙,2,j,j,j,2,2,2,笨拙,,,,,,,,,0,72,72,59,,,,,,,,,,,,,,,,,moral_self_bias,26,19,59.9822954936,f,001,2018_Apr_02_1908,
,,,,,,,,,,,,,,,,,,,,,,material/67.png,1,骁勇,material/70.png,1,material/67.png,全面,1,j,j,j,2,2,2,骁勇,,,,,,,,,0,73,73,67,0,0,0,0,,,,,,,f,0,0.640779972076,f,0,0.99168586731,moral_self_bias,26,19,59.9822954936,f,001,2018_Apr_02_1908,
,,,,,,,,,,,,,,,,,,,,,,material/67.png,1,骁勇,material/70.png,1,material/67.png,全面,1,j,j,j,2,2,2,骁勇,,,,,,,,,0,73,73,67,,,,,,,,,,,,,,,,,moral_self_bias,26,19,59.9822954936,f,001,2018_Apr_02_1908,
,,,,,,,,,,,,,,,,,,,,,,material/52.png,2,拖延,material/152.png,2,material/52.png,缓慢,2,f,f,f,2,2,2,拖延,,,,,,,,,0,74,74,131,0,0,0,0,,,,,,,f,1,0.590908050537,j,1,0.358151912689,moral_self_bias,26,19,59.9822954936,f,001,2018_Apr_02_1908,
,,,,,,,,,,,,,,,,,,,,,,material/52.png,2,拖延,material/152.png,2,material/52.png,缓慢,2,f,f,f,2,2,2,拖延,,,,,,,,,0,74,74,131,,,,,,,,,,,,,,,,,moral_self_bias,26,19,59.9822954936,f,001,2018_Apr_02_1908,
,,,,,,,,,,,,,,,,,,,,,,material/134.png,2,可恨,material/34.png,2,material/34.png,可恨,2,j,j,j,1,1,1,可恶,,,,,,,,,0,75,75,33,,,,,,,,,,,j,1,1.70889902115,,,,moral_self_bias,26,19,59.9822954936,f,001,2018_Apr_02_1908,
,,,,,,,,,,,,,,,,,,,,,,material/151.png,2,迷糊,material/51.png,2,material/151.png,糊涂,2,j,j,j,2,2,2,迷糊,,,,,,,,,0,76,76,50,,,,,,,,,,,j,1,0.925497055054,,,,moral_self_bias,26,19,59.9822954936,f,001,2018_Apr_02_1908,
,,,,,,,,,,,,,,,,,,,,,,material/120.png,1,能干,material/20.png,1,material/120.png,厉害,1,j,j,j,2,2,2,能干,,,,,,,,,0,77,77,19,0,0,0,0,,,,,,,f,0,0.725492954254,j,1,1.84134793282,moral_self_bias,26,19,59.9822954936,f,001,2018_Apr_02_1908,
,,,,,,,,,,,,,,,,,,,,,,material/120.png,1,能干,material/20.png,1,material/120.png,厉害,1,j,j,j,2,2,2,能干,,,,,,,,,0,77,77,19,,,,,,,,,,,,,,,,,moral_self_bias,26,19,59.9822954936,f,001,2018_Apr_02_1908,
,,,,,,,,,,,,,,,,,,,,,,material/182.png,2,健忘,material/184.png,2,material/80.png,厌学,2,f,f,f,2,2,2,才尽,,,,,,,,,0,78,78,163,,,,,,,,,,,j,0,0.690277099609,,,,moral_self_bias,26,19,59.9822954936,f,001,2018_Apr_02_1908,
,,,,,,,,,,,,,,,,,,,,,,material/83.png,2,差生,material/78.png,2,material/179.png,草率,2,j,j,j,2,2,2,呆笨,,,,,,,,,0,79,79,74,0,0,0,0,,,,,,,f,0,0.724352836609,j,1,0.266960144043,moral_self_bias,26,19,59.9822954936,f,001,2018_Apr_02_1908,
,,,,,,,,,,,,,,,,,,,,,,material/83.png,2,差生,material/78.png,2,material/179.png,草率,2,j,j,j,2,2,2,呆笨,,,,,,,,,0,79,79,74,,,,,,,,,,,,,,,,,moral_self_bias,26,19,59.9822954936,f,001,2018_Apr_02_1908,
,,,,,,,,,,,,,,,,,,,,,,material/70.png,1,全面,material/168.png,1,material/70.png,机变,1,f,f,f,2,2,2,全面,,,,,,,,,0,80,80,147,0,0,0,0,,,,,,,f,1,0.783689022064,j,1,0.258281946182,moral_self_bias,26,19,59.9822954936,f,001,2018_Apr_02_1908,
,,,,,,,,,,,,,,,,,,,,,,material/70.png,1,全面,material/168.png,1,material/70.png,机变,1,f,f,f,2,2,2,全面,,,,,,,,,0,80,80,147,,,,,,,,,,,,,,,,,moral_self_bias,26,19,59.9822954936,f,001,2018_Apr_02_1908,
,,,,,,,,,,,,,,,,,,,,,,material/179.png,2,顽愚,material/178.png,2,material/84.png,毛糙,2,f,f,f,2,2,2,差生,,,,,,,,,0,81,81,157,,,,,,,,,,,j,0,1.62542414665,,,,moral_self_bias,26,19,59.9822954936,f,001,2018_Apr_02_1908,
,,,,,,,,,,,,,,,,,,,,,,material/62.png,1,坚韧,material/162.png,1,material/62.png,敬业,1,f,f,f,1,1,1,坚韧,,,,,,,,,0,82,82,141,,,,,,,,,,,j,0,1.5576941967,,,,moral_self_bias,26,19,59.9822954936,f,001,2018_Apr_02_1908,
,,,,,,,,,,,,,,,,,,,,,,material/23.png,1,有才,material/123.png,1,material/23.png,多才,1,f,f,f,2,2,2,有才,,,,,,,,,0,83,83,102,0,0,0,0,,,,,,,f,1,1.14135789871,j,1,0.241907119751,moral_self_bias,26,19,59.9822954936,f,001,2018_Apr_02_1908,
,,,,,,,,,,,,,,,,,,,,,,material/23.png,1,有才,material/123.png,1,material/23.png,多才,1,f,f,f,2,2,2,有才,,,,,,,,,0,83,83,102,,,,,,,,,,,,,,,,,moral_self_bias,26,19,59.9822954936,f,001,2018_Apr_02_1908,
,,,,,,,,,,,,,,,,,,,,,,material/113.png,1,廉洁,material/13.png,1,material/13.png,廉洁,1,j,j,j,1,1,1,廉明,,,,,,,,,0,84,84,12,0,0,0,0,,,,,,,f,0,0.624505996704,j,1,0.157825946808,moral_self_bias,26,19,59.9822954936,f,001,2018_Apr_02_1908,
,,,,,,,,,,,,,,,,,,,,,,material/113.png,1,廉洁,material/13.png,1,material/13.png,廉洁,1,j,j,j,1,1,1,廉明,,,,,,,,,0,84,84,12,,,,,,,,,,,,,,,,,moral_self_bias,26,19,59.9822954936,f,001,2018_Apr_02_1908,
,,,,,,,,,,,,,,,,,,,,,,material/173.png,2,不义,material/174.png,2,material/174.png,不义,2,f,f,f,1,1,1,黑心,,,,,,,,,0,85,85,153,,,,,,,,,,,j,0,0.674249172211,,,,moral_self_bias,26,19,59.9822954936,f,001,2018_Apr_02_1908,
,,,,,,,,,,,,,,,,,,,,,,material/152.png,2,缓慢,material/52.png,2,material/152.png,拖延,2,j,j,j,2,2,2,缓慢,,,,,,,,,0,86,86,51,0,0,0,0,,,,,,,f,0,1.17419099808,f,0,0.208492040634,moral_self_bias,26,19,59.9822954936,f,001,2018_Apr_02_1908,
,,,,,,,,,,,,,,,,,,,,,,material/152.png,2,缓慢,material/52.png,2,material/152.png,拖延,2,j,j,j,2,2,2,缓慢,,,,,,,,,0,86,86,51,,,,,,,,,,,,,,,,,moral_self_bias,26,19,59.9822954936,f,001,2018_Apr_02_1908,
,,,,,,,,,,,,,,,,,,,,,,material/3.png,1,仁厚,material/103.png,1,material/103.png,仁厚,1,f,f,f,1,1,1,仁慈,,,,,,,,,0,87,87,82,0,0,0,0,,,,,,,f,1,3.69169902802,j,1,0.157809972763,moral_self_bias,26,19,59.9822954936,f,001,2018_Apr_02_1908,
,,,,,,,,,,,,,,,,,,,,,,material/3.png,1,仁厚,material/103.png,1,material/103.png,仁厚,1,f,f,f,1,1,1,仁慈,,,,,,,,,0,87,87,82,,,,,,,,,,,,,,,,,moral_self_bias,26,19,59.9822954936,f,001,2018_Apr_02_1908,
,,,,,,,,,,,,,,,,,,,,,,material/35.png,2,冷血,material/135.png,2,material/135.png,冷血,2,f,f,f,1,1,1,冷漠,,,,,,,,,0,88,88,114,,,,,,,,,,,j,0,6.75827598572,,,,moral_self_bias,26,19,59.9822954936,f,001,2018_Apr_02_1908,
,,,,,,,,,,,,,,,,,,,,,,material/82.png,2,毛糙,material/183.png,2,material/178.png,薄弱,2,f,f,f,2,2,2,窝囊,,,,,,,,,0,89,89,162,0,0,0,0,,,,,,,f,1,1.24134898186,j,1,0.357167959213,moral_self_bias,26,19,59.9822954936,f,001,2018_Apr_02_1908,
,,,,,,,,,,,,,,,,,,,,,,material/82.png,2,毛糙,material/183.png,2,material/178.png,薄弱,2,f,f,f,2,2,2,窝囊,,,,,,,,,0,89,89,162,,,,,,,,,,,,,,,,,moral_self_bias,26,19,59.9822954936,f,001,2018_Apr_02_1908,
,,,,,,,,,,,,,,,,,,,,,,material/112.png,1,忠诚,material/12.png,1,material/12.png,忠诚,1,j,j,j,1,1,1,忠心,,,,,,,,,0,90,90,11,,,,,,,,,,,j,1,0.941915988922,,,,moral_self_bias,26,19,59.9822954936,f,001,2018_Apr_02_1908,
,,,,,,,,,,,,,,,,,,,,,,material/158.png,2,浅薄,material/58.png,2,material/158.png,肤浅,2,j,j,j,2,2,2,浅薄,,,,,,,,,0,91,91,57,0,0,0,0,,,,,,,f,0,0.424656152725,j,1,0.674535989761,moral_self_bias,26,19,59.9822954936,f,001,2018_Apr_02_1908,
,,,,,,,,,,,,,,,,,,,,,,material/158.png,2,浅薄,material/58.png,2,material/158.png,肤浅,2,j,j,j,2,2,2,浅薄,,,,,,,,,0,91,91,57,,,,,,,,,,,,,,,,,moral_self_bias,26,19,59.9822954936,f,001,2018_Apr_02_1908,
,,,,,,,,,,,,,,,,,,,,,,material/18.png,1,敏锐,material/118.png,1,material/18.png,机敏,1,f,f,f,2,2,2,敏锐,,,,,,,,,0,92,92,97,0,0,0,0,,,,,,,f,1,1.62561893463,j,1,0.275415897369,moral_self_bias,26,19,59.9822954936,f,001,2018_Apr_02_1908,
,,,,,,,,,,,,,,,,,,,,,,material/18.png,1,敏锐,material/118.png,1,material/18.png,机敏,1,f,f,f,2,2,2,敏锐,,,,,,,,,0,92,92,97,,,,,,,,,,,,,,,,,moral_self_bias,26,19,59.9822954936,f,001,2018_Apr_02_1908,
,,,,,,,,,,,,,,,,,,,,,,material/111.png,1,高雅,material/11.png,1,material/11.png,高雅,1,j,j,j,1,1,1,高尚,,,,,,,,,0,93,93,10,0,0,0,0,,,,,,,f,0,0.791752099991,j,1,0.257745027542,moral_self_bias,26,19,59.9822954936,f,001,2018_Apr_02_1908,
,,,,,,,,,,,,,,,,,,,,,,material/111.png,1,高雅,material/11.png,1,material/11.png,高雅,1,j,j,j,1,1,1,高尚,,,,,,,,,0,93,93,10,,,,,,,,,,,,,,,,,moral_self_bias,26,19,59.9822954936,f,001,2018_Apr_02_1908,
,,,,,,,,,,,,,,,,,,,,,,material/110.png,1,顽强,material/10.png,1,material/10.png,顽强,1,j,j,j,1,1,1,坚毅,,,,,,,,,0,94,94,9,0,0,0,0,,,,,,,f,0,1.17426013947,f,0,0.324769973755,moral_self_bias,26,19,59.9822954936,f,001,2018_Apr_02_1908,
,,,,,,,,,,,,,,,,,,,,,,material/110.png,1,顽强,material/10.png,1,material/10.png,顽强,1,j,j,j,1,1,1,坚毅,,,,,,,,,0,94,94,9,,,,,,,,,,,,,,,,,moral_self_bias,26,19,59.9822954936,f,001,2018_Apr_02_1908,
,,,,,,,,,,,,,,,,,,,,,,material/165.png,1,平等,material/161.png,1,material/61.png,勇敢,1,f,f,f,1,1,1,独立,,,,,,,,,0,95,95,140,0,0,0,0,,,,,,,f,1,1.07467889786,f,0,0.209015846252,moral_self_bias,26,19,59.9822954936,f,001,2018_Apr_02_1908,
,,,,,,,,,,,,,,,,,,,,,,material/165.png,1,平等,material/161.png,1,material/61.png,勇敢,1,f,f,f,1,1,1,独立,,,,,,,,,0,95,95,140,,,,,,,,,,,,,,,,,moral_self_bias,26,19,59.9822954936,f,001,2018_Apr_02_1908,
,,,,,,,,,,,,,,,,,,,,,,material/107.png,1,公正,material/7.png,1,material/7.png,公正,1,j,j,j,1,1,1,公平,,,,,,,,,0,96,96,6,0,0,0,0,,,,,,,f,0,0.723750829697,f,0,0.791471004486,moral_self_bias,26,19,59.9822954936,f,001,2018_Apr_02_1908,
,,,,,,,,,,,,,,,,,,,,,,material/107.png,1,公正,material/7.png,1,material/7.png,公正,1,j,j,j,1,1,1,公平,,,,,,,,,0,96,96,6,,,,,,,,,,,,,,,,,moral_self_bias,26,19,59.9822954936,f,001,2018_Apr_02_1908,
,,,,,,,,,,,,,,,,,,,,,,material/29.png,1,好学,material/129.png,1,material/29.png,好问,1,f,f,f,2,2,2,好学,,,,,,,,,0,97,97,108,0,0,0,0,,,,,,,f,1,1.15754103661,f,0,0.241069078445,moral_self_bias,26,19,59.9822954936,f,001,2018_Apr_02_1908,
,,,,,,,,,,,,,,,,,,,,,,material/29.png,1,好学,material/129.png,1,material/29.png,好问,1,f,f,f,2,2,2,好学,,,,,,,,,0,97,97,108,,,,,,,,,,,,,,,,,moral_self_bias,26,19,59.9822954936,f,001,2018_Apr_02_1908,
,,,,,,,,,,,,,,,,,,,,,,material/40.png,2,狠毒,material/140.png,2,material/140.png,狠毒,2,f,f,f,1,1,1,邪恶,,,,,,,,,0,98,98,119,,,,,,,,,,,j,0,0.458121061325,,,,moral_self_bias,26,19,59.9822954936,f,001,2018_Apr_02_1908,
,,,,,,,,,,,,,,,,,,,,,,material/50.png,2,愚笨,material/150.png,2,material/50.png,鲁钝,2,f,f,f,2,2,2,愚笨,,,,,,,,,0,99,99,129,,,,,,,,,,,j,0,0.757705926895,,,,moral_self_bias,26,19,59.9822954936,f,001,2018_Apr_02_1908,
,,,,,,,,,,,,,,,,,,,,,,material/76.png,2,放纵,material/176.png,2,material/176.png,放纵,2,f,f,f,1,1,1,虚伪,,,,,,,,,0,100,100,155,,,,,,,,,,,j,0,0.623445034027,,,,moral_self_bias,26,19,59.9822954936,f,001,2018_Apr_02_1908,
,,,,,,,,,,,,,,,,,,,,,,material/71.png,1,严谨,material/68.png,1,material/71.png,广博,1,j,j,j,2,2,2,严谨,,,,,,,,,0,101,101,66,,,,,,,,,,,j,1,1.40837407112,,,,moral_self_bias,26,19,59.9822954936,f,001,2018_Apr_02_1908,
,,,,,,,,,,,,,,,,,,,,,,material/47.png,2,死板,material/147.png,2,material/47.png,刻板,2,f,f,f,2,2,2,死板,,,,,,,,,0,102,102,126,,,,,,,,,,,j,0,0.575505018234,,,,moral_self_bias,26,19,59.9822954936,f,001,2018_Apr_02_1908,
,,,,,,,,,,,,,,,,,,,,,,material/74.png,2,黑心,material/173.png,2,material/173.png,黑心,2,f,f,f,1,1,1,卑劣,,,,,,,,,0,103,103,152,0,0,0,0,,,,,,,f,1,0.690743207932,j,1,0.741806983948,moral_self_bias,26,19,59.9822954936,f,001,2018_Apr_02_1908,
,,,,,,,,,,,,,,,,,,,,,,material/74.png,2,黑心,material/173.png,2,material/173.png,黑心,2,f,f,f,1,1,1,卑劣,,,,,,,,,0,103,103,152,,,,,,,,,,,,,,,,,moral_self_bias,26,19,59.9822954936,f,001,2018_Apr_02_1908,
,,,,,,,,,,,,,,,,,,,,,,material/180.png,2,无助,material/79.png,2,material/81.png,颓废,2,j,j,j,2,2,2,怠惰,,,,,,,,,0,104,104,75,0,0,0,0,,,,,,,f,0,1.72357797623,f,0,0.224985122681,moral_self_bias,26,19,59.9822954936,f,001,2018_Apr_02_1908,
,,,,,,,,,,,,,,,,,,,,,,material/180.png,2,无助,material/79.png,2,material/81.png,颓废,2,j,j,j,2,2,2,怠惰,,,,,,,,,0,104,104,75,,,,,,,,,,,,,,,,,moral_self_bias,26,19,59.9822954936,f,001,2018_Apr_02_1908,
,,,,,,,,,,,,,,,,,,,,,,material/17.png,1,聪明,material/117.png,1,material/17.png,聪颖,1,f,f,f,2,2,2,聪明,,,,,,,,,0,105,105,96,0,0,0,0,,,,,,,f,1,1.32567000389,f,0,0.707671880722,moral_self_bias,26,19,59.9822954936,f,001,2018_Apr_02_1908,
,,,,,,,,,,,,,,,,,,,,,,material/17.png,1,聪明,material/117.png,1,material/17.png,聪颖,1,f,f,f,2,2,2,聪明,,,,,,,,,0,105,105,96,,,,,,,,,,,,,,,,,moral_self_bias,26,19,59.9822954936,f,001,2018_Apr_02_1908,
,,,,,,,,,,,,,,,,,,,,,,material/138.png,2,无德,material/38.png,2,material/38.png,无德,2,j,j,j,1,1,1,缺德,,,,,,,,,0,106,106,37,,,,,,,,,,,j,1,1.35737490654,,,,moral_self_bias,26,19,59.9822954936,f,001,2018_Apr_02_1908,
,,,,,,,,,,,,,,,,,,,,,,material/103.png,1,仁慈,material/3.png,1,material/3.png,仁慈,1,j,j,j,1,1,1,仁厚,,,,,,,,,0,107,107,2,0,0,0,0,,,,,,,f,0,0.741829872131,f,0,0.20906496048,moral_self_bias,26,19,59.9822954936,f,001,2018_Apr_02_1908,
,,,,,,,,,,,,,,,,,,,,,,material/103.png,1,仁慈,material/3.png,1,material/3.png,仁慈,1,j,j,j,1,1,1,仁厚,,,,,,,,,0,107,107,2,,,,,,,,,,,,,,,,,moral_self_bias,26,19,59.9822954936,f,001,2018_Apr_02_1908,
,,,,,,,,,,,,,,,,,,,,,,material/166.png,1,孝顺,material/64.png,1,material/164.png,奉献,1,j,j,j,1,1,1,仗义,,,,,,,,,0,108,108,63,0,0,0,0,,,,,,,f,0,0.724577903748,f,0,0.241562843323,moral_self_bias,26,19,59.9822954936,f,001,2018_Apr_02_1908,
,,,,,,,,,,,,,,,,,,,,,,material/166.png,1,孝顺,material/64.png,1,material/164.png,奉献,1,j,j,j,1,1,1,仗义,,,,,,,,,0,108,108,63,,,,,,,,,,,,,,,,,moral_self_bias,26,19,59.9822954936,f,001,2018_Apr_02_1908,
,,,,,,,,,,,,,,,,,,,,,,material/108.png,1,公道,material/8.png,1,material/8.png,公道,1,j,j,j,1,1,1,无私,,,,,,,,,0,109,109,7,0,0,0,0,,,,,,,f,0,1.16633296013,j,1,0.807789087296,moral_self_bias,26,19,59.9822954936,f,001,2018_Apr_02_1908,
,,,,,,,,,,,,,,,,,,,,,,material/108.png,1,公道,material/8.png,1,material/8.png,公道,1,j,j,j,1,1,1,无私,,,,,,,,,0,109,109,7,,,,,,,,,,,,,,,,,moral_self_bias,26,19,59.9822954936,f,001,2018_Apr_02_1908,
,,,,,,,,,,,,,,,,,,,,,,material/33.png,2,贪污,material/133.png,2,material/133.png,贪污,2,f,f,f,1,1,1,腐败,,,,,,,,,0,110,110,112,,,,,,,,,,,j,0,0.641137123108,,,,moral_self_bias,26,19,59.9822954936,f,001,2018_Apr_02_1908,
,,,,,,,,,,,,,,,,,,,,,,material/104.png,1,友爱,material/4.png,1,material/4.png,友爱,1,j,j,j,1,1,1,友善,,,,,,,,,0,111,111,3,0,0,0,0,,,,,,,f,0,0.674458026886,j,1,0.159137964249,moral_self_bias,26,19,59.9822954936,f,001,2018_Apr_02_1908,
,,,,,,,,,,,,,,,,,,,,,,material/104.png,1,友爱,material/4.png,1,material/4.png,友爱,1,j,j,j,1,1,1,友善,,,,,,,,,0,111,111,3,,,,,,,,,,,,,,,,,moral_self_bias,26,19,59.9822954936,f,001,2018_Apr_02_1908,
,,,,,,,,,,,,,,,,,,,,,,material/36.png,2,撒谎,material/136.png,2,material/136.png,撒谎,2,f,f,f,1,1,1,说谎,,,,,,,,,0,112,112,115,,,,,,,,,,,j,0,0.858286142349,,,,moral_self_bias,26,19,59.9822954936,f,001,2018_Apr_02_1908,
,,,,,,,,,,,,,,,,,,,,,,material/9.png,1,正直,material/109.png,1,material/109.png,正直,1,f,f,f,1,1,1,秉直,,,,,,,,,0,113,113,88,0,0,0,0,,,,,,,f,1,3.94127488136,f,0,0.95823597908,moral_self_bias,26,19,59.9822954936,f,001,2018_Apr_02_1908,
,,,,,,,,,,,,,,,,,,,,,,material/9.png,1,正直,material/109.png,1,material/109.png,正直,1,f,f,f,1,1,1,秉直,,,,,,,,,0,113,113,88,,,,,,,,,,,,,,,,,moral_self_bias,26,19,59.9822954936,f,001,2018_Apr_02_1908,
,,,,,,,,,,,,,,,,,,,,,,material/172.png,2,无情,material/175.png,2,material/175.png,无情,2,f,f,f,1,1,1,浮夸,,,,,,,,,0,114,114,154,,,,,,,,,,,j,0,0.723937988281,,,,moral_self_bias,26,19,59.9822954936,f,001,2018_Apr_02_1908,
,,,,,,,,,,,,,,,,,,,,,,material/4.png,1,友善,material/104.png,1,material/104.png,友善,1,f,f,f,1,1,1,友爱,,,,,,,,,0,115,115,83,0,0,0,0,,,,,,,f,1,1.09175205231,j,1,0.234596014023,moral_self_bias,26,19,59.9822954936,f,001,2018_Apr_02_1908,
,,,,,,,,,,,,,,,,,,,,,,material/4.png,1,友善,material/104.png,1,material/104.png,友善,1,f,f,f,1,1,1,友爱,,,,,,,,,0,115,115,83,,,,,,,,,,,,,,,,,moral_self_bias,26,19,59.9822954936,f,001,2018_Apr_02_1908,
,,,,,,,,,,,,,,,,,,,,,,material/102.png,1,善心,material/2.png,1,material/2.png,善心,1,j,j,j,1,1,1,爱心,,,,,,,,,0,116,116,1,,,,,,,,,,,j,1,0.774754047394,,,,moral_self_bias,26,19,59.9822954936,f,001,2018_Apr_02_1908,
,,,,,,,,,,,,,,,,,,,,,,material/153.png,2,迟钝,material/53.png,2,material/153.png,迟缓,2,j,j,j,2,2,2,迟钝,,,,,,,,,0,117,117,52,,,,,,,,,,,j,1,1.29195308685,,,,moral_self_bias,26,19,59.9822954936,f,001,2018_Apr_02_1908,
,,,,,,,,,,,,,,,,,,,,,,material/135.png,2,冷漠,material/35.png,2,material/35.png,冷漠,2,j,j,j,1,1,1,冷血,,,,,,,,,0,118,118,34,,,,,,,,,,,j,1,0.774691104889,,,,moral_self_bias,26,19,59.9822954936,f,001,2018_Apr_02_1908,
,,,,,,,,,,,,,,,,,,,,,,material/60.png,2,粗拙,material/160.png,2,material/60.png,笨拙,2,f,f,f,2,2,2,粗拙,,,,,,,,,0,119,119,139,,,,,,,,,,,j,0,0.591472148895,,,,moral_self_bias,26,19,59.9822954936,f,001,2018_Apr_02_1908,
,,,,,,,,,,,,,,,,,,,,,,material/14.png,1,忠贞,material/114.png,1,material/114.png,忠贞,1,f,f,f,1,1,1,爱国,,,,,,,,,0,120,120,93,,,,,,,,,,,j,0,1.45738101006,,,,moral_self_bias,26,19,59.9822954936,f,001,2018_Apr_02_1908,
,,,,,,,,,,,,,,,,,,,,,,material/154.png,2,依靠,material/54.png,2,material/154.png,依赖,2,j,j,j,2,2,2,依靠,,,,,,,,,0,121,121,53,0,0,0,0,,,,,,,f,0,0.807466983795,j,1,0.358249902725,moral_self_bias,26,19,59.9822954936,f,001,2018_Apr_02_1908,
,,,,,,,,,,,,,,,,,,,,,,material/154.png,2,依靠,material/54.png,2,material/154.png,依赖,2,j,j,j,2,2,2,依靠,,,,,,,,,0,121,121,53,,,,,,,,,,,,,,,,,moral_self_bias,26,19,59.9822954936,f,001,2018_Apr_02_1908,
,,,,,,,,,,,,,,,,,,,,,,material/159.png,2,弱智,material/59.png,2,material/159.png,智障,2,j,j,j,2,2,2,弱智,,,,,,,,,0,122,122,58,,,,,,,,,,,j,1,0.641313076019,,,,moral_self_bias,26,19,59.9822954936,f,001,2018_Apr_02_1908,
,,,,,,,,,,,,,,,,,,,,,,material/27.png,1,卓越,material/127.png,1,material/27.png,超群,1,f,f,f,2,2,2,卓越,,,,,,,,,0,123,123,106,0,0,0,0,,,,,,,f,1,4.80719780922,j,1,0.825268983841,moral_self_bias,26,19,59.9822954936,f,001,2018_Apr_02_1908,
,,,,,,,,,,,,,,,,,,,,,,material/27.png,1,卓越,material/127.png,1,material/27.png,超群,1,f,f,f,2,2,2,卓越,,,,,,,,,0,123,123,106,,,,,,,,,,,,,,,,,moral_self_bias,26,19,59.9822954936,f,001,2018_Apr_02_1908,
,,,,,,,,,,,,,,,,,,,,,,material/59.png,2,智障,material/159.png,2,material/59.png,弱智,2,f,f,f,2,2,2,智障,,,,,,,,,0,124,124,138,,,,,,,,,,,j,0,1.33996605873,,,,moral_self_bias,26,19,59.9822954936,f,001,2018_Apr_02_1908,
,,,,,,,,,,,,,,,,,,,,,,material/176.png,2,害人,material/75.png,2,material/75.png,害人,2,j,j,j,1,1,1,放纵,,,,,,,,,0,125,125,71,,,,,,,,,,,j,1,0.607903957367,,,,moral_self_bias,26,19,59.9822954936,f,001,2018_Apr_02_1908,
,,,,,,,,,,,,,,,,,,,,,,material/1.png,1,博爱,material/101.png,1,material/101.png,博爱,1,f,f,f,1,1,1,善良,,,,,,,,,0,126,126,80,,,,,,,,,,,j,0,0.958360910416,,,,moral_self_bias,26,19,59.9822954936,f,001,2018_Apr_02_1908,
,,,,,,,,,,,,,,,,,,,,,,material/121.png,1,精干,material/21.png,1,material/121.png,干练,1,j,j,j,2,2,2,精干,,,,,,,,,0,127,127,20,0,0,0,0,,,,,,,f,0,0.725374937057,j,1,0.208683013916,moral_self_bias,26,19,59.9822954936,f,001,2018_Apr_02_1908,
,,,,,,,,,,,,,,,,,,,,,,material/121.png,1,精干,material/21.png,1,material/121.png,干练,1,j,j,j,2,2,2,精干,,,,,,,,,0,127,127,20,,,,,,,,,,,,,,,,,moral_self_bias,26,19,59.9822954936,f,001,2018_Apr_02_1908,
,,,,,,,,,,,,,,,,,,,,,,material/66.png,1,独立,material/66.png,1,material/165.png,正义,1,f,f,f,1,1,1,正义,,,,,,,,,0,128,128,164,,,,,,,,,,,j,0,0.817451953888,,,,moral_self_bias,26,19,59.9822954936,f,001,2018_Apr_02_1908,
,,,,,,,,,,,,,,,,,,,,,,material/21.png,1,干练,material/121.png,1,material/21.png,精干,1,f,f,f,2,2,2,干练,,,,,,,,,0,129,129,100,0,0,0,0,,,,,,,f,1,0.516361951828,j,1,0.174124956131,moral_self_bias,26,19,59.9822954936,f,001,2018_Apr_02_1908,
,,,,,,,,,,,,,,,,,,,,,,material/21.png,1,干练,material/121.png,1,material/21.png,精干,1,f,f,f,2,2,2,干练,,,,,,,,,0,129,129,100,,,,,,,,,,,,,,,,,moral_self_bias,26,19,59.9822954936,f,001,2018_Apr_02_1908,
,,,,,,,,,,,,,,,,,,,,,,material/178.png,2,窝囊,material/82.png,2,material/82.png,窝囊,2,j,j,j,2,2,2,毛糙,,,,,,,,,0,130,130,78,0,0,0,0,,,,,,,f,0,1.37492704391,j,1,0.408276081085,moral_self_bias,26,19,59.9822954936,f,001,2018_Apr_02_1908,
,,,,,,,,,,,,,,,,,,,,,,material/178.png,2,窝囊,material/82.png,2,material/82.png,窝囊,2,j,j,j,2,2,2,毛糙,,,,,,,,,0,130,130,78,,,,,,,,,,,,,,,,,moral_self_bias,26,19,59.9822954936,f,001,2018_Apr_02_1908,
,,,,,,,,,,,,,,,,,,,,,,material/84.png,2,犹豫,material/84.png,2,material/181.png,顽愚,2,f,f,f,2,2,2,顽愚,,,,,,,,,0,131,131,167,0,0,0,0,,,,,,,f,1,1.95798420906,j,1,0.242074012756,moral_self_bias,26,19,59.9822954936,f,001,2018_Apr_02_1908,
,,,,,,,,,,,,,,,,,,,,,,material/84.png,2,犹豫,material/84.png,2,material/181.png,顽愚,2,f,f,f,2,2,2,顽愚,,,,,,,,,0,131,131,167,,,,,,,,,,,,,,,,,moral_self_bias,26,19,59.9822954936,f,001,2018_Apr_02_1908,
,,,,,,,,,,,,,,,,,,,,,,material/114.png,1,爱国,material/14.png,1,material/14.png,爱国,1,j,j,j,1,1,1,忠贞,,,,,,,,,0,132,132,13,0,0,0,0,,,,,,,f,0,0.808943986893,j,1,0.209186077118,moral_self_bias,26,19,59.9822954936,f,001,2018_Apr_02_1908,
,,,,,,,,,,,,,,,,,,,,,,material/114.png,1,爱国,material/14.png,1,material/14.png,爱国,1,j,j,j,1,1,1,忠贞,,,,,,,,,0,132,132,13,,,,,,,,,,,,,,,,,moral_self_bias,26,19,59.9822954936,f,001,2018_Apr_02_1908,
,,,,,,,,,,,,,,,,,,,,,,material/145.png,2,下流,material/45.png,2,material/45.png,下流,2,j,j,j,1,1,1,小人,,,,,,,,,0,133,133,44,0,0,0,0,,,,,,,f,0,1.09117388725,j,1,0.723433017731,moral_self_bias,26,19,59.9822954936,f,001,2018_Apr_02_1908,
,,,,,,,,,,,,,,,,,,,,,,material/145.png,2,下流,material/45.png,2,material/45.png,下流,2,j,j,j,1,1,1,小人,,,,,,,,,0,133,133,44,,,,,,,,,,,,,,,,,moral_self_bias,26,19,59.9822954936,f,001,2018_Apr_02_1908,
,,,,,,,,,,,,,,,,,,,,,,material/15.png,1,纯洁,material/115.png,1,material/115.png,纯洁,1,f,f,f,1,1,1,清白,,,,,,,,,0,134,134,94,0,0,0,0,,,,,,,f,1,1.17504405975,j,1,0.400073051453,moral_self_bias,26,19,59.9822954936,f,001,2018_Apr_02_1908,
,,,,,,,,,,,,,,,,,,,,,,material/15.png,1,纯洁,material/115.png,1,material/115.png,纯洁,1,f,f,f,1,1,1,清白,,,,,,,,,0,134,134,94,,,,,,,,,,,,,,,,,moral_self_bias,26,19,59.9822954936,f,001,2018_Apr_02_1908,
,,,,,,,,,,,,,,,,,,,,,,material/144.png,2,失信,material/44.png,2,material/44.png,失信,2,j,j,j,1,1,1,爽约,,,,,,,,,0,135,135,43,0,0,0,0,,,,,,,f,0,0.940915822983,j,1,0.690965890884,moral_self_bias,26,19,59.9822954936,f,001,2018_Apr_02_1908,
,,,,,,,,,,,,,,,,,,,,,,material/144.png,2,失信,material/44.png,2,material/44.png,失信,2,j,j,j,1,1,1,爽约,,,,,,,,,0,135,135,43,,,,,,,,,,,,,,,,,moral_self_bias,26,19,59.9822954936,f,001,2018_Apr_02_1908,
,,,,,,,,,,,,,,,,,,,,,,material/46.png,2,自私,material/146.png,2,material/146.png,自私,2,f,f,f,1,1,1,小气,,,,,,,,,0,136,136,125,0,0,0,0,,,,,,,f,1,1.84042978287,f,0,0.258142948151,moral_self_bias,26,19,59.9822954936,f,001,2018_Apr_02_1908,
,,,,,,,,,,,,,,,,,,,,,,material/46.png,2,自私,material/146.png,2,material/146.png,自私,2,f,f,f,1,1,1,小气,,,,,,,,,0,136,136,125,,,,,,,,,,,,,,,,,moral_self_bias,26,19,59.9822954936,f,001,2018_Apr_02_1908,
,,,,,,,,,,,,,,,,,,,,,,material/2.png,1,爱心,material/102.png,1,material/102.png,爱心,1,f,f,f,1,1,1,善心,,,,,,,,,0,137,137,81,,,,,,,,,,,j,0,1.1410138607,,,,moral_self_bias,26,19,59.9822954936,f,001,2018_Apr_02_1908,
,,,,,,,,,,,,,,,,,,,,,,material/37.png,2,卑鄙,material/137.png,2,material/137.png,卑鄙,2,f,f,f,1,1,1,无耻,,,,,,,,,0,138,138,116,,,,,,,,,,,j,0,0.775103092194,,,,moral_self_bias,26,19,59.9822954936,f,001,2018_Apr_02_1908,
,,,,,,,,,,,,,,,,,,,,,,material/149.png,2,白痴,material/49.png,2,material/149.png,痴呆,2,j,j,j,2,2,2,白痴,,,,,,,,,0,139,139,48,,,,,,,,,,,j,1,1.04219579697,,,,moral_self_bias,26,19,59.9822954936,f,001,2018_Apr_02_1908,
,,,,,,,,,,,,,,,,,,,,,,material/129.png,1,好问,material/29.png,1,material/129.png,好学,1,j,j,j,2,2,2,好问,,,,,,,,,0,140,140,28,,,,,,,,,,,j,1,0.491693973541,,,,moral_self_bias,26,19,59.9822954936,f,001,2018_Apr_02_1908,
,,,,,,,,,,,,,,,,,,,,,,material/51.png,2,糊涂,material/151.png,2,material/51.png,迷糊,2,f,f,f,2,2,2,糊涂,,,,,,,,,0,141,141,130,0,0,0,0,,,,,,,f,1,2.24014902115,f,0,0.190739154816,moral_self_bias,26,19,59.9822954936,f,001,2018_Apr_02_1908,
,,,,,,,,,,,,,,,,,,,,,,material/51.png,2,糊涂,material/151.png,2,material/51.png,迷糊,2,f,f,f,2,2,2,糊涂,,,,,,,,,0,141,141,130,,,,,,,,,,,,,,,,,moral_self_bias,26,19,59.9822954936,f,001,2018_Apr_02_1908,
,,,,,,,,,,,,,,,,,,,,,,material/109.png,1,秉直,material/9.png,1,material/9.png,秉直,1,j,j,j,1,1,1,正直,,,,,,,,,0,142,142,8,0,0,0,0,,,,,,,f,0,1.05800890923,f,0,0.224470853806,moral_self_bias,26,19,59.9822954936,f,001,2018_Apr_02_1908,
,,,,,,,,,,,,,,,,,,,,,,material/109.png,1,秉直,material/9.png,1,material/9.png,秉直,1,j,j,j,1,1,1,正直,,,,,,,,,0,142,142,8,,,,,,,,,,,,,,,,,moral_self_bias,26,19,59.9822954936,f,001,2018_Apr_02_1908,
,,,,,,,,,,,,,,,,,,,,,,material/72.png,2,软弱,material/77.png,2,material/77.png,软弱,2,j,j,j,1,1,1,谄媚,,,,,,,,,0,143,143,73,0,0,0,0,,,,,,,f,0,0.657624006271,f,0,0.275317907333,moral_self_bias,26,19,59.9822954936,f,001,2018_Apr_02_1908,
,,,,,,,,,,,,,,,,,,,,,,material/72.png,2,软弱,material/77.png,2,material/77.png,软弱,2,j,j,j,1,1,1,谄媚,,,,,,,,,0,143,143,73,,,,,,,,,,,,,,,,,moral_self_bias,26,19,59.9822954936,f,001,2018_Apr_02_1908,
,,,,,,,,,,,,,,,,,,,,,,material/171.png,1,高效,material/67.png,1,material/171.png,骁勇,1,j,j,j,2,2,2,高效,,,,,,,,,0,144,144,65,,,,,,,,,,,j,1,1.00834703445,,,,moral_self_bias,26,19,59.9822954936,f,001,2018_Apr_02_1908,
,,,,,,,,,,,,,,,,,,,,,,material/63.png,1,正义,material/166.png,1,material/66.png,仗义,1,f,f,f,1,1,1,文明,,,,,,,,,0,145,145,145,,,,,,,,,,,j,0,0.823421001434,,,,moral_self_bias,26,19,59.9822954936,f,001,2018_Apr_02_1908,
,,,,,,,,,,,,,,,,,,,,,,material/65.png,1,勇敢,material/61.png,1,material/161.png,平等,1,j,j,j,1,1,1,谦虚,,,,,,,,,0,146,146,60,,,,,,,,,,,j,1,0.807250022888,,,,moral_self_bias,26,19,59.9822954936,f,001,2018_Apr_02_1908,
,,,,,,,,,,,,,,,,,,,,,,material/124.png,1,冷静,material/24.png,1,material/124.png,理智,1,j,j,j,2,2,2,冷静,,,,,,,,,0,147,147,23,0,0,0,0,,,,,,,f,0,0.890997886658,f,0,0.708753108978,moral_self_bias,26,19,59.9822954936,f,001,2018_Apr_02_1908,
,,,,,,,,,,,,,,,,,,,,,,material/124.png,1,冷静,material/24.png,1,material/124.png,理智,1,j,j,j,2,2,2,冷静,,,,,,,,,0,147,147,23,,,,,,,,,,,,,,,,,moral_self_bias,26,19,59.9822954936,f,001,2018_Apr_02_1908,
,,,,,,,,,,,,,,,,,,,,,,material/148.png,2,笨蛋,material/48.png,2,material/148.png,愚蠢,2,j,j,j,2,2,2,笨蛋,,,,,,,,,0,148,148,47,0,0,0,0,,,,,,,f,0,1.5062251091,j,1,0.575421094894,moral_self_bias,26,19,59.9822954936,f,001,2018_Apr_02_1908,
,,,,,,,,,,,,,,,,,,,,,,material/148.png,2,笨蛋,material/48.png,2,material/148.png,愚蠢,2,j,j,j,2,2,2,笨蛋,,,,,,,,,0,148,148,47,,,,,,,,,,,,,,,,,moral_self_bias,26,19,59.9822954936,f,001,2018_Apr_02_1908,
,,,,,,,,,,,,,,,,,,,,,,material/34.png,2,可恶,material/134.png,2,material/134.png,可恶,2,f,f,f,1,1,1,可恨,,,,,,,,,0,149,149,113,,,,,,,,,,,j,0,1.5238609314,,,,moral_self_bias,26,19,59.9822954936,f,001,2018_Apr_02_1908,
,,,,,,,,,,,,,,,,,,,,,,material/118.png,1,机敏,material/18.png,1,material/118.png,敏锐,1,j,j,j,2,2,2,机敏,,,,,,,,,0,150,150,17,0,0,0,0,,,,,,,f,0,0.658180952072,j,1,0.241739034653,moral_self_bias,26,19,59.9822954936,f,001,2018_Apr_02_1908,
,,,,,,,,,,,,,,,,,,,,,,material/118.png,1,机敏,material/18.png,1,material/118.png,敏锐,1,j,j,j,2,2,2,机敏,,,,,,,,,0,150,150,17,,,,,,,,,,,,,,,,,moral_self_bias,26,19,59.9822954936,f,001,2018_Apr_02_1908,
,,,,,,,,,,,,,,,,,,,,,,material/42.png,2,奸诈,material/142.png,2,material/142.png,奸诈,2,f,f,f,1,1,1,阴险,,,,,,,,,0,151,151,121,,,,,,,,,,,j,0,0.840862989426,,,,moral_self_bias,26,19,59.9822954936,f,001,2018_Apr_02_1908,
,,,,,,,,,,,,,,,,,,,,,,material/123.png,1,多才,material/23.png,1,material/123.png,有才,1,j,j,j,2,2,2,多才,,,,,,,,,0,152,152,22,,,,,,,,,,,j,1,1.00709891319,,,,moral_self_bias,26,19,59.9822954936,f,001,2018_Apr_02_1908,
,,,,,,,,,,,,,,,,,,,,,,material/163.png,1,文明,material/163.png,1,material/63.png,宽容,1,f,f,f,1,1,1,宽容,,,,,,,,,0,153,153,142,0,0,0,0,,,,,,,f,1,0.550081968307,j,1,0.166086912155,moral_self_bias,26,19,59.9822954936,f,001,2018_Apr_02_1908,
,,,,,,,,,,,,,,,,,,,,,,material/163.png,1,文明,material/163.png,1,material/63.png,宽容,1,f,f,f,1,1,1,宽容,,,,,,,,,0,153,153,142,,,,,,,,,,,,,,,,,moral_self_bias,26,19,59.9822954936,f,001,2018_Apr_02_1908,
,,,,,,,,,,,,,,,,,,,,,,material/44.png,2,爽约,material/144.png,2,material/144.png,爽约,2,f,f,f,1,1,1,失信,,,,,,,,,0,154,154,123,,,,,,,,,,,j,0,1.74989509583,,,,moral_self_bias,26,19,59.9822954936,f,001,2018_Apr_02_1908,
,,,,,,,,,,,,,,,,,,,,,,material/77.png,2,浮夸,material/172.png,2,material/172.png,浮夸,2,f,f,f,1,1,1,软弱,,,,,,,,,0,155,155,151,0,0,0,0,,,,,,,f,1,0.691396951675,j,1,0.192054033279,moral_self_bias,26,19,59.9822954936,f,001,2018_Apr_02_1908,
,,,,,,,,,,,,,,,,,,,,,,material/77.png,2,浮夸,material/172.png,2,material/172.png,浮夸,2,f,f,f,1,1,1,软弱,,,,,,,,,0,155,155,151,,,,,,,,,,,,,,,,,moral_self_bias,26,19,59.9822954936,f,001,2018_Apr_02_1908,
,,,,,,,,,,,,,,,,,,,,,,material/10.png,1,坚毅,material/110.png,1,material/110.png,坚毅,1,f,f,f,1,1,1,顽强,,,,,,,,,0,156,156,89,0,0,0,0,,,,,,,f,1,3.17187213898,j,1,0.2414021492,moral_self_bias,26,19,59.9822954936,f,001,2018_Apr_02_1908,
,,,,,,,,,,,,,,,,,,,,,,material/10.png,1,坚毅,material/110.png,1,material/110.png,坚毅,1,f,f,f,1,1,1,顽强,,,,,,,,,0,156,156,89,,,,,,,,,,,,,,,,,moral_self_bias,26,19,59.9822954936,f,001,2018_Apr_02_1908,
,,,,,,,,,,,,,,,,,,,,,,material/69.png,1,高明,material/69.png,1,material/69.png,高明,1,f,f,f,2,2,2,高明,,,,,,,,,0,157,157,166,0,0,0,0,,,,,,,f,1,0.704684019089,j,1,0.158496856689,moral_self_bias,26,19,59.9822954936,f,001,2018_Apr_02_1908,
,,,,,,,,,,,,,,,,,,,,,,material/69.png,1,高明,material/69.png,1,material/69.png,高明,1,f,f,f,2,2,2,高明,,,,,,,,,0,157,157,166,,,,,,,,,,,,,,,,,moral_self_bias,26,19,59.9822954936,f,001,2018_Apr_02_1908,
,,,,,,,,,,,,,,,,,,,,,,material/45.png,2,小人,material/145.png,2,material/145.png,小人,2,f,f,f,1,1,1,下流,,,,,,,,,0,158,158,124,,,,,,,,,,,j,0,2.50735402107,,,,moral_self_bias,26,19,59.9822954936,f,001,2018_Apr_02_1908,
,,,,,,,,,,,,,,,,,,,,,,material/128.png,1,自律,material/28.png,1,material/128.png,克己,1,j,j,j,2,2,2,自律,,,,,,,,,0,159,159,27,0,0,0,0,,,,,,,f,0,0.649627923965,f,0,0.389956951141,moral_self_bias,26,19,59.9822954936,f,001,2018_Apr_02_1908,
,,,,,,,,,,,,,,,,,,,,,,material/128.png,1,自律,material/28.png,1,material/128.png,克己,1,j,j,j,2,2,2,自律,,,,,,,,,0,159,159,27,,,,,,,,,,,,,,,,,moral_self_bias,26,19,59.9822954936,f,001,2018_Apr_02_1908,
,,,,,,,,,,,,,,,,,,,,,,material/130.png,1,进取,material/30.png,1,material/130.png,上进,1,j,j,j,2,2,2,进取,,,,,,,,,0,160,160,29,0,0,0,0,,,,,,,f,0,1.10062789917,j,1,0.4078810215,moral_self_bias,26,19,59.9822954936,f,001,2018_Apr_02_1908,
,,,,,,,,,,,,,,,,,,,,,,material/130.png,1,进取,material/30.png,1,material/130.png,上进,1,j,j,j,2,2,2,进取,,,,,,,,,0,160,160,29,,,,,,,,,,,,,,,,,moral_self_bias,26,19,59.9822954936,f,001,2018_Apr_02_1908,
,,,,,,,,,,,,,,,,,,,,,,material/81.png,2,呆笨,material/179.png,2,material/83.png,差生,2,f,f,f,2,2,2,无助,,,,,,,,,0,161,161,158,,,,,,,,,,,j,0,1.34031510353,,,,moral_self_bias,26,19,59.9822954936,f,001,2018_Apr_02_1908,
,,,,,,,,,,,,,,,,,,,,,,material/133.png,2,腐败,material/33.png,2,material/33.png,腐败,2,j,j,j,1,1,1,贪污,,,,,,,,,0,162,162,32,,,,,,,,,,,j,1,0.740905046463,,,,moral_self_bias,26,19,59.9822954936,f,001,2018_Apr_02_1908,
,,,,,,,,,,,,,,,,,,,,,,material/57.png,2,无知,material/157.png,2,material/57.png,无能,2,f,f,f,2,2,2,无知,,,,,,,,,0,163,163,136,0,0,0,0,,,,,,,f,1,0.457896947861,j,1,0.258660078049,moral_self_bias,26,19,59.9822954936,f,001,2018_Apr_02_1908,
,,,,,,,,,,,,,,,,,,,,,,material/57.png,2,无知,material/157.png,2,material/57.png,无能,2,f,f,f,2,2,2,无知,,,,,,,,,0,163,163,136,,,,,,,,,,,,,,,,,moral_self_bias,26,19,59.9822954936,f,001,2018_Apr_02_1908,
,,,,,,,,,,,,,,,,,,,,,,material/55.png,2,盲从,material/155.png,2,material/55.png,盲目,2,f,f,f,2,2,2,盲从,,,,,,,,,0,164,164,134,0,0,0,0,,,,,,,f,1,1.19158911705,f,0,0.258352994919,moral_self_bias,26,19,59.9822954936,f,001,2018_Apr_02_1908,
,,,,,,,,,,,,,,,,,,,,,,material/55.png,2,盲从,material/155.png,2,material/55.png,盲目,2,f,f,f,2,2,2,盲从,,,,,,,,,0,164,164,134,,,,,,,,,,,,,,,,,moral_self_bias,26,19,59.9822954936,f,001,2018_Apr_02_1908,
,,,,,,,,,,,,,,,,,,,,,,material/101.png,1,善良,material/1.png,1,material/1.png,善良,1,j,j,j,1,1,1,博爱,,,,,,,,,0,165,165,0,0,0,0,0,,,,,,,f,0,0.874121904373,f,0,0.341648101807,moral_self_bias,26,19,59.9822954936,f,001,2018_Apr_02_1908,
,,,,,,,,,,,,,,,,,,,,,,material/101.png,1,善良,material/1.png,1,material/1.png,善良,1,j,j,j,1,1,1,博爱,,,,,,,,,0,165,165,0,,,,,,,,,,,,,,,,,moral_self_bias,26,19,59.9822954936,f,001,2018_Apr_02_1908,
,,,,,,,,,,,,,,,,,,,,,,material/137.png,2,无耻,material/37.png,2,material/37.png,无耻,2,j,j,j,1,1,1,卑鄙,,,,,,,,,0,166,166,36,0,0,0,0,,,,,,,f,0,1.6238758564,f,0,1.37571597099,moral_self_bias,26,19,59.9822954936,f,001,2018_Apr_02_1908,
,,,,,,,,,,,,,,,,,,,,,,material/137.png,2,无耻,material/37.png,2,material/37.png,无耻,2,j,j,j,1,1,1,卑鄙,,,,,,,,,0,166,166,36,,,,,,,,,,,,,,,,,moral_self_bias,26,19,59.9822954936,f,001,2018_Apr_02_1908,
,,,,,,,,,,,,,,,,,,,,,,material/20.png,1,厉害,material/120.png,1,material/20.png,能干,1,f,f,f,2,2,2,厉害,,,,,,,,,0,167,167,99,0,0,0,0,,,,,,,f,1,2.72535800934,f,0,0.257879018784,moral_self_bias,26,19,59.9822954936,f,001,2018_Apr_02_1908,
,,,,,,,,,,,,,,,,,,,,,,material/20.png,1,厉害,material/120.png,1,material/20.png,能干,1,f,f,f,2,2,2,厉害,,,,,,,,,0,167,167,99,,,,,,,,,,,,,,,,,moral_self_bias,26,19,59.9822954936,f,001,2018_Apr_02_1908,
