Block1_Old,Num_Source3,Num_Source2,Num_Source1,valence1,valence2,valence3,Num_Old2,Corr_S1,Num_Old1,Corr_S3,Corr_S2,Block3_Old,Block2_Old,Source_2,Source_3,Source_1,domain3,domain2,domain1,Num_Old3,math,Num_All2,valence_all1,All_Words3,Num_All1,valence_all2,Num_All3,All_Words1,valence_all3,Corr_Rec2,Corr_Rec3,Corr_Rec1,domian_all3,domian_all2,domian_all1,All_Words2,trials.thisRepN,trials.thisTrialN,trials.thisN,trials.thisIndex,trials_2.thisRepN,trials_2.thisTrialN,trials_2.thisN,trials_2.thisIndex,trials_4.thisRepN,trials_4.thisTrialN,trials_4.thisN,trials_4.thisIndex,trials_3.thisRepN,trials_3.thisTrialN,trials_3.thisN,trials_3.thisIndex,block_resp_1.keys,block_resp_1.rt,words_rating.keys,words_rating.rt,block_resp_2.keys,block_resp_2.rt,Rec_resp.keys,Rec_resp.corr,Rec_resp.rt,Source_resp.keys,Source_resp.corr,Source_resp.rt,expName,participant,Age,frameRate,Sex,session,date,
,,,,,,,,,,,,,,,,,,,,,,,,,,,,,,,,,,,,,,,,,,,,,,,,,,,,,3,15.8437008858,,,,,,,,,,,moral_self_bias,27,20,60.0665639375,f,001,2018_Apr_02_1926,
残虐,material/instr2_1.png,material/instr2_1.png,material/instr2_1.png,2,2,2,material/175.png,f,material/73.png,f,f,残虐,无情,self,self,self,1,1,1,material/73.png,,,,,,,,,,,,,,,,,0,0,0,85,,,,,,,,,,,,,,,1,1.77636384964,,,,,,,,,moral_self_bias,27,20,60.0665639375,f,001,2018_Apr_02_1926,
浅薄,material/instr2_2.png,material/instr2_2.png,material/instr2_2.png,2,2,2,material/58.png,j,material/158.png,j,j,肤浅,肤浅,friend,friend,friend,2,2,2,material/58.png,,,,,,,,,,,,,,,,,0,1,1,57,,,,,,,,,,,,,,,1,1.34171009064,,,,,,,,,moral_self_bias,27,20,60.0665639375,f,001,2018_Apr_02_1926,
依靠,material/instr2_1.png,material/instr2_1.png,material/instr2_1.png,2,2,2,material/54.png,f,material/154.png,f,f,依赖,依赖,self,self,self,2,2,2,material/54.png,,,,,,,,,,,,,,,,,0,2,2,53,,,,,,,,,,,,,,,1,1.32582306862,,,,,,,,,moral_self_bias,27,20,60.0665639375,f,001,2018_Apr_02_1926,
正直,material/instr2_2.png,material/instr2_2.png,material/instr2_2.png,1,1,1,material/9.png,j,material/109.png,j,j,正直,秉直,friend,friend,friend,1,1,1,material/109.png,,,,,,,,,,,,,,,,,0,3,3,8,,,,,,,,,,,,,,,5,1.34216499329,,,,,,,,,moral_self_bias,27,20,60.0665639375,f,001,2018_Apr_02_1926,
无私,material/instr2_2.png,material/instr2_2.png,material/instr2_2.png,1,1,1,material/8.png,j,material/108.png,j,j,无私,公道,friend,friend,friend,1,1,1,material/108.png,,,,,,,,,,,,,,,,,0,4,4,7,,,,,,,,,,,,,,,5,0.976128816605,,,,,,,,,moral_self_bias,27,20,60.0665639375,f,001,2018_Apr_02_1926,
鲁钝,material/instr2_2.png,material/instr2_2.png,material/instr2_2.png,2,2,2,material/50.png,j,material/150.png,j,j,愚笨,愚笨,friend,friend,friend,2,2,2,material/50.png,,,,,,,,,,,,,,,,,0,5,5,49,,,,,,,,,,,,,,,4,2.10913205147,,,,,,,,,moral_self_bias,27,20,60.0665639375,f,001,2018_Apr_02_1926,
白痴,material/instr2_2.png,material/instr2_2.png,material/instr2_2.png,2,2,2,material/49.png,j,material/149.png,j,j,痴呆,痴呆,friend,friend,friend,2,2,2,material/49.png,,,,,,,,,,,,,,,,,0,6,6,48,,,,,,,,,,,,,,,2,1.325330019,,,,,,,,,moral_self_bias,27,20,60.0665639375,f,001,2018_Apr_02_1926,
机智,material/instr2_2.png,material/instr2_2.png,material/instr2_2.png,1,1,1,material/16.png,j,material/116.png,j,j,睿智,睿智,friend,friend,friend,2,2,2,material/16.png,,,,,,,,,,,,,,,,,0,7,7,15,,,,,,,,,,,,,,,5,1.35856819153,,,,,,,,,moral_self_bias,27,20,60.0665639375,f,001,2018_Apr_02_1926,
毛糙,material/instr2_2.png,material/instr2_2.png,material/instr2_2.png,2,2,2,material/179.png,j,material/178.png,j,j,顽愚,差生,friend,friend,friend,2,2,2,material/84.png,,,,,,,,,,,,,,,,,0,8,8,77,,,,,,,,,,,,,,,2,1.18400812149,,,,,,,,,moral_self_bias,27,20,60.0665639375,f,001,2018_Apr_02_1926,
能干,material/instr2_2.png,material/instr2_2.png,material/instr2_2.png,1,1,1,material/20.png,j,material/120.png,j,j,厉害,厉害,friend,friend,friend,2,2,2,material/20.png,,,,,,,,,,,,,,,,,0,9,9,19,,,,,,,,,,,,,,,5,1.14211702347,,,,,,,,,moral_self_bias,27,20,60.0665639375,f,001,2018_Apr_02_1926,
奸诈,material/instr2_1.png,material/instr2_1.png,material/instr2_1.png,2,2,2,material/42.png,f,material/142.png,f,f,奸诈,阴险,self,self,self,1,1,1,material/142.png,,,,,,,,,,,,,,,,,0,10,10,41,,,,,,,,,,,,,,,1,2.10894298553,,,,,,,,,moral_self_bias,27,20,60.0665639375,f,001,2018_Apr_02_1926,
坚毅,material/instr2_2.png,material/instr2_2.png,material/instr2_2.png,1,1,1,material/10.png,j,material/110.png,j,j,坚毅,顽强,friend,friend,friend,1,1,1,material/110.png,,,,,,,,,,,,,,,,,0,11,11,9,,,,,,,,,,,,,,,5,1.27670693398,,,,,,,,,moral_self_bias,27,20,60.0665639375,f,001,2018_Apr_02_1926,
恶心,material/instr2_1.png,material/instr2_1.png,material/instr2_1.png,2,2,2,material/73.png,f,material/177.png,f,f,恶心,残虐,self,self,self,1,1,1,material/177.png,,,,,,,,,,,,,,,,,0,12,12,76,,,,,,,,,,,,,,,1,1.22561097145,,,,,,,,,moral_self_bias,27,20,60.0665639375,f,001,2018_Apr_02_1926,
刻板,material/instr2_2.png,material/instr2_2.png,material/instr2_2.png,2,2,2,material/47.png,j,material/147.png,j,j,死板,死板,friend,friend,friend,2,2,2,material/47.png,,,,,,,,,,,,,,,,,0,13,13,46,,,,,,,,,,,,,,,2,1.5753839016,,,,,,,,,moral_self_bias,27,20,60.0665639375,f,001,2018_Apr_02_1926,
不义,material/instr2_2.png,material/instr2_2.png,material/instr2_2.png,2,2,2,material/173.png,j,material/174.png,j,j,不义,黑心,friend,friend,friend,1,1,1,material/174.png,,,,,,,,,,,,,,,,,0,14,14,73,,,,,,,,,,,,,,,2,1.32494211197,,,,,,,,,moral_self_bias,27,20,60.0665639375,f,001,2018_Apr_02_1926,
机敏,material/instr2_2.png,material/instr2_2.png,material/instr2_2.png,1,1,1,material/18.png,j,material/118.png,j,j,敏锐,敏锐,friend,friend,friend,2,2,2,material/18.png,,,,,,,,,,,,,,,,,0,15,15,17,,,,,,,,,,,,,,,4,1.55804991722,,,,,,,,,moral_self_bias,27,20,60.0665639375,f,001,2018_Apr_02_1926,
多才,material/instr2_1.png,material/instr2_1.png,material/instr2_1.png,1,1,1,material/23.png,f,material/123.png,f,f,有才,有才,self,self,self,2,2,2,material/23.png,,,,,,,,,,,,,,,,,0,16,16,22,,,,,,,,,,,,,,,3,1.77476811409,,,,,,,,,moral_self_bias,27,20,60.0665639375,f,001,2018_Apr_02_1926,
敬业,material/instr2_2.png,material/instr2_2.png,material/instr2_2.png,1,1,1,material/62.png,j,material/162.png,j,j,坚韧,坚韧,friend,friend,friend,1,1,1,material/62.png,,,,,,,,,,,,,,,,,0,17,17,61,,,,,,,,,,,,,,,4,1.07504892349,,,,,,,,,moral_self_bias,27,20,60.0665639375,f,001,2018_Apr_02_1926,
忠心,material/instr2_1.png,material/instr2_1.png,material/instr2_1.png,1,1,1,material/12.png,f,material/112.png,f,f,忠心,忠诚,self,self,self,1,1,1,material/112.png,,,,,,,,,,,,,,,,,0,18,18,11,,,,,,,,,,,,,,,2,1.32476019859,,,,,,,,,moral_self_bias,27,20,60.0665639375,f,001,2018_Apr_02_1926,
博爱,material/instr2_1.png,material/instr2_1.png,material/instr2_1.png,1,1,1,material/1.png,f,material/101.png,f,f,博爱,善良,self,self,self,1,1,1,material/101.png,,,,,,,,,,,,,,,,,0,19,19,0,,,,,,,,,,,,,,,2,1.27593803406,,,,,,,,,moral_self_bias,27,20,60.0665639375,f,001,2018_Apr_02_1926,
可恶,material/instr2_1.png,material/instr2_1.png,material/instr2_1.png,2,2,2,material/34.png,f,material/134.png,f,f,可恶,可恨,self,self,self,1,1,1,material/134.png,,,,,,,,,,,,,,,,,0,20,20,33,,,,,,,,,,,,,,,2,1.02555704117,,,,,,,,,moral_self_bias,27,20,60.0665639375,f,001,2018_Apr_02_1926,
犹豫,material/instr2_1.png,material/instr2_1.png,material/instr2_1.png,2,2,2,material/78.png,f,material/181.png,f,f,厌学,草率,self,self,self,2,2,2,material/184.png,,,,,,,,,,,,,,,,,0,21,21,80,,,,,,,,,,,,,,,5,1.59188890457,,,,,,,,,moral_self_bias,27,20,60.0665639375,f,001,2018_Apr_02_1926,
顽愚,material/instr2_1.png,material/instr2_1.png,material/instr2_1.png,2,2,2,material/84.png,f,material/84.png,f,f,犹豫,顽愚,self,self,self,2,2,2,material/181.png,,,,,,,,,,,,,,,,,0,22,22,87,,,,,,,,,,,,,,,2,1.54239296913,,,,,,,,,moral_self_bias,27,20,60.0665639375,f,001,2018_Apr_02_1926,
仗义,material/instr2_1.png,material/instr2_1.png,material/instr2_1.png,1,1,1,material/63.png,f,material/166.png,f,f,正义,文明,self,self,self,1,1,1,material/66.png,,,,,,,,,,,,,,,,,0,23,23,65,,,,,,,,,,,,,,,5,1.37547898293,,,,,,,,,moral_self_bias,27,20,60.0665639375,f,001,2018_Apr_02_1926,
缺德,material/instr2_2.png,material/instr2_2.png,material/instr2_2.png,2,2,2,material/38.png,j,material/138.png,j,j,缺德,无德,friend,friend,friend,1,1,1,material/138.png,,,,,,,,,,,,,,,,,0,24,24,37,,,,,,,,,,,,,,,2,1.00897216797,,,,,,,,,moral_self_bias,27,20,60.0665639375,f,001,2018_Apr_02_1926,
宽容,material/instr2_2.png,material/instr2_2.png,material/instr2_2.png,1,1,1,material/163.png,j,material/163.png,j,j,文明,宽容,friend,friend,friend,1,1,1,material/63.png,,,,,,,,,,,,,,,,,0,25,25,62,,,,,,,,,,,,,,,4,1.71670293808,,,,,,,,,moral_self_bias,27,20,60.0665639375,f,001,2018_Apr_02_1926,
卑鄙,material/instr2_2.png,material/instr2_2.png,material/instr2_2.png,2,2,2,material/37.png,j,material/137.png,j,j,卑鄙,无耻,friend,friend,friend,1,1,1,material/137.png,,,,,,,,,,,,,,,,,0,26,26,36,,,,,,,,,,,,,,,2,1.22540593147,,,,,,,,,moral_self_bias,27,20,60.0665639375,f,001,2018_Apr_02_1926,
厚道,material/instr2_2.png,material/instr2_2.png,material/instr2_2.png,1,1,1,material/6.png,j,material/106.png,j,j,厚道,诚实,friend,friend,friend,1,1,1,material/106.png,,,,,,,,,,,,,,,,,0,27,27,5,,,,,,,,,,,,,,,4,1.10908389091,,,,,,,,,moral_self_bias,27,20,60.0665639375,f,001,2018_Apr_02_1926,
无能,material/instr2_2.png,material/instr2_2.png,material/instr2_2.png,2,2,2,material/57.png,j,material/157.png,j,j,无知,无知,friend,friend,friend,2,2,2,material/57.png,,,,,,,,,,,,,,,,,0,28,28,56,,,,,,,,,,,,,,,2,0.959537029266,,,,,,,,,moral_self_bias,27,20,60.0665639375,f,001,2018_Apr_02_1926,
仁厚,material/instr2_1.png,material/instr2_1.png,material/instr2_1.png,1,1,1,material/3.png,f,material/103.png,f,f,仁厚,仁慈,self,self,self,1,1,1,material/103.png,,,,,,,,,,,,,,,,,0,29,29,2,,,,,,,,,,,,,,,4,1.20789408684,,,,,,,,,moral_self_bias,27,20,60.0665639375,f,001,2018_Apr_02_1926,
笨蛋,material/instr2_2.png,material/instr2_2.png,material/instr2_2.png,2,2,2,material/48.png,j,material/148.png,j,j,愚蠢,愚蠢,friend,friend,friend,2,2,2,material/48.png,,,,,,,,,,,,,,,,,0,30,30,47,,,,,,,,,,,,,,,1,1.02566099167,,,,,,,,,moral_self_bias,27,20,60.0665639375,f,001,2018_Apr_02_1926,
爽约,material/instr2_2.png,material/instr2_2.png,material/instr2_2.png,2,2,2,material/44.png,j,material/144.png,j,j,爽约,失信,friend,friend,friend,1,1,1,material/144.png,,,,,,,,,,,,,,,,,0,31,31,43,,,,,,,,,,,,,,,5,1.8590221405,,,,,,,,,moral_self_bias,27,20,60.0665639375,f,001,2018_Apr_02_1926,
背叛,material/instr2_1.png,material/instr2_1.png,material/instr2_1.png,2,2,2,material/32.png,f,material/132.png,f,f,背叛,不忠,self,self,self,1,1,1,material/132.png,,,,,,,,,,,,,,,,,0,32,32,31,,,,,,,,,,,,,,,1,1.2084569931,,,,,,,,,moral_self_bias,27,20,60.0665639375,f,001,2018_Apr_02_1926,
友善,material/instr2_1.png,material/instr2_1.png,material/instr2_1.png,1,1,1,material/4.png,f,material/104.png,f,f,友善,友爱,self,self,self,1,1,1,material/104.png,,,,,,,,,,,,,,,,,0,33,33,3,,,,,,,,,,,,,,,2,1.4090950489,,,,,,,,,moral_self_bias,27,20,60.0665639375,f,001,2018_Apr_02_1926,
进取,material/instr2_1.png,material/instr2_1.png,material/instr2_1.png,1,1,1,material/30.png,f,material/130.png,f,f,上进,上进,self,self,self,2,2,2,material/30.png,,,,,,,,,,,,,,,,,0,34,34,29,,,,,,,,,,,,,,,4,1.65900301933,,,,,,,,,moral_self_bias,27,20,60.0665639375,f,001,2018_Apr_02_1926,
高效,material/instr2_1.png,material/instr2_1.png,material/instr2_1.png,1,1,1,material/169.png,f,material/171.png,f,f,颖悟,颖悟,self,self,self,2,2,2,material/169.png,,,,,,,,,,,,,,,,,0,35,35,70,,,,,,,,,,,,,,,4,1.19177079201,,,,,,,,,moral_self_bias,27,20,60.0665639375,f,001,2018_Apr_02_1926,
勇敢,material/instr2_2.png,material/instr2_2.png,material/instr2_2.png,1,1,1,material/165.png,j,material/161.png,j,j,平等,独立,friend,friend,friend,1,1,1,material/61.png,,,,,,,,,,,,,,,,,0,36,36,60,,,,,,,,,,,,,,,4,1.57540893555,,,,,,,,,moral_self_bias,27,20,60.0665639375,f,001,2018_Apr_02_1926,
差生,material/instr2_2.png,material/instr2_2.png,material/instr2_2.png,2,2,2,material/81.png,j,material/179.png,j,j,呆笨,无助,friend,friend,friend,2,2,2,material/83.png,,,,,,,,,,,,,,,,,0,37,37,78,,,,,,,,,,,,,,,2,1.25897097588,,,,,,,,,moral_self_bias,27,20,60.0665639375,f,001,2018_Apr_02_1926,
爱心,material/instr2_1.png,material/instr2_1.png,material/instr2_1.png,1,1,1,material/2.png,f,material/102.png,f,f,爱心,善心,self,self,self,1,1,1,material/102.png,,,,,,,,,,,,,,,,,0,38,38,1,,,,,,,,,,,,,,,2,1.10892081261,,,,,,,,,moral_self_bias,27,20,60.0665639375,f,001,2018_Apr_02_1926,
缓慢,material/instr2_1.png,material/instr2_1.png,material/instr2_1.png,2,2,2,material/52.png,f,material/152.png,f,f,拖延,拖延,self,self,self,2,2,2,material/52.png,,,,,,,,,,,,,,,,,0,39,39,51,,,,,,,,,,,,,,,2,1.00851106644,,,,,,,,,moral_self_bias,27,20,60.0665639375,f,001,2018_Apr_02_1926,
怠惰,material/instr2_2.png,material/instr2_2.png,material/instr2_2.png,2,2,2,material/181.png,j,material/180.png,j,j,怠惰,犹豫,friend,friend,friend,2,2,2,material/180.png,,,,,,,,,,,,,,,,,0,40,40,79,,,,,,,,,,,,,,,2,1.45945596695,,,,,,,,,moral_self_bias,27,20,60.0665639375,f,001,2018_Apr_02_1926,
忠贞,material/instr2_2.png,material/instr2_2.png,material/instr2_2.png,1,1,1,material/14.png,j,material/114.png,j,j,忠贞,爱国,friend,friend,friend,1,1,1,material/114.png,,,,,,,,,,,,,,,,,0,41,41,13,,,,,,,,,,,,,,,4,1.14251708984,,,,,,,,,moral_self_bias,27,20,60.0665639375,f,001,2018_Apr_02_1926,
机变,material/instr2_2.png,material/instr2_2.png,material/instr2_2.png,1,1,1,material/70.png,j,material/168.png,j,j,全面,全面,friend,friend,friend,2,2,2,material/70.png,,,,,,,,,,,,,,,,,0,42,42,67,,,,,,,,,,,,,,,4,1.07513594627,,,,,,,,,moral_self_bias,27,20,60.0665639375,f,001,2018_Apr_02_1926,
聪颖,material/instr2_2.png,material/instr2_2.png,material/instr2_2.png,1,1,1,material/17.png,j,material/117.png,j,j,聪明,聪明,friend,friend,friend,2,2,2,material/17.png,,,,,,,,,,,,,,,,,0,43,43,16,,,,,,,,,,,,,,,4,0.875017881393,,,,,,,,,moral_self_bias,27,20,60.0665639375,f,001,2018_Apr_02_1926,
冷血,material/instr2_1.png,material/instr2_1.png,material/instr2_1.png,2,2,2,material/35.png,f,material/135.png,f,f,冷血,冷漠,self,self,self,1,1,1,material/135.png,,,,,,,,,,,,,,,,,0,44,44,34,,,,,,,,,,,,,,,2,1.35499978065,,,,,,,,,moral_self_bias,27,20,60.0665639375,f,001,2018_Apr_02_1926,
高尚,material/instr2_1.png,material/instr2_1.png,material/instr2_1.png,1,1,1,material/11.png,f,material/111.png,f,f,高尚,高雅,self,self,self,1,1,1,material/111.png,,,,,,,,,,,,,,,,,0,45,45,10,,,,,,,,,,,,,,,4,1.15828299522,,,,,,,,,moral_self_bias,27,20,60.0665639375,f,001,2018_Apr_02_1926,
狠毒,material/instr2_2.png,material/instr2_2.png,material/instr2_2.png,2,2,2,material/40.png,j,material/140.png,j,j,狠毒,邪恶,friend,friend,friend,1,1,1,material/140.png,,,,,,,,,,,,,,,,,0,46,46,39,,,,,,,,,,,,,,,2,1.70922803879,,,,,,,,,moral_self_bias,27,20,60.0665639375,f,001,2018_Apr_02_1926,
自律,material/instr2_2.png,material/instr2_2.png,material/instr2_2.png,1,1,1,material/28.png,j,material/128.png,j,j,克己,克己,friend,friend,friend,2,2,2,material/28.png,,,,,,,,,,,,,,,,,0,47,47,27,,,,,,,,,,,,,,,2,1.75843000412,,,,,,,,,moral_self_bias,27,20,60.0665639375,f,001,2018_Apr_02_1926,
笃行,material/instr2_1.png,material/instr2_1.png,material/instr2_1.png,1,1,1,material/31.png,f,material/131.png,f,f,笃学,笃学,self,self,self,2,2,2,material/31.png,,,,,,,,,,,,,,,,,0,48,48,30,,,,,,,,,,,,,,,2,1.15917491913,,,,,,,,,moral_self_bias,27,20,60.0665639375,f,001,2018_Apr_02_1926,
颖悟,material/instr2_2.png,material/instr2_2.png,material/instr2_2.png,1,1,1,material/167.png,j,material/169.png,j,j,高手,高手,friend,friend,friend,2,2,2,material/167.png,,,,,,,,,,,,,,,,,0,49,49,68,,,,,,,,,,,,,,,4,0.991817951202,,,,,,,,,moral_self_bias,27,20,60.0665639375,f,001,2018_Apr_02_1926,
薄弱,material/instr2_1.png,material/instr2_1.png,material/instr2_1.png,2,2,2,material/82.png,f,material/183.png,f,f,毛糙,窝囊,self,self,self,2,2,2,material/178.png,,,,,,,,,,,,,,,,,0,50,50,82,,,,,,,,,,,,,,,2,1.20808005333,,,,,,,,,moral_self_bias,27,20,60.0665639375,f,001,2018_Apr_02_1926,
才尽,material/instr2_1.png,material/instr2_1.png,material/instr2_1.png,2,2,2,material/183.png,f,material/182.png,f,f,颓废,薄弱,self,self,self,2,2,2,material/79.png,,,,,,,,,,,,,,,,,0,51,51,81,,,,,,,,,,,,,,,2,1.15905380249,,,,,,,,,moral_self_bias,27,20,60.0665639375,f,001,2018_Apr_02_1926,
浮夸,material/instr2_2.png,material/instr2_2.png,material/instr2_2.png,2,2,2,material/77.png,j,material/172.png,j,j,浮夸,软弱,friend,friend,friend,1,1,1,material/172.png,,,,,,,,,,,,,,,,,0,52,52,71,,,,,,,,,,,,,,,2,1.85015702248,,,,,,,,,moral_self_bias,27,20,60.0665639375,f,001,2018_Apr_02_1926,
博学,material/instr2_1.png,material/instr2_1.png,material/instr2_1.png,1,1,1,material/22.png,f,material/122.png,f,f,才学,才学,self,self,self,2,2,2,material/22.png,,,,,,,,,,,,,,,,,0,53,53,21,,,,,,,,,,,,,,,2,1.43373394012,,,,,,,,,moral_self_bias,27,20,60.0665639375,f,001,2018_Apr_02_1926,
精干,material/instr2_1.png,material/instr2_1.png,material/instr2_1.png,1,1,1,material/21.png,f,material/121.png,f,f,干练,干练,self,self,self,2,2,2,material/21.png,,,,,,,,,,,,,,,,,0,54,54,20,,,,,,,,,,,,,,,2,0.992410898209,,,,,,,,,moral_self_bias,27,20,60.0665639375,f,001,2018_Apr_02_1926,
虚荣,material/instr2_1.png,material/instr2_1.png,material/instr2_1.png,2,2,2,material/43.png,f,material/143.png,f,f,虚荣,拜金,self,self,self,1,1,1,material/143.png,,,,,,,,,,,,,,,,,0,55,55,42,,,,,,,,,,,,,,,2,1.62604498863,,,,,,,,,moral_self_bias,27,20,60.0665639375,f,001,2018_Apr_02_1926,
愚钝,material/instr2_1.png,material/instr2_1.png,material/instr2_1.png,2,2,2,material/56.png,f,material/156.png,f,f,愚昧,愚昧,self,self,self,2,2,2,material/56.png,,,,,,,,,,,,,,,,,0,56,56,55,,,,,,,,,,,,,,,2,1.27531790733,,,,,,,,,moral_self_bias,27,20,60.0665639375,f,001,2018_Apr_02_1926,
机灵,material/instr2_2.png,material/instr2_2.png,material/instr2_2.png,1,1,1,material/19.png,j,material/119.png,j,j,灵活,灵活,friend,friend,friend,2,2,2,material/19.png,,,,,,,,,,,,,,,,,0,57,57,18,,,,,,,,,,,,,,,4,1.44202518463,,,,,,,,,moral_self_bias,27,20,60.0665639375,f,001,2018_Apr_02_1926,
放纵,material/instr2_1.png,material/instr2_1.png,material/instr2_1.png,2,2,2,material/76.png,f,material/176.png,f,f,放纵,虚伪,self,self,self,1,1,1,material/176.png,,,,,,,,,,,,,,,,,0,58,58,75,,,,,,,,,,,,,,,2,1.52639508247,,,,,,,,,moral_self_bias,27,20,60.0665639375,f,001,2018_Apr_02_1926,
恶毒,material/instr2_2.png,material/instr2_2.png,material/instr2_2.png,2,2,2,material/39.png,j,material/139.png,j,j,恶毒,凶残,friend,friend,friend,1,1,1,material/139.png,,,,,,,,,,,,,,,,,0,59,59,38,,,,,,,,,,,,,,,2,1.1595351696,,,,,,,,,moral_self_bias,27,20,60.0665639375,f,001,2018_Apr_02_1926,
盲目,material/instr2_1.png,material/instr2_1.png,material/instr2_1.png,2,2,2,material/55.png,f,material/155.png,f,f,盲从,盲从,self,self,self,2,2,2,material/55.png,,,,,,,,,,,,,,,,,0,60,60,54,,,,,,,,,,,,,,,3,1.6755092144,,,,,,,,,moral_self_bias,27,20,60.0665639375,f,001,2018_Apr_02_1926,
贪污,material/instr2_1.png,material/instr2_1.png,material/instr2_1.png,2,2,2,material/33.png,f,material/133.png,f,f,贪污,腐败,self,self,self,1,1,1,material/133.png,,,,,,,,,,,,,,,,,0,61,61,32,,,,,,,,,,,,,,,2,1.0902299881,,,,,,,,,moral_self_bias,27,20,60.0665639375,f,001,2018_Apr_02_1926,
廉明,material/instr2_2.png,material/instr2_2.png,material/instr2_2.png,1,1,1,material/13.png,j,material/113.png,j,j,廉明,廉洁,friend,friend,friend,1,1,1,material/113.png,,,,,,,,,,,,,,,,,0,62,62,12,,,,,,,,,,,,,,,2,0.708765983582,,,,,,,,,moral_self_bias,27,20,60.0665639375,f,001,2018_Apr_02_1926,
迷糊,material/instr2_2.png,material/instr2_2.png,material/instr2_2.png,2,2,2,material/51.png,j,material/151.png,j,j,糊涂,糊涂,friend,friend,friend,2,2,2,material/51.png,,,,,,,,,,,,,,,,,0,63,63,50,,,,,,,,,,,,,,,3,1.30894994736,,,,,,,,,moral_self_bias,27,20,60.0665639375,f,001,2018_Apr_02_1926,
孝顺,material/instr2_1.png,material/instr2_1.png,material/instr2_1.png,1,1,1,material/161.png,f,material/164.png,f,f,奉献,勇敢,self,self,self,1,1,1,material/64.png,,,,,,,,,,,,,,,,,0,64,64,63,,,,,,,,,,,,,,,3,1.17516207695,,,,,,,,,moral_self_bias,27,20,60.0665639375,f,001,2018_Apr_02_1926,
勤快,material/instr2_2.png,material/instr2_2.png,material/instr2_2.png,1,1,1,material/26.png,j,material/126.png,j,j,刻苦,刻苦,friend,friend,friend,2,2,2,material/26.png,,,,,,,,,,,,,,,,,0,65,65,25,,,,,,,,,,,,,,,4,1.32589101791,,,,,,,,,moral_self_bias,27,20,60.0665639375,f,001,2018_Apr_02_1926,
无情,material/instr2_1.png,material/instr2_1.png,material/instr2_1.png,2,2,2,material/172.png,f,material/175.png,f,f,无情,浮夸,self,self,self,1,1,1,material/175.png,,,,,,,,,,,,,,,,,0,66,66,74,,,,,,,,,,,,,,,2,1.30930113792,,,,,,,,,moral_self_bias,27,20,60.0665639375,f,001,2018_Apr_02_1926,
公平,material/instr2_2.png,material/instr2_2.png,material/instr2_2.png,1,1,1,material/7.png,j,material/107.png,j,j,公平,公正,friend,friend,friend,1,1,1,material/107.png,,,,,,,,,,,,,,,,,0,67,67,6,,,,,,,,,,,,,,,2,1.14129400253,,,,,,,,,moral_self_bias,27,20,60.0665639375,f,001,2018_Apr_02_1926,
坚忍,material/instr2_1.png,material/instr2_1.png,material/instr2_1.png,1,1,1,material/168.png,f,material/170.png,f,f,机变,机变,self,self,self,2,2,2,material/168.png,,,,,,,,,,,,,,,,,0,68,68,69,,,,,,,,,,,,,,,2,1.09241700172,,,,,,,,,moral_self_bias,27,20,60.0665639375,f,001,2018_Apr_02_1926,
自私,material/instr2_2.png,material/instr2_2.png,material/instr2_2.png,2,2,2,material/46.png,j,material/146.png,j,j,自私,小气,friend,friend,friend,1,1,1,material/146.png,,,,,,,,,,,,,,,,,0,69,69,45,,,,,,,,,,,,,,,2,1.40897393227,,,,,,,,,moral_self_bias,27,20,60.0665639375,f,001,2018_Apr_02_1926,
诚信,material/instr2_1.png,material/instr2_1.png,material/instr2_1.png,1,1,1,material/5.png,f,material/105.png,f,f,诚信,守信,self,self,self,1,1,1,material/105.png,,,,,,,,,,,,,,,,,0,70,70,4,,,,,,,,,,,,,,,3,1.09228014946,,,,,,,,,moral_self_bias,27,20,60.0665639375,f,001,2018_Apr_02_1926,
果敢,material/instr2_1.png,material/instr2_1.png,material/instr2_1.png,1,1,1,material/25.png,f,material/125.png,f,f,果断,果断,self,self,self,2,2,2,material/25.png,,,,,,,,,,,,,,,,,0,71,71,24,,,,,,,,,,,,,,,3,1.15982508659,,,,,,,,,moral_self_bias,27,20,60.0665639375,f,001,2018_Apr_02_1926,
撒谎,material/instr2_1.png,material/instr2_1.png,material/instr2_1.png,2,2,2,material/36.png,f,material/136.png,f,f,撒谎,说谎,self,self,self,1,1,1,material/136.png,,,,,,,,,,,,,,,,,0,72,72,35,,,,,,,,,,,,,,,2,1.0430700779,,,,,,,,,moral_self_bias,27,20,60.0665639375,f,001,2018_Apr_02_1926,
迟钝,material/instr2_1.png,material/instr2_1.png,material/instr2_1.png,2,2,2,material/53.png,f,material/153.png,f,f,迟缓,迟缓,self,self,self,2,2,2,material/53.png,,,,,,,,,,,,,,,,,0,73,73,52,,,,,,,,,,,,,,,3,1.52574896812,,,,,,,,,moral_self_bias,27,20,60.0665639375,f,001,2018_Apr_02_1926,
厌学,material/instr2_2.png,material/instr2_2.png,material/instr2_2.png,2,2,2,material/182.png,j,material/184.png,j,j,健忘,才尽,friend,friend,friend,2,2,2,material/80.png,,,,,,,,,,,,,,,,,0,74,74,83,,,,,,,,,,,,,,,2,1.7755010128,,,,,,,,,moral_self_bias,27,20,60.0665639375,f,001,2018_Apr_02_1926,
笨拙,material/instr2_1.png,material/instr2_1.png,material/instr2_1.png,2,2,2,material/60.png,f,material/160.png,f,f,粗拙,粗拙,self,self,self,2,2,2,material/60.png,,,,,,,,,,,,,,,,,0,75,75,59,,,,,,,,,,,,,,,2,1.02461194992,,,,,,,,,moral_self_bias,27,20,60.0665639375,f,001,2018_Apr_02_1926,
高明,material/instr2_1.png,material/instr2_1.png,material/instr2_1.png,1,1,1,material/69.png,f,material/69.png,f,f,高明,高明,self,self,self,2,2,2,material/69.png,,,,,,,,,,,,,,,,,0,76,76,86,,,,,,,,,,,,,,,2,1.50860404968,,,,,,,,,moral_self_bias,27,20,60.0665639375,f,001,2018_Apr_02_1926,
残忍,material/instr2_2.png,material/instr2_2.png,material/instr2_2.png,2,2,2,material/41.png,j,material/141.png,j,j,残忍,歹毒,friend,friend,friend,1,1,1,material/141.png,,,,,,,,,,,,,,,,,0,77,77,40,,,,,,,,,,,,,,,2,0.876253128052,,,,,,,,,moral_self_bias,27,20,60.0665639375,f,001,2018_Apr_02_1926,
高手,material/instr2_2.png,material/instr2_2.png,material/instr2_2.png,1,1,1,material/68.png,j,material/167.png,j,j,广博,广博,friend,friend,friend,2,2,2,material/68.png,,,,,,,,,,,,,,,,,0,78,78,66,,,,,,,,,,,,,,,4,1.02601099014,,,,,,,,,moral_self_bias,27,20,60.0665639375,f,001,2018_Apr_02_1926,
超群,material/instr2_2.png,material/instr2_2.png,material/instr2_2.png,1,1,1,material/27.png,j,material/127.png,j,j,卓越,卓越,friend,friend,friend,2,2,2,material/27.png,,,,,,,,,,,,,,,,,0,79,79,26,,,,,,,,,,,,,,,4,1.17325782776,,,,,,,,,moral_self_bias,27,20,60.0665639375,f,001,2018_Apr_02_1926,
纯洁,material/instr2_2.png,material/instr2_2.png,material/instr2_2.png,1,1,1,material/15.png,j,material/115.png,j,j,纯洁,清白,friend,friend,friend,1,1,1,material/115.png,,,,,,,,,,,,,,,,,0,80,80,14,,,,,,,,,,,,,,,4,1.64176297188,,,,,,,,,moral_self_bias,27,20,60.0665639375,f,001,2018_Apr_02_1926,
正义,material/instr2_1.png,material/instr2_1.png,material/instr2_1.png,1,1,1,material/66.png,f,material/66.png,f,f,独立,正义,self,self,self,1,1,1,material/165.png,,,,,,,,,,,,,,,,,0,81,81,84,,,,,,,,,,,,,,,5,1.31662392616,,,,,,,,,moral_self_bias,27,20,60.0665639375,f,001,2018_Apr_02_1926,
独立,material/instr2_1.png,material/instr2_1.png,material/instr2_1.png,1,1,1,material/64.png,f,material/165.png,f,f,谦虚,奉献,self,self,self,1,1,1,material/65.png,,,,,,,,,,,,,,,,,0,82,82,64,,,,,,,,,,,,,,,5,1.19221997261,,,,,,,,,moral_self_bias,27,20,60.0665639375,f,001,2018_Apr_02_1926,
小人,material/instr2_2.png,material/instr2_2.png,material/instr2_2.png,2,2,2,material/45.png,j,material/145.png,j,j,小人,下流,friend,friend,friend,1,1,1,material/145.png,,,,,,,,,,,,,,,,,0,83,83,44,,,,,,,,,,,,,,,2,1.04259085655,,,,,,,,,moral_self_bias,27,20,60.0665639375,f,001,2018_Apr_02_1926,
好问,material/instr2_1.png,material/instr2_1.png,material/instr2_1.png,1,1,1,material/29.png,f,material/129.png,f,f,好学,好学,self,self,self,2,2,2,material/29.png,,,,,,,,,,,,,,,,,0,84,84,28,,,,,,,,,,,,,,,2,1.39232611656,,,,,,,,,moral_self_bias,27,20,60.0665639375,f,001,2018_Apr_02_1926,
弱智,material/instr2_1.png,material/instr2_1.png,material/instr2_1.png,2,2,2,material/59.png,f,material/159.png,f,f,智障,智障,self,self,self,2,2,2,material/59.png,,,,,,,,,,,,,,,,,0,85,85,58,,,,,,,,,,,,,,,2,1.30958199501,,,,,,,,,moral_self_bias,27,20,60.0665639375,f,001,2018_Apr_02_1926,
黑心,material/instr2_2.png,material/instr2_2.png,material/instr2_2.png,2,2,2,material/74.png,j,material/173.png,j,j,黑心,卑劣,friend,friend,friend,1,1,1,material/173.png,,,,,,,,,,,,,,,,,0,86,86,72,,,,,,,,,,,,,,,2,1.14282798767,,,,,,,,,moral_self_bias,27,20,60.0665639375,f,001,2018_Apr_02_1926,
冷静,material/instr2_1.png,material/instr2_1.png,material/instr2_1.png,1,1,1,material/24.png,f,material/124.png,f,f,理智,理智,self,self,self,2,2,2,material/24.png,,,,,,,,,,,,,,,,,0,87,87,23,,,,,,,,,,,,,,,3,1.39272904396,,,,,,,,,moral_self_bias,27,20,60.0665639375,f,001,2018_Apr_02_1926,
,,,,,,,,,,,,,,,,,,,,,9-3= ?,,,,,,,,,,,,,,,,,,,,0,0,0,15,,,,,,,,,,,,,,,,,,,,,moral_self_bias,27,20,60.0665639375,f,001,2018_Apr_02_1926,
,,,,,,,,,,,,,,,,,,,,,16-11=？,,,,,,,,,,,,,,,,,,,,0,1,1,62,,,,,,,,,,,,,,,,,,,,,moral_self_bias,27,20,60.0665639375,f,001,2018_Apr_02_1926,
,,,,,,,,,,,,,,,,,,,,,11-8= ?,,,,,,,,,,,,,,,,,,,,0,2,2,106,,,,,,,,,,,,,,,,,,,,,moral_self_bias,27,20,60.0665639375,f,001,2018_Apr_02_1926,
,,,,,,,,,,,,,,,,,,,,,11-3=？,,,,,,,,,,,,,,,,,,,,0,3,3,68,,,,,,,,,,,,,,,,,,,,,moral_self_bias,27,20,60.0665639375,f,001,2018_Apr_02_1926,
,,,,,,,,,,,,,,,,,,,,,11-5= ?,,,,,,,,,,,,,,,,,,,,0,4,4,107,,,,,,,,,,,,,,,,,,,,,moral_self_bias,27,20,60.0665639375,f,001,2018_Apr_02_1926,
,,,,,,,,,,,,,,,,,,,,,32-23=？,,,,,,,,,,,,,,,,,,,,0,5,5,60,,,,,,,,,,,,,,,,,,,,,moral_self_bias,27,20,60.0665639375,f,001,2018_Apr_02_1926,
,,,,,,,,,,,,,,,,,,,,,8-1= ?,,,,,,,,,,,,,,,,,,,,0,6,6,33,,,,,,,,,,,,,,,,,,,,,moral_self_bias,27,20,60.0665639375,f,001,2018_Apr_02_1926,
,,,,,,,,,,,,,,,,,,,,,2+5= ?,,,,,,,,,,,,,,,,,,,,0,7,7,11,,,,,,,,,,,,,,,,,,,,,moral_self_bias,27,20,60.0665639375,f,001,2018_Apr_02_1926,
,,,,,,,,,,,,,,,,,,,,,9/3= ?,,,,,,,,,,,,,,,,,,,,0,8,8,56,,,,,,,,,,,,,,,,,,,,,moral_self_bias,27,20,60.0665639375,f,001,2018_Apr_02_1926,
,,,,,,,,,,,,,,,,,,,,,1+7= ?,,,,,,,,,,,,,,,,,,,,0,9,9,4,,,,,,,,,,,,,,,,,,,,,moral_self_bias,27,20,60.0665639375,f,001,2018_Apr_02_1926,
,,,,,,,,,,,,,,,,,,,,,6/2= ?,,,,,,,,,,,,,,,,,,,,0,10,10,58,,,,,,,,,,,,,,,,,,,,,moral_self_bias,27,20,60.0665639375,f,001,2018_Apr_02_1926,
,,,,,,,,,,,,,,,,,,,,,6^0= ?,,,,,,,,,,,,,,,,,,,,0,11,11,114,,,,,,,,,,,,,,,,,,,,,moral_self_bias,27,20,60.0665639375,f,001,2018_Apr_02_1926,
,,,,,,,,,,,,,,,,,,,,,9-9= ?,,,,,,,,,,,,,,,,,,,,0,12,12,32,,,,,,,,,,,,,,,,,,,,,moral_self_bias,27,20,60.0665639375,f,001,2018_Apr_02_1926,
,,,,,,,,,,,,,,,,,,,,,8/4= ?,,,,,,,,,,,,,,,,,,,,0,13,13,57,,,,,,,,,,,,,,,,,,,,,moral_self_bias,27,20,60.0665639375,f,001,2018_Apr_02_1926,
,,,,,,,,,,,,,,,,,,,,,5*0= ?,,,,,,,,,,,,,,,,,,,,0,14,14,86,,,,,,,,,,,,,,,,,,,,,moral_self_bias,27,20,60.0665639375,f,001,2018_Apr_02_1926,
,,,,,,,,,,,,,,,,,,,,,1+1= ?,,,,,,,,,,,,,,,,,,,,0,15,15,0,,,,,,,,,,,,,,,,,,,,,moral_self_bias,27,20,60.0665639375,f,001,2018_Apr_02_1926,
,,,,,,,,,,,,,,,,,,,,,7*0= ?,,,,,,,,,,,,,,,,,,,,0,16,16,88,,,,,,,,,,,,,,,,,,,,,moral_self_bias,27,20,60.0665639375,f,001,2018_Apr_02_1926,
,,,,,,,,,,,,,,,,,,,,,1+8= ?,,,,,,,,,,,,,,,,,,,,0,17,17,6,,,,,,,,,,,,,,,,,,,,,moral_self_bias,27,20,60.0665639375,f,001,2018_Apr_02_1926,
,,,,,,,,,,,,,,,,,,,,,6+2= ?,,,,,,,,,,,,,,,,,,,,0,18,18,44,,,,,,,,,,,,,,,,,,,,,moral_self_bias,27,20,60.0665639375,f,001,2018_Apr_02_1926,
,,,,,,,,,,,,,,,,,,,,,9-6= ?,,,,,,,,,,,,,,,,,,,,0,19,19,24,,,,,,,,,,,,,,,,,,,,,moral_self_bias,27,20,60.0665639375,f,001,2018_Apr_02_1926,
,,,,,,,,,,,,,,,,,,,,,13-5= ?,,,,,,,,,,,,,,,,,,,,0,20,20,98,,,,,,,,,,,,,,,,,,,,,moral_self_bias,27,20,60.0665639375,f,001,2018_Apr_02_1926,
,,,,,,,,,,,,,,,,,,,,,8+1= ?,,,,,,,,,,,,,,,,,,,,0,21,21,48,,,,,,,,,,,,,,,,,,,,,moral_self_bias,27,20,60.0665639375,f,001,2018_Apr_02_1926,
,,,,,,,,,,,,,,,,,,,,,2+2= ?,,,,,,,,,,,,,,,,,,,,0,22,22,8,,,,,,,,,,,,,,,,,,,,,moral_self_bias,27,20,60.0665639375,f,001,2018_Apr_02_1926,
,,,,,,,,,,,,,,,,,,,,,9-2= ?,,,,,,,,,,,,,,,,,,,,0,23,23,14,,,,,,,,,,,,,,,,,,,,,moral_self_bias,27,20,60.0665639375,f,001,2018_Apr_02_1926,
,,,,,,,,,,,,,,,,,,,,,9-5= ?,,,,,,,,,,,,,,,,,,,,0,24,24,23,,,,,,,,,,,,,,,,,,,,,moral_self_bias,27,20,60.0665639375,f,001,2018_Apr_02_1926,
,,,,,,,,,,,,,,,,,,,,,1-1= ?,,,,,,,,,,,,,,,,,,,,0,25,25,52,,,,,,,,,,,,,,,,,,,,,moral_self_bias,27,20,60.0665639375,f,001,2018_Apr_02_1926,
,,,,,,,,,,,,,,,,,,,,,6+1= ?,,,,,,,,,,,,,,,,,,,,0,26,26,43,,,,,,,,,,,,,,,,,,,,,moral_self_bias,27,20,60.0665639375,f,001,2018_Apr_02_1926,
,,,,,,,,,,,,,,,,,,,,,9+0= ?,,,,,,,,,,,,,,,,,,,,0,27,27,118,,,,,,,,,,,,,,,,,,,,,moral_self_bias,27,20,60.0665639375,f,001,2018_Apr_02_1926,
,,,,,,,,,,,,,,,,,,,,,4+1= ?,,,,,,,,,,,,,,,,,,,,0,28,28,25,,,,,,,,,,,,,,,,,,,,,moral_self_bias,27,20,60.0665639375,f,001,2018_Apr_02_1926,
,,,,,,,,,,,,,,,,,,,,,3+4= ?,,,,,,,,,,,,,,,,,,,,0,29,29,19,,,,,,,,,,,,,,,,,,,,,moral_self_bias,27,20,60.0665639375,f,001,2018_Apr_02_1926,
,,,,,,,,,,,,,,,,,,,,,21/7= ?,,,,,,,,,,,,,,,,,,,,0,30,30,70,,,,,,,,,,,,,,,,,,,,,moral_self_bias,27,20,60.0665639375,f,001,2018_Apr_02_1926,
,,,,,,,,,,,,,,,,,,,,,3^2= ?,,,,,,,,,,,,,,,,,,,,0,31,31,50,,,,,,,,,,,,,,,,,,,,,moral_self_bias,27,20,60.0665639375,f,001,2018_Apr_02_1926,
,,,,,,,,,,,,,,,,,,,,,14-9=？,,,,,,,,,,,,,,,,,,,,0,32,32,63,,,,,,,,,,,,,,,,,,,,,moral_self_bias,27,20,60.0665639375,f,001,2018_Apr_02_1926,
,,,,,,,,,,,,,,,,,,,,,5+4= ?,,,,,,,,,,,,,,,,,,,,0,33,33,37,,,,,,,,,,,,,,,,,,,,,moral_self_bias,27,20,60.0665639375,f,001,2018_Apr_02_1926,
,,,,,,,,,,,,,,,,,,,,,12-12= ?,,,,,,,,,,,,,,,,,,,,0,34,34,99,,,,,,,,,,,,,,,,,,,,,moral_self_bias,27,20,60.0665639375,f,001,2018_Apr_02_1926,
,,,,,,,,,,,,,,,,,,,,,3^1= ?,,,,,,,,,,,,,,,,,,,,0,35,35,101,,,,,,,,,,,,,,,,,,,,,moral_self_bias,27,20,60.0665639375,f,001,2018_Apr_02_1926,
,,,,,,,,,,,,,,,,,,,,,4^1= ?,,,,,,,,,,,,,,,,,,,,0,36,36,102,,,,,,,,,,,,,,,,,,,,,moral_self_bias,27,20,60.0665639375,f,001,2018_Apr_02_1926,
,,,,,,,,,,,,,,,,,,,,,5/1= ?,,,,,,,,,,,,,,,,,,,,0,37,37,59,,,,,,,,,,,,,,,,,,,,,moral_self_bias,27,20,60.0665639375,f,001,2018_Apr_02_1926,
,,,,,,,,,,,,,,,,,,,,,2^2= ?,,,,,,,,,,,,,,,,,,,,0,38,38,49,,,,,,,,,,,,,,,,,,,,,moral_self_bias,27,20,60.0665639375,f,001,2018_Apr_02_1926,
,,,,,,,,,,,,,,,,,,,,,3+5= ?,,,,,,,,,,,,,,,,,,,,0,39,39,20,,,,,,,,,,,,,,,,,,,,,moral_self_bias,27,20,60.0665639375,f,001,2018_Apr_02_1926,
,,,,,,,,,,,,,,,,,,,,,2+6= ?,,,,,,,,,,,,,,,,,,,,0,40,40,12,,,,,,,,,,,,,,,,,,,,,moral_self_bias,27,20,60.0665639375,f,001,2018_Apr_02_1926,
,,,,,,,,,,,,,,,,,,,,,15-10=？,,,,,,,,,,,,,,,,,,,,0,41,41,61,,,,,,,,,,,,,,,,,,,,,moral_self_bias,27,20,60.0665639375,f,001,2018_Apr_02_1926,
,,,,,,,,,,,,,,,,,,,,,12-5=？,,,,,,,,,,,,,,,,,,,,0,42,42,65,,,,,,,,,,,,,,,,,,,,,moral_self_bias,27,20,60.0665639375,f,001,2018_Apr_02_1926,
,,,,,,,,,,,,,,,,,,,,,8-6= ?,,,,,,,,,,,,,,,,,,,,0,43,43,42,,,,,,,,,,,,,,,,,,,,,moral_self_bias,27,20,60.0665639375,f,001,2018_Apr_02_1926,
,,,,,,,,,,,,,,,,,,,,,20/5=？,,,,,,,,,,,,,,,,,,,,0,44,44,69,,,,,,,,,,,,,,,,,,,,,moral_self_bias,27,20,60.0665639375,f,001,2018_Apr_02_1926,
,,,,,,,,,,,,,,,,,,,,,6*0= ?,,,,,,,,,,,,,,,,,,,,0,45,45,87,,,,,,,,,,,,,,,,,,,,,moral_self_bias,27,20,60.0665639375,f,001,2018_Apr_02_1926,
,,,,,,,,,,,,,,,,,,,,,1*8= ?,,,,,,,,,,,,,,,,,,,,0,46,46,110,,,,,,,,,,,,,,,,,,,,,moral_self_bias,27,20,60.0665639375,f,001,2018_Apr_02_1926,
,,,,,,,,,,,,,,,,,,,,,19-17= ?,,,,,,,,,,,,,,,,,,,,0,47,47,100,,,,,,,,,,,,,,,,,,,,,moral_self_bias,27,20,60.0665639375,f,001,2018_Apr_02_1926,
,,,,,,,,,,,,,,,,,,,,,5+3= ?,,,,,,,,,,,,,,,,,,,,0,48,48,36,,,,,,,,,,,,,,,,,,,,,moral_self_bias,27,20,60.0665639375,f,001,2018_Apr_02_1926,
,,,,,,,,,,,,,,,,,,,,,4+5= ?,,,,,,,,,,,,,,,,,,,,0,49,49,29,,,,,,,,,,,,,,,,,,,,,moral_self_bias,27,20,60.0665639375,f,001,2018_Apr_02_1926,
,,,,,,,,,,,,,,,,,,,,,12/12= ?,,,,,,,,,,,,,,,,,,,,0,50,50,91,,,,,,,,,,,,,,,,,,,,,moral_self_bias,27,20,60.0665639375,f,001,2018_Apr_02_1926,
,,,,,,,,,,,,,,,,,,,,,9-7= ?,,,,,,,,,,,,,,,,,,,,0,51,51,30,,,,,,,,,,,,,,,,,,,,,moral_self_bias,27,20,60.0665639375,f,001,2018_Apr_02_1926,
,,,,,,,,,,,,,,,,,,,,,90/45= ?,,,,,,,,,,,,,,,,,,,,0,52,52,74,,,,,,,,,,,,,,,,,,,,,moral_self_bias,27,20,60.0665639375,f,001,2018_Apr_02_1926,
,,,,,,,,,,,,,,,,,,,,,18/2= ?,,,,,,,,,,,,,,,,,,,,0,53,53,97,,,,,,,,,,,,,,,,,,,,,moral_self_bias,27,20,60.0665639375,f,001,2018_Apr_02_1926,
,,,,,,,,,,,,,,,,,,,,,1+6= ?,,,,,,,,,,,,,,,,,,,,0,54,54,5,,,,,,,,,,,,,,,,,,,,,moral_self_bias,27,20,60.0665639375,f,001,2018_Apr_02_1926,
,,,,,,,,,,,,,,,,,,,,,49/7 = ?,,,,,,,,,,,,,,,,,,,,0,55,55,78,,,,,,,,,,,,,,,,,,,,,moral_self_bias,27,20,60.0665639375,f,001,2018_Apr_02_1926,
,,,,,,,,,,,,,,,,,,,,,18/9= ?,,,,,,,,,,,,,,,,,,,,0,56,56,96,,,,,,,,,,,,,,,,,,,,,moral_self_bias,27,20,60.0665639375,f,001,2018_Apr_02_1926,
,,,,,,,,,,,,,,,,,,,,,5+2= ?,,,,,,,,,,,,,,,,,,,,0,57,57,35,,,,,,,,,,,,,,,,,,,,,moral_self_bias,27,20,60.0665639375,f,001,2018_Apr_02_1926,
,,,,,,,,,,,,,,,,,,,,,8-4= ?,,,,,,,,,,,,,,,,,,,,0,58,58,40,,,,,,,,,,,,,,,,,,,,,moral_self_bias,27,20,60.0665639375,f,001,2018_Apr_02_1926,
,,,,,,,,,,,,,,,,,,,,,72/9= ?,,,,,,,,,,,,,,,,,,,,0,59,59,76,,,,,,,,,,,,,,,,,,,,,moral_self_bias,27,20,60.0665639375,f,001,2018_Apr_02_1926,
,,,,,,,,,,,,,,,,,,,,,23^0= ?,,,,,,,,,,,,,,,,,,,,0,60,60,94,,,,,,,,,,,,,,,,,,,,,moral_self_bias,27,20,60.0665639375,f,001,2018_Apr_02_1926,
,,,,,,,,,,,,,,,,,,,,,7+1= ?,,,,,,,,,,,,,,,,,,,,0,61,61,46,,,,,,,,,,,,,,,,,,,,,moral_self_bias,27,20,60.0665639375,f,001,2018_Apr_02_1926,
,,,,,,,,,,,,,,,,,,,,,8-2= ?,,,,,,,,,,,,,,,,,,,,0,62,62,38,,,,,,,,,,,,,,,,,,,,,moral_self_bias,27,20,60.0665639375,f,001,2018_Apr_02_1926,
,,,,,,,,,,,,,,,,,,,,,29-27= ?,,,,,,,,,,,,,,,,,,,,0,63,63,72,,,,,,,,,,,,,,,,,,,,,moral_self_bias,27,20,60.0665639375,f,001,2018_Apr_02_1926,
,,,,,,,,,,,,,,,,,,,,,3+2= ?,,,,,,,,,,,,,,,,,,,,0,64,64,17,,,,,,,,,,,,,,,,,,,,,moral_self_bias,27,20,60.0665639375,f,001,2018_Apr_02_1926,
,,,,,,,,,,,,,,,,,,,,,12/4= ?,,,,,,,,,,,,,,,,,,,,0,65,65,89,,,,,,,,,,,,,,,,,,,,,moral_self_bias,27,20,60.0665639375,f,001,2018_Apr_02_1926,
,,,,,,,,,,,,,,,,,,,,,22-22= ?,,,,,,,,,,,,,,,,,,,,0,66,66,93,,,,,,,,,,,,,,,,,,,,,moral_self_bias,27,20,60.0665639375,f,001,2018_Apr_02_1926,
,,,,,,,,,,,,,,,,,,,,,3+6= ?,,,,,,,,,,,,,,,,,,,,0,67,67,21,,,,,,,,,,,,,,,,,,,,,moral_self_bias,27,20,60.0665639375,f,001,2018_Apr_02_1926,
,,,,,,,,,,,,,,,,,,,,,12-7= ?,,,,,,,,,,,,,,,,,,,,0,68,68,115,,,,,,,,,,,,,,,,,,,,,moral_self_bias,27,20,60.0665639375,f,001,2018_Apr_02_1926,
,,,,,,,,,,,,,,,,,,,,,8-3= ?,,,,,,,,,,,,,,,,,,,,0,69,69,39,,,,,,,,,,,,,,,,,,,,,moral_self_bias,27,20,60.0665639375,f,001,2018_Apr_02_1926,
,,,,,,,,,,,,,,,,,,,,,1*9= ?,,,,,,,,,,,,,,,,,,,,0,70,70,109,,,,,,,,,,,,,,,,,,,,,moral_self_bias,27,20,60.0665639375,f,001,2018_Apr_02_1926,
,,,,,,,,,,,,,,,,,,,,,6+3= ?,,,,,,,,,,,,,,,,,,,,0,71,71,45,,,,,,,,,,,,,,,,,,,,,moral_self_bias,27,20,60.0665639375,f,001,2018_Apr_02_1926,
,,,,,,,,,,,,,,,,,,,,,13-9= ?,,,,,,,,,,,,,,,,,,,,0,72,72,92,,,,,,,,,,,,,,,,,,,,,moral_self_bias,27,20,60.0665639375,f,001,2018_Apr_02_1926,
,,,,,,,,,,,,,,,,,,,,,5-3= ?,,,,,,,,,,,,,,,,,,,,0,73,73,116,,,,,,,,,,,,,,,,,,,,,moral_self_bias,27,20,60.0665639375,f,001,2018_Apr_02_1926,
,,,,,,,,,,,,,,,,,,,,,81/9= ?,,,,,,,,,,,,,,,,,,,,0,74,74,75,,,,,,,,,,,,,,,,,,,,,moral_self_bias,27,20,60.0665639375,f,001,2018_Apr_02_1926,
,,,,,,,,,,,,,,,,,,,,,4/4= ?,,,,,,,,,,,,,,,,,,,,0,75,75,55,,,,,,,,,,,,,,,,,,,,,moral_self_bias,27,20,60.0665639375,f,001,2018_Apr_02_1926,
,,,,,,,,,,,,,,,,,,,,,2+4= ?,,,,,,,,,,,,,,,,,,,,0,76,76,10,,,,,,,,,,,,,,,,,,,,,moral_self_bias,27,20,60.0665639375,f,001,2018_Apr_02_1926,
,,,,,,,,,,,,,,,,,,,,,4*1= ?,,,,,,,,,,,,,,,,,,,,0,77,77,85,,,,,,,,,,,,,,,,,,,,,moral_self_bias,27,20,60.0665639375,f,001,2018_Apr_02_1926,
,,,,,,,,,,,,,,,,,,,,,11-11= ?,,,,,,,,,,,,,,,,,,,,0,78,78,119,,,,,,,,,,,,,,,,,,,,,moral_self_bias,27,20,60.0665639375,f,001,2018_Apr_02_1926,
,,,,,,,,,,,,,,,,,,,,,22/11= ?,,,,,,,,,,,,,,,,,,,,0,79,79,71,,,,,,,,,,,,,,,,,,,,,moral_self_bias,27,20,60.0665639375,f,001,2018_Apr_02_1926,
,,,,,,,,,,,,,,,,,,,,,8-5= ?,,,,,,,,,,,,,,,,,,,,0,80,80,41,,,,,,,,,,,,,,,,,,,,,moral_self_bias,27,20,60.0665639375,f,001,2018_Apr_02_1926,
,,,,,,,,,,,,,,,,,,,,,3+1= ?,,,,,,,,,,,,,,,,,,,,0,81,81,16,,,,,,,,,,,,,,,,,,,,,moral_self_bias,27,20,60.0665639375,f,001,2018_Apr_02_1926,
,,,,,,,,,,,,,,,,,,,,,3*1= ?,,,,,,,,,,,,,,,,,,,,0,82,82,83,,,,,,,,,,,,,,,,,,,,,moral_self_bias,27,20,60.0665639375,f,001,2018_Apr_02_1926,
,,,,,,,,,,,,,,,,,,,,,4+3= ?,,,,,,,,,,,,,,,,,,,,0,83,83,27,,,,,,,,,,,,,,,,,,,,,moral_self_bias,27,20,60.0665639375,f,001,2018_Apr_02_1926,
,,,,,,,,,,,,,,,,,,,,,9-1=?,,,,,,,,,,,,,,,,,,,,0,84,84,2,,,,,,,,,,,,,,,,,,,,,moral_self_bias,27,20,60.0665639375,f,001,2018_Apr_02_1926,
,,,,,,,,,,,,,,,,,,,,,4+2= ?,,,,,,,,,,,,,,,,,,,,0,85,85,26,,,,,,,,,,,,,,,,,,,,,moral_self_bias,27,20,60.0665639375,f,001,2018_Apr_02_1926,
,,,,,,,,,,,,,,,,,,,,,1+2= ?,,,,,,,,,,,,,,,,,,,,0,86,86,1,,,,,,,,,,,,,,,,,,,,,moral_self_bias,27,20,60.0665639375,f,001,2018_Apr_02_1926,
,,,,,,,,,,,,,,,,,,,,,2+3= ?,,,,,,,,,,,,,,,,,,,,0,87,87,9,,,,,,,,,,,,,,,,,,,,,moral_self_bias,27,20,60.0665639375,f,001,2018_Apr_02_1926,
,,,,,,,,,,,,,,,,,,,,,21/3= ? ,,,,,,,,,,,,,,,,,,,,0,88,88,95,,,,,,,,,,,,,,,,,,,,,moral_self_bias,27,20,60.0665639375,f,001,2018_Apr_02_1926,
,,,,,,,,,,,,,,,,,,,,,13-6=？,,,,,,,,,,,,,,,,,,,,0,89,89,64,,,,,,,,,,,,,,,,,,,,,moral_self_bias,27,20,60.0665639375,f,001,2018_Apr_02_1926,
,,,,,,,,,,,,,,,,,,,,,4*2= ?,,,,,,,,,,,,,,,,,,,,0,90,90,82,,,,,,,,,,,,,,,,,,,,,moral_self_bias,27,20,60.0665639375,f,001,2018_Apr_02_1926,
,,,,,,,,,,,,,,,,,,,,,11-4=？,,,,,,,,,,,,,,,,,,,,0,91,91,66,,,,,,,,,,,,,,,,,,,,,moral_self_bias,27,20,60.0665639375,f,001,2018_Apr_02_1926,
,,,,,,,,,,,,,,,,,,,,,3+0= ?,,,,,,,,,,,,,,,,,,,,0,92,92,105,,,,,,,,,,,,,,,,,,,,,moral_self_bias,27,20,60.0665639375,f,001,2018_Apr_02_1926,
,,,,,,,,,,,,,,,,,,,,,7*1= ?,,,,,,,,,,,,,,,,,,,,0,93,93,113,,,,,,,,,,,,,,,,,,,,,moral_self_bias,27,20,60.0665639375,f,001,2018_Apr_02_1926,
,,,,,,,,,,,,,,,,,,,,,2+7= ?,,,,,,,,,,,,,,,,,,,,0,94,94,13,,,,,,,,,,,,,,,,,,,,,moral_self_bias,27,20,60.0665639375,f,001,2018_Apr_02_1926,
,,,,,,,,,,,,,,,,,,,,,3*2= ?,,,,,,,,,,,,,,,,,,,,0,95,95,53,,,,,,,,,,,,,,,,,,,,,moral_self_bias,27,20,60.0665639375,f,001,2018_Apr_02_1926,
,,,,,,,,,,,,,,,,,,,,,1^2= ?,,,,,,,,,,,,,,,,,,,,0,96,96,51,,,,,,,,,,,,,,,,,,,,,moral_self_bias,27,20,60.0665639375,f,001,2018_Apr_02_1926,
,,,,,,,,,,,,,,,,,,,,,2+1= ?,,,,,,,,,,,,,,,,,,,,0,97,97,7,,,,,,,,,,,,,,,,,,,,,moral_self_bias,27,20,60.0665639375,f,001,2018_Apr_02_1926,
,,,,,,,,,,,,,,,,,,,,,2*3= ?,,,,,,,,,,,,,,,,,,,,0,98,98,108,,,,,,,,,,,,,,,,,,,,,moral_self_bias,27,20,60.0665639375,f,001,2018_Apr_02_1926,
,,,,,,,,,,,,,,,,,,,,,50-42= ?,,,,,,,,,,,,,,,,,,,,0,99,99,81,,,,,,,,,,,,,,,,,,,,,moral_self_bias,27,20,60.0665639375,f,001,2018_Apr_02_1926,
,,,,,,,,,,,,,,,,,,,,,9-4= ?,,,,,,,,,,,,,,,,,,,,0,100,100,22,,,,,,,,,,,,,,,,,,,,,moral_self_bias,27,20,60.0665639375,f,001,2018_Apr_02_1926,
,,,,,,,,,,,,,,,,,,,,,56/7= ?,,,,,,,,,,,,,,,,,,,,0,101,101,77,,,,,,,,,,,,,,,,,,,,,moral_self_bias,27,20,60.0665639375,f,001,2018_Apr_02_1926,
,,,,,,,,,,,,,,,,,,,,,30-29= ?,,,,,,,,,,,,,,,,,,,,0,102,102,73,,,,,,,,,,,,,,,,,,,,,moral_self_bias,27,20,60.0665639375,f,001,2018_Apr_02_1926,
,,,,,,,,,,,,,,,,,,,,,32-32= ?,,,,,,,,,,,,,,,,,,,,0,103,103,80,,,,,,,,,,,,,,,,,,,,,moral_self_bias,27,20,60.0665639375,f,001,2018_Apr_02_1926,
,,,,,,,,,,,,,,,,,,,,,9-8= ?,,,,,,,,,,,,,,,,,,,,0,104,104,31,,,,,,,,,,,,,,,,,,,,,moral_self_bias,27,20,60.0665639375,f,001,2018_Apr_02_1926,
,,,,,,,,,,,,,,,,,,,,,10-9= ?,,,,,,,,,,,,,,,,,,,,0,105,105,112,,,,,,,,,,,,,,,,,,,,,moral_self_bias,27,20,60.0665639375,f,001,2018_Apr_02_1926,
,,,,,,,,,,,,,,,,,,,,,7+2= ?,,,,,,,,,,,,,,,,,,,,0,106,106,47,,,,,,,,,,,,,,,,,,,,,moral_self_bias,27,20,60.0665639375,f,001,2018_Apr_02_1926,
,,,,,,,,,,,,,,,,,,,,,3*3= ?,,,,,,,,,,,,,,,,,,,,0,107,107,54,,,,,,,,,,,,,,,,,,,,,moral_self_bias,27,20,60.0665639375,f,001,2018_Apr_02_1926,
,,,,,,,,,,,,,,,,,,,,,1+9= ?,,,,,,,,,,,,,,,,,,,,0,108,108,3,,,,,,,,,,,,,,,,,,,,,moral_self_bias,27,20,60.0665639375,f,001,2018_Apr_02_1926,
,,,,,,,,,,,,,,,,,,,,,3+3= ?,,,,,,,,,,,,,,,,,,,,0,109,109,18,,,,,,,,,,,,,,,,,,,,,moral_self_bias,27,20,60.0665639375,f,001,2018_Apr_02_1926,
,,,,,,,,,,,,,,,,,,,,,2*4= ?,,,,,,,,,,,,,,,,,,,,0,110,110,84,,,,,,,,,,,,,,,,,,,,,moral_self_bias,27,20,60.0665639375,f,001,2018_Apr_02_1926,
,,,,,,,,,,,,,,,,,,,,,12/6= ?,,,,,,,,,,,,,,,,,,,,0,111,111,90,,,,,,,,,,,,,,,,,,,,,moral_self_bias,27,20,60.0665639375,f,001,2018_Apr_02_1926,
,,,,,,,,,,,,,,,,,,,,,5+1= ?,,,,,,,,,,,,,,,,,,,,0,112,112,34,,,,,,,,,,,,,,,,,,,,,moral_self_bias,27,20,60.0665639375,f,001,2018_Apr_02_1926,
,,,,,,,,,,,,,,,,,,,,,17-12= ? ,,,,,,,,,,,,,,,,,,,,0,113,113,104,,,,,,,,,,,,,,,,,,,,,moral_self_bias,27,20,60.0665639375,f,001,2018_Apr_02_1926,
,,,,,,,,,,,,,,,,,,,,,10-5=？,,,,,,,,,,,,,,,,,,,,0,114,114,67,,,,,,,,,,,,,,,,,,,,,moral_self_bias,27,20,60.0665639375,f,001,2018_Apr_02_1926,
,,,,,,,,,,,,,,,,,,,,,43-34= ?,,,,,,,,,,,,,,,,,,,,0,115,115,79,,,,,,,,,,,,,,,,,,,,,moral_self_bias,27,20,60.0665639375,f,001,2018_Apr_02_1926,
,,,,,,,,,,,,,,,,,,,,,8*1= ?,,,,,,,,,,,,,,,,,,,,0,116,116,111,,,,,,,,,,,,,,,,,,,,,moral_self_bias,27,20,60.0665639375,f,001,2018_Apr_02_1926,
,,,,,,,,,,,,,,,,,,,,,4+4= ?,,,,,,,,,,,,,,,,,,,,0,117,117,28,,,,,,,,,,,,,,,,,,,,,moral_self_bias,27,20,60.0665639375,f,001,2018_Apr_02_1926,
,,,,,,,,,,,,,,,,,,,,,6^0= ?,,,,,,,,,,,,,,,,,,,,0,118,118,103,,,,,,,,,,,,,,,,,,,,,moral_self_bias,27,20,60.0665639375,f,001,2018_Apr_02_1926,
,,,,,,,,,,,,,,,,,,,,,7-0= ?,,,,,,,,,,,,,,,,,,,,0,119,119,117,,,,,,,,,,,,,,,,,,,,,moral_self_bias,27,20,60.0665639375,f,001,2018_Apr_02_1926,
,,,,,,,,,,,,,,,,,,,,,,,,,,,,,,,,,,,,,,,,,,,,,,,,,,,,,,,,,3,7.10981893539,,,,,,,moral_self_bias,27,20,60.0665639375,f,001,2018_Apr_02_1926,
,,,,,,,,,,,,,,,,,,,,,,material/40.png,2,狠毒,material/140.png,2,material/140.png,狠毒,2,f,f,f,1,1,1,邪恶,,,,,,,,,0,0,0,119,0,0,0,0,,,,,,,f,1,10.7244999409,f,1,7.99179506302,moral_self_bias,27,20,60.0665639375,f,001,2018_Apr_02_1926,
,,,,,,,,,,,,,,,,,,,,,,material/40.png,2,狠毒,material/140.png,2,material/140.png,狠毒,2,f,f,f,1,1,1,邪恶,,,,,,,,,0,0,0,119,,,,,,,,,,,,,,,,,moral_self_bias,27,20,60.0665639375,f,001,2018_Apr_02_1926,
,,,,,,,,,,,,,,,,,,,,,,material/59.png,2,智障,material/159.png,2,material/59.png,弱智,2,f,f,f,2,2,2,智障,,,,,,,,,0,1,1,138,0,0,0,0,,,,,,,f,1,2.20823812485,j,0,0.874355077744,moral_self_bias,27,20,60.0665639375,f,001,2018_Apr_02_1926,
,,,,,,,,,,,,,,,,,,,,,,material/59.png,2,智障,material/159.png,2,material/59.png,弱智,2,f,f,f,2,2,2,智障,,,,,,,,,0,1,1,138,,,,,,,,,,,,,,,,,moral_self_bias,27,20,60.0665639375,f,001,2018_Apr_02_1926,
,,,,,,,,,,,,,,,,,,,,,,material/80.png,2,才尽,material/83.png,2,material/182.png,呆笨,2,j,j,j,2,2,2,健忘,,,,,,,,,0,2,2,79,0,0,0,0,,,,,,,f,0,3.32471704483,j,0,0.975192070007,moral_self_bias,27,20,60.0665639375,f,001,2018_Apr_02_1926,
,,,,,,,,,,,,,,,,,,,,,,material/80.png,2,才尽,material/83.png,2,material/182.png,呆笨,2,j,j,j,2,2,2,健忘,,,,,,,,,0,2,2,79,,,,,,,,,,,,,,,,,moral_self_bias,27,20,60.0665639375,f,001,2018_Apr_02_1926,
,,,,,,,,,,,,,,,,,,,,,,material/23.png,1,有才,material/123.png,1,material/23.png,多才,1,f,f,f,2,2,2,有才,,,,,,,,,0,3,3,102,0,0,0,0,,,,,,,f,1,1.42449188232,f,1,2.05398702621,moral_self_bias,27,20,60.0665639375,f,001,2018_Apr_02_1926,
,,,,,,,,,,,,,,,,,,,,,,material/23.png,1,有才,material/123.png,1,material/23.png,多才,1,f,f,f,2,2,2,有才,,,,,,,,,0,3,3,102,,,,,,,,,,,,,,,,,moral_self_bias,27,20,60.0665639375,f,001,2018_Apr_02_1926,
,,,,,,,,,,,,,,,,,,,,,,material/73.png,2,恶心,material/177.png,2,material/177.png,恶心,2,f,f,f,1,1,1,残虐,,,,,,,,,0,4,4,156,0,0,0,0,,,,,,,f,1,1.59223198891,f,1,0.425006866455,moral_self_bias,27,20,60.0665639375,f,001,2018_Apr_02_1926,
,,,,,,,,,,,,,,,,,,,,,,material/73.png,2,恶心,material/177.png,2,material/177.png,恶心,2,f,f,f,1,1,1,残虐,,,,,,,,,0,4,4,156,,,,,,,,,,,,,,,,,moral_self_bias,27,20,60.0665639375,f,001,2018_Apr_02_1926,
,,,,,,,,,,,,,,,,,,,,,,material/64.png,1,谦虚,material/165.png,1,material/65.png,独立,1,f,f,f,1,1,1,奉献,,,,,,,,,0,5,5,144,0,0,0,0,,,,,,,f,1,1.60787796974,f,1,0.266515016556,moral_self_bias,27,20,60.0665639375,f,001,2018_Apr_02_1926,
,,,,,,,,,,,,,,,,,,,,,,material/64.png,1,谦虚,material/165.png,1,material/65.png,独立,1,f,f,f,1,1,1,奉献,,,,,,,,,0,5,5,144,,,,,,,,,,,,,,,,,moral_self_bias,27,20,60.0665639375,f,001,2018_Apr_02_1926,
,,,,,,,,,,,,,,,,,,,,,,material/144.png,2,失信,material/44.png,2,material/44.png,失信,2,j,j,j,1,1,1,爽约,,,,,,,,,0,6,6,43,,,,,,,,,,,j,1,1.62419199944,,,,moral_self_bias,27,20,60.0665639375,f,001,2018_Apr_02_1926,
,,,,,,,,,,,,,,,,,,,,,,material/12.png,1,忠心,material/112.png,1,material/112.png,忠心,1,f,f,f,1,1,1,忠诚,,,,,,,,,0,7,7,91,0,0,0,0,,,,,,,f,1,1.52440309525,j,0,1.09097599983,moral_self_bias,27,20,60.0665639375,f,001,2018_Apr_02_1926,
,,,,,,,,,,,,,,,,,,,,,,material/12.png,1,忠心,material/112.png,1,material/112.png,忠心,1,f,f,f,1,1,1,忠诚,,,,,,,,,0,7,7,91,,,,,,,,,,,,,,,,,moral_self_bias,27,20,60.0665639375,f,001,2018_Apr_02_1926,
,,,,,,,,,,,,,,,,,,,,,,material/184.png,2,草率,material/80.png,2,material/78.png,健忘,2,j,j,j,2,2,2,厌学,,,,,,,,,0,8,8,76,0,0,0,0,,,,,,,f,0,1.14166688919,j,0,0.691590070724,moral_self_bias,27,20,60.0665639375,f,001,2018_Apr_02_1926,
,,,,,,,,,,,,,,,,,,,,,,material/184.png,2,草率,material/80.png,2,material/78.png,健忘,2,j,j,j,2,2,2,厌学,,,,,,,,,0,8,8,76,,,,,,,,,,,,,,,,,moral_self_bias,27,20,60.0665639375,f,001,2018_Apr_02_1926,
,,,,,,,,,,,,,,,,,,,,,,material/125.png,1,果敢,material/25.png,1,material/125.png,果断,1,j,j,j,2,2,2,果敢,,,,,,,,,0,9,9,24,0,0,0,0,,,,,,,f,0,1.38307905197,f,1,0.374309062958,moral_self_bias,27,20,60.0665639375,f,001,2018_Apr_02_1926,
,,,,,,,,,,,,,,,,,,,,,,material/125.png,1,果敢,material/25.png,1,material/125.png,果断,1,j,j,j,2,2,2,果敢,,,,,,,,,0,9,9,24,,,,,,,,,,,,,,,,,moral_self_bias,27,20,60.0665639375,f,001,2018_Apr_02_1926,
,,,,,,,,,,,,,,,,,,,,,,material/33.png,2,贪污,material/133.png,2,material/133.png,贪污,2,f,f,f,1,1,1,腐败,,,,,,,,,0,10,10,112,0,0,0,0,,,,,,,f,1,1.68375182152,f,1,0.291092157364,moral_self_bias,27,20,60.0665639375,f,001,2018_Apr_02_1926,
,,,,,,,,,,,,,,,,,,,,,,material/33.png,2,贪污,material/133.png,2,material/133.png,贪污,2,f,f,f,1,1,1,腐败,,,,,,,,,0,10,10,112,,,,,,,,,,,,,,,,,moral_self_bias,27,20,60.0665639375,f,001,2018_Apr_02_1926,
,,,,,,,,,,,,,,,,,,,,,,material/45.png,2,小人,material/145.png,2,material/145.png,小人,2,f,f,f,1,1,1,下流,,,,,,,,,0,11,11,124,0,0,0,0,,,,,,,f,1,1.50805902481,j,0,0.373996019363,moral_self_bias,27,20,60.0665639375,f,001,2018_Apr_02_1926,
,,,,,,,,,,,,,,,,,,,,,,material/45.png,2,小人,material/145.png,2,material/145.png,小人,2,f,f,f,1,1,1,下流,,,,,,,,,0,11,11,124,,,,,,,,,,,,,,,,,moral_self_bias,27,20,60.0665639375,f,001,2018_Apr_02_1926,
,,,,,,,,,,,,,,,,,,,,,,material/166.png,1,孝顺,material/64.png,1,material/164.png,奉献,1,j,j,j,1,1,1,仗义,,,,,,,,,0,12,12,63,0,0,0,0,,,,,,,f,0,3.95748901367,f,1,0.407866954803,moral_self_bias,27,20,60.0665639375,f,001,2018_Apr_02_1926,
,,,,,,,,,,,,,,,,,,,,,,material/166.png,1,孝顺,material/64.png,1,material/164.png,奉献,1,j,j,j,1,1,1,仗义,,,,,,,,,0,12,12,63,,,,,,,,,,,,,,,,,moral_self_bias,27,20,60.0665639375,f,001,2018_Apr_02_1926,
,,,,,,,,,,,,,,,,,,,,,,material/22.png,1,才学,material/122.png,1,material/22.png,博学,1,f,f,f,2,2,2,才学,,,,,,,,,0,13,13,101,0,0,0,0,,,,,,,f,1,2.25761318207,f,1,0.324681997299,moral_self_bias,27,20,60.0665639375,f,001,2018_Apr_02_1926,
,,,,,,,,,,,,,,,,,,,,,,material/22.png,1,才学,material/122.png,1,material/22.png,博学,1,f,f,f,2,2,2,才学,,,,,,,,,0,13,13,101,,,,,,,,,,,,,,,,,moral_self_bias,27,20,60.0665639375,f,001,2018_Apr_02_1926,
,,,,,,,,,,,,,,,,,,,,,,material/137.png,2,无耻,material/37.png,2,material/37.png,无耻,2,j,j,j,1,1,1,卑鄙,,,,,,,,,0,14,14,36,0,0,0,0,,,,,,,f,0,2.95789504051,f,1,0.433117866516,moral_self_bias,27,20,60.0665639375,f,001,2018_Apr_02_1926,
,,,,,,,,,,,,,,,,,,,,,,material/137.png,2,无耻,material/37.png,2,material/37.png,无耻,2,j,j,j,1,1,1,卑鄙,,,,,,,,,0,14,14,36,,,,,,,,,,,,,,,,,moral_self_bias,27,20,60.0665639375,f,001,2018_Apr_02_1926,
,,,,,,,,,,,,,,,,,,,,,,material/151.png,2,迷糊,material/51.png,2,material/151.png,糊涂,2,j,j,j,2,2,2,迷糊,,,,,,,,,0,15,15,50,0,0,0,0,,,,,,,f,0,1.59127402306,j,0,0.407407999039,moral_self_bias,27,20,60.0665639375,f,001,2018_Apr_02_1926,
,,,,,,,,,,,,,,,,,,,,,,material/151.png,2,迷糊,material/51.png,2,material/151.png,糊涂,2,j,j,j,2,2,2,迷糊,,,,,,,,,0,15,15,50,,,,,,,,,,,,,,,,,moral_self_bias,27,20,60.0665639375,f,001,2018_Apr_02_1926,
,,,,,,,,,,,,,,,,,,,,,,material/115.png,1,清白,material/15.png,1,material/15.png,清白,1,j,j,j,1,1,1,纯洁,,,,,,,,,0,16,16,14,0,0,0,0,,,,,,,f,0,1.30726885796,f,1,0.34162402153,moral_self_bias,27,20,60.0665639375,f,001,2018_Apr_02_1926,
,,,,,,,,,,,,,,,,,,,,,,material/115.png,1,清白,material/15.png,1,material/15.png,清白,1,j,j,j,1,1,1,纯洁,,,,,,,,,0,16,16,14,,,,,,,,,,,,,,,,,moral_self_bias,27,20,60.0665639375,f,001,2018_Apr_02_1926,
,,,,,,,,,,,,,,,,,,,,,,material/161.png,1,奉献,material/164.png,1,material/64.png,孝顺,1,f,f,f,1,1,1,勇敢,,,,,,,,,0,17,17,143,0,0,0,0,,,,,,,f,1,2.25790810585,j,0,1.1421148777,moral_self_bias,27,20,60.0665639375,f,001,2018_Apr_02_1926,
,,,,,,,,,,,,,,,,,,,,,,material/161.png,1,奉献,material/164.png,1,material/64.png,孝顺,1,f,f,f,1,1,1,勇敢,,,,,,,,,0,17,17,143,,,,,,,,,,,,,,,,,moral_self_bias,27,20,60.0665639375,f,001,2018_Apr_02_1926,
,,,,,,,,,,,,,,,,,,,,,,material/55.png,2,盲从,material/155.png,2,material/55.png,盲目,2,f,f,f,2,2,2,盲从,,,,,,,,,0,18,18,134,0,0,0,0,,,,,,,f,1,1.19109892845,f,1,0.241964101791,moral_self_bias,27,20,60.0665639375,f,001,2018_Apr_02_1926,
,,,,,,,,,,,,,,,,,,,,,,material/55.png,2,盲从,material/155.png,2,material/55.png,盲目,2,f,f,f,2,2,2,盲从,,,,,,,,,0,18,18,134,,,,,,,,,,,,,,,,,moral_self_bias,27,20,60.0665639375,f,001,2018_Apr_02_1926,
,,,,,,,,,,,,,,,,,,,,,,material/160.png,2,笨拙,material/60.png,2,material/160.png,粗拙,2,j,j,j,2,2,2,笨拙,,,,,,,,,0,19,19,59,0,0,0,0,,,,,,,f,0,1.42526698112,f,1,0.291270971298,moral_self_bias,27,20,60.0665639375,f,001,2018_Apr_02_1926,
,,,,,,,,,,,,,,,,,,,,,,material/160.png,2,笨拙,material/60.png,2,material/160.png,粗拙,2,j,j,j,2,2,2,笨拙,,,,,,,,,0,19,19,59,,,,,,,,,,,,,,,,,moral_self_bias,27,20,60.0665639375,f,001,2018_Apr_02_1926,
,,,,,,,,,,,,,,,,,,,,,,material/179.png,2,顽愚,material/178.png,2,material/84.png,毛糙,2,f,f,f,2,2,2,差生,,,,,,,,,0,20,20,157,0,0,0,0,,,,,,,f,1,0.975362062454,f,1,0.206962108612,moral_self_bias,27,20,60.0665639375,f,001,2018_Apr_02_1926,
,,,,,,,,,,,,,,,,,,,,,,material/179.png,2,顽愚,material/178.png,2,material/84.png,毛糙,2,f,f,f,2,2,2,差生,,,,,,,,,0,20,20,157,,,,,,,,,,,,,,,,,moral_self_bias,27,20,60.0665639375,f,001,2018_Apr_02_1926,
,,,,,,,,,,,,,,,,,,,,,,material/38.png,2,缺德,material/138.png,2,material/138.png,缺德,2,f,f,f,1,1,1,无德,,,,,,,,,0,21,21,117,0,0,0,0,,,,,,,f,1,1.20725297928,f,1,0.257486104965,moral_self_bias,27,20,60.0665639375,f,001,2018_Apr_02_1926,
,,,,,,,,,,,,,,,,,,,,,,material/38.png,2,缺德,material/138.png,2,material/138.png,缺德,2,f,f,f,1,1,1,无德,,,,,,,,,0,21,21,117,,,,,,,,,,,,,,,,,moral_self_bias,27,20,60.0665639375,f,001,2018_Apr_02_1926,
,,,,,,,,,,,,,,,,,,,,,,material/132.png,2,不忠,material/32.png,2,material/32.png,不忠,2,j,j,j,1,1,1,背叛,,,,,,,,,0,22,22,31,0,0,0,0,,,,,,,f,0,0.841276884079,j,0,0.223965883255,moral_self_bias,27,20,60.0665639375,f,001,2018_Apr_02_1926,
,,,,,,,,,,,,,,,,,,,,,,material/132.png,2,不忠,material/32.png,2,material/32.png,不忠,2,j,j,j,1,1,1,背叛,,,,,,,,,0,22,22,31,,,,,,,,,,,,,,,,,moral_self_bias,27,20,60.0665639375,f,001,2018_Apr_02_1926,
,,,,,,,,,,,,,,,,,,,,,,material/165.png,1,平等,material/161.png,1,material/61.png,勇敢,1,f,f,f,1,1,1,独立,,,,,,,,,0,23,23,140,0,0,0,0,,,,,,,f,1,1.14074587822,f,1,0.691404104233,moral_self_bias,27,20,60.0665639375,f,001,2018_Apr_02_1926,
,,,,,,,,,,,,,,,,,,,,,,material/165.png,1,平等,material/161.png,1,material/61.png,勇敢,1,f,f,f,1,1,1,独立,,,,,,,,,0,23,23,140,,,,,,,,,,,,,,,,,moral_self_bias,27,20,60.0665639375,f,001,2018_Apr_02_1926,
,,,,,,,,,,,,,,,,,,,,,,material/106.png,1,诚实,material/6.png,1,material/6.png,诚实,1,j,j,j,1,1,1,厚道,,,,,,,,,0,24,24,5,0,0,0,0,,,,,,,f,0,1.04189610481,f,1,0.191256046295,moral_self_bias,27,20,60.0665639375,f,001,2018_Apr_02_1926,
,,,,,,,,,,,,,,,,,,,,,,material/106.png,1,诚实,material/6.png,1,material/6.png,诚实,1,j,j,j,1,1,1,厚道,,,,,,,,,0,24,24,5,,,,,,,,,,,,,,,,,moral_self_bias,27,20,60.0665639375,f,001,2018_Apr_02_1926,
,,,,,,,,,,,,,,,,,,,,,,material/143.png,2,拜金,material/43.png,2,material/43.png,拜金,2,j,j,j,1,1,1,虚荣,,,,,,,,,0,25,25,42,,,,,,,,,,,j,1,1.70782208443,,,,moral_self_bias,27,20,60.0665639375,f,001,2018_Apr_02_1926,
,,,,,,,,,,,,,,,,,,,,,,material/19.png,1,灵活,material/119.png,1,material/19.png,机灵,1,f,f,f,2,2,2,灵活,,,,,,,,,0,26,26,98,0,0,0,0,,,,,,,f,1,1.1903398037,j,0,0.208614826202,moral_self_bias,27,20,60.0665639375,f,001,2018_Apr_02_1926,
,,,,,,,,,,,,,,,,,,,,,,material/19.png,1,灵活,material/119.png,1,material/19.png,机灵,1,f,f,f,2,2,2,灵活,,,,,,,,,0,26,26,98,,,,,,,,,,,,,,,,,moral_self_bias,27,20,60.0665639375,f,001,2018_Apr_02_1926,
,,,,,,,,,,,,,,,,,,,,,,material/121.png,1,精干,material/21.png,1,material/121.png,干练,1,j,j,j,2,2,2,精干,,,,,,,,,0,27,27,20,0,0,0,0,,,,,,,f,0,1.04147696495,f,1,0.17499089241,moral_self_bias,27,20,60.0665639375,f,001,2018_Apr_02_1926,
,,,,,,,,,,,,,,,,,,,,,,material/121.png,1,精干,material/21.png,1,material/121.png,干练,1,j,j,j,2,2,2,精干,,,,,,,,,0,27,27,20,,,,,,,,,,,,,,,,,moral_self_bias,27,20,60.0665639375,f,001,2018_Apr_02_1926,
,,,,,,,,,,,,,,,,,,,,,,material/156.png,2,愚钝,material/56.png,2,material/156.png,愚昧,2,j,j,j,2,2,2,愚钝,,,,,,,,,0,28,28,55,0,0,0,0,,,,,,,f,0,1.62465691566,j,0,0.184431791306,moral_self_bias,27,20,60.0665639375,f,001,2018_Apr_02_1926,
,,,,,,,,,,,,,,,,,,,,,,material/156.png,2,愚钝,material/56.png,2,material/156.png,愚昧,2,j,j,j,2,2,2,愚钝,,,,,,,,,0,28,28,55,,,,,,,,,,,,,,,,,moral_self_bias,27,20,60.0665639375,f,001,2018_Apr_02_1926,
,,,,,,,,,,,,,,,,,,,,,,material/83.png,2,差生,material/78.png,2,material/179.png,草率,2,j,j,j,2,2,2,呆笨,,,,,,,,,0,29,29,74,0,0,0,0,,,,,,,f,0,1.62440085411,f,1,0.157620191574,moral_self_bias,27,20,60.0665639375,f,001,2018_Apr_02_1926,
,,,,,,,,,,,,,,,,,,,,,,material/83.png,2,差生,material/78.png,2,material/179.png,草率,2,j,j,j,2,2,2,呆笨,,,,,,,,,0,29,29,74,,,,,,,,,,,,,,,,,moral_self_bias,27,20,60.0665639375,f,001,2018_Apr_02_1926,
,,,,,,,,,,,,,,,,,,,,,,material/178.png,2,窝囊,material/82.png,2,material/82.png,窝囊,2,j,j,j,2,2,2,毛糙,,,,,,,,,0,30,30,78,,,,,,,,,,,j,1,1.70758795738,,,,moral_self_bias,27,20,60.0665639375,f,001,2018_Apr_02_1926,
,,,,,,,,,,,,,,,,,,,,,,material/114.png,1,爱国,material/14.png,1,material/14.png,爱国,1,j,j,j,1,1,1,忠贞,,,,,,,,,0,31,31,13,,,,,,,,,,,j,1,1.45779705048,,,,moral_self_bias,27,20,60.0665639375,f,001,2018_Apr_02_1926,
,,,,,,,,,,,,,,,,,,,,,,material/36.png,2,撒谎,material/136.png,2,material/136.png,撒谎,2,f,f,f,1,1,1,说谎,,,,,,,,,0,32,32,115,0,0,0,0,,,,,,,f,1,1.14136314392,f,1,0.175427913666,moral_self_bias,27,20,60.0665639375,f,001,2018_Apr_02_1926,
,,,,,,,,,,,,,,,,,,,,,,material/36.png,2,撒谎,material/136.png,2,material/136.png,撒谎,2,f,f,f,1,1,1,说谎,,,,,,,,,0,32,32,115,,,,,,,,,,,,,,,,,moral_self_bias,27,20,60.0665639375,f,001,2018_Apr_02_1926,
,,,,,,,,,,,,,,,,,,,,,,material/118.png,1,机敏,material/18.png,1,material/118.png,敏锐,1,j,j,j,2,2,2,机敏,,,,,,,,,0,33,33,17,0,0,0,0,,,,,,,f,0,1.642567873,j,0,0.176064014435,moral_self_bias,27,20,60.0665639375,f,001,2018_Apr_02_1926,
,,,,,,,,,,,,,,,,,,,,,,material/118.png,1,机敏,material/18.png,1,material/118.png,敏锐,1,j,j,j,2,2,2,机敏,,,,,,,,,0,33,33,17,,,,,,,,,,,,,,,,,moral_self_bias,27,20,60.0665639375,f,001,2018_Apr_02_1926,
,,,,,,,,,,,,,,,,,,,,,,material/52.png,2,拖延,material/152.png,2,material/52.png,缓慢,2,f,f,f,2,2,2,拖延,,,,,,,,,0,34,34,131,,,,,,,,,,,j,0,1.10813808441,,,,moral_self_bias,27,20,60.0665639375,f,001,2018_Apr_02_1926,
,,,,,,,,,,,,,,,,,,,,,,material/11.png,1,高尚,material/111.png,1,material/111.png,高尚,1,f,f,f,1,1,1,高雅,,,,,,,,,0,35,35,90,0,0,0,0,,,,,,,f,1,0.949907779694,f,1,0.158168077469,moral_self_bias,27,20,60.0665639375,f,001,2018_Apr_02_1926,
,,,,,,,,,,,,,,,,,,,,,,material/11.png,1,高尚,material/111.png,1,material/111.png,高尚,1,f,f,f,1,1,1,高雅,,,,,,,,,0,35,35,90,,,,,,,,,,,,,,,,,moral_self_bias,27,20,60.0665639375,f,001,2018_Apr_02_1926,
,,,,,,,,,,,,,,,,,,,,,,material/18.png,1,敏锐,material/118.png,1,material/18.png,机敏,1,f,f,f,2,2,2,敏锐,,,,,,,,,0,36,36,97,,,,,,,,,,,j,0,1.8000562191,,,,moral_self_bias,27,20,60.0665639375,f,001,2018_Apr_02_1926,
,,,,,,,,,,,,,,,,,,,,,,material/1.png,1,博爱,material/101.png,1,material/101.png,博爱,1,f,f,f,1,1,1,善良,,,,,,,,,0,37,37,80,0,0,0,0,,,,,,,f,1,1.0080871582,f,1,0.258381843567,moral_self_bias,27,20,60.0665639375,f,001,2018_Apr_02_1926,
,,,,,,,,,,,,,,,,,,,,,,material/1.png,1,博爱,material/101.png,1,material/101.png,博爱,1,f,f,f,1,1,1,善良,,,,,,,,,0,37,37,80,,,,,,,,,,,,,,,,,moral_self_bias,27,20,60.0665639375,f,001,2018_Apr_02_1926,
,,,,,,,,,,,,,,,,,,,,,,material/110.png,1,顽强,material/10.png,1,material/10.png,顽强,1,j,j,j,1,1,1,坚毅,,,,,,,,,0,38,38,9,0,0,0,0,,,,,,,f,0,1.34112811089,f,1,0.442518949509,moral_self_bias,27,20,60.0665639375,f,001,2018_Apr_02_1926,
,,,,,,,,,,,,,,,,,,,,,,material/110.png,1,顽强,material/10.png,1,material/10.png,顽强,1,j,j,j,1,1,1,坚毅,,,,,,,,,0,38,38,9,,,,,,,,,,,,,,,,,moral_self_bias,27,20,60.0665639375,f,001,2018_Apr_02_1926,
,,,,,,,,,,,,,,,,,,,,,,material/103.png,1,仁慈,material/3.png,1,material/3.png,仁慈,1,j,j,j,1,1,1,仁厚,,,,,,,,,0,39,39,2,0,0,0,0,,,,,,,f,0,1.35786104202,j,0,0.241426944733,moral_self_bias,27,20,60.0665639375,f,001,2018_Apr_02_1926,
,,,,,,,,,,,,,,,,,,,,,,material/103.png,1,仁慈,material/3.png,1,material/3.png,仁慈,1,j,j,j,1,1,1,仁厚,,,,,,,,,0,39,39,2,,,,,,,,,,,,,,,,,moral_self_bias,27,20,60.0665639375,f,001,2018_Apr_02_1926,
,,,,,,,,,,,,,,,,,,,,,,material/117.png,1,聪颖,material/17.png,1,material/117.png,聪明,1,j,j,j,2,2,2,聪颖,,,,,,,,,0,40,40,16,0,0,0,0,,,,,,,f,0,0.807056903839,j,0,0.541695833206,moral_self_bias,27,20,60.0665639375,f,001,2018_Apr_02_1926,
,,,,,,,,,,,,,,,,,,,,,,material/117.png,1,聪颖,material/17.png,1,material/117.png,聪明,1,j,j,j,2,2,2,聪颖,,,,,,,,,0,40,40,16,,,,,,,,,,,,,,,,,moral_self_bias,27,20,60.0665639375,f,001,2018_Apr_02_1926,
,,,,,,,,,,,,,,,,,,,,,,material/111.png,1,高雅,material/11.png,1,material/11.png,高雅,1,j,j,j,1,1,1,高尚,,,,,,,,,0,41,41,10,0,0,0,0,,,,,,,f,0,0.841032981873,f,1,0.291254997253,moral_self_bias,27,20,60.0665639375,f,001,2018_Apr_02_1926,
,,,,,,,,,,,,,,,,,,,,,,material/111.png,1,高雅,material/11.png,1,material/11.png,高雅,1,j,j,j,1,1,1,高尚,,,,,,,,,0,41,41,10,,,,,,,,,,,,,,,,,moral_self_bias,27,20,60.0665639375,f,001,2018_Apr_02_1926,
,,,,,,,,,,,,,,,,,,,,,,material/20.png,1,厉害,material/120.png,1,material/20.png,能干,1,f,f,f,2,2,2,厉害,,,,,,,,,0,42,42,99,,,,,,,,,,,j,0,1.82453894615,,,,moral_self_bias,27,20,60.0665639375,f,001,2018_Apr_02_1926,
,,,,,,,,,,,,,,,,,,,,,,material/82.png,2,毛糙,material/183.png,2,material/178.png,薄弱,2,f,f,f,2,2,2,窝囊,,,,,,,,,0,43,43,162,,,,,,,,,,,j,0,1.40830802917,,,,moral_self_bias,27,20,60.0665639375,f,001,2018_Apr_02_1926,
,,,,,,,,,,,,,,,,,,,,,,material/147.png,2,刻板,material/47.png,2,material/147.png,死板,2,j,j,j,2,2,2,刻板,,,,,,,,,0,44,44,46,0,0,0,0,,,,,,,f,0,1.19189405441,f,1,0.191473960876,moral_self_bias,27,20,60.0665639375,f,001,2018_Apr_02_1926,
,,,,,,,,,,,,,,,,,,,,,,material/147.png,2,刻板,material/47.png,2,material/147.png,死板,2,j,j,j,2,2,2,刻板,,,,,,,,,0,44,44,46,,,,,,,,,,,,,,,,,moral_self_bias,27,20,60.0665639375,f,001,2018_Apr_02_1926,
,,,,,,,,,,,,,,,,,,,,,,material/51.png,2,糊涂,material/151.png,2,material/51.png,迷糊,2,f,f,f,2,2,2,糊涂,,,,,,,,,0,45,45,130,0,0,0,0,,,,,,,f,1,2.62439489365,j,0,0.391424179077,moral_self_bias,27,20,60.0665639375,f,001,2018_Apr_02_1926,
,,,,,,,,,,,,,,,,,,,,,,material/51.png,2,糊涂,material/151.png,2,material/51.png,迷糊,2,f,f,f,2,2,2,糊涂,,,,,,,,,0,45,45,130,,,,,,,,,,,,,,,,,moral_self_bias,27,20,60.0665639375,f,001,2018_Apr_02_1926,
,,,,,,,,,,,,,,,,,,,,,,material/49.png,2,痴呆,material/149.png,2,material/49.png,白痴,2,f,f,f,2,2,2,痴呆,,,,,,,,,0,46,46,128,0,0,0,0,,,,,,,f,1,0.924533843994,j,0,0.274492025375,moral_self_bias,27,20,60.0665639375,f,001,2018_Apr_02_1926,
,,,,,,,,,,,,,,,,,,,,,,material/49.png,2,痴呆,material/149.png,2,material/49.png,白痴,2,f,f,f,2,2,2,痴呆,,,,,,,,,0,46,46,128,,,,,,,,,,,,,,,,,moral_self_bias,27,20,60.0665639375,f,001,2018_Apr_02_1926,
,,,,,,,,,,,,,,,,,,,,,,material/146.png,2,小气,material/46.png,2,material/46.png,小气,2,j,j,j,1,1,1,自私,,,,,,,,,0,47,47,45,0,0,0,0,,,,,,,f,0,1.14136505127,j,0,0.341538906097,moral_self_bias,27,20,60.0665639375,f,001,2018_Apr_02_1926,
,,,,,,,,,,,,,,,,,,,,,,material/146.png,2,小气,material/46.png,2,material/46.png,小气,2,j,j,j,1,1,1,自私,,,,,,,,,0,47,47,45,,,,,,,,,,,,,,,,,moral_self_bias,27,20,60.0665639375,f,001,2018_Apr_02_1926,
,,,,,,,,,,,,,,,,,,,,,,material/35.png,2,冷血,material/135.png,2,material/135.png,冷血,2,f,f,f,1,1,1,冷漠,,,,,,,,,0,48,48,114,0,0,0,0,,,,,,,f,1,1.30791187286,f,1,0.223785877228,moral_self_bias,27,20,60.0665639375,f,001,2018_Apr_02_1926,
,,,,,,,,,,,,,,,,,,,,,,material/35.png,2,冷血,material/135.png,2,material/135.png,冷血,2,f,f,f,1,1,1,冷漠,,,,,,,,,0,48,48,114,,,,,,,,,,,,,,,,,moral_self_bias,27,20,60.0665639375,f,001,2018_Apr_02_1926,
,,,,,,,,,,,,,,,,,,,,,,material/24.png,1,理智,material/124.png,1,material/24.png,冷静,1,f,f,f,2,2,2,理智,,,,,,,,,0,49,49,103,,,,,,,,,,,j,0,2.62475705147,,,,moral_self_bias,27,20,60.0665639375,f,001,2018_Apr_02_1926,
,,,,,,,,,,,,,,,,,,,,,,material/113.png,1,廉洁,material/13.png,1,material/13.png,廉洁,1,j,j,j,1,1,1,廉明,,,,,,,,,0,50,50,12,0,0,0,0,,,,,,,f,0,1.45804810524,j,0,0.175559997559,moral_self_bias,27,20,60.0665639375,f,001,2018_Apr_02_1926,
,,,,,,,,,,,,,,,,,,,,,,material/113.png,1,廉洁,material/13.png,1,material/13.png,廉洁,1,j,j,j,1,1,1,廉明,,,,,,,,,0,50,50,12,,,,,,,,,,,,,,,,,moral_self_bias,27,20,60.0665639375,f,001,2018_Apr_02_1926,
,,,,,,,,,,,,,,,,,,,,,,material/50.png,2,愚笨,material/150.png,2,material/50.png,鲁钝,2,f,f,f,2,2,2,愚笨,,,,,,,,,0,51,51,129,,,,,,,,,,,j,0,1.02431797981,,,,moral_self_bias,27,20,60.0665639375,f,001,2018_Apr_02_1926,
,,,,,,,,,,,,,,,,,,,,,,material/127.png,1,超群,material/27.png,1,material/127.png,卓越,1,j,j,j,2,2,2,超群,,,,,,,,,0,52,52,26,0,0,0,0,,,,,,,f,0,1.28781199455,j,0,0.224799156189,moral_self_bias,27,20,60.0665639375,f,001,2018_Apr_02_1926,
,,,,,,,,,,,,,,,,,,,,,,material/127.png,1,超群,material/27.png,1,material/127.png,卓越,1,j,j,j,2,2,2,超群,,,,,,,,,0,52,52,26,,,,,,,,,,,,,,,,,moral_self_bias,27,20,60.0665639375,f,001,2018_Apr_02_1926,
,,,,,,,,,,,,,,,,,,,,,,material/28.png,1,克己,material/128.png,1,material/28.png,自律,1,f,f,f,2,2,2,克己,,,,,,,,,0,53,53,107,0,0,0,0,,,,,,,f,1,1.17120289803,f,1,0.300857067108,moral_self_bias,27,20,60.0665639375,f,001,2018_Apr_02_1926,
,,,,,,,,,,,,,,,,,,,,,,material/28.png,1,克己,material/128.png,1,material/28.png,自律,1,f,f,f,2,2,2,克己,,,,,,,,,0,53,53,107,,,,,,,,,,,,,,,,,moral_self_bias,27,20,60.0665639375,f,001,2018_Apr_02_1926,
,,,,,,,,,,,,,,,,,,,,,,material/170.png,1,坚忍,material/71.png,1,material/170.png,严谨,1,j,j,j,2,2,2,坚忍,,,,,,,,,0,54,54,68,0,0,0,0,,,,,,,f,0,1.85822510719,j,0,0.507789134979,moral_self_bias,27,20,60.0665639375,f,001,2018_Apr_02_1926,
,,,,,,,,,,,,,,,,,,,,,,material/170.png,1,坚忍,material/71.png,1,material/170.png,严谨,1,j,j,j,2,2,2,坚忍,,,,,,,,,0,54,54,68,,,,,,,,,,,,,,,,,moral_self_bias,27,20,60.0665639375,f,001,2018_Apr_02_1926,
,,,,,,,,,,,,,,,,,,,,,,material/131.png,1,笃行,material/31.png,1,material/131.png,笃学,1,j,j,j,2,2,2,笃行,,,,,,,,,0,55,55,30,0,0,0,0,,,,,,,f,0,1.94134998322,f,1,0.225025892258,moral_self_bias,27,20,60.0665639375,f,001,2018_Apr_02_1926,
,,,,,,,,,,,,,,,,,,,,,,material/131.png,1,笃行,material/31.png,1,material/131.png,笃学,1,j,j,j,2,2,2,笃行,,,,,,,,,0,55,55,30,,,,,,,,,,,,,,,,,moral_self_bias,27,20,60.0665639375,f,001,2018_Apr_02_1926,
,,,,,,,,,,,,,,,,,,,,,,material/29.png,1,好学,material/129.png,1,material/29.png,好问,1,f,f,f,2,2,2,好学,,,,,,,,,0,56,56,108,,,,,,,,,,,j,0,1.30034995079,,,,moral_self_bias,27,20,60.0665639375,f,001,2018_Apr_02_1926,
,,,,,,,,,,,,,,,,,,,,,,material/128.png,1,自律,material/28.png,1,material/128.png,克己,1,j,j,j,2,2,2,自律,,,,,,,,,0,57,57,27,0,0,0,0,,,,,,,f,0,1.22461891174,f,1,0.241086959839,moral_self_bias,27,20,60.0665639375,f,001,2018_Apr_02_1926,
,,,,,,,,,,,,,,,,,,,,,,material/128.png,1,自律,material/28.png,1,material/128.png,克己,1,j,j,j,2,2,2,自律,,,,,,,,,0,57,57,27,,,,,,,,,,,,,,,,,moral_self_bias,27,20,60.0665639375,f,001,2018_Apr_02_1926,
,,,,,,,,,,,,,,,,,,,,,,material/124.png,1,冷静,material/24.png,1,material/124.png,理智,1,j,j,j,2,2,2,冷静,,,,,,,,,0,58,58,23,0,0,0,0,,,,,,,f,0,1.04197001457,f,1,0.191614866257,moral_self_bias,27,20,60.0665639375,f,001,2018_Apr_02_1926,
,,,,,,,,,,,,,,,,,,,,,,material/124.png,1,冷静,material/24.png,1,material/124.png,理智,1,j,j,j,2,2,2,冷静,,,,,,,,,0,58,58,23,,,,,,,,,,,,,,,,,moral_self_bias,27,20,60.0665639375,f,001,2018_Apr_02_1926,
,,,,,,,,,,,,,,,,,,,,,,material/105.png,1,守信,material/5.png,1,material/5.png,守信,1,j,j,j,1,1,1,诚信,,,,,,,,,0,59,59,4,0,0,0,0,,,,,,,f,0,4.45902514458,j,0,0.208362102509,moral_self_bias,27,20,60.0665639375,f,001,2018_Apr_02_1926,
,,,,,,,,,,,,,,,,,,,,,,material/105.png,1,守信,material/5.png,1,material/5.png,守信,1,j,j,j,1,1,1,诚信,,,,,,,,,0,59,59,4,,,,,,,,,,,,,,,,,moral_self_bias,27,20,60.0665639375,f,001,2018_Apr_02_1926,
,,,,,,,,,,,,,,,,,,,,,,material/162.png,1,敬业,material/62.png,1,material/162.png,坚韧,1,j,j,j,1,1,1,敬业,,,,,,,,,0,60,60,61,0,0,0,0,,,,,,,f,0,1.67448592186,f,1,0.208362102509,moral_self_bias,27,20,60.0665639375,f,001,2018_Apr_02_1926,
,,,,,,,,,,,,,,,,,,,,,,material/162.png,1,敬业,material/62.png,1,material/162.png,坚韧,1,j,j,j,1,1,1,敬业,,,,,,,,,0,60,60,61,,,,,,,,,,,,,,,,,moral_self_bias,27,20,60.0665639375,f,001,2018_Apr_02_1926,
,,,,,,,,,,,,,,,,,,,,,,material/46.png,2,自私,material/146.png,2,material/146.png,自私,2,f,f,f,1,1,1,小气,,,,,,,,,0,61,61,125,0,0,0,0,,,,,,,f,1,1.19113492966,j,0,0.25829410553,moral_self_bias,27,20,60.0665639375,f,001,2018_Apr_02_1926,
,,,,,,,,,,,,,,,,,,,,,,material/46.png,2,自私,material/146.png,2,material/146.png,自私,2,f,f,f,1,1,1,小气,,,,,,,,,0,61,61,125,,,,,,,,,,,,,,,,,moral_self_bias,27,20,60.0665639375,f,001,2018_Apr_02_1926,
,,,,,,,,,,,,,,,,,,,,,,material/173.png,2,不义,material/174.png,2,material/174.png,不义,2,f,f,f,1,1,1,黑心,,,,,,,,,0,62,62,153,0,0,0,0,,,,,,,f,1,2.07517385483,j,0,0.242466926575,moral_self_bias,27,20,60.0665639375,f,001,2018_Apr_02_1926,
,,,,,,,,,,,,,,,,,,,,,,material/173.png,2,不义,material/174.png,2,material/174.png,不义,2,f,f,f,1,1,1,黑心,,,,,,,,,0,62,62,153,,,,,,,,,,,,,,,,,moral_self_bias,27,20,60.0665639375,f,001,2018_Apr_02_1926,
,,,,,,,,,,,,,,,,,,,,,,material/37.png,2,卑鄙,material/137.png,2,material/137.png,卑鄙,2,f,f,f,1,1,1,无耻,,,,,,,,,0,63,63,116,0,0,0,0,,,,,,,f,1,1.58369398117,f,1,0.191333055496,moral_self_bias,27,20,60.0665639375,f,001,2018_Apr_02_1926,
,,,,,,,,,,,,,,,,,,,,,,material/37.png,2,卑鄙,material/137.png,2,material/137.png,卑鄙,2,f,f,f,1,1,1,无耻,,,,,,,,,0,63,63,116,,,,,,,,,,,,,,,,,moral_self_bias,27,20,60.0665639375,f,001,2018_Apr_02_1926,
,,,,,,,,,,,,,,,,,,,,,,material/158.png,2,浅薄,material/58.png,2,material/158.png,肤浅,2,j,j,j,2,2,2,浅薄,,,,,,,,,0,64,64,57,0,0,0,0,,,,,,,f,0,1.17454314232,j,0,0.259255886078,moral_self_bias,27,20,60.0665639375,f,001,2018_Apr_02_1926,
,,,,,,,,,,,,,,,,,,,,,,material/158.png,2,浅薄,material/58.png,2,material/158.png,肤浅,2,j,j,j,2,2,2,浅薄,,,,,,,,,0,64,64,57,,,,,,,,,,,,,,,,,moral_self_bias,27,20,60.0665639375,f,001,2018_Apr_02_1926,
,,,,,,,,,,,,,,,,,,,,,,material/48.png,2,愚蠢,material/148.png,2,material/48.png,笨蛋,2,f,f,f,2,2,2,愚蠢,,,,,,,,,0,65,65,127,0,0,0,0,,,,,,,f,1,0.891862154007,f,1,0.390701055527,moral_self_bias,27,20,60.0665639375,f,001,2018_Apr_02_1926,
,,,,,,,,,,,,,,,,,,,,,,material/48.png,2,愚蠢,material/148.png,2,material/48.png,笨蛋,2,f,f,f,2,2,2,愚蠢,,,,,,,,,0,65,65,127,,,,,,,,,,,,,,,,,moral_self_bias,27,20,60.0665639375,f,001,2018_Apr_02_1926,
,,,,,,,,,,,,,,,,,,,,,,material/112.png,1,忠诚,material/12.png,1,material/12.png,忠诚,1,j,j,j,1,1,1,忠心,,,,,,,,,0,66,66,11,0,0,0,0,,,,,,,f,0,3.17368793488,j,0,0.325646162033,moral_self_bias,27,20,60.0665639375,f,001,2018_Apr_02_1926,
,,,,,,,,,,,,,,,,,,,,,,material/112.png,1,忠诚,material/12.png,1,material/12.png,忠诚,1,j,j,j,1,1,1,忠心,,,,,,,,,0,66,66,11,,,,,,,,,,,,,,,,,moral_self_bias,27,20,60.0665639375,f,001,2018_Apr_02_1926,
,,,,,,,,,,,,,,,,,,,,,,material/71.png,1,严谨,material/68.png,1,material/71.png,广博,1,j,j,j,2,2,2,严谨,,,,,,,,,0,67,67,66,0,0,0,0,,,,,,,f,0,0.991657972336,j,0,0.240960836411,moral_self_bias,27,20,60.0665639375,f,001,2018_Apr_02_1926,
,,,,,,,,,,,,,,,,,,,,,,material/71.png,1,严谨,material/68.png,1,material/71.png,广博,1,j,j,j,2,2,2,严谨,,,,,,,,,0,67,67,66,,,,,,,,,,,,,,,,,moral_self_bias,27,20,60.0665639375,f,001,2018_Apr_02_1926,
,,,,,,,,,,,,,,,,,,,,,,material/176.png,2,害人,material/75.png,2,material/75.png,害人,2,j,j,j,1,1,1,放纵,,,,,,,,,0,68,68,71,,,,,,,,,,,j,1,1.15845799446,,,,moral_self_bias,27,20,60.0665639375,f,001,2018_Apr_02_1926,
,,,,,,,,,,,,,,,,,,,,,,material/39.png,2,恶毒,material/139.png,2,material/139.png,恶毒,2,f,f,f,1,1,1,凶残,,,,,,,,,0,69,69,118,0,0,0,0,,,,,,,f,1,1.15862894058,f,1,0.174811840057,moral_self_bias,27,20,60.0665639375,f,001,2018_Apr_02_1926,
,,,,,,,,,,,,,,,,,,,,,,material/39.png,2,恶毒,material/139.png,2,material/139.png,恶毒,2,f,f,f,1,1,1,凶残,,,,,,,,,0,69,69,118,,,,,,,,,,,,,,,,,moral_self_bias,27,20,60.0665639375,f,001,2018_Apr_02_1926,
,,,,,,,,,,,,,,,,,,,,,,material/4.png,1,友善,material/104.png,1,material/104.png,友善,1,f,f,f,1,1,1,友爱,,,,,,,,,0,70,70,83,0,0,0,0,,,,,,,f,1,3.07466387749,f,1,0.223959207535,moral_self_bias,27,20,60.0665639375,f,001,2018_Apr_02_1926,
,,,,,,,,,,,,,,,,,,,,,,material/4.png,1,友善,material/104.png,1,material/104.png,友善,1,f,f,f,1,1,1,友爱,,,,,,,,,0,70,70,83,,,,,,,,,,,,,,,,,moral_self_bias,27,20,60.0665639375,f,001,2018_Apr_02_1926,
,,,,,,,,,,,,,,,,,,,,,,material/84.png,2,犹豫,material/84.png,2,material/181.png,顽愚,2,f,f,f,2,2,2,顽愚,,,,,,,,,0,71,71,167,0,0,0,0,,,,,,,f,1,1.19224715233,j,0,0.191909074783,moral_self_bias,27,20,60.0665639375,f,001,2018_Apr_02_1926,
,,,,,,,,,,,,,,,,,,,,,,material/84.png,2,犹豫,material/84.png,2,material/181.png,顽愚,2,f,f,f,2,2,2,顽愚,,,,,,,,,0,71,71,167,,,,,,,,,,,,,,,,,moral_self_bias,27,20,60.0665639375,f,001,2018_Apr_02_1926,
,,,,,,,,,,,,,,,,,,,,,,material/67.png,1,骁勇,material/70.png,1,material/67.png,全面,1,j,j,j,2,2,2,骁勇,,,,,,,,,0,72,72,67,0,0,0,0,,,,,,,f,0,1.10821604729,j,0,0.242285013199,moral_self_bias,27,20,60.0665639375,f,001,2018_Apr_02_1926,
,,,,,,,,,,,,,,,,,,,,,,material/67.png,1,骁勇,material/70.png,1,material/67.png,全面,1,j,j,j,2,2,2,骁勇,,,,,,,,,0,72,72,67,,,,,,,,,,,,,,,,,moral_self_bias,27,20,60.0665639375,f,001,2018_Apr_02_1926,
,,,,,,,,,,,,,,,,,,,,,,material/169.png,1,颖悟,material/171.png,1,material/169.png,高效,1,f,f,f,2,2,2,颖悟,,,,,,,,,0,73,73,150,0,0,0,0,,,,,,,f,1,2.49202799797,j,0,0.258121967316,moral_self_bias,27,20,60.0665639375,f,001,2018_Apr_02_1926,
,,,,,,,,,,,,,,,,,,,,,,material/169.png,1,颖悟,material/171.png,1,material/169.png,高效,1,f,f,f,2,2,2,颖悟,,,,,,,,,0,73,73,150,,,,,,,,,,,,,,,,,moral_self_bias,27,20,60.0665639375,f,001,2018_Apr_02_1926,
,,,,,,,,,,,,,,,,,,,,,,material/177.png,2,谄媚,material/72.png,2,material/72.png,谄媚,2,j,j,j,1,1,1,恶心,,,,,,,,,0,74,74,69,,,,,,,,,,,j,1,0.941776037216,,,,moral_self_bias,27,20,60.0665639375,f,001,2018_Apr_02_1926,
,,,,,,,,,,,,,,,,,,,,,,material/148.png,2,笨蛋,material/48.png,2,material/148.png,愚蠢,2,j,j,j,2,2,2,笨蛋,,,,,,,,,0,75,75,47,0,0,0,0,,,,,,,f,0,0.891060113907,j,0,0.191368103027,moral_self_bias,27,20,60.0665639375,f,001,2018_Apr_02_1926,
,,,,,,,,,,,,,,,,,,,,,,material/148.png,2,笨蛋,material/48.png,2,material/148.png,愚蠢,2,j,j,j,2,2,2,笨蛋,,,,,,,,,0,75,75,47,,,,,,,,,,,,,,,,,moral_self_bias,27,20,60.0665639375,f,001,2018_Apr_02_1926,
,,,,,,,,,,,,,,,,,,,,,,material/167.png,1,高手,material/169.png,1,material/167.png,颖悟,1,f,f,f,2,2,2,高手,,,,,,,,,0,76,76,148,0,0,0,0,,,,,,,f,1,0.841205835342,j,0,0.275147914886,moral_self_bias,27,20,60.0665639375,f,001,2018_Apr_02_1926,
,,,,,,,,,,,,,,,,,,,,,,material/167.png,1,高手,material/169.png,1,material/167.png,颖悟,1,f,f,f,2,2,2,高手,,,,,,,,,0,76,76,148,,,,,,,,,,,,,,,,,moral_self_bias,27,20,60.0665639375,f,001,2018_Apr_02_1926,
,,,,,,,,,,,,,,,,,,,,,,material/63.png,1,正义,material/166.png,1,material/66.png,仗义,1,f,f,f,1,1,1,文明,,,,,,,,,0,77,77,145,0,0,0,0,,,,,,,f,1,1.0579020977,j,0,0.758532047272,moral_self_bias,27,20,60.0665639375,f,001,2018_Apr_02_1926,
,,,,,,,,,,,,,,,,,,,,,,material/63.png,1,正义,material/166.png,1,material/66.png,仗义,1,f,f,f,1,1,1,文明,,,,,,,,,0,77,77,145,,,,,,,,,,,,,,,,,moral_self_bias,27,20,60.0665639375,f,001,2018_Apr_02_1926,
,,,,,,,,,,,,,,,,,,,,,,material/6.png,1,厚道,material/106.png,1,material/106.png,厚道,1,f,f,f,1,1,1,诚实,,,,,,,,,0,78,78,85,0,0,0,0,,,,,,,f,1,0.974958181381,f,1,0.290938854218,moral_self_bias,27,20,60.0665639375,f,001,2018_Apr_02_1926,
,,,,,,,,,,,,,,,,,,,,,,material/6.png,1,厚道,material/106.png,1,material/106.png,厚道,1,f,f,f,1,1,1,诚实,,,,,,,,,0,78,78,85,,,,,,,,,,,,,,,,,moral_self_bias,27,20,60.0665639375,f,001,2018_Apr_02_1926,
,,,,,,,,,,,,,,,,,,,,,,material/140.png,2,邪恶,material/40.png,2,material/40.png,邪恶,2,j,j,j,1,1,1,狠毒,,,,,,,,,0,79,79,39,,,,,,,,,,,j,1,1.29174113274,,,,moral_self_bias,27,20,60.0665639375,f,001,2018_Apr_02_1926,
,,,,,,,,,,,,,,,,,,,,,,material/70.png,1,全面,material/168.png,1,material/70.png,机变,1,f,f,f,2,2,2,全面,,,,,,,,,0,80,80,147,0,0,0,0,,,,,,,f,1,1.02430009842,j,0,0.191196918488,moral_self_bias,27,20,60.0665639375,f,001,2018_Apr_02_1926,
,,,,,,,,,,,,,,,,,,,,,,material/70.png,1,全面,material/168.png,1,material/70.png,机变,1,f,f,f,2,2,2,全面,,,,,,,,,0,80,80,147,,,,,,,,,,,,,,,,,moral_self_bias,27,20,60.0665639375,f,001,2018_Apr_02_1926,
,,,,,,,,,,,,,,,,,,,,,,material/32.png,2,背叛,material/132.png,2,material/132.png,背叛,2,f,f,f,1,1,1,不忠,,,,,,,,,0,81,81,111,0,0,0,0,,,,,,,f,1,1.85770797729,f,1,0.175066232681,moral_self_bias,27,20,60.0665639375,f,001,2018_Apr_02_1926,
,,,,,,,,,,,,,,,,,,,,,,material/32.png,2,背叛,material/132.png,2,material/132.png,背叛,2,f,f,f,1,1,1,不忠,,,,,,,,,0,81,81,111,,,,,,,,,,,,,,,,,moral_self_bias,27,20,60.0665639375,f,001,2018_Apr_02_1926,
,,,,,,,,,,,,,,,,,,,,,,material/25.png,1,果断,material/125.png,1,material/25.png,果敢,1,f,f,f,2,2,2,果断,,,,,,,,,0,82,82,104,0,0,0,0,,,,,,,f,1,2.94098091125,j,0,0.241816043854,moral_self_bias,27,20,60.0665639375,f,001,2018_Apr_02_1926,
,,,,,,,,,,,,,,,,,,,,,,material/25.png,1,果断,material/125.png,1,material/25.png,果敢,1,f,f,f,2,2,2,果断,,,,,,,,,0,82,82,104,,,,,,,,,,,,,,,,,moral_self_bias,27,20,60.0665639375,f,001,2018_Apr_02_1926,
,,,,,,,,,,,,,,,,,,,,,,material/54.png,2,依赖,material/154.png,2,material/54.png,依靠,2,f,f,f,2,2,2,依赖,,,,,,,,,0,83,83,133,0,0,0,0,,,,,,,f,1,1.2411210537,f,1,0.158360004425,moral_self_bias,27,20,60.0665639375,f,001,2018_Apr_02_1926,
,,,,,,,,,,,,,,,,,,,,,,material/54.png,2,依赖,material/154.png,2,material/54.png,依靠,2,f,f,f,2,2,2,依赖,,,,,,,,,0,83,83,133,,,,,,,,,,,,,,,,,moral_self_bias,27,20,60.0665639375,f,001,2018_Apr_02_1926,
,,,,,,,,,,,,,,,,,,,,,,material/31.png,1,笃学,material/131.png,1,material/31.png,笃行,1,f,f,f,2,2,2,笃学,,,,,,,,,0,84,84,110,0,0,0,0,,,,,,,f,1,1.20703887939,f,1,0.208434104919,moral_self_bias,27,20,60.0665639375,f,001,2018_Apr_02_1926,
,,,,,,,,,,,,,,,,,,,,,,material/31.png,1,笃学,material/131.png,1,material/31.png,笃行,1,f,f,f,2,2,2,笃学,,,,,,,,,0,84,84,110,,,,,,,,,,,,,,,,,moral_self_bias,27,20,60.0665639375,f,001,2018_Apr_02_1926,
,,,,,,,,,,,,,,,,,,,,,,material/3.png,1,仁厚,material/103.png,1,material/103.png,仁厚,1,f,f,f,1,1,1,仁慈,,,,,,,,,0,85,85,82,0,0,0,0,,,,,,,f,1,1.04121398926,j,0,0.34245300293,moral_self_bias,27,20,60.0665639375,f,001,2018_Apr_02_1926,
,,,,,,,,,,,,,,,,,,,,,,material/3.png,1,仁厚,material/103.png,1,material/103.png,仁厚,1,f,f,f,1,1,1,仁慈,,,,,,,,,0,85,85,82,,,,,,,,,,,,,,,,,moral_self_bias,27,20,60.0665639375,f,001,2018_Apr_02_1926,
,,,,,,,,,,,,,,,,,,,,,,material/27.png,1,卓越,material/127.png,1,material/27.png,超群,1,f,f,f,2,2,2,卓越,,,,,,,,,0,86,86,106,,,,,,,,,,,j,0,0.958355903625,,,,moral_self_bias,27,20,60.0665639375,f,001,2018_Apr_02_1926,
,,,,,,,,,,,,,,,,,,,,,,material/79.png,2,薄弱,material/81.png,2,material/183.png,无助,2,j,j,j,2,2,2,颓废,,,,,,,,,0,87,87,77,,,,,,,,,,,j,1,0.957998991013,,,,moral_self_bias,27,20,60.0665639375,f,001,2018_Apr_02_1926,
,,,,,,,,,,,,,,,,,,,,,,material/7.png,1,公平,material/107.png,1,material/107.png,公平,1,f,f,f,1,1,1,公正,,,,,,,,,0,88,88,86,0,0,0,0,,,,,,,f,1,0.799942970276,j,0,0.224708080292,moral_self_bias,27,20,60.0665639375,f,001,2018_Apr_02_1926,
,,,,,,,,,,,,,,,,,,,,,,material/7.png,1,公平,material/107.png,1,material/107.png,公平,1,f,f,f,1,1,1,公正,,,,,,,,,0,88,88,86,,,,,,,,,,,,,,,,,moral_self_bias,27,20,60.0665639375,f,001,2018_Apr_02_1926,
,,,,,,,,,,,,,,,,,,,,,,material/142.png,2,阴险,material/42.png,2,material/42.png,阴险,2,j,j,j,1,1,1,奸诈,,,,,,,,,0,89,89,41,0,0,0,0,,,,,,,f,0,1.10857200623,f,1,0.141045093536,moral_self_bias,27,20,60.0665639375,f,001,2018_Apr_02_1926,
,,,,,,,,,,,,,,,,,,,,,,material/142.png,2,阴险,material/42.png,2,material/42.png,阴险,2,j,j,j,1,1,1,奸诈,,,,,,,,,0,89,89,41,,,,,,,,,,,,,,,,,moral_self_bias,27,20,60.0665639375,f,001,2018_Apr_02_1926,
,,,,,,,,,,,,,,,,,,,,,,material/154.png,2,依靠,material/54.png,2,material/154.png,依赖,2,j,j,j,2,2,2,依靠,,,,,,,,,0,90,90,53,0,0,0,0,,,,,,,f,0,0.808217048645,f,1,0.174712896347,moral_self_bias,27,20,60.0665639375,f,001,2018_Apr_02_1926,
,,,,,,,,,,,,,,,,,,,,,,material/154.png,2,依靠,material/54.png,2,material/154.png,依赖,2,j,j,j,2,2,2,依靠,,,,,,,,,0,90,90,53,,,,,,,,,,,,,,,,,moral_self_bias,27,20,60.0665639375,f,001,2018_Apr_02_1926,
,,,,,,,,,,,,,,,,,,,,,,material/77.png,2,浮夸,material/172.png,2,material/172.png,浮夸,2,f,f,f,1,1,1,软弱,,,,,,,,,0,91,91,151,0,0,0,0,,,,,,,f,1,1.15826702118,j,0,0.224364042282,moral_self_bias,27,20,60.0665639375,f,001,2018_Apr_02_1926,
,,,,,,,,,,,,,,,,,,,,,,material/77.png,2,浮夸,material/172.png,2,material/172.png,浮夸,2,f,f,f,1,1,1,软弱,,,,,,,,,0,91,91,151,,,,,,,,,,,,,,,,,moral_self_bias,27,20,60.0665639375,f,001,2018_Apr_02_1926,
,,,,,,,,,,,,,,,,,,,,,,material/10.png,1,坚毅,material/110.png,1,material/110.png,坚毅,1,f,f,f,1,1,1,顽强,,,,,,,,,0,92,92,89,0,0,0,0,,,,,,,f,1,1.38307404518,j,0,0.323379993439,moral_self_bias,27,20,60.0665639375,f,001,2018_Apr_02_1926,
,,,,,,,,,,,,,,,,,,,,,,material/10.png,1,坚毅,material/110.png,1,material/110.png,坚毅,1,f,f,f,1,1,1,顽强,,,,,,,,,0,92,92,89,,,,,,,,,,,,,,,,,moral_self_bias,27,20,60.0665639375,f,001,2018_Apr_02_1926,
,,,,,,,,,,,,,,,,,,,,,,material/116.png,1,机智,material/16.png,1,material/116.png,睿智,1,j,j,j,2,2,2,机智,,,,,,,,,0,93,93,15,0,0,0,0,,,,,,,f,0,1.31722998619,f,1,0.207401037216,moral_self_bias,27,20,60.0665639375,f,001,2018_Apr_02_1926,
,,,,,,,,,,,,,,,,,,,,,,material/116.png,1,机智,material/16.png,1,material/116.png,睿智,1,j,j,j,2,2,2,机智,,,,,,,,,0,93,93,15,,,,,,,,,,,,,,,,,moral_self_bias,27,20,60.0665639375,f,001,2018_Apr_02_1926,
,,,,,,,,,,,,,,,,,,,,,,material/155.png,2,盲目,material/55.png,2,material/155.png,盲从,2,j,j,j,2,2,2,盲目,,,,,,,,,0,94,94,54,0,0,0,0,,,,,,,f,0,0.891460895538,f,1,0.208379030228,moral_self_bias,27,20,60.0665639375,f,001,2018_Apr_02_1926,
,,,,,,,,,,,,,,,,,,,,,,material/155.png,2,盲目,material/55.png,2,material/155.png,盲从,2,j,j,j,2,2,2,盲目,,,,,,,,,0,94,94,54,,,,,,,,,,,,,,,,,moral_self_bias,27,20,60.0665639375,f,001,2018_Apr_02_1926,
,,,,,,,,,,,,,,,,,,,,,,material/76.png,2,放纵,material/176.png,2,material/176.png,放纵,2,f,f,f,1,1,1,虚伪,,,,,,,,,0,95,95,155,0,0,0,0,,,,,,,f,1,3.33379101753,f,1,0.21738910675,moral_self_bias,27,20,60.0665639375,f,001,2018_Apr_02_1926,
,,,,,,,,,,,,,,,,,,,,,,material/76.png,2,放纵,material/176.png,2,material/176.png,放纵,2,f,f,f,1,1,1,虚伪,,,,,,,,,0,95,95,155,,,,,,,,,,,,,,,,,moral_self_bias,27,20,60.0665639375,f,001,2018_Apr_02_1926,
,,,,,,,,,,,,,,,,,,,,,,material/44.png,2,爽约,material/144.png,2,material/144.png,爽约,2,f,f,f,1,1,1,失信,,,,,,,,,0,96,96,123,0,0,0,0,,,,,,,f,1,1.02469301224,j,0,0.174842119217,moral_self_bias,27,20,60.0665639375,f,001,2018_Apr_02_1926,
,,,,,,,,,,,,,,,,,,,,,,material/44.png,2,爽约,material/144.png,2,material/144.png,爽约,2,f,f,f,1,1,1,失信,,,,,,,,,0,96,96,123,,,,,,,,,,,,,,,,,moral_self_bias,27,20,60.0665639375,f,001,2018_Apr_02_1926,
,,,,,,,,,,,,,,,,,,,,,,material/102.png,1,善心,material/2.png,1,material/2.png,善心,1,j,j,j,1,1,1,爱心,,,,,,,,,0,97,97,1,,,,,,,,,,,j,1,1.65898799896,,,,moral_self_bias,27,20,60.0665639375,f,001,2018_Apr_02_1926,
,,,,,,,,,,,,,,,,,,,,,,material/5.png,1,诚信,material/105.png,1,material/105.png,诚信,1,f,f,f,1,1,1,守信,,,,,,,,,0,98,98,84,0,0,0,0,,,,,,,f,1,0.924645900726,f,1,0.191579818726,moral_self_bias,27,20,60.0665639375,f,001,2018_Apr_02_1926,
,,,,,,,,,,,,,,,,,,,,,,material/5.png,1,诚信,material/105.png,1,material/105.png,诚信,1,f,f,f,1,1,1,守信,,,,,,,,,0,98,98,84,,,,,,,,,,,,,,,,,moral_self_bias,27,20,60.0665639375,f,001,2018_Apr_02_1926,
,,,,,,,,,,,,,,,,,,,,,,material/136.png,2,说谎,material/36.png,2,material/36.png,说谎,2,j,j,j,1,1,1,撒谎,,,,,,,,,0,99,99,35,0,0,0,0,,,,,,,f,0,0.974726915359,f,1,0.192703008652,moral_self_bias,27,20,60.0665639375,f,001,2018_Apr_02_1926,
,,,,,,,,,,,,,,,,,,,,,,material/136.png,2,说谎,material/36.png,2,material/36.png,说谎,2,j,j,j,1,1,1,撒谎,,,,,,,,,0,99,99,35,,,,,,,,,,,,,,,,,moral_self_bias,27,20,60.0665639375,f,001,2018_Apr_02_1926,
,,,,,,,,,,,,,,,,,,,,,,material/183.png,2,颓废,material/182.png,2,material/79.png,才尽,2,f,f,f,2,2,2,薄弱,,,,,,,,,0,100,100,161,,,,,,,,,,,j,0,1.09227705002,,,,moral_self_bias,27,20,60.0665639375,f,001,2018_Apr_02_1926,
,,,,,,,,,,,,,,,,,,,,,,material/30.png,1,上进,material/130.png,1,material/30.png,进取,1,f,f,f,2,2,2,上进,,,,,,,,,0,101,101,109,,,,,,,,,,,j,0,1.30842494965,,,,moral_self_bias,27,20,60.0665639375,f,001,2018_Apr_02_1926,
,,,,,,,,,,,,,,,,,,,,,,material/141.png,2,歹毒,material/41.png,2,material/41.png,歹毒,2,j,j,j,1,1,1,残忍,,,,,,,,,0,102,102,40,,,,,,,,,,,j,1,1.59180402756,,,,moral_self_bias,27,20,60.0665639375,f,001,2018_Apr_02_1926,
,,,,,,,,,,,,,,,,,,,,,,material/72.png,2,软弱,material/77.png,2,material/77.png,软弱,2,j,j,j,1,1,1,谄媚,,,,,,,,,0,103,103,73,0,0,0,0,,,,,,,f,0,1.34063315392,j,0,0.225821018219,moral_self_bias,27,20,60.0665639375,f,001,2018_Apr_02_1926,
,,,,,,,,,,,,,,,,,,,,,,material/72.png,2,软弱,material/77.png,2,material/77.png,软弱,2,j,j,j,1,1,1,谄媚,,,,,,,,,0,103,103,73,,,,,,,,,,,,,,,,,moral_self_bias,27,20,60.0665639375,f,001,2018_Apr_02_1926,
,,,,,,,,,,,,,,,,,,,,,,material/75.png,2,卑劣,material/74.png,2,material/74.png,卑劣,2,j,j,j,1,1,1,害人,,,,,,,,,0,104,104,70,0,0,0,0,,,,,,,f,0,1.06753396988,f,1,0.240841150284,moral_self_bias,27,20,60.0665639375,f,001,2018_Apr_02_1926,
,,,,,,,,,,,,,,,,,,,,,,material/75.png,2,卑劣,material/74.png,2,material/74.png,卑劣,2,j,j,j,1,1,1,害人,,,,,,,,,0,104,104,70,,,,,,,,,,,,,,,,,moral_self_bias,27,20,60.0665639375,f,001,2018_Apr_02_1926,
,,,,,,,,,,,,,,,,,,,,,,material/15.png,1,纯洁,material/115.png,1,material/115.png,纯洁,1,f,f,f,1,1,1,清白,,,,,,,,,0,105,105,94,0,0,0,0,,,,,,,f,1,1.19158196449,j,0,0.209167957306,moral_self_bias,27,20,60.0665639375,f,001,2018_Apr_02_1926,
,,,,,,,,,,,,,,,,,,,,,,material/15.png,1,纯洁,material/115.png,1,material/115.png,纯洁,1,f,f,f,1,1,1,清白,,,,,,,,,0,105,105,94,,,,,,,,,,,,,,,,,moral_self_bias,27,20,60.0665639375,f,001,2018_Apr_02_1926,
,,,,,,,,,,,,,,,,,,,,,,material/101.png,1,善良,material/1.png,1,material/1.png,善良,1,j,j,j,1,1,1,博爱,,,,,,,,,0,106,106,0,0,0,0,0,,,,,,,f,0,1.22453093529,j,0,0.241884946823,moral_self_bias,27,20,60.0665639375,f,001,2018_Apr_02_1926,
,,,,,,,,,,,,,,,,,,,,,,material/101.png,1,善良,material/1.png,1,material/1.png,善良,1,j,j,j,1,1,1,博爱,,,,,,,,,0,106,106,0,,,,,,,,,,,,,,,,,moral_self_bias,27,20,60.0665639375,f,001,2018_Apr_02_1926,
,,,,,,,,,,,,,,,,,,,,,,material/126.png,1,勤快,material/26.png,1,material/126.png,刻苦,1,j,j,j,2,2,2,勤快,,,,,,,,,0,107,107,25,0,0,0,0,,,,,,,f,0,1.10761785507,j,0,0.241979837418,moral_self_bias,27,20,60.0665639375,f,001,2018_Apr_02_1926,
,,,,,,,,,,,,,,,,,,,,,,material/126.png,1,勤快,material/26.png,1,material/126.png,刻苦,1,j,j,j,2,2,2,勤快,,,,,,,,,0,107,107,25,,,,,,,,,,,,,,,,,moral_self_bias,27,20,60.0665639375,f,001,2018_Apr_02_1926,
,,,,,,,,,,,,,,,,,,,,,,material/133.png,2,腐败,material/33.png,2,material/33.png,腐败,2,j,j,j,1,1,1,贪污,,,,,,,,,0,108,108,32,0,0,0,0,,,,,,,f,0,1.92553114891,f,1,0.375384807587,moral_self_bias,27,20,60.0665639375,f,001,2018_Apr_02_1926,
,,,,,,,,,,,,,,,,,,,,,,material/133.png,2,腐败,material/33.png,2,material/33.png,腐败,2,j,j,j,1,1,1,贪污,,,,,,,,,0,108,108,32,,,,,,,,,,,,,,,,,moral_self_bias,27,20,60.0665639375,f,001,2018_Apr_02_1926,
,,,,,,,,,,,,,,,,,,,,,,material/180.png,2,无助,material/79.png,2,material/81.png,颓废,2,j,j,j,2,2,2,怠惰,,,,,,,,,0,109,109,75,0,0,0,0,,,,,,,f,0,1.19121289253,f,1,0.190700054169,moral_self_bias,27,20,60.0665639375,f,001,2018_Apr_02_1926,
,,,,,,,,,,,,,,,,,,,,,,material/180.png,2,无助,material/79.png,2,material/81.png,颓废,2,j,j,j,2,2,2,怠惰,,,,,,,,,0,109,109,75,,,,,,,,,,,,,,,,,moral_self_bias,27,20,60.0665639375,f,001,2018_Apr_02_1926,
,,,,,,,,,,,,,,,,,,,,,,material/159.png,2,弱智,material/59.png,2,material/159.png,智障,2,j,j,j,2,2,2,弱智,,,,,,,,,0,110,110,58,0,0,0,0,,,,,,,f,0,1.19156694412,j,0,0.19088101387,moral_self_bias,27,20,60.0665639375,f,001,2018_Apr_02_1926,
,,,,,,,,,,,,,,,,,,,,,,material/159.png,2,弱智,material/59.png,2,material/159.png,智障,2,j,j,j,2,2,2,弱智,,,,,,,,,0,110,110,58,,,,,,,,,,,,,,,,,moral_self_bias,27,20,60.0665639375,f,001,2018_Apr_02_1926,
,,,,,,,,,,,,,,,,,,,,,,material/172.png,2,无情,material/175.png,2,material/175.png,无情,2,f,f,f,1,1,1,浮夸,,,,,,,,,0,111,111,154,0,0,0,0,,,,,,,f,1,2.47496795654,f,1,0.191820859909,moral_self_bias,27,20,60.0665639375,f,001,2018_Apr_02_1926,
,,,,,,,,,,,,,,,,,,,,,,material/172.png,2,无情,material/175.png,2,material/175.png,无情,2,f,f,f,1,1,1,浮夸,,,,,,,,,0,111,111,154,,,,,,,,,,,,,,,,,moral_self_bias,27,20,60.0665639375,f,001,2018_Apr_02_1926,
,,,,,,,,,,,,,,,,,,,,,,material/41.png,2,残忍,material/141.png,2,material/141.png,残忍,2,f,f,f,1,1,1,歹毒,,,,,,,,,0,112,112,120,0,0,0,0,,,,,,,f,1,1.7579190731,f,1,0.574800014496,moral_self_bias,27,20,60.0665639375,f,001,2018_Apr_02_1926,
,,,,,,,,,,,,,,,,,,,,,,material/41.png,2,残忍,material/141.png,2,material/141.png,残忍,2,f,f,f,1,1,1,歹毒,,,,,,,,,0,112,112,120,,,,,,,,,,,,,,,,,moral_self_bias,27,20,60.0665639375,f,001,2018_Apr_02_1926,
,,,,,,,,,,,,,,,,,,,,,,material/120.png,1,能干,material/20.png,1,material/120.png,厉害,1,j,j,j,2,2,2,能干,,,,,,,,,0,113,113,19,0,0,0,0,,,,,,,f,0,1.27505397797,j,0,0.241664171219,moral_self_bias,27,20,60.0665639375,f,001,2018_Apr_02_1926,
,,,,,,,,,,,,,,,,,,,,,,material/120.png,1,能干,material/20.png,1,material/120.png,厉害,1,j,j,j,2,2,2,能干,,,,,,,,,0,113,113,19,,,,,,,,,,,,,,,,,moral_self_bias,27,20,60.0665639375,f,001,2018_Apr_02_1926,
,,,,,,,,,,,,,,,,,,,,,,material/152.png,2,缓慢,material/52.png,2,material/152.png,拖延,2,j,j,j,2,2,2,缓慢,,,,,,,,,0,114,114,51,0,0,0,0,,,,,,,f,0,0.991870880127,f,1,0.2252368927,moral_self_bias,27,20,60.0665639375,f,001,2018_Apr_02_1926,
,,,,,,,,,,,,,,,,,,,,,,material/152.png,2,缓慢,material/52.png,2,material/152.png,拖延,2,j,j,j,2,2,2,缓慢,,,,,,,,,0,114,114,51,,,,,,,,,,,,,,,,,moral_self_bias,27,20,60.0665639375,f,001,2018_Apr_02_1926,
,,,,,,,,,,,,,,,,,,,,,,material/21.png,1,干练,material/121.png,1,material/21.png,精干,1,f,f,f,2,2,2,干练,,,,,,,,,0,115,115,100,,,,,,,,,,,j,0,1.40819501877,,,,moral_self_bias,27,20,60.0665639375,f,001,2018_Apr_02_1926,
,,,,,,,,,,,,,,,,,,,,,,material/81.png,2,呆笨,material/179.png,2,material/83.png,差生,2,f,f,f,2,2,2,无助,,,,,,,,,0,116,116,158,,,,,,,,,,,j,0,0.807714939117,,,,moral_self_bias,27,20,60.0665639375,f,001,2018_Apr_02_1926,
,,,,,,,,,,,,,,,,,,,,,,material/13.png,1,廉明,material/113.png,1,material/113.png,廉明,1,f,f,f,1,1,1,廉洁,,,,,,,,,0,117,117,92,0,0,0,0,,,,,,,f,1,1.17458295822,f,1,0.257616996765,moral_self_bias,27,20,60.0665639375,f,001,2018_Apr_02_1926,
,,,,,,,,,,,,,,,,,,,,,,material/13.png,1,廉明,material/113.png,1,material/113.png,廉明,1,f,f,f,1,1,1,廉洁,,,,,,,,,0,117,117,92,,,,,,,,,,,,,,,,,moral_self_bias,27,20,60.0665639375,f,001,2018_Apr_02_1926,
,,,,,,,,,,,,,,,,,,,,,,material/174.png,2,虚伪,material/76.png,2,material/76.png,虚伪,2,j,j,j,1,1,1,不义,,,,,,,,,0,118,118,72,,,,,,,,,,,j,1,1.29070496559,,,,moral_self_bias,27,20,60.0665639375,f,001,2018_Apr_02_1926,
,,,,,,,,,,,,,,,,,,,,,,material/56.png,2,愚昧,material/156.png,2,material/56.png,愚钝,2,f,f,f,2,2,2,愚昧,,,,,,,,,0,119,119,135,0,0,0,0,,,,,,,f,1,1.57459497452,f,1,0.341464042664,moral_self_bias,27,20,60.0665639375,f,001,2018_Apr_02_1926,
,,,,,,,,,,,,,,,,,,,,,,material/56.png,2,愚昧,material/156.png,2,material/56.png,愚钝,2,f,f,f,2,2,2,愚昧,,,,,,,,,0,119,119,135,,,,,,,,,,,,,,,,,moral_self_bias,27,20,60.0665639375,f,001,2018_Apr_02_1926,
,,,,,,,,,,,,,,,,,,,,,,material/123.png,1,多才,material/23.png,1,material/123.png,有才,1,j,j,j,2,2,2,多才,,,,,,,,,0,120,120,22,0,0,0,0,,,,,,,f,0,1.14158511162,j,0,0.242432117462,moral_self_bias,27,20,60.0665639375,f,001,2018_Apr_02_1926,
,,,,,,,,,,,,,,,,,,,,,,material/123.png,1,多才,material/23.png,1,material/123.png,有才,1,j,j,j,2,2,2,多才,,,,,,,,,0,120,120,22,,,,,,,,,,,,,,,,,moral_self_bias,27,20,60.0665639375,f,001,2018_Apr_02_1926,
,,,,,,,,,,,,,,,,,,,,,,material/104.png,1,友爱,material/4.png,1,material/4.png,友爱,1,j,j,j,1,1,1,友善,,,,,,,,,0,121,121,3,0,0,0,0,,,,,,,f,0,0.774618864059,j,0,0.274817943573,moral_self_bias,27,20,60.0665639375,f,001,2018_Apr_02_1926,
,,,,,,,,,,,,,,,,,,,,,,material/104.png,1,友爱,material/4.png,1,material/4.png,友爱,1,j,j,j,1,1,1,友善,,,,,,,,,0,121,121,3,,,,,,,,,,,,,,,,,moral_self_bias,27,20,60.0665639375,f,001,2018_Apr_02_1926,
,,,,,,,,,,,,,,,,,,,,,,material/129.png,1,好问,material/29.png,1,material/129.png,好学,1,j,j,j,2,2,2,好问,,,,,,,,,0,122,122,28,0,0,0,0,,,,,,,f,0,0.758522987366,j,0,0.258435964584,moral_self_bias,27,20,60.0665639375,f,001,2018_Apr_02_1926,
,,,,,,,,,,,,,,,,,,,,,,material/129.png,1,好问,material/29.png,1,material/129.png,好学,1,j,j,j,2,2,2,好问,,,,,,,,,0,122,122,28,,,,,,,,,,,,,,,,,moral_self_bias,27,20,60.0665639375,f,001,2018_Apr_02_1926,
,,,,,,,,,,,,,,,,,,,,,,material/68.png,1,广博,material/167.png,1,material/68.png,高手,1,f,f,f,2,2,2,广博,,,,,,,,,0,123,123,146,0,0,0,0,,,,,,,f,1,1.09145498276,j,0,0.267721176147,moral_self_bias,27,20,60.0665639375,f,001,2018_Apr_02_1926,
,,,,,,,,,,,,,,,,,,,,,,material/68.png,1,广博,material/167.png,1,material/68.png,高手,1,f,f,f,2,2,2,广博,,,,,,,,,0,123,123,146,,,,,,,,,,,,,,,,,moral_self_bias,27,20,60.0665639375,f,001,2018_Apr_02_1926,
,,,,,,,,,,,,,,,,,,,,,,material/16.png,1,睿智,material/116.png,1,material/16.png,机智,1,f,f,f,2,2,2,睿智,,,,,,,,,0,124,124,95,0,0,0,0,,,,,,,f,1,1.07432699203,j,0,0.291853189468,moral_self_bias,27,20,60.0665639375,f,001,2018_Apr_02_1926,
,,,,,,,,,,,,,,,,,,,,,,material/16.png,1,睿智,material/116.png,1,material/16.png,机智,1,f,f,f,2,2,2,睿智,,,,,,,,,0,124,124,95,,,,,,,,,,,,,,,,,moral_self_bias,27,20,60.0665639375,f,001,2018_Apr_02_1926,
,,,,,,,,,,,,,,,,,,,,,,material/150.png,2,鲁钝,material/50.png,2,material/150.png,愚笨,2,j,j,j,2,2,2,鲁钝,,,,,,,,,0,125,125,49,0,0,0,0,,,,,,,f,0,0.957369089127,j,0,0.308815002441,moral_self_bias,27,20,60.0665639375,f,001,2018_Apr_02_1926,
,,,,,,,,,,,,,,,,,,,,,,material/150.png,2,鲁钝,material/50.png,2,material/150.png,愚笨,2,j,j,j,2,2,2,鲁钝,,,,,,,,,0,125,125,49,,,,,,,,,,,,,,,,,moral_self_bias,27,20,60.0665639375,f,001,2018_Apr_02_1926,
,,,,,,,,,,,,,,,,,,,,,,material/61.png,1,仗义,material/65.png,1,material/166.png,谦虚,1,j,j,j,1,1,1,平等,,,,,,,,,0,126,126,64,0,0,0,0,,,,,,,f,0,0.773897886276,f,1,0.541450977325,moral_self_bias,27,20,60.0665639375,f,001,2018_Apr_02_1926,
,,,,,,,,,,,,,,,,,,,,,,material/61.png,1,仗义,material/65.png,1,material/166.png,谦虚,1,j,j,j,1,1,1,平等,,,,,,,,,0,126,126,64,,,,,,,,,,,,,,,,,moral_self_bias,27,20,60.0665639375,f,001,2018_Apr_02_1926,
,,,,,,,,,,,,,,,,,,,,,,material/139.png,2,凶残,material/39.png,2,material/39.png,凶残,2,j,j,j,1,1,1,恶毒,,,,,,,,,0,127,127,38,0,0,0,0,,,,,,,f,0,1.79150390625,f,1,0.208195924759,moral_self_bias,27,20,60.0665639375,f,001,2018_Apr_02_1926,
,,,,,,,,,,,,,,,,,,,,,,material/139.png,2,凶残,material/39.png,2,material/39.png,凶残,2,j,j,j,1,1,1,恶毒,,,,,,,,,0,127,127,38,,,,,,,,,,,,,,,,,moral_self_bias,27,20,60.0665639375,f,001,2018_Apr_02_1926,
,,,,,,,,,,,,,,,,,,,,,,material/153.png,2,迟钝,material/53.png,2,material/153.png,迟缓,2,j,j,j,2,2,2,迟钝,,,,,,,,,0,128,128,52,0,0,0,0,,,,,,,f,0,1.43273496628,j,0,0.223457098007,moral_self_bias,27,20,60.0665639375,f,001,2018_Apr_02_1926,
,,,,,,,,,,,,,,,,,,,,,,material/153.png,2,迟钝,material/53.png,2,material/153.png,迟缓,2,j,j,j,2,2,2,迟钝,,,,,,,,,0,128,128,52,,,,,,,,,,,,,,,,,moral_self_bias,27,20,60.0665639375,f,001,2018_Apr_02_1926,
,,,,,,,,,,,,,,,,,,,,,,material/60.png,2,粗拙,material/160.png,2,material/60.png,笨拙,2,f,f,f,2,2,2,粗拙,,,,,,,,,0,129,129,139,0,0,0,0,,,,,,,f,1,0.741583108902,f,1,0.226005077362,moral_self_bias,27,20,60.0665639375,f,001,2018_Apr_02_1926,
,,,,,,,,,,,,,,,,,,,,,,material/60.png,2,粗拙,material/160.png,2,material/60.png,笨拙,2,f,f,f,2,2,2,粗拙,,,,,,,,,0,129,129,139,,,,,,,,,,,,,,,,,moral_self_bias,27,20,60.0665639375,f,001,2018_Apr_02_1926,
,,,,,,,,,,,,,,,,,,,,,,material/107.png,1,公正,material/7.png,1,material/7.png,公正,1,j,j,j,1,1,1,公平,,,,,,,,,0,130,130,6,0,0,0,0,,,,,,,f,0,0.824477910995,j,0,0.29105091095,moral_self_bias,27,20,60.0665639375,f,001,2018_Apr_02_1926,
,,,,,,,,,,,,,,,,,,,,,,material/107.png,1,公正,material/7.png,1,material/7.png,公正,1,j,j,j,1,1,1,公平,,,,,,,,,0,130,130,6,,,,,,,,,,,,,,,,,moral_self_bias,27,20,60.0665639375,f,001,2018_Apr_02_1926,
,,,,,,,,,,,,,,,,,,,,,,material/130.png,1,进取,material/30.png,1,material/130.png,上进,1,j,j,j,2,2,2,进取,,,,,,,,,0,131,131,29,0,0,0,0,,,,,,,f,0,0.806876897812,j,0,0.275176048279,moral_self_bias,27,20,60.0665639375,f,001,2018_Apr_02_1926,
,,,,,,,,,,,,,,,,,,,,,,material/130.png,1,进取,material/30.png,1,material/130.png,上进,1,j,j,j,2,2,2,进取,,,,,,,,,0,131,131,29,,,,,,,,,,,,,,,,,moral_self_bias,27,20,60.0665639375,f,001,2018_Apr_02_1926,
,,,,,,,,,,,,,,,,,,,,,,material/108.png,1,公道,material/8.png,1,material/8.png,公道,1,j,j,j,1,1,1,无私,,,,,,,,,0,132,132,7,0,0,0,0,,,,,,,f,0,1.40807414055,j,0,0.258380174637,moral_self_bias,27,20,60.0665639375,f,001,2018_Apr_02_1926,
,,,,,,,,,,,,,,,,,,,,,,material/108.png,1,公道,material/8.png,1,material/8.png,公道,1,j,j,j,1,1,1,无私,,,,,,,,,0,132,132,7,,,,,,,,,,,,,,,,,moral_self_bias,27,20,60.0665639375,f,001,2018_Apr_02_1926,
,,,,,,,,,,,,,,,,,,,,,,material/122.png,1,博学,material/22.png,1,material/122.png,才学,1,j,j,j,2,2,2,博学,,,,,,,,,0,133,133,21,0,0,0,0,,,,,,,f,0,1.05762290955,f,1,0.191209077835,moral_self_bias,27,20,60.0665639375,f,001,2018_Apr_02_1926,
,,,,,,,,,,,,,,,,,,,,,,material/122.png,1,博学,material/22.png,1,material/122.png,才学,1,j,j,j,2,2,2,博学,,,,,,,,,0,133,133,21,,,,,,,,,,,,,,,,,moral_self_bias,27,20,60.0665639375,f,001,2018_Apr_02_1926,
,,,,,,,,,,,,,,,,,,,,,,material/149.png,2,白痴,material/49.png,2,material/149.png,痴呆,2,j,j,j,2,2,2,白痴,,,,,,,,,0,134,134,48,0,0,0,0,,,,,,,f,0,0.999594926834,f,1,0.174299001694,moral_self_bias,27,20,60.0665639375,f,001,2018_Apr_02_1926,
,,,,,,,,,,,,,,,,,,,,,,material/149.png,2,白痴,material/49.png,2,material/149.png,痴呆,2,j,j,j,2,2,2,白痴,,,,,,,,,0,134,134,48,,,,,,,,,,,,,,,,,moral_self_bias,27,20,60.0665639375,f,001,2018_Apr_02_1926,
,,,,,,,,,,,,,,,,,,,,,,material/42.png,2,奸诈,material/142.png,2,material/142.png,奸诈,2,f,f,f,1,1,1,阴险,,,,,,,,,0,135,135,121,0,0,0,0,,,,,,,f,1,1.58306002617,j,0,0.207529067993,moral_self_bias,27,20,60.0665639375,f,001,2018_Apr_02_1926,
,,,,,,,,,,,,,,,,,,,,,,material/42.png,2,奸诈,material/142.png,2,material/142.png,奸诈,2,f,f,f,1,1,1,阴险,,,,,,,,,0,135,135,121,,,,,,,,,,,,,,,,,moral_self_bias,27,20,60.0665639375,f,001,2018_Apr_02_1926,
,,,,,,,,,,,,,,,,,,,,,,material/135.png,2,冷漠,material/35.png,2,material/35.png,冷漠,2,j,j,j,1,1,1,冷血,,,,,,,,,0,136,136,34,0,0,0,0,,,,,,,f,0,1.05808806419,f,1,0.174741029739,moral_self_bias,27,20,60.0665639375,f,001,2018_Apr_02_1926,
,,,,,,,,,,,,,,,,,,,,,,material/135.png,2,冷漠,material/35.png,2,material/35.png,冷漠,2,j,j,j,1,1,1,冷血,,,,,,,,,0,136,136,34,,,,,,,,,,,,,,,,,moral_self_bias,27,20,60.0665639375,f,001,2018_Apr_02_1926,
,,,,,,,,,,,,,,,,,,,,,,material/62.png,1,坚韧,material/162.png,1,material/62.png,敬业,1,f,f,f,1,1,1,坚韧,,,,,,,,,0,137,137,141,,,,,,,,,,,j,0,1.10027003288,,,,moral_self_bias,27,20,60.0665639375,f,001,2018_Apr_02_1926,
,,,,,,,,,,,,,,,,,,,,,,material/145.png,2,下流,material/45.png,2,material/45.png,下流,2,j,j,j,1,1,1,小人,,,,,,,,,0,138,138,44,,,,,,,,,,,j,1,1.52472615242,,,,moral_self_bias,27,20,60.0665639375,f,001,2018_Apr_02_1926,
,,,,,,,,,,,,,,,,,,,,,,material/181.png,2,怠惰,material/180.png,2,material/180.png,怠惰,2,f,f,f,2,2,2,犹豫,,,,,,,,,0,139,139,159,,,,,,,,,,,j,0,0.857795000076,,,,moral_self_bias,27,20,60.0665639375,f,001,2018_Apr_02_1926,
,,,,,,,,,,,,,,,,,,,,,,material/171.png,1,高效,material/67.png,1,material/171.png,骁勇,1,j,j,j,2,2,2,高效,,,,,,,,,0,140,140,65,,,,,,,,,,,j,1,0.842002153397,,,,moral_self_bias,27,20,60.0665639375,f,001,2018_Apr_02_1926,
,,,,,,,,,,,,,,,,,,,,,,material/66.png,1,独立,material/66.png,1,material/165.png,正义,1,f,f,f,1,1,1,正义,,,,,,,,,0,141,141,164,0,0,0,0,,,,,,,f,1,1.5912668705,j,0,0.224732875824,moral_self_bias,27,20,60.0665639375,f,001,2018_Apr_02_1926,
,,,,,,,,,,,,,,,,,,,,,,material/66.png,1,独立,material/66.png,1,material/165.png,正义,1,f,f,f,1,1,1,正义,,,,,,,,,0,141,141,164,,,,,,,,,,,,,,,,,moral_self_bias,27,20,60.0665639375,f,001,2018_Apr_02_1926,
,,,,,,,,,,,,,,,,,,,,,,material/58.png,2,肤浅,material/158.png,2,material/58.png,浅薄,2,f,f,f,2,2,2,肤浅,,,,,,,,,0,142,142,137,0,0,0,0,,,,,,,f,1,1.05042815208,f,1,0.17192697525,moral_self_bias,27,20,60.0665639375,f,001,2018_Apr_02_1926,
,,,,,,,,,,,,,,,,,,,,,,material/58.png,2,肤浅,material/158.png,2,material/58.png,浅薄,2,f,f,f,2,2,2,肤浅,,,,,,,,,0,142,142,137,,,,,,,,,,,,,,,,,moral_self_bias,27,20,60.0665639375,f,001,2018_Apr_02_1926,
,,,,,,,,,,,,,,,,,,,,,,material/69.png,1,高明,material/69.png,1,material/69.png,高明,1,f,f,f,2,2,2,高明,,,,,,,,,0,143,143,166,0,0,0,0,,,,,,,f,1,0.708948135376,j,0,0.241786956787,moral_self_bias,27,20,60.0665639375,f,001,2018_Apr_02_1926,
,,,,,,,,,,,,,,,,,,,,,,material/69.png,1,高明,material/69.png,1,material/69.png,高明,1,f,f,f,2,2,2,高明,,,,,,,,,0,143,143,166,,,,,,,,,,,,,,,,,moral_self_bias,27,20,60.0665639375,f,001,2018_Apr_02_1926,
,,,,,,,,,,,,,,,,,,,,,,material/2.png,1,爱心,material/102.png,1,material/102.png,爱心,1,f,f,f,1,1,1,善心,,,,,,,,,0,144,144,81,0,0,0,0,,,,,,,f,1,1.34198713303,f,1,0.224086999893,moral_self_bias,27,20,60.0665639375,f,001,2018_Apr_02_1926,
,,,,,,,,,,,,,,,,,,,,,,material/2.png,1,爱心,material/102.png,1,material/102.png,爱心,1,f,f,f,1,1,1,善心,,,,,,,,,0,144,144,81,,,,,,,,,,,,,,,,,moral_self_bias,27,20,60.0665639375,f,001,2018_Apr_02_1926,
,,,,,,,,,,,,,,,,,,,,,,material/74.png,2,黑心,material/173.png,2,material/173.png,黑心,2,f,f,f,1,1,1,卑劣,,,,,,,,,0,145,145,152,,,,,,,,,,,j,0,1.0246860981,,,,moral_self_bias,27,20,60.0665639375,f,001,2018_Apr_02_1926,
,,,,,,,,,,,,,,,,,,,,,,material/134.png,2,可恨,material/34.png,2,material/34.png,可恨,2,j,j,j,1,1,1,可恶,,,,,,,,,0,146,146,33,,,,,,,,,,,j,1,1.00867295265,,,,moral_self_bias,27,20,60.0665639375,f,001,2018_Apr_02_1926,
,,,,,,,,,,,,,,,,,,,,,,material/175.png,2,残虐,material/73.png,2,material/73.png,残虐,2,f,f,f,1,1,1,无情,,,,,,,,,0,147,147,165,0,0,0,0,,,,,,,f,1,1.00778102875,f,1,0.158204078674,moral_self_bias,27,20,60.0665639375,f,001,2018_Apr_02_1926,
,,,,,,,,,,,,,,,,,,,,,,material/175.png,2,残虐,material/73.png,2,material/73.png,残虐,2,f,f,f,1,1,1,无情,,,,,,,,,0,147,147,165,,,,,,,,,,,,,,,,,moral_self_bias,27,20,60.0665639375,f,001,2018_Apr_02_1926,
,,,,,,,,,,,,,,,,,,,,,,material/163.png,1,文明,material/163.png,1,material/63.png,宽容,1,f,f,f,1,1,1,宽容,,,,,,,,,0,148,148,142,0,0,0,0,,,,,,,f,1,0.817008972168,j,0,0.224770069122,moral_self_bias,27,20,60.0665639375,f,001,2018_Apr_02_1926,
,,,,,,,,,,,,,,,,,,,,,,material/163.png,1,文明,material/163.png,1,material/63.png,宽容,1,f,f,f,1,1,1,宽容,,,,,,,,,0,148,148,142,,,,,,,,,,,,,,,,,moral_self_bias,27,20,60.0665639375,f,001,2018_Apr_02_1926,
,,,,,,,,,,,,,,,,,,,,,,material/34.png,2,可恶,material/134.png,2,material/134.png,可恶,2,f,f,f,1,1,1,可恨,,,,,,,,,0,149,149,113,,,,,,,,,,,j,0,1.27446103096,,,,moral_self_bias,27,20,60.0665639375,f,001,2018_Apr_02_1926,
