Block1_Old,Num_Source3,Num_Source2,Num_Source1,valence1,valence2,valence3,Num_Old2,Corr_S1,Num_Old1,Corr_S3,Corr_S2,Block3_Old,Block2_Old,Source_2,Source_3,Source_1,domain3,domain2,domain1,Num_Old3,math,Num_All2,valence_all1,All_Words3,Num_All1,valence_all2,Num_All3,All_Words1,valence_all3,Corr_Rec2,Corr_Rec3,Corr_Rec1,domian_all3,domian_all2,domian_all1,All_Words2,trials.thisRepN,trials.thisTrialN,trials.thisN,trials.thisIndex,trials_2.thisRepN,trials_2.thisTrialN,trials_2.thisN,trials_2.thisIndex,trials_4.thisRepN,trials_4.thisTrialN,trials_4.thisN,trials_4.thisIndex,trials_3.thisRepN,trials_3.thisTrialN,trials_3.thisN,trials_3.thisIndex,block_resp_1.keys,block_resp_1.rt,words_rating.keys,words_rating.rt,block_resp_2.keys,block_resp_2.rt,Rec_resp.keys,Rec_resp.corr,Rec_resp.rt,Source_resp.keys,Source_resp.corr,Source_resp.rt,expName,participant,Age,frameRate,Sex,session,date,
,,,,,,,,,,,,,,,,,,,,,,,,,,,,,,,,,,,,,,,,,,,,,,,,,,,,,1,3.47577404976,,,,,,,,,,,moral_self_bias,28,20,60.0823960166,f,001,2018_Apr_02_1945,
高效,material/instr2_1.png,material/instr2_1.png,material/instr2_1.png,1,1,1,material/169.png,f,material/171.png,f,f,颖悟,颖悟,self,self,self,2,2,2,material/169.png,,,,,,,,,,,,,,,,,0,0,0,70,,,,,,,,,,,,,,,4,2.39226508141,,,,,,,,,moral_self_bias,28,20,60.0823960166,f,001,2018_Apr_02_1945,
残虐,material/instr2_1.png,material/instr2_1.png,material/instr2_1.png,2,2,2,material/175.png,f,material/73.png,f,f,残虐,无情,self,self,self,1,1,1,material/73.png,,,,,,,,,,,,,,,,,0,1,1,85,,,,,,,,,,,,,,,1,0.942467927933,,,,,,,,,moral_self_bias,28,20,60.0823960166,f,001,2018_Apr_02_1945,
背叛,material/instr2_1.png,material/instr2_1.png,material/instr2_1.png,2,2,2,material/32.png,f,material/132.png,f,f,背叛,不忠,self,self,self,1,1,1,material/132.png,,,,,,,,,,,,,,,,,0,2,2,31,,,,,,,,,,,,,,,1,1.70914196968,,,,,,,,,moral_self_bias,28,20,60.0823960166,f,001,2018_Apr_02_1945,
正义,material/instr2_1.png,material/instr2_1.png,material/instr2_1.png,1,1,1,material/66.png,f,material/66.png,f,f,独立,正义,self,self,self,1,1,1,material/165.png,,,,,,,,,,,,,,,,,0,3,3,84,,,,,,,,,,,,,,,4,1.42580604553,,,,,,,,,moral_self_bias,28,20,60.0823960166,f,001,2018_Apr_02_1945,
不义,material/instr2_2.png,material/instr2_2.png,material/instr2_2.png,2,2,2,material/173.png,j,material/174.png,j,j,不义,黑心,friend,friend,friend,1,1,1,material/174.png,,,,,,,,,,,,,,,,,0,4,4,73,,,,,,,,,,,,,,,1,0.959172010422,,,,,,,,,moral_self_bias,28,20,60.0823960166,f,001,2018_Apr_02_1945,
狠毒,material/instr2_2.png,material/instr2_2.png,material/instr2_2.png,2,2,2,material/40.png,j,material/140.png,j,j,狠毒,邪恶,friend,friend,friend,1,1,1,material/140.png,,,,,,,,,,,,,,,,,0,5,5,39,,,,,,,,,,,,,,,1,0.908873081207,,,,,,,,,moral_self_bias,28,20,60.0823960166,f,001,2018_Apr_02_1945,
冷血,material/instr2_1.png,material/instr2_1.png,material/instr2_1.png,2,2,2,material/35.png,f,material/135.png,f,f,冷血,冷漠,self,self,self,1,1,1,material/135.png,,,,,,,,,,,,,,,,,0,6,6,34,,,,,,,,,,,,,,,1,1.19213581085,,,,,,,,,moral_self_bias,28,20,60.0823960166,f,001,2018_Apr_02_1945,
爽约,material/instr2_2.png,material/instr2_2.png,material/instr2_2.png,2,2,2,material/44.png,j,material/144.png,j,j,爽约,失信,friend,friend,friend,1,1,1,material/144.png,,,,,,,,,,,,,,,,,0,7,7,43,,,,,,,,,,,,,,,1,1.24266195297,,,,,,,,,moral_self_bias,28,20,60.0823960166,f,001,2018_Apr_02_1945,
厚道,material/instr2_2.png,material/instr2_2.png,material/instr2_2.png,1,1,1,material/6.png,j,material/106.png,j,j,厚道,诚实,friend,friend,friend,1,1,1,material/106.png,,,,,,,,,,,,,,,,,0,8,8,5,,,,,,,,,,,,,,,4,0.80831694603,,,,,,,,,moral_self_bias,28,20,60.0823960166,f,001,2018_Apr_02_1945,
好问,material/instr2_1.png,material/instr2_1.png,material/instr2_1.png,1,1,1,material/29.png,f,material/129.png,f,f,好学,好学,self,self,self,2,2,2,material/29.png,,,,,,,,,,,,,,,,,0,9,9,28,,,,,,,,,,,,,,,4,1.6581530571,,,,,,,,,moral_self_bias,28,20,60.0823960166,f,001,2018_Apr_02_1945,
颖悟,material/instr2_2.png,material/instr2_2.png,material/instr2_2.png,1,1,1,material/167.png,j,material/169.png,j,j,高手,高手,friend,friend,friend,2,2,2,material/167.png,,,,,,,,,,,,,,,,,0,10,10,68,,,,,,,,,,,,,,,4,1.77578401566,,,,,,,,,moral_self_bias,28,20,60.0823960166,f,001,2018_Apr_02_1945,
忠贞,material/instr2_2.png,material/instr2_2.png,material/instr2_2.png,1,1,1,material/14.png,j,material/114.png,j,j,忠贞,爱国,friend,friend,friend,1,1,1,material/114.png,,,,,,,,,,,,,,,,,0,11,11,13,,,,,,,,,,,,,,,4,1.44989609718,,,,,,,,,moral_self_bias,28,20,60.0823960166,f,001,2018_Apr_02_1945,
果敢,material/instr2_1.png,material/instr2_1.png,material/instr2_1.png,1,1,1,material/25.png,f,material/125.png,f,f,果断,果断,self,self,self,2,2,2,material/25.png,,,,,,,,,,,,,,,,,0,12,12,24,,,,,,,,,,,,,,,4,1.05855894089,,,,,,,,,moral_self_bias,28,20,60.0823960166,f,001,2018_Apr_02_1945,
撒谎,material/instr2_1.png,material/instr2_1.png,material/instr2_1.png,2,2,2,material/36.png,f,material/136.png,f,f,撒谎,说谎,self,self,self,1,1,1,material/136.png,,,,,,,,,,,,,,,,,0,13,13,35,,,,,,,,,,,,,,,1,0.909298181534,,,,,,,,,moral_self_bias,28,20,60.0823960166,f,001,2018_Apr_02_1945,
犹豫,material/instr2_1.png,material/instr2_1.png,material/instr2_1.png,2,2,2,material/78.png,f,material/181.png,f,f,厌学,草率,self,self,self,2,2,2,material/184.png,,,,,,,,,,,,,,,,,0,14,14,80,,,,,,,,,,,,,,,1,0.891965150833,,,,,,,,,moral_self_bias,28,20,60.0823960166,f,001,2018_Apr_02_1945,
薄弱,material/instr2_1.png,material/instr2_1.png,material/instr2_1.png,2,2,2,material/82.png,f,material/183.png,f,f,毛糙,窝囊,self,self,self,2,2,2,material/178.png,,,,,,,,,,,,,,,,,0,15,15,82,,,,,,,,,,,,,,,2,1.14200115204,,,,,,,,,moral_self_bias,28,20,60.0823960166,f,001,2018_Apr_02_1945,
忠心,material/instr2_1.png,material/instr2_1.png,material/instr2_1.png,1,1,1,material/12.png,f,material/112.png,f,f,忠心,忠诚,self,self,self,1,1,1,material/112.png,,,,,,,,,,,,,,,,,0,16,16,11,,,,,,,,,,,,,,,1,1.25852704048,,,,,,,,,moral_self_bias,28,20,60.0823960166,f,001,2018_Apr_02_1945,
孝顺,material/instr2_1.png,material/instr2_1.png,material/instr2_1.png,1,1,1,material/161.png,f,material/164.png,f,f,奉献,勇敢,self,self,self,1,1,1,material/64.png,,,,,,,,,,,,,,,,,0,17,17,63,,,,,,,,,,,,,,,5,1.6926240921,,,,,,,,,moral_self_bias,28,20,60.0823960166,f,001,2018_Apr_02_1945,
无能,material/instr2_2.png,material/instr2_2.png,material/instr2_2.png,2,2,2,material/57.png,j,material/157.png,j,j,无知,无知,friend,friend,friend,2,2,2,material/57.png,,,,,,,,,,,,,,,,,0,18,18,56,,,,,,,,,,,,,,,1,0.883152008057,,,,,,,,,moral_self_bias,28,20,60.0823960166,f,001,2018_Apr_02_1945,
缺德,material/instr2_2.png,material/instr2_2.png,material/instr2_2.png,2,2,2,material/38.png,j,material/138.png,j,j,缺德,无德,friend,friend,friend,1,1,1,material/138.png,,,,,,,,,,,,,,,,,0,19,19,37,,,,,,,,,,,,,,,1,0.85888004303,,,,,,,,,moral_self_bias,28,20,60.0823960166,f,001,2018_Apr_02_1945,
正直,material/instr2_2.png,material/instr2_2.png,material/instr2_2.png,1,1,1,material/9.png,j,material/109.png,j,j,正直,秉直,friend,friend,friend,1,1,1,material/109.png,,,,,,,,,,,,,,,,,0,20,20,8,,,,,,,,,,,,,,,4,1.27596497536,,,,,,,,,moral_self_bias,28,20,60.0823960166,f,001,2018_Apr_02_1945,
笨拙,material/instr2_1.png,material/instr2_1.png,material/instr2_1.png,2,2,2,material/60.png,f,material/160.png,f,f,粗拙,粗拙,self,self,self,2,2,2,material/60.png,,,,,,,,,,,,,,,,,0,21,21,59,,,,,,,,,,,,,,,1,0.857937812805,,,,,,,,,moral_self_bias,28,20,60.0823960166,f,001,2018_Apr_02_1945,
诚信,material/instr2_1.png,material/instr2_1.png,material/instr2_1.png,1,1,1,material/5.png,f,material/105.png,f,f,诚信,守信,self,self,self,1,1,1,material/105.png,,,,,,,,,,,,,,,,,0,22,22,4,,,,,,,,,,,,,,,5,1.43335700035,,,,,,,,,moral_self_bias,28,20,60.0823960166,f,001,2018_Apr_02_1945,
仗义,material/instr2_1.png,material/instr2_1.png,material/instr2_1.png,1,1,1,material/63.png,f,material/166.png,f,f,正义,文明,self,self,self,1,1,1,material/66.png,,,,,,,,,,,,,,,,,0,23,23,65,,,,,,,,,,,,,,,4,1.22466015816,,,,,,,,,moral_self_bias,28,20,60.0823960166,f,001,2018_Apr_02_1945,
自私,material/instr2_2.png,material/instr2_2.png,material/instr2_2.png,2,2,2,material/46.png,j,material/146.png,j,j,自私,小气,friend,friend,friend,1,1,1,material/146.png,,,,,,,,,,,,,,,,,0,24,24,45,,,,,,,,,,,,,,,1,1.04231405258,,,,,,,,,moral_self_bias,28,20,60.0823960166,f,001,2018_Apr_02_1945,
刻板,material/instr2_2.png,material/instr2_2.png,material/instr2_2.png,2,2,2,material/47.png,j,material/147.png,j,j,死板,死板,friend,friend,friend,2,2,2,material/47.png,,,,,,,,,,,,,,,,,0,25,25,46,,,,,,,,,,,,,,,1,0.809041023254,,,,,,,,,moral_self_bias,28,20,60.0823960166,f,001,2018_Apr_02_1945,
虚荣,material/instr2_1.png,material/instr2_1.png,material/instr2_1.png,2,2,2,material/43.png,f,material/143.png,f,f,虚荣,拜金,self,self,self,1,1,1,material/143.png,,,,,,,,,,,,,,,,,0,26,26,42,,,,,,,,,,,,,,,2,1.80937004089,,,,,,,,,moral_self_bias,28,20,60.0823960166,f,001,2018_Apr_02_1945,
精干,material/instr2_1.png,material/instr2_1.png,material/instr2_1.png,1,1,1,material/21.png,f,material/121.png,f,f,干练,干练,self,self,self,2,2,2,material/21.png,,,,,,,,,,,,,,,,,0,27,27,20,,,,,,,,,,,,,,,4,1.59194684029,,,,,,,,,moral_self_bias,28,20,60.0823960166,f,001,2018_Apr_02_1945,
缓慢,material/instr2_1.png,material/instr2_1.png,material/instr2_1.png,2,2,2,material/52.png,f,material/152.png,f,f,拖延,拖延,self,self,self,2,2,2,material/52.png,,,,,,,,,,,,,,,,,0,28,28,51,,,,,,,,,,,,,,,2,1.84254002571,,,,,,,,,moral_self_bias,28,20,60.0823960166,f,001,2018_Apr_02_1945,
黑心,material/instr2_2.png,material/instr2_2.png,material/instr2_2.png,2,2,2,material/74.png,j,material/173.png,j,j,黑心,卑劣,friend,friend,friend,1,1,1,material/173.png,,,,,,,,,,,,,,,,,0,29,29,72,,,,,,,,,,,,,,,1,0.758394956589,,,,,,,,,moral_self_bias,28,20,60.0823960166,f,001,2018_Apr_02_1945,
卑鄙,material/instr2_2.png,material/instr2_2.png,material/instr2_2.png,2,2,2,material/37.png,j,material/137.png,j,j,卑鄙,无耻,friend,friend,friend,1,1,1,material/137.png,,,,,,,,,,,,,,,,,0,30,30,36,,,,,,,,,,,,,,,1,0.808309793472,,,,,,,,,moral_self_bias,28,20,60.0823960166,f,001,2018_Apr_02_1945,
弱智,material/instr2_1.png,material/instr2_1.png,material/instr2_1.png,2,2,2,material/59.png,f,material/159.png,f,f,智障,智障,self,self,self,2,2,2,material/59.png,,,,,,,,,,,,,,,,,0,31,31,58,,,,,,,,,,,,,,,3,2.34170889854,,,,,,,,,moral_self_bias,28,20,60.0823960166,f,001,2018_Apr_02_1945,
愚钝,material/instr2_1.png,material/instr2_1.png,material/instr2_1.png,2,2,2,material/56.png,f,material/156.png,f,f,愚昧,愚昧,self,self,self,2,2,2,material/56.png,,,,,,,,,,,,,,,,,0,32,32,55,,,,,,,,,,,,,,,1,1.00891089439,,,,,,,,,moral_self_bias,28,20,60.0823960166,f,001,2018_Apr_02_1945,
友善,material/instr2_1.png,material/instr2_1.png,material/instr2_1.png,1,1,1,material/4.png,f,material/104.png,f,f,友善,友爱,self,self,self,1,1,1,material/104.png,,,,,,,,,,,,,,,,,0,33,33,3,,,,,,,,,,,,,,,4,2.09274482727,,,,,,,,,moral_self_bias,28,20,60.0823960166,f,001,2018_Apr_02_1945,
机变,material/instr2_2.png,material/instr2_2.png,material/instr2_2.png,1,1,1,material/70.png,j,material/168.png,j,j,全面,全面,friend,friend,friend,2,2,2,material/70.png,,,,,,,,,,,,,,,,,0,34,34,67,,,,,,,,,,,,,,,4,1.60831904411,,,,,,,,,moral_self_bias,28,20,60.0823960166,f,001,2018_Apr_02_1945,
依靠,material/instr2_1.png,material/instr2_1.png,material/instr2_1.png,2,2,2,material/54.png,f,material/154.png,f,f,依赖,依赖,self,self,self,2,2,2,material/54.png,,,,,,,,,,,,,,,,,0,35,35,53,,,,,,,,,,,,,,,5,1.62462902069,,,,,,,,,moral_self_bias,28,20,60.0823960166,f,001,2018_Apr_02_1945,
恶心,material/instr2_1.png,material/instr2_1.png,material/instr2_1.png,2,2,2,material/73.png,f,material/177.png,f,f,恶心,残虐,self,self,self,1,1,1,material/177.png,,,,,,,,,,,,,,,,,0,36,36,76,,,,,,,,,,,,,,,1,0.98282289505,,,,,,,,,moral_self_bias,28,20,60.0823960166,f,001,2018_Apr_02_1945,
无私,material/instr2_2.png,material/instr2_2.png,material/instr2_2.png,1,1,1,material/8.png,j,material/108.png,j,j,无私,公道,friend,friend,friend,1,1,1,material/108.png,,,,,,,,,,,,,,,,,0,37,37,7,,,,,,,,,,,,,,,4,2.27585911751,,,,,,,,,moral_self_bias,28,20,60.0823960166,f,001,2018_Apr_02_1945,
迷糊,material/instr2_2.png,material/instr2_2.png,material/instr2_2.png,2,2,2,material/51.png,j,material/151.png,j,j,糊涂,糊涂,friend,friend,friend,2,2,2,material/51.png,,,,,,,,,,,,,,,,,0,38,38,50,,,,,,,,,,,,,,,3,1.33279705048,,,,,,,,,moral_self_bias,28,20,60.0823960166,f,001,2018_Apr_02_1945,
高手,material/instr2_2.png,material/instr2_2.png,material/instr2_2.png,1,1,1,material/68.png,j,material/167.png,j,j,广博,广博,friend,friend,friend,2,2,2,material/68.png,,,,,,,,,,,,,,,,,0,39,39,66,,,,,,,,,,,,,,,3,1.90871191025,,,,,,,,,moral_self_bias,28,20,60.0823960166,f,001,2018_Apr_02_1945,
无情,material/instr2_1.png,material/instr2_1.png,material/instr2_1.png,2,2,2,material/172.png,f,material/175.png,f,f,无情,浮夸,self,self,self,1,1,1,material/175.png,,,,,,,,,,,,,,,,,0,40,40,74,,,,,,,,,,,,,,,1,1.87673306465,,,,,,,,,moral_self_bias,28,20,60.0823960166,f,001,2018_Apr_02_1945,
毛糙,material/instr2_2.png,material/instr2_2.png,material/instr2_2.png,2,2,2,material/179.png,j,material/178.png,j,j,顽愚,差生,friend,friend,friend,2,2,2,material/84.png,,,,,,,,,,,,,,,,,0,41,41,77,,,,,,,,,,,,,,,1,1.37371015549,,,,,,,,,moral_self_bias,28,20,60.0823960166,f,001,2018_Apr_02_1945,
浅薄,material/instr2_2.png,material/instr2_2.png,material/instr2_2.png,2,2,2,material/58.png,j,material/158.png,j,j,肤浅,肤浅,friend,friend,friend,2,2,2,material/58.png,,,,,,,,,,,,,,,,,0,42,42,57,,,,,,,,,,,,,,,2,1.34258699417,,,,,,,,,moral_self_bias,28,20,60.0823960166,f,001,2018_Apr_02_1945,
机智,material/instr2_2.png,material/instr2_2.png,material/instr2_2.png,1,1,1,material/16.png,j,material/116.png,j,j,睿智,睿智,friend,friend,friend,2,2,2,material/16.png,,,,,,,,,,,,,,,,,0,43,43,15,,,,,,,,,,,,,,,4,2.0162730217,,,,,,,,,moral_self_bias,28,20,60.0823960166,f,001,2018_Apr_02_1945,
高尚,material/instr2_1.png,material/instr2_1.png,material/instr2_1.png,1,1,1,material/11.png,f,material/111.png,f,f,高尚,高雅,self,self,self,1,1,1,material/111.png,,,,,,,,,,,,,,,,,0,44,44,10,,,,,,,,,,,,,,,4,1.36681389809,,,,,,,,,moral_self_bias,28,20,60.0823960166,f,001,2018_Apr_02_1945,
笨蛋,material/instr2_2.png,material/instr2_2.png,material/instr2_2.png,2,2,2,material/48.png,j,material/148.png,j,j,愚蠢,愚蠢,friend,friend,friend,2,2,2,material/48.png,,,,,,,,,,,,,,,,,0,45,45,47,,,,,,,,,,,,,,,1,1.19251704216,,,,,,,,,moral_self_bias,28,20,60.0823960166,f,001,2018_Apr_02_1945,
公平,material/instr2_2.png,material/instr2_2.png,material/instr2_2.png,1,1,1,material/7.png,j,material/107.png,j,j,公平,公正,friend,friend,friend,1,1,1,material/107.png,,,,,,,,,,,,,,,,,0,46,46,6,,,,,,,,,,,,,,,4,1.12563610077,,,,,,,,,moral_self_bias,28,20,60.0823960166,f,001,2018_Apr_02_1945,
机灵,material/instr2_2.png,material/instr2_2.png,material/instr2_2.png,1,1,1,material/19.png,j,material/119.png,j,j,灵活,灵活,friend,friend,friend,2,2,2,material/19.png,,,,,,,,,,,,,,,,,0,47,47,18,,,,,,,,,,,,,,,4,0.742218017578,,,,,,,,,moral_self_bias,28,20,60.0823960166,f,001,2018_Apr_02_1945,
奸诈,material/instr2_1.png,material/instr2_1.png,material/instr2_1.png,2,2,2,material/42.png,f,material/142.png,f,f,奸诈,阴险,self,self,self,1,1,1,material/142.png,,,,,,,,,,,,,,,,,0,48,48,41,,,,,,,,,,,,,,,1,1.07587003708,,,,,,,,,moral_self_bias,28,20,60.0823960166,f,001,2018_Apr_02_1945,
顽愚,material/instr2_1.png,material/instr2_1.png,material/instr2_1.png,2,2,2,material/84.png,f,material/84.png,f,f,犹豫,顽愚,self,self,self,2,2,2,material/181.png,,,,,,,,,,,,,,,,,0,49,49,87,,,,,,,,,,,,,,,2,1.22544312477,,,,,,,,,moral_self_bias,28,20,60.0823960166,f,001,2018_Apr_02_1945,
白痴,material/instr2_2.png,material/instr2_2.png,material/instr2_2.png,2,2,2,material/49.png,j,material/149.png,j,j,痴呆,痴呆,friend,friend,friend,2,2,2,material/49.png,,,,,,,,,,,,,,,,,0,50,50,48,,,,,,,,,,,,,,,1,1.87536597252,,,,,,,,,moral_self_bias,28,20,60.0823960166,f,001,2018_Apr_02_1945,
贪污,material/instr2_1.png,material/instr2_1.png,material/instr2_1.png,2,2,2,material/33.png,f,material/133.png,f,f,贪污,腐败,self,self,self,1,1,1,material/133.png,,,,,,,,,,,,,,,,,0,51,51,32,,,,,,,,,,,,,,,1,1.70915102959,,,,,,,,,moral_self_bias,28,20,60.0823960166,f,001,2018_Apr_02_1945,
高明,material/instr2_1.png,material/instr2_1.png,material/instr2_1.png,1,1,1,material/69.png,f,material/69.png,f,f,高明,高明,self,self,self,2,2,2,material/69.png,,,,,,,,,,,,,,,,,0,52,52,86,,,,,,,,,,,,,,,1,1.07575011253,,,,,,,,,moral_self_bias,28,20,60.0823960166,f,001,2018_Apr_02_1945,
差生,material/instr2_2.png,material/instr2_2.png,material/instr2_2.png,2,2,2,material/81.png,j,material/179.png,j,j,呆笨,无助,friend,friend,friend,2,2,2,material/83.png,,,,,,,,,,,,,,,,,0,53,53,78,,,,,,,,,,,,,,,1,1.45845293999,,,,,,,,,moral_self_bias,28,20,60.0823960166,f,001,2018_Apr_02_1945,
仁厚,material/instr2_1.png,material/instr2_1.png,material/instr2_1.png,1,1,1,material/3.png,f,material/103.png,f,f,仁厚,仁慈,self,self,self,1,1,1,material/103.png,,,,,,,,,,,,,,,,,0,54,54,2,,,,,,,,,,,,,,,4,1.05905008316,,,,,,,,,moral_self_bias,28,20,60.0823960166,f,001,2018_Apr_02_1945,
机敏,material/instr2_2.png,material/instr2_2.png,material/instr2_2.png,1,1,1,material/18.png,j,material/118.png,j,j,敏锐,敏锐,friend,friend,friend,2,2,2,material/18.png,,,,,,,,,,,,,,,,,0,55,55,17,,,,,,,,,,,,,,,5,1.20836997032,,,,,,,,,moral_self_bias,28,20,60.0823960166,f,001,2018_Apr_02_1945,
放纵,material/instr2_1.png,material/instr2_1.png,material/instr2_1.png,2,2,2,material/76.png,f,material/176.png,f,f,放纵,虚伪,self,self,self,1,1,1,material/176.png,,,,,,,,,,,,,,,,,0,56,56,75,,,,,,,,,,,,,,,3,1.77668118477,,,,,,,,,moral_self_bias,28,20,60.0823960166,f,001,2018_Apr_02_1945,
敬业,material/instr2_2.png,material/instr2_2.png,material/instr2_2.png,1,1,1,material/62.png,j,material/162.png,j,j,坚韧,坚韧,friend,friend,friend,1,1,1,material/62.png,,,,,,,,,,,,,,,,,0,57,57,61,,,,,,,,,,,,,,,4,0.992297887802,,,,,,,,,moral_self_bias,28,20,60.0823960166,f,001,2018_Apr_02_1945,
才尽,material/instr2_1.png,material/instr2_1.png,material/instr2_1.png,2,2,2,material/183.png,f,material/182.png,f,f,颓废,薄弱,self,self,self,2,2,2,material/79.png,,,,,,,,,,,,,,,,,0,58,58,81,,,,,,,,,,,,,,,1,1.20892000198,,,,,,,,,moral_self_bias,28,20,60.0823960166,f,001,2018_Apr_02_1945,
能干,material/instr2_2.png,material/instr2_2.png,material/instr2_2.png,1,1,1,material/20.png,j,material/120.png,j,j,厉害,厉害,friend,friend,friend,2,2,2,material/20.png,,,,,,,,,,,,,,,,,0,59,59,19,,,,,,,,,,,,,,,4,1.67561507225,,,,,,,,,moral_self_bias,28,20,60.0823960166,f,001,2018_Apr_02_1945,
可恶,material/instr2_1.png,material/instr2_1.png,material/instr2_1.png,2,2,2,material/34.png,f,material/134.png,f,f,可恶,可恨,self,self,self,1,1,1,material/134.png,,,,,,,,,,,,,,,,,0,60,60,33,,,,,,,,,,,,,,,1,1.57336711884,,,,,,,,,moral_self_bias,28,20,60.0823960166,f,001,2018_Apr_02_1945,
多才,material/instr2_1.png,material/instr2_1.png,material/instr2_1.png,1,1,1,material/23.png,f,material/123.png,f,f,有才,有才,self,self,self,2,2,2,material/23.png,,,,,,,,,,,,,,,,,0,61,61,22,,,,,,,,,,,,,,,2,0.509926795959,,,,,,,,,moral_self_bias,28,20,60.0823960166,f,001,2018_Apr_02_1945,
浮夸,material/instr2_2.png,material/instr2_2.png,material/instr2_2.png,2,2,2,material/77.png,j,material/172.png,j,j,浮夸,软弱,friend,friend,friend,1,1,1,material/172.png,,,,,,,,,,,,,,,,,0,62,62,71,,,,,,,,,,,,,,,1,1.59179210663,,,,,,,,,moral_self_bias,28,20,60.0823960166,f,001,2018_Apr_02_1945,
盲目,material/instr2_1.png,material/instr2_1.png,material/instr2_1.png,2,2,2,material/55.png,f,material/155.png,f,f,盲从,盲从,self,self,self,2,2,2,material/55.png,,,,,,,,,,,,,,,,,0,63,63,54,,,,,,,,,,,,,,,1,1.04157590866,,,,,,,,,moral_self_bias,28,20,60.0823960166,f,001,2018_Apr_02_1945,
宽容,material/instr2_2.png,material/instr2_2.png,material/instr2_2.png,1,1,1,material/163.png,j,material/163.png,j,j,文明,宽容,friend,friend,friend,1,1,1,material/63.png,,,,,,,,,,,,,,,,,0,64,64,62,,,,,,,,,,,,,,,4,1.39232397079,,,,,,,,,moral_self_bias,28,20,60.0823960166,f,001,2018_Apr_02_1945,
独立,material/instr2_1.png,material/instr2_1.png,material/instr2_1.png,1,1,1,material/64.png,f,material/165.png,f,f,谦虚,奉献,self,self,self,1,1,1,material/65.png,,,,,,,,,,,,,,,,,0,65,65,64,,,,,,,,,,,,,,,5,2.14155101776,,,,,,,,,moral_self_bias,28,20,60.0823960166,f,001,2018_Apr_02_1945,
坚忍,material/instr2_1.png,material/instr2_1.png,material/instr2_1.png,1,1,1,material/168.png,f,material/170.png,f,f,机变,机变,self,self,self,2,2,2,material/168.png,,,,,,,,,,,,,,,,,0,66,66,69,,,,,,,,,,,,,,,4,1.07582879066,,,,,,,,,moral_self_bias,28,20,60.0823960166,f,001,2018_Apr_02_1945,
进取,material/instr2_1.png,material/instr2_1.png,material/instr2_1.png,1,1,1,material/30.png,f,material/130.png,f,f,上进,上进,self,self,self,2,2,2,material/30.png,,,,,,,,,,,,,,,,,0,67,67,29,,,,,,,,,,,,,,,4,2.10027098656,,,,,,,,,moral_self_bias,28,20,60.0823960166,f,001,2018_Apr_02_1945,
笃行,material/instr2_1.png,material/instr2_1.png,material/instr2_1.png,1,1,1,material/31.png,f,material/131.png,f,f,笃学,笃学,self,self,self,2,2,2,material/31.png,,,,,,,,,,,,,,,,,0,68,68,30,,,,,,,,,,,,,,,4,1.54167294502,,,,,,,,,moral_self_bias,28,20,60.0823960166,f,001,2018_Apr_02_1945,
勤快,material/instr2_2.png,material/instr2_2.png,material/instr2_2.png,1,1,1,material/26.png,j,material/126.png,j,j,刻苦,刻苦,friend,friend,friend,2,2,2,material/26.png,,,,,,,,,,,,,,,,,0,69,69,25,,,,,,,,,,,,,,,5,1.67574715614,,,,,,,,,moral_self_bias,28,20,60.0823960166,f,001,2018_Apr_02_1945,
迟钝,material/instr2_1.png,material/instr2_1.png,material/instr2_1.png,2,2,2,material/53.png,f,material/153.png,f,f,迟缓,迟缓,self,self,self,2,2,2,material/53.png,,,,,,,,,,,,,,,,,0,70,70,52,,,,,,,,,,,,,,,2,1.64225912094,,,,,,,,,moral_self_bias,28,20,60.0823960166,f,001,2018_Apr_02_1945,
爱心,material/instr2_1.png,material/instr2_1.png,material/instr2_1.png,1,1,1,material/2.png,f,material/102.png,f,f,爱心,善心,self,self,self,1,1,1,material/102.png,,,,,,,,,,,,,,,,,0,71,71,1,,,,,,,,,,,,,,,4,1.22595500946,,,,,,,,,moral_self_bias,28,20,60.0823960166,f,001,2018_Apr_02_1945,
冷静,material/instr2_1.png,material/instr2_1.png,material/instr2_1.png,1,1,1,material/24.png,f,material/124.png,f,f,理智,理智,self,self,self,2,2,2,material/24.png,,,,,,,,,,,,,,,,,0,72,72,23,,,,,,,,,,,,,,,4,0.775546789169,,,,,,,,,moral_self_bias,28,20,60.0823960166,f,001,2018_Apr_02_1945,
自律,material/instr2_2.png,material/instr2_2.png,material/instr2_2.png,1,1,1,material/28.png,j,material/128.png,j,j,克己,克己,friend,friend,friend,2,2,2,material/28.png,,,,,,,,,,,,,,,,,0,73,73,27,,,,,,,,,,,,,,,4,1.25893712044,,,,,,,,,moral_self_bias,28,20,60.0823960166,f,001,2018_Apr_02_1945,
超群,material/instr2_2.png,material/instr2_2.png,material/instr2_2.png,1,1,1,material/27.png,j,material/127.png,j,j,卓越,卓越,friend,friend,friend,2,2,2,material/27.png,,,,,,,,,,,,,,,,,0,74,74,26,,,,,,,,,,,,,,,4,1.2587018013,,,,,,,,,moral_self_bias,28,20,60.0823960166,f,001,2018_Apr_02_1945,
勇敢,material/instr2_2.png,material/instr2_2.png,material/instr2_2.png,1,1,1,material/165.png,j,material/161.png,j,j,平等,独立,friend,friend,friend,1,1,1,material/61.png,,,,,,,,,,,,,,,,,0,75,75,60,,,,,,,,,,,,,,,4,0.875314950943,,,,,,,,,moral_self_bias,28,20,60.0823960166,f,001,2018_Apr_02_1945,
坚毅,material/instr2_2.png,material/instr2_2.png,material/instr2_2.png,1,1,1,material/10.png,j,material/110.png,j,j,坚毅,顽强,friend,friend,friend,1,1,1,material/110.png,,,,,,,,,,,,,,,,,0,76,76,9,,,,,,,,,,,,,,,4,0.776071071625,,,,,,,,,moral_self_bias,28,20,60.0823960166,f,001,2018_Apr_02_1945,
恶毒,material/instr2_2.png,material/instr2_2.png,material/instr2_2.png,2,2,2,material/39.png,j,material/139.png,j,j,恶毒,凶残,friend,friend,friend,1,1,1,material/139.png,,,,,,,,,,,,,,,,,0,77,77,38,,,,,,,,,,,,,,,1,0.992072820663,,,,,,,,,moral_self_bias,28,20,60.0823960166,f,001,2018_Apr_02_1945,
鲁钝,material/instr2_2.png,material/instr2_2.png,material/instr2_2.png,2,2,2,material/50.png,j,material/150.png,j,j,愚笨,愚笨,friend,friend,friend,2,2,2,material/50.png,,,,,,,,,,,,,,,,,0,78,78,49,,,,,,,,,,,,,,,2,1.64157295227,,,,,,,,,moral_self_bias,28,20,60.0823960166,f,001,2018_Apr_02_1945,
残忍,material/instr2_2.png,material/instr2_2.png,material/instr2_2.png,2,2,2,material/41.png,j,material/141.png,j,j,残忍,歹毒,friend,friend,friend,1,1,1,material/141.png,,,,,,,,,,,,,,,,,0,79,79,40,,,,,,,,,,,,,,,1,0.975350141525,,,,,,,,,moral_self_bias,28,20,60.0823960166,f,001,2018_Apr_02_1945,
博爱,material/instr2_1.png,material/instr2_1.png,material/instr2_1.png,1,1,1,material/1.png,f,material/101.png,f,f,博爱,善良,self,self,self,1,1,1,material/101.png,,,,,,,,,,,,,,,,,0,80,80,0,,,,,,,,,,,,,,,4,0.808713912964,,,,,,,,,moral_self_bias,28,20,60.0823960166,f,001,2018_Apr_02_1945,
厌学,material/instr2_2.png,material/instr2_2.png,material/instr2_2.png,2,2,2,material/182.png,j,material/184.png,j,j,健忘,才尽,friend,friend,friend,2,2,2,material/80.png,,,,,,,,,,,,,,,,,0,81,81,83,,,,,,,,,,,,,,,1,1.04299378395,,,,,,,,,moral_self_bias,28,20,60.0823960166,f,001,2018_Apr_02_1945,
聪颖,material/instr2_2.png,material/instr2_2.png,material/instr2_2.png,1,1,1,material/17.png,j,material/117.png,j,j,聪明,聪明,friend,friend,friend,2,2,2,material/17.png,,,,,,,,,,,,,,,,,0,82,82,16,,,,,,,,,,,,,,,4,1.17571806908,,,,,,,,,moral_self_bias,28,20,60.0823960166,f,001,2018_Apr_02_1945,
博学,material/instr2_1.png,material/instr2_1.png,material/instr2_1.png,1,1,1,material/22.png,f,material/122.png,f,f,才学,才学,self,self,self,2,2,2,material/22.png,,,,,,,,,,,,,,,,,0,83,83,21,,,,,,,,,,,,,,,4,1.6424779892,,,,,,,,,moral_self_bias,28,20,60.0823960166,f,001,2018_Apr_02_1945,
小人,material/instr2_2.png,material/instr2_2.png,material/instr2_2.png,2,2,2,material/45.png,j,material/145.png,j,j,小人,下流,friend,friend,friend,1,1,1,material/145.png,,,,,,,,,,,,,,,,,0,84,84,44,,,,,,,,,,,,,,,1,0.908415079117,,,,,,,,,moral_self_bias,28,20,60.0823960166,f,001,2018_Apr_02_1945,
纯洁,material/instr2_2.png,material/instr2_2.png,material/instr2_2.png,1,1,1,material/15.png,j,material/115.png,j,j,纯洁,清白,friend,friend,friend,1,1,1,material/115.png,,,,,,,,,,,,,,,,,0,85,85,14,,,,,,,,,,,,,,,4,1.00938796997,,,,,,,,,moral_self_bias,28,20,60.0823960166,f,001,2018_Apr_02_1945,
廉明,material/instr2_2.png,material/instr2_2.png,material/instr2_2.png,1,1,1,material/13.png,j,material/113.png,j,j,廉明,廉洁,friend,friend,friend,1,1,1,material/113.png,,,,,,,,,,,,,,,,,0,86,86,12,,,,,,,,,,,,,,,4,1.52452993393,,,,,,,,,moral_self_bias,28,20,60.0823960166,f,001,2018_Apr_02_1945,
怠惰,material/instr2_2.png,material/instr2_2.png,material/instr2_2.png,2,2,2,material/181.png,j,material/180.png,j,j,怠惰,犹豫,friend,friend,friend,2,2,2,material/180.png,,,,,,,,,,,,,,,,,0,87,87,79,,,,,,,,,,,,,,,1,1.61655807495,,,,,,,,,moral_self_bias,28,20,60.0823960166,f,001,2018_Apr_02_1945,
,,,,,,,,,,,,,,,,,,,,,10-5=？,,,,,,,,,,,,,,,,,,,,0,0,0,67,,,,,,,,,,,,,,,,,,,,,moral_self_bias,28,20,60.0823960166,f,001,2018_Apr_02_1945,
,,,,,,,,,,,,,,,,,,,,,21/3= ? ,,,,,,,,,,,,,,,,,,,,0,1,1,95,,,,,,,,,,,,,,,,,,,,,moral_self_bias,28,20,60.0823960166,f,001,2018_Apr_02_1945,
,,,,,,,,,,,,,,,,,,,,,9-8= ?,,,,,,,,,,,,,,,,,,,,0,2,2,31,,,,,,,,,,,,,,,,,,,,,moral_self_bias,28,20,60.0823960166,f,001,2018_Apr_02_1945,
,,,,,,,,,,,,,,,,,,,,,8-4= ?,,,,,,,,,,,,,,,,,,,,0,3,3,40,,,,,,,,,,,,,,,,,,,,,moral_self_bias,28,20,60.0823960166,f,001,2018_Apr_02_1945,
,,,,,,,,,,,,,,,,,,,,,9-2= ?,,,,,,,,,,,,,,,,,,,,0,4,4,14,,,,,,,,,,,,,,,,,,,,,moral_self_bias,28,20,60.0823960166,f,001,2018_Apr_02_1945,
,,,,,,,,,,,,,,,,,,,,,4/4= ?,,,,,,,,,,,,,,,,,,,,0,5,5,55,,,,,,,,,,,,,,,,,,,,,moral_self_bias,28,20,60.0823960166,f,001,2018_Apr_02_1945,
,,,,,,,,,,,,,,,,,,,,,3*1= ?,,,,,,,,,,,,,,,,,,,,0,6,6,83,,,,,,,,,,,,,,,,,,,,,moral_self_bias,28,20,60.0823960166,f,001,2018_Apr_02_1945,
,,,,,,,,,,,,,,,,,,,,,49/7 = ?,,,,,,,,,,,,,,,,,,,,0,7,7,78,,,,,,,,,,,,,,,,,,,,,moral_self_bias,28,20,60.0823960166,f,001,2018_Apr_02_1945,
,,,,,,,,,,,,,,,,,,,,,8-1= ?,,,,,,,,,,,,,,,,,,,,0,8,8,33,,,,,,,,,,,,,,,,,,,,,moral_self_bias,28,20,60.0823960166,f,001,2018_Apr_02_1945,
,,,,,,,,,,,,,,,,,,,,,32-23=？,,,,,,,,,,,,,,,,,,,,0,9,9,60,,,,,,,,,,,,,,,,,,,,,moral_self_bias,28,20,60.0823960166,f,001,2018_Apr_02_1945,
,,,,,,,,,,,,,,,,,,,,,8-6= ?,,,,,,,,,,,,,,,,,,,,0,10,10,42,,,,,,,,,,,,,,,,,,,,,moral_self_bias,28,20,60.0823960166,f,001,2018_Apr_02_1945,
,,,,,,,,,,,,,,,,,,,,,12-5=？,,,,,,,,,,,,,,,,,,,,0,11,11,65,,,,,,,,,,,,,,,,,,,,,moral_self_bias,28,20,60.0823960166,f,001,2018_Apr_02_1945,
,,,,,,,,,,,,,,,,,,,,,13-6=？,,,,,,,,,,,,,,,,,,,,0,12,12,64,,,,,,,,,,,,,,,,,,,,,moral_self_bias,28,20,60.0823960166,f,001,2018_Apr_02_1945,
,,,,,,,,,,,,,,,,,,,,,21/7= ?,,,,,,,,,,,,,,,,,,,,0,13,13,70,,,,,,,,,,,,,,,,,,,,,moral_self_bias,28,20,60.0823960166,f,001,2018_Apr_02_1945,
,,,,,,,,,,,,,,,,,,,,,1*8= ?,,,,,,,,,,,,,,,,,,,,0,14,14,110,,,,,,,,,,,,,,,,,,,,,moral_self_bias,28,20,60.0823960166,f,001,2018_Apr_02_1945,
,,,,,,,,,,,,,,,,,,,,,15-10=？,,,,,,,,,,,,,,,,,,,,0,15,15,61,,,,,,,,,,,,,,,,,,,,,moral_self_bias,28,20,60.0823960166,f,001,2018_Apr_02_1945,
,,,,,,,,,,,,,,,,,,,,,7*0= ?,,,,,,,,,,,,,,,,,,,,0,16,16,88,,,,,,,,,,,,,,,,,,,,,moral_self_bias,28,20,60.0823960166,f,001,2018_Apr_02_1945,
,,,,,,,,,,,,,,,,,,,,,90/45= ?,,,,,,,,,,,,,,,,,,,,0,17,17,74,,,,,,,,,,,,,,,,,,,,,moral_self_bias,28,20,60.0823960166,f,001,2018_Apr_02_1945,
,,,,,,,,,,,,,,,,,,,,,4*2= ?,,,,,,,,,,,,,,,,,,,,0,18,18,82,,,,,,,,,,,,,,,,,,,,,moral_self_bias,28,20,60.0823960166,f,001,2018_Apr_02_1945,
,,,,,,,,,,,,,,,,,,,,,4+1= ?,,,,,,,,,,,,,,,,,,,,0,19,19,25,,,,,,,,,,,,,,,,,,,,,moral_self_bias,28,20,60.0823960166,f,001,2018_Apr_02_1945,
,,,,,,,,,,,,,,,,,,,,,9-7= ?,,,,,,,,,,,,,,,,,,,,0,20,20,30,,,,,,,,,,,,,,,,,,,,,moral_self_bias,28,20,60.0823960166,f,001,2018_Apr_02_1945,
,,,,,,,,,,,,,,,,,,,,,2+4= ?,,,,,,,,,,,,,,,,,,,,0,21,21,10,,,,,,,,,,,,,,,,,,,,,moral_self_bias,28,20,60.0823960166,f,001,2018_Apr_02_1945,
,,,,,,,,,,,,,,,,,,,,,50-42= ?,,,,,,,,,,,,,,,,,,,,0,22,22,81,,,,,,,,,,,,,,,,,,,,,moral_self_bias,28,20,60.0823960166,f,001,2018_Apr_02_1945,
,,,,,,,,,,,,,,,,,,,,,11-4=？,,,,,,,,,,,,,,,,,,,,0,23,23,66,,,,,,,,,,,,,,,,,,,,,moral_self_bias,28,20,60.0823960166,f,001,2018_Apr_02_1945,
,,,,,,,,,,,,,,,,,,,,,18/9= ?,,,,,,,,,,,,,,,,,,,,0,24,24,96,,,,,,,,,,,,,,,,,,,,,moral_self_bias,28,20,60.0823960166,f,001,2018_Apr_02_1945,
,,,,,,,,,,,,,,,,,,,,,3+6= ?,,,,,,,,,,,,,,,,,,,,0,25,25,21,,,,,,,,,,,,,,,,,,,,,moral_self_bias,28,20,60.0823960166,f,001,2018_Apr_02_1945,
,,,,,,,,,,,,,,,,,,,,,9-9= ?,,,,,,,,,,,,,,,,,,,,0,26,26,32,,,,,,,,,,,,,,,,,,,,,moral_self_bias,28,20,60.0823960166,f,001,2018_Apr_02_1945,
,,,,,,,,,,,,,,,,,,,,,5+3= ?,,,,,,,,,,,,,,,,,,,,0,27,27,36,,,,,,,,,,,,,,,,,,,,,moral_self_bias,28,20,60.0823960166,f,001,2018_Apr_02_1945,
,,,,,,,,,,,,,,,,,,,,,11-11= ?,,,,,,,,,,,,,,,,,,,,0,28,28,119,,,,,,,,,,,,,,,,,,,,,moral_self_bias,28,20,60.0823960166,f,001,2018_Apr_02_1945,
,,,,,,,,,,,,,,,,,,,,,9-1=?,,,,,,,,,,,,,,,,,,,,0,29,29,2,,,,,,,,,,,,,,,,,,,,,moral_self_bias,28,20,60.0823960166,f,001,2018_Apr_02_1945,
,,,,,,,,,,,,,,,,,,,,,11-8= ?,,,,,,,,,,,,,,,,,,,,0,30,30,106,,,,,,,,,,,,,,,,,,,,,moral_self_bias,28,20,60.0823960166,f,001,2018_Apr_02_1945,
,,,,,,,,,,,,,,,,,,,,,8+1= ?,,,,,,,,,,,,,,,,,,,,0,31,31,48,,,,,,,,,,,,,,,,,,,,,moral_self_bias,28,20,60.0823960166,f,001,2018_Apr_02_1945,
,,,,,,,,,,,,,,,,,,,,,14-9=？,,,,,,,,,,,,,,,,,,,,0,32,32,63,,,,,,,,,,,,,,,,,,,,,moral_self_bias,28,20,60.0823960166,f,001,2018_Apr_02_1945,
,,,,,,,,,,,,,,,,,,,,,30-29= ?,,,,,,,,,,,,,,,,,,,,0,33,33,73,,,,,,,,,,,,,,,,,,,,,moral_self_bias,28,20,60.0823960166,f,001,2018_Apr_02_1945,
,,,,,,,,,,,,,,,,,,,,,5*0= ?,,,,,,,,,,,,,,,,,,,,0,34,34,86,,,,,,,,,,,,,,,,,,,,,moral_self_bias,28,20,60.0823960166,f,001,2018_Apr_02_1945,
,,,,,,,,,,,,,,,,,,,,,16-11=？,,,,,,,,,,,,,,,,,,,,0,35,35,62,,,,,,,,,,,,,,,,,,,,,moral_self_bias,28,20,60.0823960166,f,001,2018_Apr_02_1945,
,,,,,,,,,,,,,,,,,,,,,17-12= ? ,,,,,,,,,,,,,,,,,,,,0,36,36,104,,,,,,,,,,,,,,,,,,,,,moral_self_bias,28,20,60.0823960166,f,001,2018_Apr_02_1945,
,,,,,,,,,,,,,,,,,,,,,3*3= ?,,,,,,,,,,,,,,,,,,,,0,37,37,54,,,,,,,,,,,,,,,,,,,,,moral_self_bias,28,20,60.0823960166,f,001,2018_Apr_02_1945,
,,,,,,,,,,,,,,,,,,,,,7+2= ?,,,,,,,,,,,,,,,,,,,,0,38,38,47,,,,,,,,,,,,,,,,,,,,,moral_self_bias,28,20,60.0823960166,f,001,2018_Apr_02_1945,
,,,,,,,,,,,,,,,,,,,,,19-17= ?,,,,,,,,,,,,,,,,,,,,0,39,39,100,,,,,,,,,,,,,,,,,,,,,moral_self_bias,28,20,60.0823960166,f,001,2018_Apr_02_1945,
,,,,,,,,,,,,,,,,,,,,,2^2= ?,,,,,,,,,,,,,,,,,,,,0,40,40,49,,,,,,,,,,,,,,,,,,,,,moral_self_bias,28,20,60.0823960166,f,001,2018_Apr_02_1945,
,,,,,,,,,,,,,,,,,,,,,22-22= ?,,,,,,,,,,,,,,,,,,,,0,41,41,93,,,,,,,,,,,,,,,,,,,,,moral_self_bias,28,20,60.0823960166,f,001,2018_Apr_02_1945,
,,,,,,,,,,,,,,,,,,,,,9-4= ?,,,,,,,,,,,,,,,,,,,,0,42,42,22,,,,,,,,,,,,,,,,,,,,,moral_self_bias,28,20,60.0823960166,f,001,2018_Apr_02_1945,
,,,,,,,,,,,,,,,,,,,,,1*9= ?,,,,,,,,,,,,,,,,,,,,0,43,43,109,,,,,,,,,,,,,,,,,,,,,moral_self_bias,28,20,60.0823960166,f,001,2018_Apr_02_1945,
,,,,,,,,,,,,,,,,,,,,,6+2= ?,,,,,,,,,,,,,,,,,,,,0,44,44,44,,,,,,,,,,,,,,,,,,,,,moral_self_bias,28,20,60.0823960166,f,001,2018_Apr_02_1945,
,,,,,,,,,,,,,,,,,,,,,12/4= ?,,,,,,,,,,,,,,,,,,,,0,45,45,89,,,,,,,,,,,,,,,,,,,,,moral_self_bias,28,20,60.0823960166,f,001,2018_Apr_02_1945,
,,,,,,,,,,,,,,,,,,,,,1+1= ?,,,,,,,,,,,,,,,,,,,,0,46,46,0,,,,,,,,,,,,,,,,,,,,,moral_self_bias,28,20,60.0823960166,f,001,2018_Apr_02_1945,
,,,,,,,,,,,,,,,,,,,,,12-7= ?,,,,,,,,,,,,,,,,,,,,0,47,47,115,,,,,,,,,,,,,,,,,,,,,moral_self_bias,28,20,60.0823960166,f,001,2018_Apr_02_1945,
,,,,,,,,,,,,,,,,,,,,,20/5=？,,,,,,,,,,,,,,,,,,,,0,48,48,69,,,,,,,,,,,,,,,,,,,,,moral_self_bias,28,20,60.0823960166,f,001,2018_Apr_02_1945,
,,,,,,,,,,,,,,,,,,,,,4+3= ?,,,,,,,,,,,,,,,,,,,,0,49,49,27,,,,,,,,,,,,,,,,,,,,,moral_self_bias,28,20,60.0823960166,f,001,2018_Apr_02_1945,
,,,,,,,,,,,,,,,,,,,,,72/9= ?,,,,,,,,,,,,,,,,,,,,0,50,50,76,,,,,,,,,,,,,,,,,,,,,moral_self_bias,28,20,60.0823960166,f,001,2018_Apr_02_1945,
,,,,,,,,,,,,,,,,,,,,,22/11= ?,,,,,,,,,,,,,,,,,,,,0,51,51,71,,,,,,,,,,,,,,,,,,,,,moral_self_bias,28,20,60.0823960166,f,001,2018_Apr_02_1945,
,,,,,,,,,,,,,,,,,,,,,9-3= ?,,,,,,,,,,,,,,,,,,,,0,52,52,15,,,,,,,,,,,,,,,,,,,,,moral_self_bias,28,20,60.0823960166,f,001,2018_Apr_02_1945,
,,,,,,,,,,,,,,,,,,,,,2*4= ?,,,,,,,,,,,,,,,,,,,,0,53,53,84,,,,,,,,,,,,,,,,,,,,,moral_self_bias,28,20,60.0823960166,f,001,2018_Apr_02_1945,
,,,,,,,,,,,,,,,,,,,,,2+1= ?,,,,,,,,,,,,,,,,,,,,0,54,54,7,,,,,,,,,,,,,,,,,,,,,moral_self_bias,28,20,60.0823960166,f,001,2018_Apr_02_1945,
,,,,,,,,,,,,,,,,,,,,,5+4= ?,,,,,,,,,,,,,,,,,,,,0,55,55,37,,,,,,,,,,,,,,,,,,,,,moral_self_bias,28,20,60.0823960166,f,001,2018_Apr_02_1945,
,,,,,,,,,,,,,,,,,,,,,5-3= ?,,,,,,,,,,,,,,,,,,,,0,56,56,116,,,,,,,,,,,,,,,,,,,,,moral_self_bias,28,20,60.0823960166,f,001,2018_Apr_02_1945,
,,,,,,,,,,,,,,,,,,,,,1+9= ?,,,,,,,,,,,,,,,,,,,,0,57,57,3,,,,,,,,,,,,,,,,,,,,,moral_self_bias,28,20,60.0823960166,f,001,2018_Apr_02_1945,
,,,,,,,,,,,,,,,,,,,,,3*2= ?,,,,,,,,,,,,,,,,,,,,0,58,58,53,,,,,,,,,,,,,,,,,,,,,moral_self_bias,28,20,60.0823960166,f,001,2018_Apr_02_1945,
,,,,,,,,,,,,,,,,,,,,,6+1= ?,,,,,,,,,,,,,,,,,,,,0,59,59,43,,,,,,,,,,,,,,,,,,,,,moral_self_bias,28,20,60.0823960166,f,001,2018_Apr_02_1945,
,,,,,,,,,,,,,,,,,,,,,3+3= ?,,,,,,,,,,,,,,,,,,,,0,60,60,18,,,,,,,,,,,,,,,,,,,,,moral_self_bias,28,20,60.0823960166,f,001,2018_Apr_02_1945,
,,,,,,,,,,,,,,,,,,,,,2+2= ?,,,,,,,,,,,,,,,,,,,,0,61,61,8,,,,,,,,,,,,,,,,,,,,,moral_self_bias,28,20,60.0823960166,f,001,2018_Apr_02_1945,
,,,,,,,,,,,,,,,,,,,,,18/2= ?,,,,,,,,,,,,,,,,,,,,0,62,62,97,,,,,,,,,,,,,,,,,,,,,moral_self_bias,28,20,60.0823960166,f,001,2018_Apr_02_1945,
,,,,,,,,,,,,,,,,,,,,,2+3= ?,,,,,,,,,,,,,,,,,,,,0,63,63,9,,,,,,,,,,,,,,,,,,,,,moral_self_bias,28,20,60.0823960166,f,001,2018_Apr_02_1945,
,,,,,,,,,,,,,,,,,,,,,12/12= ?,,,,,,,,,,,,,,,,,,,,0,64,64,91,,,,,,,,,,,,,,,,,,,,,moral_self_bias,28,20,60.0823960166,f,001,2018_Apr_02_1945,
,,,,,,,,,,,,,,,,,,,,,1-1= ?,,,,,,,,,,,,,,,,,,,,0,65,65,52,,,,,,,,,,,,,,,,,,,,,moral_self_bias,28,20,60.0823960166,f,001,2018_Apr_02_1945,
,,,,,,,,,,,,,,,,,,,,,1+6= ?,,,,,,,,,,,,,,,,,,,,0,66,66,5,,,,,,,,,,,,,,,,,,,,,moral_self_bias,28,20,60.0823960166,f,001,2018_Apr_02_1945,
,,,,,,,,,,,,,,,,,,,,,12/6= ?,,,,,,,,,,,,,,,,,,,,0,67,67,90,,,,,,,,,,,,,,,,,,,,,moral_self_bias,28,20,60.0823960166,f,001,2018_Apr_02_1945,
,,,,,,,,,,,,,,,,,,,,,3+5= ?,,,,,,,,,,,,,,,,,,,,0,68,68,20,,,,,,,,,,,,,,,,,,,,,moral_self_bias,28,20,60.0823960166,f,001,2018_Apr_02_1945,
,,,,,,,,,,,,,,,,,,,,,12-12= ?,,,,,,,,,,,,,,,,,,,,0,69,69,99,,,,,,,,,,,,,,,,,,,,,moral_self_bias,28,20,60.0823960166,f,001,2018_Apr_02_1945,
,,,,,,,,,,,,,,,,,,,,,8-2= ?,,,,,,,,,,,,,,,,,,,,0,70,70,38,,,,,,,,,,,,,,,,,,,,,moral_self_bias,28,20,60.0823960166,f,001,2018_Apr_02_1945,
,,,,,,,,,,,,,,,,,,,,,9+0= ?,,,,,,,,,,,,,,,,,,,,0,71,71,118,,,,,,,,,,,,,,,,,,,,,moral_self_bias,28,20,60.0823960166,f,001,2018_Apr_02_1945,
,,,,,,,,,,,,,,,,,,,,,6+3= ?,,,,,,,,,,,,,,,,,,,,0,72,72,45,,,,,,,,,,,,,,,,,,,,,moral_self_bias,28,20,60.0823960166,f,001,2018_Apr_02_1945,
,,,,,,,,,,,,,,,,,,,,,11-3=？,,,,,,,,,,,,,,,,,,,,0,73,73,68,,,,,,,,,,,,,,,,,,,,,moral_self_bias,28,20,60.0823960166,f,001,2018_Apr_02_1945,
,,,,,,,,,,,,,,,,,,,,,8*1= ?,,,,,,,,,,,,,,,,,,,,0,74,74,111,,,,,,,,,,,,,,,,,,,,,moral_self_bias,28,20,60.0823960166,f,001,2018_Apr_02_1945,
,,,,,,,,,,,,,,,,,,,,,56/7= ?,,,,,,,,,,,,,,,,,,,,0,75,75,77,,,,,,,,,,,,,,,,,,,,,moral_self_bias,28,20,60.0823960166,f,001,2018_Apr_02_1945,
,,,,,,,,,,,,,,,,,,,,,3+1= ?,,,,,,,,,,,,,,,,,,,,0,76,76,16,,,,,,,,,,,,,,,,,,,,,moral_self_bias,28,20,60.0823960166,f,001,2018_Apr_02_1945,
,,,,,,,,,,,,,,,,,,,,,6*0= ?,,,,,,,,,,,,,,,,,,,,0,77,77,87,,,,,,,,,,,,,,,,,,,,,moral_self_bias,28,20,60.0823960166,f,001,2018_Apr_02_1945,
,,,,,,,,,,,,,,,,,,,,,43-34= ?,,,,,,,,,,,,,,,,,,,,0,78,78,79,,,,,,,,,,,,,,,,,,,,,moral_self_bias,28,20,60.0823960166,f,001,2018_Apr_02_1945,
,,,,,,,,,,,,,,,,,,,,,9/3= ?,,,,,,,,,,,,,,,,,,,,0,79,79,56,,,,,,,,,,,,,,,,,,,,,moral_self_bias,28,20,60.0823960166,f,001,2018_Apr_02_1945,
,,,,,,,,,,,,,,,,,,,,,4+4= ?,,,,,,,,,,,,,,,,,,,,0,80,80,28,,,,,,,,,,,,,,,,,,,,,moral_self_bias,28,20,60.0823960166,f,001,2018_Apr_02_1945,
,,,,,,,,,,,,,,,,,,,,,1^2= ?,,,,,,,,,,,,,,,,,,,,0,81,81,51,,,,,,,,,,,,,,,,,,,,,moral_self_bias,28,20,60.0823960166,f,001,2018_Apr_02_1945,
,,,,,,,,,,,,,,,,,,,,,4*1= ?,,,,,,,,,,,,,,,,,,,,0,82,82,85,,,,,,,,,,,,,,,,,,,,,moral_self_bias,28,20,60.0823960166,f,001,2018_Apr_02_1945,
,,,,,,,,,,,,,,,,,,,,,29-27= ?,,,,,,,,,,,,,,,,,,,,0,83,83,72,,,,,,,,,,,,,,,,,,,,,moral_self_bias,28,20,60.0823960166,f,001,2018_Apr_02_1945,
,,,,,,,,,,,,,,,,,,,,,9-6= ?,,,,,,,,,,,,,,,,,,,,0,84,84,24,,,,,,,,,,,,,,,,,,,,,moral_self_bias,28,20,60.0823960166,f,001,2018_Apr_02_1945,
,,,,,,,,,,,,,,,,,,,,,6/2= ?,,,,,,,,,,,,,,,,,,,,0,85,85,58,,,,,,,,,,,,,,,,,,,,,moral_self_bias,28,20,60.0823960166,f,001,2018_Apr_02_1945,
,,,,,,,,,,,,,,,,,,,,,5+1= ?,,,,,,,,,,,,,,,,,,,,0,86,86,34,,,,,,,,,,,,,,,,,,,,,moral_self_bias,28,20,60.0823960166,f,001,2018_Apr_02_1945,
,,,,,,,,,,,,,,,,,,,,,5/1= ?,,,,,,,,,,,,,,,,,,,,0,87,87,59,,,,,,,,,,,,,,,,,,,,,moral_self_bias,28,20,60.0823960166,f,001,2018_Apr_02_1945,
,,,,,,,,,,,,,,,,,,,,,1+2= ?,,,,,,,,,,,,,,,,,,,,0,88,88,1,,,,,,,,,,,,,,,,,,,,,moral_self_bias,28,20,60.0823960166,f,001,2018_Apr_02_1945,
,,,,,,,,,,,,,,,,,,,,,13-5= ?,,,,,,,,,,,,,,,,,,,,0,89,89,98,,,,,,,,,,,,,,,,,,,,,moral_self_bias,28,20,60.0823960166,f,001,2018_Apr_02_1945,
,,,,,,,,,,,,,,,,,,,,,8-5= ?,,,,,,,,,,,,,,,,,,,,0,90,90,41,,,,,,,,,,,,,,,,,,,,,moral_self_bias,28,20,60.0823960166,f,001,2018_Apr_02_1945,
,,,,,,,,,,,,,,,,,,,,,1+8= ?,,,,,,,,,,,,,,,,,,,,0,91,91,6,,,,,,,,,,,,,,,,,,,,,moral_self_bias,28,20,60.0823960166,f,001,2018_Apr_02_1945,
,,,,,,,,,,,,,,,,,,,,,8-3= ?,,,,,,,,,,,,,,,,,,,,0,92,92,39,,,,,,,,,,,,,,,,,,,,,moral_self_bias,28,20,60.0823960166,f,001,2018_Apr_02_1945,
,,,,,,,,,,,,,,,,,,,,,2*3= ?,,,,,,,,,,,,,,,,,,,,0,93,93,108,,,,,,,,,,,,,,,,,,,,,moral_self_bias,28,20,60.0823960166,f,001,2018_Apr_02_1945,
,,,,,,,,,,,,,,,,,,,,,3+0= ?,,,,,,,,,,,,,,,,,,,,0,94,94,105,,,,,,,,,,,,,,,,,,,,,moral_self_bias,28,20,60.0823960166,f,001,2018_Apr_02_1945,
,,,,,,,,,,,,,,,,,,,,,11-5= ?,,,,,,,,,,,,,,,,,,,,0,95,95,107,,,,,,,,,,,,,,,,,,,,,moral_self_bias,28,20,60.0823960166,f,001,2018_Apr_02_1945,
,,,,,,,,,,,,,,,,,,,,,8/4= ?,,,,,,,,,,,,,,,,,,,,0,96,96,57,,,,,,,,,,,,,,,,,,,,,moral_self_bias,28,20,60.0823960166,f,001,2018_Apr_02_1945,
,,,,,,,,,,,,,,,,,,,,,4^1= ?,,,,,,,,,,,,,,,,,,,,0,97,97,102,,,,,,,,,,,,,,,,,,,,,moral_self_bias,28,20,60.0823960166,f,001,2018_Apr_02_1945,
,,,,,,,,,,,,,,,,,,,,,7+1= ?,,,,,,,,,,,,,,,,,,,,0,98,98,46,,,,,,,,,,,,,,,,,,,,,moral_self_bias,28,20,60.0823960166,f,001,2018_Apr_02_1945,
,,,,,,,,,,,,,,,,,,,,,7-0= ?,,,,,,,,,,,,,,,,,,,,0,99,99,117,,,,,,,,,,,,,,,,,,,,,moral_self_bias,28,20,60.0823960166,f,001,2018_Apr_02_1945,
,,,,,,,,,,,,,,,,,,,,,2+6= ?,,,,,,,,,,,,,,,,,,,,0,100,100,12,,,,,,,,,,,,,,,,,,,,,moral_self_bias,28,20,60.0823960166,f,001,2018_Apr_02_1945,
,,,,,,,,,,,,,,,,,,,,,7*1= ?,,,,,,,,,,,,,,,,,,,,0,101,101,113,,,,,,,,,,,,,,,,,,,,,moral_self_bias,28,20,60.0823960166,f,001,2018_Apr_02_1945,
,,,,,,,,,,,,,,,,,,,,,10-9= ?,,,,,,,,,,,,,,,,,,,,0,102,102,112,,,,,,,,,,,,,,,,,,,,,moral_self_bias,28,20,60.0823960166,f,001,2018_Apr_02_1945,
,,,,,,,,,,,,,,,,,,,,,6^0= ?,,,,,,,,,,,,,,,,,,,,0,103,103,103,,,,,,,,,,,,,,,,,,,,,moral_self_bias,28,20,60.0823960166,f,001,2018_Apr_02_1945,
,,,,,,,,,,,,,,,,,,,,,3^1= ?,,,,,,,,,,,,,,,,,,,,0,104,104,101,,,,,,,,,,,,,,,,,,,,,moral_self_bias,28,20,60.0823960166,f,001,2018_Apr_02_1945,
,,,,,,,,,,,,,,,,,,,,,4+2= ?,,,,,,,,,,,,,,,,,,,,0,105,105,26,,,,,,,,,,,,,,,,,,,,,moral_self_bias,28,20,60.0823960166,f,001,2018_Apr_02_1945,
,,,,,,,,,,,,,,,,,,,,,3+2= ?,,,,,,,,,,,,,,,,,,,,0,106,106,17,,,,,,,,,,,,,,,,,,,,,moral_self_bias,28,20,60.0823960166,f,001,2018_Apr_02_1945,
,,,,,,,,,,,,,,,,,,,,,81/9= ?,,,,,,,,,,,,,,,,,,,,0,107,107,75,,,,,,,,,,,,,,,,,,,,,moral_self_bias,28,20,60.0823960166,f,001,2018_Apr_02_1945,
,,,,,,,,,,,,,,,,,,,,,5+2= ?,,,,,,,,,,,,,,,,,,,,0,108,108,35,,,,,,,,,,,,,,,,,,,,,moral_self_bias,28,20,60.0823960166,f,001,2018_Apr_02_1945,
,,,,,,,,,,,,,,,,,,,,,3+4= ?,,,,,,,,,,,,,,,,,,,,0,109,109,19,,,,,,,,,,,,,,,,,,,,,moral_self_bias,28,20,60.0823960166,f,001,2018_Apr_02_1945,
,,,,,,,,,,,,,,,,,,,,,32-32= ?,,,,,,,,,,,,,,,,,,,,0,110,110,80,,,,,,,,,,,,,,,,,,,,,moral_self_bias,28,20,60.0823960166,f,001,2018_Apr_02_1945,
,,,,,,,,,,,,,,,,,,,,,2+5= ?,,,,,,,,,,,,,,,,,,,,0,111,111,11,,,,,,,,,,,,,,,,,,,,,moral_self_bias,28,20,60.0823960166,f,001,2018_Apr_02_1945,
,,,,,,,,,,,,,,,,,,,,,4+5= ?,,,,,,,,,,,,,,,,,,,,0,112,112,29,,,,,,,,,,,,,,,,,,,,,moral_self_bias,28,20,60.0823960166,f,001,2018_Apr_02_1945,
,,,,,,,,,,,,,,,,,,,,,6^0= ?,,,,,,,,,,,,,,,,,,,,0,113,113,114,,,,,,,,,,,,,,,,,,,,,moral_self_bias,28,20,60.0823960166,f,001,2018_Apr_02_1945,
,,,,,,,,,,,,,,,,,,,,,13-9= ?,,,,,,,,,,,,,,,,,,,,0,114,114,92,,,,,,,,,,,,,,,,,,,,,moral_self_bias,28,20,60.0823960166,f,001,2018_Apr_02_1945,
,,,,,,,,,,,,,,,,,,,,,3^2= ?,,,,,,,,,,,,,,,,,,,,0,115,115,50,,,,,,,,,,,,,,,,,,,,,moral_self_bias,28,20,60.0823960166,f,001,2018_Apr_02_1945,
,,,,,,,,,,,,,,,,,,,,,1+7= ?,,,,,,,,,,,,,,,,,,,,0,116,116,4,,,,,,,,,,,,,,,,,,,,,moral_self_bias,28,20,60.0823960166,f,001,2018_Apr_02_1945,
,,,,,,,,,,,,,,,,,,,,,23^0= ?,,,,,,,,,,,,,,,,,,,,0,117,117,94,,,,,,,,,,,,,,,,,,,,,moral_self_bias,28,20,60.0823960166,f,001,2018_Apr_02_1945,
,,,,,,,,,,,,,,,,,,,,,2+7= ?,,,,,,,,,,,,,,,,,,,,0,118,118,13,,,,,,,,,,,,,,,,,,,,,moral_self_bias,28,20,60.0823960166,f,001,2018_Apr_02_1945,
,,,,,,,,,,,,,,,,,,,,,9-5= ?,,,,,,,,,,,,,,,,,,,,0,119,119,23,,,,,,,,,,,,,,,,,,,,,moral_self_bias,28,20,60.0823960166,f,001,2018_Apr_02_1945,
,,,,,,,,,,,,,,,,,,,,,,,,,,,,,,,,,,,,,,,,,,,,,,,,,,,,,,,,,1,9.29241585732,,,,,,,moral_self_bias,28,20,60.0823960166,f,001,2018_Apr_02_1945,
,,,,,,,,,,,,,,,,,,,,,,material/167.png,1,高手,material/169.png,1,material/167.png,颖悟,1,f,f,f,2,2,2,高手,,,,,,,,,0,0,0,148,0,0,0,0,,,,,,,f,1,4.20789194107,j,1,4.88998198509,moral_self_bias,28,20,60.0823960166,f,001,2018_Apr_02_1945,
,,,,,,,,,,,,,,,,,,,,,,material/167.png,1,高手,material/169.png,1,material/167.png,颖悟,1,f,f,f,2,2,2,高手,,,,,,,,,0,0,0,148,,,,,,,,,,,,,,,,,moral_self_bias,28,20,60.0823960166,f,001,2018_Apr_02_1945,
,,,,,,,,,,,,,,,,,,,,,,material/68.png,1,广博,material/167.png,1,material/68.png,高手,1,f,f,f,2,2,2,广博,,,,,,,,,0,1,1,146,,,,,,,,,,,j,0,7.3914949894,,,,moral_self_bias,28,20,60.0823960166,f,001,2018_Apr_02_1945,
,,,,,,,,,,,,,,,,,,,,,,material/106.png,1,诚实,material/6.png,1,material/6.png,诚实,1,j,j,j,1,1,1,厚道,,,,,,,,,0,2,2,5,0,0,0,0,,,,,,,f,0,1.99179887772,f,0,0.890352964401,moral_self_bias,28,20,60.0823960166,f,001,2018_Apr_02_1945,
,,,,,,,,,,,,,,,,,,,,,,material/106.png,1,诚实,material/6.png,1,material/6.png,诚实,1,j,j,j,1,1,1,厚道,,,,,,,,,0,2,2,5,,,,,,,,,,,,,,,,,moral_self_bias,28,20,60.0823960166,f,001,2018_Apr_02_1945,
,,,,,,,,,,,,,,,,,,,,,,material/81.png,2,呆笨,material/179.png,2,material/83.png,差生,2,f,f,f,2,2,2,无助,,,,,,,,,0,3,3,158,0,0,0,0,,,,,,,f,1,3.0081140995,j,1,0.590000867844,moral_self_bias,28,20,60.0823960166,f,001,2018_Apr_02_1945,
,,,,,,,,,,,,,,,,,,,,,,material/81.png,2,呆笨,material/179.png,2,material/83.png,差生,2,f,f,f,2,2,2,无助,,,,,,,,,0,3,3,158,,,,,,,,,,,,,,,,,moral_self_bias,28,20,60.0823960166,f,001,2018_Apr_02_1945,
,,,,,,,,,,,,,,,,,,,,,,material/34.png,2,可恶,material/134.png,2,material/134.png,可恶,2,f,f,f,1,1,1,可恨,,,,,,,,,0,4,4,113,0,0,0,0,,,,,,,f,1,7.35871100426,f,0,0.758809089661,moral_self_bias,28,20,60.0823960166,f,001,2018_Apr_02_1945,
,,,,,,,,,,,,,,,,,,,,,,material/34.png,2,可恶,material/134.png,2,material/134.png,可恶,2,f,f,f,1,1,1,可恨,,,,,,,,,0,4,4,113,,,,,,,,,,,,,,,,,moral_self_bias,28,20,60.0823960166,f,001,2018_Apr_02_1945,
,,,,,,,,,,,,,,,,,,,,,,material/56.png,2,愚昧,material/156.png,2,material/56.png,愚钝,2,f,f,f,2,2,2,愚昧,,,,,,,,,0,5,5,135,0,0,0,0,,,,,,,f,1,2.52458095551,j,1,2.92612910271,moral_self_bias,28,20,60.0823960166,f,001,2018_Apr_02_1945,
,,,,,,,,,,,,,,,,,,,,,,material/56.png,2,愚昧,material/156.png,2,material/56.png,愚钝,2,f,f,f,2,2,2,愚昧,,,,,,,,,0,5,5,135,,,,,,,,,,,,,,,,,moral_self_bias,28,20,60.0823960166,f,001,2018_Apr_02_1945,
,,,,,,,,,,,,,,,,,,,,,,material/32.png,2,背叛,material/132.png,2,material/132.png,背叛,2,f,f,f,1,1,1,不忠,,,,,,,,,0,6,6,111,0,0,0,0,,,,,,,f,1,0.00882720947266,f,0,1.32543420792,moral_self_bias,28,20,60.0823960166,f,001,2018_Apr_02_1945,
,,,,,,,,,,,,,,,,,,,,,,material/32.png,2,背叛,material/132.png,2,material/132.png,背叛,2,f,f,f,1,1,1,不忠,,,,,,,,,0,6,6,111,,,,,,,,,,,,,,,,,moral_self_bias,28,20,60.0823960166,f,001,2018_Apr_02_1945,
,,,,,,,,,,,,,,,,,,,,,,material/123.png,1,多才,material/23.png,1,material/123.png,有才,1,j,j,j,2,2,2,多才,,,,,,,,,0,7,7,22,0,0,0,0,,,,,,,f,0,2.05783605576,j,1,0.624959945679,moral_self_bias,28,20,60.0823960166,f,001,2018_Apr_02_1945,
,,,,,,,,,,,,,,,,,,,,,,material/123.png,1,多才,material/23.png,1,material/123.png,有才,1,j,j,j,2,2,2,多才,,,,,,,,,0,7,7,22,,,,,,,,,,,,,,,,,moral_self_bias,28,20,60.0823960166,f,001,2018_Apr_02_1945,
,,,,,,,,,,,,,,,,,,,,,,material/120.png,1,能干,material/20.png,1,material/120.png,厉害,1,j,j,j,2,2,2,能干,,,,,,,,,0,8,8,19,0,0,0,0,,,,,,,f,0,1.85809779167,j,1,1.14092111588,moral_self_bias,28,20,60.0823960166,f,001,2018_Apr_02_1945,
,,,,,,,,,,,,,,,,,,,,,,material/120.png,1,能干,material/20.png,1,material/120.png,厉害,1,j,j,j,2,2,2,能干,,,,,,,,,0,8,8,19,,,,,,,,,,,,,,,,,moral_self_bias,28,20,60.0823960166,f,001,2018_Apr_02_1945,
,,,,,,,,,,,,,,,,,,,,,,material/66.png,1,独立,material/66.png,1,material/165.png,正义,1,f,f,f,1,1,1,正义,,,,,,,,,0,9,9,164,0,0,0,0,,,,,,,f,1,1.95813202858,j,1,0.3585729599,moral_self_bias,28,20,60.0823960166,f,001,2018_Apr_02_1945,
,,,,,,,,,,,,,,,,,,,,,,material/66.png,1,独立,material/66.png,1,material/165.png,正义,1,f,f,f,1,1,1,正义,,,,,,,,,0,9,9,164,,,,,,,,,,,,,,,,,moral_self_bias,28,20,60.0823960166,f,001,2018_Apr_02_1945,
,,,,,,,,,,,,,,,,,,,,,,material/13.png,1,廉明,material/113.png,1,material/113.png,廉明,1,f,f,f,1,1,1,廉洁,,,,,,,,,0,10,10,92,0,0,0,0,,,,,,,f,1,1.19126105309,j,1,0.316916942596,moral_self_bias,28,20,60.0823960166,f,001,2018_Apr_02_1945,
,,,,,,,,,,,,,,,,,,,,,,material/13.png,1,廉明,material/113.png,1,material/113.png,廉明,1,f,f,f,1,1,1,廉洁,,,,,,,,,0,10,10,92,,,,,,,,,,,,,,,,,moral_self_bias,28,20,60.0823960166,f,001,2018_Apr_02_1945,
,,,,,,,,,,,,,,,,,,,,,,material/126.png,1,勤快,material/26.png,1,material/126.png,刻苦,1,j,j,j,2,2,2,勤快,,,,,,,,,0,11,11,25,0,0,0,0,,,,,,,f,0,1.29128885269,j,1,0.308193922043,moral_self_bias,28,20,60.0823960166,f,001,2018_Apr_02_1945,
,,,,,,,,,,,,,,,,,,,,,,material/126.png,1,勤快,material/26.png,1,material/126.png,刻苦,1,j,j,j,2,2,2,勤快,,,,,,,,,0,11,11,25,,,,,,,,,,,,,,,,,moral_self_bias,28,20,60.0823960166,f,001,2018_Apr_02_1945,
,,,,,,,,,,,,,,,,,,,,,,material/50.png,2,愚笨,material/150.png,2,material/50.png,鲁钝,2,f,f,f,2,2,2,愚笨,,,,,,,,,0,12,12,129,0,0,0,0,,,,,,,f,1,3.32449698448,f,0,0.817226171494,moral_self_bias,28,20,60.0823960166,f,001,2018_Apr_02_1945,
,,,,,,,,,,,,,,,,,,,,,,material/50.png,2,愚笨,material/150.png,2,material/50.png,鲁钝,2,f,f,f,2,2,2,愚笨,,,,,,,,,0,12,12,129,,,,,,,,,,,,,,,,,moral_self_bias,28,20,60.0823960166,f,001,2018_Apr_02_1945,
,,,,,,,,,,,,,,,,,,,,,,material/163.png,1,文明,material/163.png,1,material/63.png,宽容,1,f,f,f,1,1,1,宽容,,,,,,,,,0,13,13,142,0,0,0,0,,,,,,,f,1,1.8912320137,f,0,0.291536092758,moral_self_bias,28,20,60.0823960166,f,001,2018_Apr_02_1945,
,,,,,,,,,,,,,,,,,,,,,,material/163.png,1,文明,material/163.png,1,material/63.png,宽容,1,f,f,f,1,1,1,宽容,,,,,,,,,0,13,13,142,,,,,,,,,,,,,,,,,moral_self_bias,28,20,60.0823960166,f,001,2018_Apr_02_1945,
,,,,,,,,,,,,,,,,,,,,,,material/101.png,1,善良,material/1.png,1,material/1.png,善良,1,j,j,j,1,1,1,博爱,,,,,,,,,0,14,14,0,0,0,0,0,,,,,,,f,0,1.44114518166,f,0,0.791532039642,moral_self_bias,28,20,60.0823960166,f,001,2018_Apr_02_1945,
,,,,,,,,,,,,,,,,,,,,,,material/101.png,1,善良,material/1.png,1,material/1.png,善良,1,j,j,j,1,1,1,博爱,,,,,,,,,0,14,14,0,,,,,,,,,,,,,,,,,moral_self_bias,28,20,60.0823960166,f,001,2018_Apr_02_1945,
,,,,,,,,,,,,,,,,,,,,,,material/4.png,1,友善,material/104.png,1,material/104.png,友善,1,f,f,f,1,1,1,友爱,,,,,,,,,0,15,15,83,0,0,0,0,,,,,,,f,1,2.36718297005,j,1,0.25720000267,moral_self_bias,28,20,60.0823960166,f,001,2018_Apr_02_1945,
,,,,,,,,,,,,,,,,,,,,,,material/4.png,1,友善,material/104.png,1,material/104.png,友善,1,f,f,f,1,1,1,友爱,,,,,,,,,0,15,15,83,,,,,,,,,,,,,,,,,moral_self_bias,28,20,60.0823960166,f,001,2018_Apr_02_1945,
,,,,,,,,,,,,,,,,,,,,,,material/58.png,2,肤浅,material/158.png,2,material/58.png,浅薄,2,f,f,f,2,2,2,肤浅,,,,,,,,,0,16,16,137,0,0,0,0,,,,,,,f,1,2.42460012436,f,0,0.225468158722,moral_self_bias,28,20,60.0823960166,f,001,2018_Apr_02_1945,
,,,,,,,,,,,,,,,,,,,,,,material/58.png,2,肤浅,material/158.png,2,material/58.png,浅薄,2,f,f,f,2,2,2,肤浅,,,,,,,,,0,16,16,137,,,,,,,,,,,,,,,,,moral_self_bias,28,20,60.0823960166,f,001,2018_Apr_02_1945,
,,,,,,,,,,,,,,,,,,,,,,material/41.png,2,残忍,material/141.png,2,material/141.png,残忍,2,f,f,f,1,1,1,歹毒,,,,,,,,,0,17,17,120,0,0,0,0,,,,,,,f,1,1.12427091599,j,1,0.275284051895,moral_self_bias,28,20,60.0823960166,f,001,2018_Apr_02_1945,
,,,,,,,,,,,,,,,,,,,,,,material/41.png,2,残忍,material/141.png,2,material/141.png,残忍,2,f,f,f,1,1,1,歹毒,,,,,,,,,0,17,17,120,,,,,,,,,,,,,,,,,moral_self_bias,28,20,60.0823960166,f,001,2018_Apr_02_1945,
,,,,,,,,,,,,,,,,,,,,,,material/131.png,1,笃行,material/31.png,1,material/131.png,笃学,1,j,j,j,2,2,2,笃行,,,,,,,,,0,18,18,30,0,0,0,0,,,,,,,f,0,1.42508602142,f,0,0.225993871689,moral_self_bias,28,20,60.0823960166,f,001,2018_Apr_02_1945,
,,,,,,,,,,,,,,,,,,,,,,material/131.png,1,笃行,material/31.png,1,material/131.png,笃学,1,j,j,j,2,2,2,笃行,,,,,,,,,0,18,18,30,,,,,,,,,,,,,,,,,moral_self_bias,28,20,60.0823960166,f,001,2018_Apr_02_1945,
,,,,,,,,,,,,,,,,,,,,,,material/47.png,2,死板,material/147.png,2,material/47.png,刻板,2,f,f,f,2,2,2,死板,,,,,,,,,0,19,19,126,0,0,0,0,,,,,,,f,1,5.27532887459,j,1,1.09143400192,moral_self_bias,28,20,60.0823960166,f,001,2018_Apr_02_1945,
,,,,,,,,,,,,,,,,,,,,,,material/47.png,2,死板,material/147.png,2,material/47.png,刻板,2,f,f,f,2,2,2,死板,,,,,,,,,0,19,19,126,,,,,,,,,,,,,,,,,moral_self_bias,28,20,60.0823960166,f,001,2018_Apr_02_1945,
,,,,,,,,,,,,,,,,,,,,,,material/181.png,2,怠惰,material/180.png,2,material/180.png,怠惰,2,f,f,f,2,2,2,犹豫,,,,,,,,,0,20,20,159,0,0,0,0,,,,,,,f,1,5.07487797737,j,1,0.640946865082,moral_self_bias,28,20,60.0823960166,f,001,2018_Apr_02_1945,
,,,,,,,,,,,,,,,,,,,,,,material/181.png,2,怠惰,material/180.png,2,material/180.png,怠惰,2,f,f,f,2,2,2,犹豫,,,,,,,,,0,20,20,159,,,,,,,,,,,,,,,,,moral_self_bias,28,20,60.0823960166,f,001,2018_Apr_02_1945,
,,,,,,,,,,,,,,,,,,,,,,material/6.png,1,厚道,material/106.png,1,material/106.png,厚道,1,f,f,f,1,1,1,诚实,,,,,,,,,0,21,21,85,0,0,0,0,,,,,,,f,1,1.97449207306,f,0,0.458920955658,moral_self_bias,28,20,60.0823960166,f,001,2018_Apr_02_1945,
,,,,,,,,,,,,,,,,,,,,,,material/6.png,1,厚道,material/106.png,1,material/106.png,厚道,1,f,f,f,1,1,1,诚实,,,,,,,,,0,21,21,85,,,,,,,,,,,,,,,,,moral_self_bias,28,20,60.0823960166,f,001,2018_Apr_02_1945,
,,,,,,,,,,,,,,,,,,,,,,material/83.png,2,差生,material/78.png,2,material/179.png,草率,2,j,j,j,2,2,2,呆笨,,,,,,,,,0,22,22,74,0,0,0,0,,,,,,,f,0,2.79069900513,j,1,0.307764053345,moral_self_bias,28,20,60.0823960166,f,001,2018_Apr_02_1945,
,,,,,,,,,,,,,,,,,,,,,,material/83.png,2,差生,material/78.png,2,material/179.png,草率,2,j,j,j,2,2,2,呆笨,,,,,,,,,0,22,22,74,,,,,,,,,,,,,,,,,moral_self_bias,28,20,60.0823960166,f,001,2018_Apr_02_1945,
,,,,,,,,,,,,,,,,,,,,,,material/113.png,1,廉洁,material/13.png,1,material/13.png,廉洁,1,j,j,j,1,1,1,廉明,,,,,,,,,0,23,23,12,0,0,0,0,,,,,,,f,0,0.957406044006,j,1,0.309247016907,moral_self_bias,28,20,60.0823960166,f,001,2018_Apr_02_1945,
,,,,,,,,,,,,,,,,,,,,,,material/113.png,1,廉洁,material/13.png,1,material/13.png,廉洁,1,j,j,j,1,1,1,廉明,,,,,,,,,0,23,23,12,,,,,,,,,,,,,,,,,moral_self_bias,28,20,60.0823960166,f,001,2018_Apr_02_1945,
,,,,,,,,,,,,,,,,,,,,,,material/152.png,2,缓慢,material/52.png,2,material/152.png,拖延,2,j,j,j,2,2,2,缓慢,,,,,,,,,0,24,24,51,0,0,0,0,,,,,,,f,0,1.65033698082,j,1,0.307605981827,moral_self_bias,28,20,60.0823960166,f,001,2018_Apr_02_1945,
,,,,,,,,,,,,,,,,,,,,,,material/152.png,2,缓慢,material/52.png,2,material/152.png,拖延,2,j,j,j,2,2,2,缓慢,,,,,,,,,0,24,24,51,,,,,,,,,,,,,,,,,moral_self_bias,28,20,60.0823960166,f,001,2018_Apr_02_1945,
,,,,,,,,,,,,,,,,,,,,,,material/17.png,1,聪明,material/117.png,1,material/17.png,聪颖,1,f,f,f,2,2,2,聪明,,,,,,,,,0,25,25,96,0,0,0,0,,,,,,,f,1,1.93932104111,f,0,0.274486064911,moral_self_bias,28,20,60.0823960166,f,001,2018_Apr_02_1945,
,,,,,,,,,,,,,,,,,,,,,,material/17.png,1,聪明,material/117.png,1,material/17.png,聪颖,1,f,f,f,2,2,2,聪明,,,,,,,,,0,25,25,96,,,,,,,,,,,,,,,,,moral_self_bias,28,20,60.0823960166,f,001,2018_Apr_02_1945,
,,,,,,,,,,,,,,,,,,,,,,material/138.png,2,无德,material/38.png,2,material/38.png,无德,2,j,j,j,1,1,1,缺德,,,,,,,,,0,26,26,37,0,0,0,0,,,,,,,f,0,3.20793104172,f,0,0.241394042969,moral_self_bias,28,20,60.0823960166,f,001,2018_Apr_02_1945,
,,,,,,,,,,,,,,,,,,,,,,material/138.png,2,无德,material/38.png,2,material/38.png,无德,2,j,j,j,1,1,1,缺德,,,,,,,,,0,26,26,37,,,,,,,,,,,,,,,,,moral_self_bias,28,20,60.0823960166,f,001,2018_Apr_02_1945,
,,,,,,,,,,,,,,,,,,,,,,material/116.png,1,机智,material/16.png,1,material/116.png,睿智,1,j,j,j,2,2,2,机智,,,,,,,,,0,27,27,15,0,0,0,0,,,,,,,f,0,1.24219989777,j,1,0.265876054764,moral_self_bias,28,20,60.0823960166,f,001,2018_Apr_02_1945,
,,,,,,,,,,,,,,,,,,,,,,material/116.png,1,机智,material/16.png,1,material/116.png,睿智,1,j,j,j,2,2,2,机智,,,,,,,,,0,27,27,15,,,,,,,,,,,,,,,,,moral_self_bias,28,20,60.0823960166,f,001,2018_Apr_02_1945,
,,,,,,,,,,,,,,,,,,,,,,material/184.png,2,草率,material/80.png,2,material/78.png,健忘,2,j,j,j,2,2,2,厌学,,,,,,,,,0,28,28,76,0,0,0,0,,,,,,,f,0,1.60840892792,f,0,0.225526809692,moral_self_bias,28,20,60.0823960166,f,001,2018_Apr_02_1945,
,,,,,,,,,,,,,,,,,,,,,,material/184.png,2,草率,material/80.png,2,material/78.png,健忘,2,j,j,j,2,2,2,厌学,,,,,,,,,0,28,28,76,,,,,,,,,,,,,,,,,moral_self_bias,28,20,60.0823960166,f,001,2018_Apr_02_1945,
,,,,,,,,,,,,,,,,,,,,,,material/55.png,2,盲从,material/155.png,2,material/55.png,盲目,2,f,f,f,2,2,2,盲从,,,,,,,,,0,29,29,134,0,0,0,0,,,,,,,f,1,3.77520608902,f,0,0.224178791046,moral_self_bias,28,20,60.0823960166,f,001,2018_Apr_02_1945,
,,,,,,,,,,,,,,,,,,,,,,material/55.png,2,盲从,material/155.png,2,material/55.png,盲目,2,f,f,f,2,2,2,盲从,,,,,,,,,0,29,29,134,,,,,,,,,,,,,,,,,moral_self_bias,28,20,60.0823960166,f,001,2018_Apr_02_1945,
,,,,,,,,,,,,,,,,,,,,,,material/33.png,2,贪污,material/133.png,2,material/133.png,贪污,2,f,f,f,1,1,1,腐败,,,,,,,,,0,30,30,112,0,0,0,0,,,,,,,f,1,1.32419395447,f,0,0.625158071518,moral_self_bias,28,20,60.0823960166,f,001,2018_Apr_02_1945,
,,,,,,,,,,,,,,,,,,,,,,material/33.png,2,贪污,material/133.png,2,material/133.png,贪污,2,f,f,f,1,1,1,腐败,,,,,,,,,0,30,30,112,,,,,,,,,,,,,,,,,moral_self_bias,28,20,60.0823960166,f,001,2018_Apr_02_1945,
,,,,,,,,,,,,,,,,,,,,,,material/158.png,2,浅薄,material/58.png,2,material/158.png,肤浅,2,j,j,j,2,2,2,浅薄,,,,,,,,,0,31,31,57,,,,,,,,,,,j,1,3.49090099335,,,,moral_self_bias,28,20,60.0823960166,f,001,2018_Apr_02_1945,
,,,,,,,,,,,,,,,,,,,,,,material/24.png,1,理智,material/124.png,1,material/24.png,冷静,1,f,f,f,2,2,2,理智,,,,,,,,,0,32,32,103,,,,,,,,,,,j,0,4.10868906975,,,,moral_self_bias,28,20,60.0823960166,f,001,2018_Apr_02_1945,
,,,,,,,,,,,,,,,,,,,,,,material/39.png,2,恶毒,material/139.png,2,material/139.png,恶毒,2,f,f,f,1,1,1,凶残,,,,,,,,,0,33,33,118,0,0,0,0,,,,,,,f,1,1.79178595543,f,0,0.292325019836,moral_self_bias,28,20,60.0823960166,f,001,2018_Apr_02_1945,
,,,,,,,,,,,,,,,,,,,,,,material/39.png,2,恶毒,material/139.png,2,material/139.png,恶毒,2,f,f,f,1,1,1,凶残,,,,,,,,,0,33,33,118,,,,,,,,,,,,,,,,,moral_self_bias,28,20,60.0823960166,f,001,2018_Apr_02_1945,
,,,,,,,,,,,,,,,,,,,,,,material/144.png,2,失信,material/44.png,2,material/44.png,失信,2,j,j,j,1,1,1,爽约,,,,,,,,,0,34,34,43,,,,,,,,,,,j,1,1.12463402748,,,,moral_self_bias,28,20,60.0823960166,f,001,2018_Apr_02_1945,
,,,,,,,,,,,,,,,,,,,,,,material/111.png,1,高雅,material/11.png,1,material/11.png,高雅,1,j,j,j,1,1,1,高尚,,,,,,,,,0,35,35,10,0,0,0,0,,,,,,,f,0,3.15002202988,f,0,0.624656915665,moral_self_bias,28,20,60.0823960166,f,001,2018_Apr_02_1945,
,,,,,,,,,,,,,,,,,,,,,,material/111.png,1,高雅,material/11.png,1,material/11.png,高雅,1,j,j,j,1,1,1,高尚,,,,,,,,,0,35,35,10,,,,,,,,,,,,,,,,,moral_self_bias,28,20,60.0823960166,f,001,2018_Apr_02_1945,
,,,,,,,,,,,,,,,,,,,,,,material/107.png,1,公正,material/7.png,1,material/7.png,公正,1,j,j,j,1,1,1,公平,,,,,,,,,0,36,36,6,,,,,,,,,,,j,1,3.42502593994,,,,moral_self_bias,28,20,60.0823960166,f,001,2018_Apr_02_1945,
,,,,,,,,,,,,,,,,,,,,,,material/130.png,1,进取,material/30.png,1,material/130.png,上进,1,j,j,j,2,2,2,进取,,,,,,,,,0,37,37,29,0,0,0,0,,,,,,,f,0,3.20739412308,j,1,0.290850877762,moral_self_bias,28,20,60.0823960166,f,001,2018_Apr_02_1945,
,,,,,,,,,,,,,,,,,,,,,,material/130.png,1,进取,material/30.png,1,material/130.png,上进,1,j,j,j,2,2,2,进取,,,,,,,,,0,37,37,29,,,,,,,,,,,,,,,,,moral_self_bias,28,20,60.0823960166,f,001,2018_Apr_02_1945,
,,,,,,,,,,,,,,,,,,,,,,material/171.png,1,高效,material/67.png,1,material/171.png,骁勇,1,j,j,j,2,2,2,高效,,,,,,,,,0,38,38,65,,,,,,,,,,,j,1,1.40763401985,,,,moral_self_bias,28,20,60.0823960166,f,001,2018_Apr_02_1945,
,,,,,,,,,,,,,,,,,,,,,,material/134.png,2,可恨,material/34.png,2,material/34.png,可恨,2,j,j,j,1,1,1,可恶,,,,,,,,,0,39,39,33,,,,,,,,,,,j,1,1.09158802032,,,,moral_self_bias,28,20,60.0823960166,f,001,2018_Apr_02_1945,
,,,,,,,,,,,,,,,,,,,,,,material/170.png,1,坚忍,material/71.png,1,material/170.png,严谨,1,j,j,j,2,2,2,坚忍,,,,,,,,,0,40,40,68,0,0,0,0,,,,,,,f,0,1.58348202705,j,1,0.291371107101,moral_self_bias,28,20,60.0823960166,f,001,2018_Apr_02_1945,
,,,,,,,,,,,,,,,,,,,,,,material/170.png,1,坚忍,material/71.png,1,material/170.png,严谨,1,j,j,j,2,2,2,坚忍,,,,,,,,,0,40,40,68,,,,,,,,,,,,,,,,,moral_self_bias,28,20,60.0823960166,f,001,2018_Apr_02_1945,
,,,,,,,,,,,,,,,,,,,,,,material/14.png,1,忠贞,material/114.png,1,material/114.png,忠贞,1,f,f,f,1,1,1,爱国,,,,,,,,,0,41,41,93,,,,,,,,,,,j,0,1.02548408508,,,,moral_self_bias,28,20,60.0823960166,f,001,2018_Apr_02_1945,
,,,,,,,,,,,,,,,,,,,,,,material/57.png,2,无知,material/157.png,2,material/57.png,无能,2,f,f,f,2,2,2,无知,,,,,,,,,0,42,42,136,0,0,0,0,,,,,,,f,1,5.30879282951,j,1,1.39160299301,moral_self_bias,28,20,60.0823960166,f,001,2018_Apr_02_1945,
,,,,,,,,,,,,,,,,,,,,,,material/57.png,2,无知,material/157.png,2,material/57.png,无能,2,f,f,f,2,2,2,无知,,,,,,,,,0,42,42,136,,,,,,,,,,,,,,,,,moral_self_bias,28,20,60.0823960166,f,001,2018_Apr_02_1945,
,,,,,,,,,,,,,,,,,,,,,,material/121.png,1,精干,material/21.png,1,material/121.png,干练,1,j,j,j,2,2,2,精干,,,,,,,,,0,43,43,20,0,0,0,0,,,,,,,f,0,2.59062695503,f,0,0.2582051754,moral_self_bias,28,20,60.0823960166,f,001,2018_Apr_02_1945,
,,,,,,,,,,,,,,,,,,,,,,material/121.png,1,精干,material/21.png,1,material/121.png,干练,1,j,j,j,2,2,2,精干,,,,,,,,,0,43,43,20,,,,,,,,,,,,,,,,,moral_self_bias,28,20,60.0823960166,f,001,2018_Apr_02_1945,
,,,,,,,,,,,,,,,,,,,,,,material/166.png,1,孝顺,material/64.png,1,material/164.png,奉献,1,j,j,j,1,1,1,仗义,,,,,,,,,0,44,44,63,0,0,0,0,,,,,,,f,0,1.55814003944,j,1,0.274452924728,moral_self_bias,28,20,60.0823960166,f,001,2018_Apr_02_1945,
,,,,,,,,,,,,,,,,,,,,,,material/166.png,1,孝顺,material/64.png,1,material/164.png,奉献,1,j,j,j,1,1,1,仗义,,,,,,,,,0,44,44,63,,,,,,,,,,,,,,,,,moral_self_bias,28,20,60.0823960166,f,001,2018_Apr_02_1945,
,,,,,,,,,,,,,,,,,,,,,,material/53.png,2,迟缓,material/153.png,2,material/53.png,迟钝,2,f,f,f,2,2,2,迟缓,,,,,,,,,0,45,45,132,0,0,0,0,,,,,,,f,1,1.54192304611,f,0,0.224161148071,moral_self_bias,28,20,60.0823960166,f,001,2018_Apr_02_1945,
,,,,,,,,,,,,,,,,,,,,,,material/53.png,2,迟缓,material/153.png,2,material/53.png,迟钝,2,f,f,f,2,2,2,迟缓,,,,,,,,,0,45,45,132,,,,,,,,,,,,,,,,,moral_self_bias,28,20,60.0823960166,f,001,2018_Apr_02_1945,
,,,,,,,,,,,,,,,,,,,,,,material/18.png,1,敏锐,material/118.png,1,material/18.png,机敏,1,f,f,f,2,2,2,敏锐,,,,,,,,,0,46,46,97,0,0,0,0,,,,,,,f,1,1.80398488045,j,1,0.75387096405,moral_self_bias,28,20,60.0823960166,f,001,2018_Apr_02_1945,
,,,,,,,,,,,,,,,,,,,,,,material/18.png,1,敏锐,material/118.png,1,material/18.png,机敏,1,f,f,f,2,2,2,敏锐,,,,,,,,,0,46,46,97,,,,,,,,,,,,,,,,,moral_self_bias,28,20,60.0823960166,f,001,2018_Apr_02_1945,
,,,,,,,,,,,,,,,,,,,,,,material/112.png,1,忠诚,material/12.png,1,material/12.png,忠诚,1,j,j,j,1,1,1,忠心,,,,,,,,,0,47,47,11,0,0,0,0,,,,,,,f,0,2.35900187492,f,0,0.541981935501,moral_self_bias,28,20,60.0823960166,f,001,2018_Apr_02_1945,
,,,,,,,,,,,,,,,,,,,,,,material/112.png,1,忠诚,material/12.png,1,material/12.png,忠诚,1,j,j,j,1,1,1,忠心,,,,,,,,,0,47,47,11,,,,,,,,,,,,,,,,,moral_self_bias,28,20,60.0823960166,f,001,2018_Apr_02_1945,
,,,,,,,,,,,,,,,,,,,,,,material/73.png,2,恶心,material/177.png,2,material/177.png,恶心,2,f,f,f,1,1,1,残虐,,,,,,,,,0,48,48,156,0,0,0,0,,,,,,,f,1,2.92497301102,j,1,0.24137711525,moral_self_bias,28,20,60.0823960166,f,001,2018_Apr_02_1945,
,,,,,,,,,,,,,,,,,,,,,,material/73.png,2,恶心,material/177.png,2,material/177.png,恶心,2,f,f,f,1,1,1,残虐,,,,,,,,,0,48,48,156,,,,,,,,,,,,,,,,,moral_self_bias,28,20,60.0823960166,f,001,2018_Apr_02_1945,
,,,,,,,,,,,,,,,,,,,,,,material/25.png,1,果断,material/125.png,1,material/25.png,果敢,1,f,f,f,2,2,2,果断,,,,,,,,,0,49,49,104,0,0,0,0,,,,,,,f,1,3.45882487297,j,1,0.291865825653,moral_self_bias,28,20,60.0823960166,f,001,2018_Apr_02_1945,
,,,,,,,,,,,,,,,,,,,,,,material/25.png,1,果断,material/125.png,1,material/25.png,果敢,1,f,f,f,2,2,2,果断,,,,,,,,,0,49,49,104,,,,,,,,,,,,,,,,,moral_self_bias,28,20,60.0823960166,f,001,2018_Apr_02_1945,
,,,,,,,,,,,,,,,,,,,,,,material/172.png,2,无情,material/175.png,2,material/175.png,无情,2,f,f,f,1,1,1,浮夸,,,,,,,,,0,50,50,154,,,,,,,,,,,j,0,1.04084706306,,,,moral_self_bias,28,20,60.0823960166,f,001,2018_Apr_02_1945,
,,,,,,,,,,,,,,,,,,,,,,material/178.png,2,窝囊,material/82.png,2,material/82.png,窝囊,2,j,j,j,2,2,2,毛糙,,,,,,,,,0,51,51,78,,,,,,,,,,,j,1,2.49133014679,,,,moral_self_bias,28,20,60.0823960166,f,001,2018_Apr_02_1945,
,,,,,,,,,,,,,,,,,,,,,,material/133.png,2,腐败,material/33.png,2,material/33.png,腐败,2,j,j,j,1,1,1,贪污,,,,,,,,,0,52,52,32,,,,,,,,,,,j,1,1.92375302315,,,,moral_self_bias,28,20,60.0823960166,f,001,2018_Apr_02_1945,
,,,,,,,,,,,,,,,,,,,,,,material/49.png,2,痴呆,material/149.png,2,material/49.png,白痴,2,f,f,f,2,2,2,痴呆,,,,,,,,,0,53,53,128,,,,,,,,,,,j,0,1.20804095268,,,,moral_self_bias,28,20,60.0823960166,f,001,2018_Apr_02_1945,
,,,,,,,,,,,,,,,,,,,,,,material/67.png,1,骁勇,material/70.png,1,material/67.png,全面,1,j,j,j,2,2,2,骁勇,,,,,,,,,0,54,54,67,,,,,,,,,,,j,1,1.31626486778,,,,moral_self_bias,28,20,60.0823960166,f,001,2018_Apr_02_1945,
,,,,,,,,,,,,,,,,,,,,,,material/46.png,2,自私,material/146.png,2,material/146.png,自私,2,f,f,f,1,1,1,小气,,,,,,,,,0,55,55,125,0,0,0,0,,,,,,,f,1,1.69978189468,j,1,0.274427890778,moral_self_bias,28,20,60.0823960166,f,001,2018_Apr_02_1945,
,,,,,,,,,,,,,,,,,,,,,,material/46.png,2,自私,material/146.png,2,material/146.png,自私,2,f,f,f,1,1,1,小气,,,,,,,,,0,55,55,125,,,,,,,,,,,,,,,,,moral_self_bias,28,20,60.0823960166,f,001,2018_Apr_02_1945,
,,,,,,,,,,,,,,,,,,,,,,material/37.png,2,卑鄙,material/137.png,2,material/137.png,卑鄙,2,f,f,f,1,1,1,无耻,,,,,,,,,0,56,56,116,,,,,,,,,,,j,0,2.29067802429,,,,moral_self_bias,28,20,60.0823960166,f,001,2018_Apr_02_1945,
,,,,,,,,,,,,,,,,,,,,,,material/79.png,2,薄弱,material/81.png,2,material/183.png,无助,2,j,j,j,2,2,2,颓废,,,,,,,,,0,57,57,77,,,,,,,,,,,j,1,2.47404503822,,,,moral_self_bias,28,20,60.0823960166,f,001,2018_Apr_02_1945,
,,,,,,,,,,,,,,,,,,,,,,material/19.png,1,灵活,material/119.png,1,material/19.png,机灵,1,f,f,f,2,2,2,灵活,,,,,,,,,0,58,58,98,0,0,0,0,,,,,,,f,1,5.49148702621,j,1,0.37530207634,moral_self_bias,28,20,60.0823960166,f,001,2018_Apr_02_1945,
,,,,,,,,,,,,,,,,,,,,,,material/19.png,1,灵活,material/119.png,1,material/19.png,机灵,1,f,f,f,2,2,2,灵活,,,,,,,,,0,58,58,98,,,,,,,,,,,,,,,,,moral_self_bias,28,20,60.0823960166,f,001,2018_Apr_02_1945,
,,,,,,,,,,,,,,,,,,,,,,material/51.png,2,糊涂,material/151.png,2,material/51.png,迷糊,2,f,f,f,2,2,2,糊涂,,,,,,,,,0,59,59,130,0,0,0,0,,,,,,,f,1,1.28287100792,j,1,0.357530832291,moral_self_bias,28,20,60.0823960166,f,001,2018_Apr_02_1945,
,,,,,,,,,,,,,,,,,,,,,,material/51.png,2,糊涂,material/151.png,2,material/51.png,迷糊,2,f,f,f,2,2,2,糊涂,,,,,,,,,0,59,59,130,,,,,,,,,,,,,,,,,moral_self_bias,28,20,60.0823960166,f,001,2018_Apr_02_1945,
,,,,,,,,,,,,,,,,,,,,,,material/183.png,2,颓废,material/182.png,2,material/79.png,才尽,2,f,f,f,2,2,2,薄弱,,,,,,,,,0,60,60,161,0,0,0,0,,,,,,,f,1,1.14103603363,f,0,0.25808095932,moral_self_bias,28,20,60.0823960166,f,001,2018_Apr_02_1945,
,,,,,,,,,,,,,,,,,,,,,,material/183.png,2,颓废,material/182.png,2,material/79.png,才尽,2,f,f,f,2,2,2,薄弱,,,,,,,,,0,60,60,161,,,,,,,,,,,,,,,,,moral_self_bias,28,20,60.0823960166,f,001,2018_Apr_02_1945,
,,,,,,,,,,,,,,,,,,,,,,material/125.png,1,果敢,material/25.png,1,material/125.png,果断,1,j,j,j,2,2,2,果敢,,,,,,,,,0,61,61,24,,,,,,,,,,,j,1,1.74041390419,,,,moral_self_bias,28,20,60.0823960166,f,001,2018_Apr_02_1945,
,,,,,,,,,,,,,,,,,,,,,,material/103.png,1,仁慈,material/3.png,1,material/3.png,仁慈,1,j,j,j,1,1,1,仁厚,,,,,,,,,0,62,62,2,0,0,0,0,,,,,,,f,0,2.30841183662,j,1,0.458805084229,moral_self_bias,28,20,60.0823960166,f,001,2018_Apr_02_1945,
,,,,,,,,,,,,,,,,,,,,,,material/103.png,1,仁慈,material/3.png,1,material/3.png,仁慈,1,j,j,j,1,1,1,仁厚,,,,,,,,,0,62,62,2,,,,,,,,,,,,,,,,,moral_self_bias,28,20,60.0823960166,f,001,2018_Apr_02_1945,
,,,,,,,,,,,,,,,,,,,,,,material/76.png,2,放纵,material/176.png,2,material/176.png,放纵,2,f,f,f,1,1,1,虚伪,,,,,,,,,0,63,63,155,,,,,,,,,,,j,0,2.63337492943,,,,moral_self_bias,28,20,60.0823960166,f,001,2018_Apr_02_1945,
,,,,,,,,,,,,,,,,,,,,,,material/45.png,2,小人,material/145.png,2,material/145.png,小人,2,f,f,f,1,1,1,下流,,,,,,,,,0,64,64,124,0,0,0,0,,,,,,,f,1,2.44163298607,j,1,0.282613992691,moral_self_bias,28,20,60.0823960166,f,001,2018_Apr_02_1945,
,,,,,,,,,,,,,,,,,,,,,,material/45.png,2,小人,material/145.png,2,material/145.png,小人,2,f,f,f,1,1,1,下流,,,,,,,,,0,64,64,124,,,,,,,,,,,,,,,,,moral_self_bias,28,20,60.0823960166,f,001,2018_Apr_02_1945,
,,,,,,,,,,,,,,,,,,,,,,material/156.png,2,愚钝,material/56.png,2,material/156.png,愚昧,2,j,j,j,2,2,2,愚钝,,,,,,,,,0,65,65,55,0,0,0,0,,,,,,,f,0,2.88319206238,j,1,0.457087993622,moral_self_bias,28,20,60.0823960166,f,001,2018_Apr_02_1945,
,,,,,,,,,,,,,,,,,,,,,,material/156.png,2,愚钝,material/56.png,2,material/156.png,愚昧,2,j,j,j,2,2,2,愚钝,,,,,,,,,0,65,65,55,,,,,,,,,,,,,,,,,moral_self_bias,28,20,60.0823960166,f,001,2018_Apr_02_1945,
,,,,,,,,,,,,,,,,,,,,,,material/118.png,1,机敏,material/18.png,1,material/118.png,敏锐,1,j,j,j,2,2,2,机敏,,,,,,,,,0,66,66,17,0,0,0,0,,,,,,,f,0,1.0414249897,j,1,0.225743055344,moral_self_bias,28,20,60.0823960166,f,001,2018_Apr_02_1945,
,,,,,,,,,,,,,,,,,,,,,,material/118.png,1,机敏,material/18.png,1,material/118.png,敏锐,1,j,j,j,2,2,2,机敏,,,,,,,,,0,66,66,17,,,,,,,,,,,,,,,,,moral_self_bias,28,20,60.0823960166,f,001,2018_Apr_02_1945,
,,,,,,,,,,,,,,,,,,,,,,material/35.png,2,冷血,material/135.png,2,material/135.png,冷血,2,f,f,f,1,1,1,冷漠,,,,,,,,,0,67,67,114,,,,,,,,,,,j,0,2.90750384331,,,,moral_self_bias,28,20,60.0823960166,f,001,2018_Apr_02_1945,
,,,,,,,,,,,,,,,,,,,,,,material/157.png,2,无能,material/57.png,2,material/157.png,无知,2,j,j,j,2,2,2,无能,,,,,,,,,0,68,68,56,,,,,,,,,,,j,1,1.1580889225,,,,moral_self_bias,28,20,60.0823960166,f,001,2018_Apr_02_1945,
,,,,,,,,,,,,,,,,,,,,,,material/143.png,2,拜金,material/43.png,2,material/43.png,拜金,2,j,j,j,1,1,1,虚荣,,,,,,,,,0,69,69,42,,,,,,,,,,,j,1,1.5070271492,,,,moral_self_bias,28,20,60.0823960166,f,001,2018_Apr_02_1945,
,,,,,,,,,,,,,,,,,,,,,,material/176.png,2,害人,material/75.png,2,material/75.png,害人,2,j,j,j,1,1,1,放纵,,,,,,,,,0,70,70,71,,,,,,,,,,,j,1,1.74980401993,,,,moral_self_bias,28,20,60.0823960166,f,001,2018_Apr_02_1945,
,,,,,,,,,,,,,,,,,,,,,,material/132.png,2,不忠,material/32.png,2,material/32.png,不忠,2,j,j,j,1,1,1,背叛,,,,,,,,,0,71,71,31,,,,,,,,,,,j,1,0.857873916626,,,,moral_self_bias,28,20,60.0823960166,f,001,2018_Apr_02_1945,
,,,,,,,,,,,,,,,,,,,,,,material/16.png,1,睿智,material/116.png,1,material/16.png,机智,1,f,f,f,2,2,2,睿智,,,,,,,,,0,72,72,95,,,,,,,,,,,j,0,3.15868997574,,,,moral_self_bias,28,20,60.0823960166,f,001,2018_Apr_02_1945,
,,,,,,,,,,,,,,,,,,,,,,material/52.png,2,拖延,material/152.png,2,material/52.png,缓慢,2,f,f,f,2,2,2,拖延,,,,,,,,,0,73,73,131,,,,,,,,,,,j,0,0.942233085632,,,,moral_self_bias,28,20,60.0823960166,f,001,2018_Apr_02_1945,
,,,,,,,,,,,,,,,,,,,,,,material/168.png,1,机变,material/170.png,1,material/168.png,坚忍,1,f,f,f,2,2,2,机变,,,,,,,,,0,74,74,149,,,,,,,,,,,j,0,1.37460803986,,,,moral_self_bias,28,20,60.0823960166,f,001,2018_Apr_02_1945,
,,,,,,,,,,,,,,,,,,,,,,material/149.png,2,白痴,material/49.png,2,material/149.png,痴呆,2,j,j,j,2,2,2,白痴,,,,,,,,,0,75,75,48,,,,,,,,,,,j,1,0.974816083908,,,,moral_self_bias,28,20,60.0823960166,f,001,2018_Apr_02_1945,
,,,,,,,,,,,,,,,,,,,,,,material/169.png,1,颖悟,material/171.png,1,material/169.png,高效,1,f,f,f,2,2,2,颖悟,,,,,,,,,0,76,76,150,0,0,0,0,,,,,,,f,1,1.35769486427,j,1,0.274456977844,moral_self_bias,28,20,60.0823960166,f,001,2018_Apr_02_1945,
,,,,,,,,,,,,,,,,,,,,,,material/169.png,1,颖悟,material/171.png,1,material/169.png,高效,1,f,f,f,2,2,2,颖悟,,,,,,,,,0,76,76,150,,,,,,,,,,,,,,,,,moral_self_bias,28,20,60.0823960166,f,001,2018_Apr_02_1945,
,,,,,,,,,,,,,,,,,,,,,,material/154.png,2,依靠,material/54.png,2,material/154.png,依赖,2,j,j,j,2,2,2,依靠,,,,,,,,,0,77,77,53,0,0,0,0,,,,,,,f,0,1.60738706589,f,0,0.233431100845,moral_self_bias,28,20,60.0823960166,f,001,2018_Apr_02_1945,
,,,,,,,,,,,,,,,,,,,,,,material/154.png,2,依靠,material/54.png,2,material/154.png,依赖,2,j,j,j,2,2,2,依靠,,,,,,,,,0,77,77,53,,,,,,,,,,,,,,,,,moral_self_bias,28,20,60.0823960166,f,001,2018_Apr_02_1945,
,,,,,,,,,,,,,,,,,,,,,,material/8.png,1,无私,material/108.png,1,material/108.png,无私,1,f,f,f,1,1,1,公道,,,,,,,,,0,78,78,87,0,0,0,0,,,,,,,f,1,3.22368717194,j,1,0.257210969925,moral_self_bias,28,20,60.0823960166,f,001,2018_Apr_02_1945,
,,,,,,,,,,,,,,,,,,,,,,material/8.png,1,无私,material/108.png,1,material/108.png,无私,1,f,f,f,1,1,1,公道,,,,,,,,,0,78,78,87,,,,,,,,,,,,,,,,,moral_self_bias,28,20,60.0823960166,f,001,2018_Apr_02_1945,
,,,,,,,,,,,,,,,,,,,,,,material/65.png,1,勇敢,material/61.png,1,material/161.png,平等,1,j,j,j,1,1,1,谦虚,,,,,,,,,0,79,79,60,,,,,,,,,,,j,1,1.17493104935,,,,moral_self_bias,28,20,60.0823960166,f,001,2018_Apr_02_1945,
,,,,,,,,,,,,,,,,,,,,,,material/161.png,1,奉献,material/164.png,1,material/64.png,孝顺,1,f,f,f,1,1,1,勇敢,,,,,,,,,0,80,80,143,0,0,0,0,,,,,,,f,1,1.17528486252,f,0,2.09106397629,moral_self_bias,28,20,60.0823960166,f,001,2018_Apr_02_1945,
,,,,,,,,,,,,,,,,,,,,,,material/161.png,1,奉献,material/164.png,1,material/64.png,孝顺,1,f,f,f,1,1,1,勇敢,,,,,,,,,0,80,80,143,,,,,,,,,,,,,,,,,moral_self_bias,28,20,60.0823960166,f,001,2018_Apr_02_1945,
,,,,,,,,,,,,,,,,,,,,,,material/82.png,2,毛糙,material/183.png,2,material/178.png,薄弱,2,f,f,f,2,2,2,窝囊,,,,,,,,,0,81,81,162,,,,,,,,,,,j,0,2.4417860508,,,,moral_self_bias,28,20,60.0823960166,f,001,2018_Apr_02_1945,
,,,,,,,,,,,,,,,,,,,,,,material/72.png,2,软弱,material/77.png,2,material/77.png,软弱,2,j,j,j,1,1,1,谄媚,,,,,,,,,0,82,82,73,,,,,,,,,,,j,1,1.5911090374,,,,moral_self_bias,28,20,60.0823960166,f,001,2018_Apr_02_1945,
,,,,,,,,,,,,,,,,,,,,,,material/10.png,1,坚毅,material/110.png,1,material/110.png,坚毅,1,f,f,f,1,1,1,顽强,,,,,,,,,0,83,83,89,,,,,,,,,,,j,0,1.80747318268,,,,moral_self_bias,28,20,60.0823960166,f,001,2018_Apr_02_1945,
,,,,,,,,,,,,,,,,,,,,,,material/36.png,2,撒谎,material/136.png,2,material/136.png,撒谎,2,f,f,f,1,1,1,说谎,,,,,,,,,0,84,84,115,,,,,,,,,,,j,0,1.05001306534,,,,moral_self_bias,28,20,60.0823960166,f,001,2018_Apr_02_1945,
,,,,,,,,,,,,,,,,,,,,,,material/38.png,2,缺德,material/138.png,2,material/138.png,缺德,2,f,f,f,1,1,1,无德,,,,,,,,,0,85,85,117,0,0,0,0,,,,,,,f,1,2.10778617859,j,1,0.27475810051,moral_self_bias,28,20,60.0823960166,f,001,2018_Apr_02_1945,
,,,,,,,,,,,,,,,,,,,,,,material/38.png,2,缺德,material/138.png,2,material/138.png,缺德,2,f,f,f,1,1,1,无德,,,,,,,,,0,85,85,117,,,,,,,,,,,,,,,,,moral_self_bias,28,20,60.0823960166,f,001,2018_Apr_02_1945,
,,,,,,,,,,,,,,,,,,,,,,material/104.png,1,友爱,material/4.png,1,material/4.png,友爱,1,j,j,j,1,1,1,友善,,,,,,,,,0,86,86,3,,,,,,,,,,,j,1,2.65786290169,,,,moral_self_bias,28,20,60.0823960166,f,001,2018_Apr_02_1945,
,,,,,,,,,,,,,,,,,,,,,,material/30.png,1,上进,material/130.png,1,material/30.png,进取,1,f,f,f,2,2,2,上进,,,,,,,,,0,87,87,109,,,,,,,,,,,j,0,1.00776600838,,,,moral_self_bias,28,20,60.0823960166,f,001,2018_Apr_02_1945,
,,,,,,,,,,,,,,,,,,,,,,material/62.png,1,坚韧,material/162.png,1,material/62.png,敬业,1,f,f,f,1,1,1,坚韧,,,,,,,,,0,88,88,141,0,0,0,0,,,,,,,f,1,0.85772395134,j,1,0.257849931717,moral_self_bias,28,20,60.0823960166,f,001,2018_Apr_02_1945,
,,,,,,,,,,,,,,,,,,,,,,material/62.png,1,坚韧,material/162.png,1,material/62.png,敬业,1,f,f,f,1,1,1,坚韧,,,,,,,,,0,88,88,141,,,,,,,,,,,,,,,,,moral_self_bias,28,20,60.0823960166,f,001,2018_Apr_02_1945,
,,,,,,,,,,,,,,,,,,,,,,material/122.png,1,博学,material/22.png,1,material/122.png,才学,1,j,j,j,2,2,2,博学,,,,,,,,,0,89,89,21,0,0,0,0,,,,,,,f,0,1.52398991585,j,1,0.274931907654,moral_self_bias,28,20,60.0823960166,f,001,2018_Apr_02_1945,
,,,,,,,,,,,,,,,,,,,,,,material/122.png,1,博学,material/22.png,1,material/122.png,才学,1,j,j,j,2,2,2,博学,,,,,,,,,0,89,89,21,,,,,,,,,,,,,,,,,moral_self_bias,28,20,60.0823960166,f,001,2018_Apr_02_1945,
,,,,,,,,,,,,,,,,,,,,,,material/127.png,1,超群,material/27.png,1,material/127.png,卓越,1,j,j,j,2,2,2,超群,,,,,,,,,0,90,90,26,0,0,0,0,,,,,,,f,0,3.94154191017,j,1,0.275076150894,moral_self_bias,28,20,60.0823960166,f,001,2018_Apr_02_1945,
,,,,,,,,,,,,,,,,,,,,,,material/127.png,1,超群,material/27.png,1,material/127.png,卓越,1,j,j,j,2,2,2,超群,,,,,,,,,0,90,90,26,,,,,,,,,,,,,,,,,moral_self_bias,28,20,60.0823960166,f,001,2018_Apr_02_1945,
,,,,,,,,,,,,,,,,,,,,,,material/146.png,2,小气,material/46.png,2,material/46.png,小气,2,j,j,j,1,1,1,自私,,,,,,,,,0,91,91,45,0,0,0,0,,,,,,,f,0,3.75819516182,j,1,0.308079004288,moral_self_bias,28,20,60.0823960166,f,001,2018_Apr_02_1945,
,,,,,,,,,,,,,,,,,,,,,,material/146.png,2,小气,material/46.png,2,material/46.png,小气,2,j,j,j,1,1,1,自私,,,,,,,,,0,91,91,45,,,,,,,,,,,,,,,,,moral_self_bias,28,20,60.0823960166,f,001,2018_Apr_02_1945,
,,,,,,,,,,,,,,,,,,,,,,material/160.png,2,笨拙,material/60.png,2,material/160.png,粗拙,2,j,j,j,2,2,2,笨拙,,,,,,,,,0,92,92,59,,,,,,,,,,,j,1,1.39184308052,,,,moral_self_bias,28,20,60.0823960166,f,001,2018_Apr_02_1945,
,,,,,,,,,,,,,,,,,,,,,,material/71.png,1,严谨,material/68.png,1,material/71.png,广博,1,j,j,j,2,2,2,严谨,,,,,,,,,0,93,93,66,,,,,,,,,,,j,1,0.790879964828,,,,moral_self_bias,28,20,60.0823960166,f,001,2018_Apr_02_1945,
,,,,,,,,,,,,,,,,,,,,,,material/70.png,1,全面,material/168.png,1,material/70.png,机变,1,f,f,f,2,2,2,全面,,,,,,,,,0,94,94,147,0,0,0,0,,,,,,,f,1,2.1171901226,j,1,0.241548061371,moral_self_bias,28,20,60.0823960166,f,001,2018_Apr_02_1945,
,,,,,,,,,,,,,,,,,,,,,,material/70.png,1,全面,material/168.png,1,material/70.png,机变,1,f,f,f,2,2,2,全面,,,,,,,,,0,94,94,147,,,,,,,,,,,,,,,,,moral_self_bias,28,20,60.0823960166,f,001,2018_Apr_02_1945,
,,,,,,,,,,,,,,,,,,,,,,material/139.png,2,凶残,material/39.png,2,material/39.png,凶残,2,j,j,j,1,1,1,恶毒,,,,,,,,,0,95,95,38,0,0,0,0,,,,,,,f,0,1.70134091377,j,1,0.223955869675,moral_self_bias,28,20,60.0823960166,f,001,2018_Apr_02_1945,
,,,,,,,,,,,,,,,,,,,,,,material/139.png,2,凶残,material/39.png,2,material/39.png,凶残,2,j,j,j,1,1,1,恶毒,,,,,,,,,0,95,95,38,,,,,,,,,,,,,,,,,moral_self_bias,28,20,60.0823960166,f,001,2018_Apr_02_1945,
,,,,,,,,,,,,,,,,,,,,,,material/147.png,2,刻板,material/47.png,2,material/147.png,死板,2,j,j,j,2,2,2,刻板,,,,,,,,,0,96,96,46,,,,,,,,,,,j,1,3.40752196312,,,,moral_self_bias,28,20,60.0823960166,f,001,2018_Apr_02_1945,
,,,,,,,,,,,,,,,,,,,,,,material/75.png,2,卑劣,material/74.png,2,material/74.png,卑劣,2,j,j,j,1,1,1,害人,,,,,,,,,0,97,97,70,0,0,0,0,,,,,,,f,0,5.20729517937,j,1,0.291949987411,moral_self_bias,28,20,60.0823960166,f,001,2018_Apr_02_1945,
,,,,,,,,,,,,,,,,,,,,,,material/75.png,2,卑劣,material/74.png,2,material/74.png,卑劣,2,j,j,j,1,1,1,害人,,,,,,,,,0,97,97,70,,,,,,,,,,,,,,,,,moral_self_bias,28,20,60.0823960166,f,001,2018_Apr_02_1945,
,,,,,,,,,,,,,,,,,,,,,,material/174.png,2,虚伪,material/76.png,2,material/76.png,虚伪,2,j,j,j,1,1,1,不义,,,,,,,,,0,98,98,72,0,0,0,0,,,,,,,f,0,1.32506203651,j,1,0.225630044937,moral_self_bias,28,20,60.0823960166,f,001,2018_Apr_02_1945,
,,,,,,,,,,,,,,,,,,,,,,material/174.png,2,虚伪,material/76.png,2,material/76.png,虚伪,2,j,j,j,1,1,1,不义,,,,,,,,,0,98,98,72,,,,,,,,,,,,,,,,,moral_self_bias,28,20,60.0823960166,f,001,2018_Apr_02_1945,
,,,,,,,,,,,,,,,,,,,,,,material/175.png,2,残虐,material/73.png,2,material/73.png,残虐,2,f,f,f,1,1,1,无情,,,,,,,,,0,99,99,165,0,0,0,0,,,,,,,f,1,2.1900138855,j,1,0.374851942062,moral_self_bias,28,20,60.0823960166,f,001,2018_Apr_02_1945,
,,,,,,,,,,,,,,,,,,,,,,material/175.png,2,残虐,material/73.png,2,material/73.png,残虐,2,f,f,f,1,1,1,无情,,,,,,,,,0,99,99,165,,,,,,,,,,,,,,,,,moral_self_bias,28,20,60.0823960166,f,001,2018_Apr_02_1945,
,,,,,,,,,,,,,,,,,,,,,,material/77.png,2,浮夸,material/172.png,2,material/172.png,浮夸,2,f,f,f,1,1,1,软弱,,,,,,,,,0,100,100,151,,,,,,,,,,,j,0,2.13795590401,,,,moral_self_bias,28,20,60.0823960166,f,001,2018_Apr_02_1945,
,,,,,,,,,,,,,,,,,,,,,,material/69.png,1,高明,material/69.png,1,material/69.png,高明,1,f,f,f,2,2,2,高明,,,,,,,,,0,101,101,166,,,,,,,,,,,j,0,2.75697088242,,,,moral_self_bias,28,20,60.0823960166,f,001,2018_Apr_02_1945,
,,,,,,,,,,,,,,,,,,,,,,material/137.png,2,无耻,material/37.png,2,material/37.png,无耻,2,j,j,j,1,1,1,卑鄙,,,,,,,,,0,102,102,36,0,0,0,0,,,,,,,f,0,2.85782504082,j,1,0.308655023575,moral_self_bias,28,20,60.0823960166,f,001,2018_Apr_02_1945,
,,,,,,,,,,,,,,,,,,,,,,material/137.png,2,无耻,material/37.png,2,material/37.png,无耻,2,j,j,j,1,1,1,卑鄙,,,,,,,,,0,102,102,36,,,,,,,,,,,,,,,,,moral_self_bias,28,20,60.0823960166,f,001,2018_Apr_02_1945,
,,,,,,,,,,,,,,,,,,,,,,material/124.png,1,冷静,material/24.png,1,material/124.png,理智,1,j,j,j,2,2,2,冷静,,,,,,,,,0,103,103,23,,,,,,,,,,,j,1,3.27494692802,,,,moral_self_bias,28,20,60.0823960166,f,001,2018_Apr_02_1945,
,,,,,,,,,,,,,,,,,,,,,,material/115.png,1,清白,material/15.png,1,material/15.png,清白,1,j,j,j,1,1,1,纯洁,,,,,,,,,0,104,104,14,,,,,,,,,,,j,1,1.52417802811,,,,moral_self_bias,28,20,60.0823960166,f,001,2018_Apr_02_1945,
,,,,,,,,,,,,,,,,,,,,,,material/29.png,1,好学,material/129.png,1,material/29.png,好问,1,f,f,f,2,2,2,好学,,,,,,,,,0,105,105,108,,,,,,,,,,,j,0,1.10778689384,,,,moral_self_bias,28,20,60.0823960166,f,001,2018_Apr_02_1945,
,,,,,,,,,,,,,,,,,,,,,,material/1.png,1,博爱,material/101.png,1,material/101.png,博爱,1,f,f,f,1,1,1,善良,,,,,,,,,0,106,106,80,0,0,0,0,,,,,,,f,1,1.50809884071,j,1,0.308974981308,moral_self_bias,28,20,60.0823960166,f,001,2018_Apr_02_1945,
,,,,,,,,,,,,,,,,,,,,,,material/1.png,1,博爱,material/101.png,1,material/101.png,博爱,1,f,f,f,1,1,1,善良,,,,,,,,,0,106,106,80,,,,,,,,,,,,,,,,,moral_self_bias,28,20,60.0823960166,f,001,2018_Apr_02_1945,
,,,,,,,,,,,,,,,,,,,,,,material/9.png,1,正直,material/109.png,1,material/109.png,正直,1,f,f,f,1,1,1,秉直,,,,,,,,,0,107,107,88,0,0,0,0,,,,,,,f,1,3.47463703156,f,0,0.609390974045,moral_self_bias,28,20,60.0823960166,f,001,2018_Apr_02_1945,
,,,,,,,,,,,,,,,,,,,,,,material/9.png,1,正直,material/109.png,1,material/109.png,正直,1,f,f,f,1,1,1,秉直,,,,,,,,,0,107,107,88,,,,,,,,,,,,,,,,,moral_self_bias,28,20,60.0823960166,f,001,2018_Apr_02_1945,
,,,,,,,,,,,,,,,,,,,,,,material/74.png,2,黑心,material/173.png,2,material/173.png,黑心,2,f,f,f,1,1,1,卑劣,,,,,,,,,0,108,108,152,,,,,,,,,,,j,0,1.07422184944,,,,moral_self_bias,28,20,60.0823960166,f,001,2018_Apr_02_1945,
,,,,,,,,,,,,,,,,,,,,,,material/155.png,2,盲目,material/55.png,2,material/155.png,盲从,2,j,j,j,2,2,2,盲目,,,,,,,,,0,109,109,54,0,0,0,0,,,,,,,f,0,1.05782604218,f,0,0.258179187775,moral_self_bias,28,20,60.0823960166,f,001,2018_Apr_02_1945,
,,,,,,,,,,,,,,,,,,,,,,material/155.png,2,盲目,material/55.png,2,material/155.png,盲从,2,j,j,j,2,2,2,盲目,,,,,,,,,0,109,109,54,,,,,,,,,,,,,,,,,moral_self_bias,28,20,60.0823960166,f,001,2018_Apr_02_1945,
,,,,,,,,,,,,,,,,,,,,,,material/129.png,1,好问,material/29.png,1,material/129.png,好学,1,j,j,j,2,2,2,好问,,,,,,,,,0,110,110,28,0,0,0,0,,,,,,,f,0,4.24092292786,j,1,0.257235050201,moral_self_bias,28,20,60.0823960166,f,001,2018_Apr_02_1945,
,,,,,,,,,,,,,,,,,,,,,,material/129.png,1,好问,material/29.png,1,material/129.png,好学,1,j,j,j,2,2,2,好问,,,,,,,,,0,110,110,28,,,,,,,,,,,,,,,,,moral_self_bias,28,20,60.0823960166,f,001,2018_Apr_02_1945,
,,,,,,,,,,,,,,,,,,,,,,material/153.png,2,迟钝,material/53.png,2,material/153.png,迟缓,2,j,j,j,2,2,2,迟钝,,,,,,,,,0,111,111,52,,,,,,,,,,,j,1,3.1575717926,,,,moral_self_bias,28,20,60.0823960166,f,001,2018_Apr_02_1945,
,,,,,,,,,,,,,,,,,,,,,,material/12.png,1,忠心,material/112.png,1,material/112.png,忠心,1,f,f,f,1,1,1,忠诚,,,,,,,,,0,112,112,91,,,,,,,,,,,j,0,0.857891082764,,,,moral_self_bias,28,20,60.0823960166,f,001,2018_Apr_02_1945,
,,,,,,,,,,,,,,,,,,,,,,material/60.png,2,粗拙,material/160.png,2,material/60.png,笨拙,2,f,f,f,2,2,2,粗拙,,,,,,,,,0,113,113,139,,,,,,,,,,,j,0,0.68345618248,,,,moral_self_bias,28,20,60.0823960166,f,001,2018_Apr_02_1945,
,,,,,,,,,,,,,,,,,,,,,,material/136.png,2,说谎,material/36.png,2,material/36.png,说谎,2,j,j,j,1,1,1,撒谎,,,,,,,,,0,114,114,35,0,0,0,0,,,,,,,f,0,2.75800395012,j,1,0.300153017044,moral_self_bias,28,20,60.0823960166,f,001,2018_Apr_02_1945,
,,,,,,,,,,,,,,,,,,,,,,material/136.png,2,说谎,material/36.png,2,material/36.png,说谎,2,j,j,j,1,1,1,撒谎,,,,,,,,,0,114,114,35,,,,,,,,,,,,,,,,,moral_self_bias,28,20,60.0823960166,f,001,2018_Apr_02_1945,
,,,,,,,,,,,,,,,,,,,,,,material/102.png,1,善心,material/2.png,1,material/2.png,善心,1,j,j,j,1,1,1,爱心,,,,,,,,,0,115,115,1,,,,,,,,,,,j,1,1.20897102356,,,,moral_self_bias,28,20,60.0823960166,f,001,2018_Apr_02_1945,
,,,,,,,,,,,,,,,,,,,,,,material/180.png,2,无助,material/79.png,2,material/81.png,颓废,2,j,j,j,2,2,2,怠惰,,,,,,,,,0,116,116,75,,,,,,,,,,,j,1,0.741930961609,,,,moral_self_bias,28,20,60.0823960166,f,001,2018_Apr_02_1945,
,,,,,,,,,,,,,,,,,,,,,,material/28.png,1,克己,material/128.png,1,material/28.png,自律,1,f,f,f,2,2,2,克己,,,,,,,,,0,117,117,107,,,,,,,,,,,j,0,0.858774900436,,,,moral_self_bias,28,20,60.0823960166,f,001,2018_Apr_02_1945,
,,,,,,,,,,,,,,,,,,,,,,material/110.png,1,顽强,material/10.png,1,material/10.png,顽强,1,j,j,j,1,1,1,坚毅,,,,,,,,,0,118,118,9,,,,,,,,,,,j,1,0.741266012192,,,,moral_self_bias,28,20,60.0823960166,f,001,2018_Apr_02_1945,
,,,,,,,,,,,,,,,,,,,,,,material/59.png,2,智障,material/159.png,2,material/59.png,弱智,2,f,f,f,2,2,2,智障,,,,,,,,,0,119,119,138,,,,,,,,,,,j,0,0.640289068222,,,,moral_self_bias,28,20,60.0823960166,f,001,2018_Apr_02_1945,
,,,,,,,,,,,,,,,,,,,,,,material/40.png,2,狠毒,material/140.png,2,material/140.png,狠毒,2,f,f,f,1,1,1,邪恶,,,,,,,,,0,120,120,119,,,,,,,,,,,j,0,2.57460403442,,,,moral_self_bias,28,20,60.0823960166,f,001,2018_Apr_02_1945,
,,,,,,,,,,,,,,,,,,,,,,material/105.png,1,守信,material/5.png,1,material/5.png,守信,1,j,j,j,1,1,1,诚信,,,,,,,,,0,121,121,4,0,0,0,0,,,,,,,f,0,1.50775003433,j,1,0.258118152618,moral_self_bias,28,20,60.0823960166,f,001,2018_Apr_02_1945,
,,,,,,,,,,,,,,,,,,,,,,material/105.png,1,守信,material/5.png,1,material/5.png,守信,1,j,j,j,1,1,1,诚信,,,,,,,,,0,121,121,4,,,,,,,,,,,,,,,,,moral_self_bias,28,20,60.0823960166,f,001,2018_Apr_02_1945,
,,,,,,,,,,,,,,,,,,,,,,material/2.png,1,爱心,material/102.png,1,material/102.png,爱心,1,f,f,f,1,1,1,善心,,,,,,,,,0,122,122,81,0,0,0,0,,,,,,,f,1,1.81639289856,j,1,0.307431221008,moral_self_bias,28,20,60.0823960166,f,001,2018_Apr_02_1945,
,,,,,,,,,,,,,,,,,,,,,,material/2.png,1,爱心,material/102.png,1,material/102.png,爱心,1,f,f,f,1,1,1,善心,,,,,,,,,0,122,122,81,,,,,,,,,,,,,,,,,moral_self_bias,28,20,60.0823960166,f,001,2018_Apr_02_1945,
,,,,,,,,,,,,,,,,,,,,,,material/27.png,1,卓越,material/127.png,1,material/27.png,超群,1,f,f,f,2,2,2,卓越,,,,,,,,,0,123,123,106,0,0,0,0,,,,,,,f,1,1.32437992096,j,1,0.32461810112,moral_self_bias,28,20,60.0823960166,f,001,2018_Apr_02_1945,
,,,,,,,,,,,,,,,,,,,,,,material/27.png,1,卓越,material/127.png,1,material/27.png,超群,1,f,f,f,2,2,2,卓越,,,,,,,,,0,123,123,106,,,,,,,,,,,,,,,,,moral_self_bias,28,20,60.0823960166,f,001,2018_Apr_02_1945,
,,,,,,,,,,,,,,,,,,,,,,material/44.png,2,爽约,material/144.png,2,material/144.png,爽约,2,f,f,f,1,1,1,失信,,,,,,,,,0,124,124,123,,,,,,,,,,,j,0,0.974575996399,,,,moral_self_bias,28,20,60.0823960166,f,001,2018_Apr_02_1945,
,,,,,,,,,,,,,,,,,,,,,,material/128.png,1,自律,material/28.png,1,material/128.png,克己,1,j,j,j,2,2,2,自律,,,,,,,,,0,125,125,27,,,,,,,,,,,j,1,1.02452707291,,,,moral_self_bias,28,20,60.0823960166,f,001,2018_Apr_02_1945,
,,,,,,,,,,,,,,,,,,,,,,material/182.png,2,健忘,material/184.png,2,material/80.png,厌学,2,f,f,f,2,2,2,才尽,,,,,,,,,0,126,126,163,,,,,,,,,,,j,0,0.607408046722,,,,moral_self_bias,28,20,60.0823960166,f,001,2018_Apr_02_1945,
,,,,,,,,,,,,,,,,,,,,,,material/63.png,1,正义,material/166.png,1,material/66.png,仗义,1,f,f,f,1,1,1,文明,,,,,,,,,0,127,127,145,,,,,,,,,,,j,0,0.59162402153,,,,moral_self_bias,28,20,60.0823960166,f,001,2018_Apr_02_1945,
,,,,,,,,,,,,,,,,,,,,,,material/109.png,1,秉直,material/9.png,1,material/9.png,秉直,1,j,j,j,1,1,1,正直,,,,,,,,,0,128,128,8,,,,,,,,,,,j,1,0.640884876251,,,,moral_self_bias,28,20,60.0823960166,f,001,2018_Apr_02_1945,
,,,,,,,,,,,,,,,,,,,,,,material/5.png,1,诚信,material/105.png,1,material/105.png,诚信,1,f,f,f,1,1,1,守信,,,,,,,,,0,129,129,84,0,0,0,0,,,,,,,f,1,2.92493200302,j,1,0.29069185257,moral_self_bias,28,20,60.0823960166,f,001,2018_Apr_02_1945,
,,,,,,,,,,,,,,,,,,,,,,material/5.png,1,诚信,material/105.png,1,material/105.png,诚信,1,f,f,f,1,1,1,守信,,,,,,,,,0,129,129,84,,,,,,,,,,,,,,,,,moral_self_bias,28,20,60.0823960166,f,001,2018_Apr_02_1945,
,,,,,,,,,,,,,,,,,,,,,,material/23.png,1,有才,material/123.png,1,material/23.png,多才,1,f,f,f,2,2,2,有才,,,,,,,,,0,130,130,102,0,0,0,0,,,,,,,f,1,1.27439284325,j,1,0.325484991074,moral_self_bias,28,20,60.0823960166,f,001,2018_Apr_02_1945,
,,,,,,,,,,,,,,,,,,,,,,material/23.png,1,有才,material/123.png,1,material/23.png,多才,1,f,f,f,2,2,2,有才,,,,,,,,,0,130,130,102,,,,,,,,,,,,,,,,,moral_self_bias,28,20,60.0823960166,f,001,2018_Apr_02_1945,
,,,,,,,,,,,,,,,,,,,,,,material/165.png,1,平等,material/161.png,1,material/61.png,勇敢,1,f,f,f,1,1,1,独立,,,,,,,,,0,131,131,140,0,0,0,0,,,,,,,f,1,0.95724105835,j,1,0.291687965393,moral_self_bias,28,20,60.0823960166,f,001,2018_Apr_02_1945,
,,,,,,,,,,,,,,,,,,,,,,material/165.png,1,平等,material/161.png,1,material/61.png,勇敢,1,f,f,f,1,1,1,独立,,,,,,,,,0,131,131,140,,,,,,,,,,,,,,,,,moral_self_bias,28,20,60.0823960166,f,001,2018_Apr_02_1945,
,,,,,,,,,,,,,,,,,,,,,,material/78.png,2,厌学,material/181.png,2,material/184.png,犹豫,2,f,f,f,2,2,2,草率,,,,,,,,,0,132,132,160,0,0,0,0,,,,,,,f,1,0.858267068863,f,0,2.07561898232,moral_self_bias,28,20,60.0823960166,f,001,2018_Apr_02_1945,
,,,,,,,,,,,,,,,,,,,,,,material/78.png,2,厌学,material/181.png,2,material/184.png,犹豫,2,f,f,f,2,2,2,草率,,,,,,,,,0,132,132,160,,,,,,,,,,,,,,,,,moral_self_bias,28,20,60.0823960166,f,001,2018_Apr_02_1945,
,,,,,,,,,,,,,,,,,,,,,,material/7.png,1,公平,material/107.png,1,material/107.png,公平,1,f,f,f,1,1,1,公正,,,,,,,,,0,133,133,86,0,0,0,0,,,,,,,f,1,1.32441401482,j,1,0.291268110275,moral_self_bias,28,20,60.0823960166,f,001,2018_Apr_02_1945,
,,,,,,,,,,,,,,,,,,,,,,material/7.png,1,公平,material/107.png,1,material/107.png,公平,1,f,f,f,1,1,1,公正,,,,,,,,,0,133,133,86,,,,,,,,,,,,,,,,,moral_self_bias,28,20,60.0823960166,f,001,2018_Apr_02_1945,
,,,,,,,,,,,,,,,,,,,,,,material/173.png,2,不义,material/174.png,2,material/174.png,不义,2,f,f,f,1,1,1,黑心,,,,,,,,,0,134,134,153,,,,,,,,,,,j,0,2.17497515678,,,,moral_self_bias,28,20,60.0823960166,f,001,2018_Apr_02_1945,
,,,,,,,,,,,,,,,,,,,,,,material/114.png,1,爱国,material/14.png,1,material/14.png,爱国,1,j,j,j,1,1,1,忠贞,,,,,,,,,0,135,135,13,,,,,,,,,,,j,1,1.64185810089,,,,moral_self_bias,28,20,60.0823960166,f,001,2018_Apr_02_1945,
,,,,,,,,,,,,,,,,,,,,,,material/3.png,1,仁厚,material/103.png,1,material/103.png,仁厚,1,f,f,f,1,1,1,仁慈,,,,,,,,,0,136,136,82,,,,,,,,,,,j,0,1.39167499542,,,,moral_self_bias,28,20,60.0823960166,f,001,2018_Apr_02_1945,
,,,,,,,,,,,,,,,,,,,,,,material/151.png,2,迷糊,material/51.png,2,material/151.png,糊涂,2,j,j,j,2,2,2,迷糊,,,,,,,,,0,137,137,50,,,,,,,,,,,j,1,0.991225004196,,,,moral_self_bias,28,20,60.0823960166,f,001,2018_Apr_02_1945,
,,,,,,,,,,,,,,,,,,,,,,material/135.png,2,冷漠,material/35.png,2,material/35.png,冷漠,2,j,j,j,1,1,1,冷血,,,,,,,,,0,138,138,34,0,0,0,0,,,,,,,f,0,1.84205889702,j,1,0.258000135422,moral_self_bias,28,20,60.0823960166,f,001,2018_Apr_02_1945,
,,,,,,,,,,,,,,,,,,,,,,material/135.png,2,冷漠,material/35.png,2,material/35.png,冷漠,2,j,j,j,1,1,1,冷血,,,,,,,,,0,138,138,34,,,,,,,,,,,,,,,,,moral_self_bias,28,20,60.0823960166,f,001,2018_Apr_02_1945,
,,,,,,,,,,,,,,,,,,,,,,material/179.png,2,顽愚,material/178.png,2,material/84.png,毛糙,2,f,f,f,2,2,2,差生,,,,,,,,,0,139,139,157,0,0,0,0,,,,,,,f,1,0.908010959625,j,1,0.308218002319,moral_self_bias,28,20,60.0823960166,f,001,2018_Apr_02_1945,
,,,,,,,,,,,,,,,,,,,,,,material/179.png,2,顽愚,material/178.png,2,material/84.png,毛糙,2,f,f,f,2,2,2,差生,,,,,,,,,0,139,139,157,,,,,,,,,,,,,,,,,moral_self_bias,28,20,60.0823960166,f,001,2018_Apr_02_1945,
,,,,,,,,,,,,,,,,,,,,,,material/162.png,1,敬业,material/62.png,1,material/162.png,坚韧,1,j,j,j,1,1,1,敬业,,,,,,,,,0,140,140,61,0,0,0,0,,,,,,,f,0,2.00798606873,j,1,0.291154146194,moral_self_bias,28,20,60.0823960166,f,001,2018_Apr_02_1945,
,,,,,,,,,,,,,,,,,,,,,,material/162.png,1,敬业,material/62.png,1,material/162.png,坚韧,1,j,j,j,1,1,1,敬业,,,,,,,,,0,140,140,61,,,,,,,,,,,,,,,,,moral_self_bias,28,20,60.0823960166,f,001,2018_Apr_02_1945,
,,,,,,,,,,,,,,,,,,,,,,material/20.png,1,厉害,material/120.png,1,material/20.png,能干,1,f,f,f,2,2,2,厉害,,,,,,,,,0,141,141,99,0,0,0,0,,,,,,,f,1,1.64142298698,j,1,0.292151927948,moral_self_bias,28,20,60.0823960166,f,001,2018_Apr_02_1945,
,,,,,,,,,,,,,,,,,,,,,,material/20.png,1,厉害,material/120.png,1,material/20.png,能干,1,f,f,f,2,2,2,厉害,,,,,,,,,0,141,141,99,,,,,,,,,,,,,,,,,moral_self_bias,28,20,60.0823960166,f,001,2018_Apr_02_1945,
,,,,,,,,,,,,,,,,,,,,,,material/148.png,2,笨蛋,material/48.png,2,material/148.png,愚蠢,2,j,j,j,2,2,2,笨蛋,,,,,,,,,0,142,142,47,0,0,0,0,,,,,,,f,0,1.05853796005,j,1,0.375770807266,moral_self_bias,28,20,60.0823960166,f,001,2018_Apr_02_1945,
,,,,,,,,,,,,,,,,,,,,,,material/148.png,2,笨蛋,material/48.png,2,material/148.png,愚蠢,2,j,j,j,2,2,2,笨蛋,,,,,,,,,0,142,142,47,,,,,,,,,,,,,,,,,moral_self_bias,28,20,60.0823960166,f,001,2018_Apr_02_1945,
,,,,,,,,,,,,,,,,,,,,,,material/140.png,2,邪恶,material/40.png,2,material/40.png,邪恶,2,j,j,j,1,1,1,狠毒,,,,,,,,,0,143,143,39,,,,,,,,,,,j,1,0.833498954773,,,,moral_self_bias,28,20,60.0823960166,f,001,2018_Apr_02_1945,
,,,,,,,,,,,,,,,,,,,,,,material/119.png,1,机灵,material/19.png,1,material/119.png,灵活,1,j,j,j,2,2,2,机灵,,,,,,,,,0,144,144,18,,,,,,,,,,,j,1,0.891918182373,,,,moral_self_bias,28,20,60.0823960166,f,001,2018_Apr_02_1945,
,,,,,,,,,,,,,,,,,,,,,,material/108.png,1,公道,material/8.png,1,material/8.png,公道,1,j,j,j,1,1,1,无私,,,,,,,,,0,145,145,7,,,,,,,,,,,j,1,1.05817508698,,,,moral_self_bias,28,20,60.0823960166,f,001,2018_Apr_02_1945,
,,,,,,,,,,,,,,,,,,,,,,material/141.png,2,歹毒,material/41.png,2,material/41.png,歹毒,2,j,j,j,1,1,1,残忍,,,,,,,,,0,146,146,40,,,,,,,,,,,j,1,0.824754953384,,,,moral_self_bias,28,20,60.0823960166,f,001,2018_Apr_02_1945,
,,,,,,,,,,,,,,,,,,,,,,material/150.png,2,鲁钝,material/50.png,2,material/150.png,愚笨,2,j,j,j,2,2,2,鲁钝,,,,,,,,,0,147,147,49,,,,,,,,,,,j,1,0.841853141785,,,,moral_self_bias,28,20,60.0823960166,f,001,2018_Apr_02_1945,
,,,,,,,,,,,,,,,,,,,,,,material/21.png,1,干练,material/121.png,1,material/21.png,精干,1,f,f,f,2,2,2,干练,,,,,,,,,0,148,148,100,,,,,,,,,,,j,0,1.17465901375,,,,moral_self_bias,28,20,60.0823960166,f,001,2018_Apr_02_1945,
,,,,,,,,,,,,,,,,,,,,,,material/11.png,1,高尚,material/111.png,1,material/111.png,高尚,1,f,f,f,1,1,1,高雅,,,,,,,,,0,149,149,90,,,,,,,,,,,j,0,0.841399908066,,,,moral_self_bias,28,20,60.0823960166,f,001,2018_Apr_02_1945,
,,,,,,,,,,,,,,,,,,,,,,material/145.png,2,下流,material/45.png,2,material/45.png,下流,2,j,j,j,1,1,1,小人,,,,,,,,,0,150,150,44,,,,,,,,,,,j,1,1.2415561676,,,,moral_self_bias,28,20,60.0823960166,f,001,2018_Apr_02_1945,
,,,,,,,,,,,,,,,,,,,,,,material/26.png,1,刻苦,material/126.png,1,material/26.png,勤快,1,f,f,f,2,2,2,刻苦,,,,,,,,,0,151,151,105,0,0,0,0,,,,,,,f,1,4.33461904526,j,1,0.240375995636,moral_self_bias,28,20,60.0823960166,f,001,2018_Apr_02_1945,
,,,,,,,,,,,,,,,,,,,,,,material/26.png,1,刻苦,material/126.png,1,material/26.png,勤快,1,f,f,f,2,2,2,刻苦,,,,,,,,,0,151,151,105,,,,,,,,,,,,,,,,,moral_self_bias,28,20,60.0823960166,f,001,2018_Apr_02_1945,
,,,,,,,,,,,,,,,,,,,,,,material/142.png,2,阴险,material/42.png,2,material/42.png,阴险,2,j,j,j,1,1,1,奸诈,,,,,,,,,0,152,152,41,,,,,,,,,,,j,1,0.857781887054,,,,moral_self_bias,28,20,60.0823960166,f,001,2018_Apr_02_1945,
,,,,,,,,,,,,,,,,,,,,,,material/15.png,1,纯洁,material/115.png,1,material/115.png,纯洁,1,f,f,f,1,1,1,清白,,,,,,,,,0,153,153,94,,,,,,,,,,,j,0,1.05787920952,,,,moral_self_bias,28,20,60.0823960166,f,001,2018_Apr_02_1945,
,,,,,,,,,,,,,,,,,,,,,,material/43.png,2,虚荣,material/143.png,2,material/143.png,虚荣,2,f,f,f,1,1,1,拜金,,,,,,,,,0,154,154,122,,,,,,,,,,,j,0,1.42444396019,,,,moral_self_bias,28,20,60.0823960166,f,001,2018_Apr_02_1945,
,,,,,,,,,,,,,,,,,,,,,,material/159.png,2,弱智,material/59.png,2,material/159.png,智障,2,j,j,j,2,2,2,弱智,,,,,,,,,0,155,155,58,0,0,0,0,,,,,,,f,0,1.07506012917,f,0,0.459259986877,moral_self_bias,28,20,60.0823960166,f,001,2018_Apr_02_1945,
,,,,,,,,,,,,,,,,,,,,,,material/159.png,2,弱智,material/59.png,2,material/159.png,智障,2,j,j,j,2,2,2,弱智,,,,,,,,,0,155,155,58,,,,,,,,,,,,,,,,,moral_self_bias,28,20,60.0823960166,f,001,2018_Apr_02_1945,
,,,,,,,,,,,,,,,,,,,,,,material/22.png,1,才学,material/122.png,1,material/22.png,博学,1,f,f,f,2,2,2,才学,,,,,,,,,0,156,156,101,0,0,0,0,,,,,,,f,1,1.95826506615,j,1,0.241568088531,moral_self_bias,28,20,60.0823960166,f,001,2018_Apr_02_1945,
,,,,,,,,,,,,,,,,,,,,,,material/22.png,1,才学,material/122.png,1,material/22.png,博学,1,f,f,f,2,2,2,才学,,,,,,,,,0,156,156,101,,,,,,,,,,,,,,,,,moral_self_bias,28,20,60.0823960166,f,001,2018_Apr_02_1945,
,,,,,,,,,,,,,,,,,,,,,,material/164.png,1,宽容,material/63.png,1,material/163.png,文明,1,j,j,j,1,1,1,孝顺,,,,,,,,,0,157,157,62,,,,,,,,,,,j,1,0.966289043427,,,,moral_self_bias,28,20,60.0823960166,f,001,2018_Apr_02_1945,
,,,,,,,,,,,,,,,,,,,,,,material/54.png,2,依赖,material/154.png,2,material/54.png,依靠,2,f,f,f,2,2,2,依赖,,,,,,,,,0,158,158,133,0,0,0,0,,,,,,,f,1,1.81624388695,f,0,0.374583959579,moral_self_bias,28,20,60.0823960166,f,001,2018_Apr_02_1945,
,,,,,,,,,,,,,,,,,,,,,,material/54.png,2,依赖,material/154.png,2,material/54.png,依靠,2,f,f,f,2,2,2,依赖,,,,,,,,,0,158,158,133,,,,,,,,,,,,,,,,,moral_self_bias,28,20,60.0823960166,f,001,2018_Apr_02_1945,
,,,,,,,,,,,,,,,,,,,,,,material/80.png,2,才尽,material/83.png,2,material/182.png,呆笨,2,j,j,j,2,2,2,健忘,,,,,,,,,0,159,159,79,,,,,,,,,,,j,1,0.941169977188,,,,moral_self_bias,28,20,60.0823960166,f,001,2018_Apr_02_1945,
,,,,,,,,,,,,,,,,,,,,,,material/48.png,2,愚蠢,material/148.png,2,material/48.png,笨蛋,2,f,f,f,2,2,2,愚蠢,,,,,,,,,0,160,160,127,,,,,,,,,,,j,0,0.89173078537,,,,moral_self_bias,28,20,60.0823960166,f,001,2018_Apr_02_1945,
,,,,,,,,,,,,,,,,,,,,,,material/64.png,1,谦虚,material/165.png,1,material/65.png,独立,1,f,f,f,1,1,1,奉献,,,,,,,,,0,161,161,144,,,,,,,,,,,j,0,1.42464208603,,,,moral_self_bias,28,20,60.0823960166,f,001,2018_Apr_02_1945,
,,,,,,,,,,,,,,,,,,,,,,material/177.png,2,谄媚,material/72.png,2,material/72.png,谄媚,2,j,j,j,1,1,1,恶心,,,,,,,,,0,162,162,69,,,,,,,,,,,j,1,1.02409911156,,,,moral_self_bias,28,20,60.0823960166,f,001,2018_Apr_02_1945,
,,,,,,,,,,,,,,,,,,,,,,material/42.png,2,奸诈,material/142.png,2,material/142.png,奸诈,2,f,f,f,1,1,1,阴险,,,,,,,,,0,163,163,121,,,,,,,,,,,j,0,0.691776990891,,,,moral_self_bias,28,20,60.0823960166,f,001,2018_Apr_02_1945,
,,,,,,,,,,,,,,,,,,,,,,material/61.png,1,仗义,material/65.png,1,material/166.png,谦虚,1,j,j,j,1,1,1,平等,,,,,,,,,0,164,164,64,0,0,0,0,,,,,,,f,0,0.992294073105,j,1,0.274817943573,moral_self_bias,28,20,60.0823960166,f,001,2018_Apr_02_1945,
,,,,,,,,,,,,,,,,,,,,,,material/61.png,1,仗义,material/65.png,1,material/166.png,谦虚,1,j,j,j,1,1,1,平等,,,,,,,,,0,164,164,64,,,,,,,,,,,,,,,,,moral_self_bias,28,20,60.0823960166,f,001,2018_Apr_02_1945,
,,,,,,,,,,,,,,,,,,,,,,material/31.png,1,笃学,material/131.png,1,material/31.png,笃行,1,f,f,f,2,2,2,笃学,,,,,,,,,0,165,165,110,0,0,0,0,,,,,,,f,1,1.7082901001,f,0,0.907644987106,moral_self_bias,28,20,60.0823960166,f,001,2018_Apr_02_1945,
,,,,,,,,,,,,,,,,,,,,,,material/31.png,1,笃学,material/131.png,1,material/31.png,笃行,1,f,f,f,2,2,2,笃学,,,,,,,,,0,165,165,110,,,,,,,,,,,,,,,,,moral_self_bias,28,20,60.0823960166,f,001,2018_Apr_02_1945,
,,,,,,,,,,,,,,,,,,,,,,material/84.png,2,犹豫,material/84.png,2,material/181.png,顽愚,2,f,f,f,2,2,2,顽愚,,,,,,,,,0,166,166,167,,,,,,,,,,,j,0,1.89231991768,,,,moral_self_bias,28,20,60.0823960166,f,001,2018_Apr_02_1945,
,,,,,,,,,,,,,,,,,,,,,,material/117.png,1,聪颖,material/17.png,1,material/117.png,聪明,1,j,j,j,2,2,2,聪颖,,,,,,,,,0,167,167,16,0,0,0,0,,,,,,,f,0,1.34158182144,j,1,0.441490888596,moral_self_bias,28,20,60.0823960166,f,001,2018_Apr_02_1945,
,,,,,,,,,,,,,,,,,,,,,,material/117.png,1,聪颖,material/17.png,1,material/117.png,聪明,1,j,j,j,2,2,2,聪颖,,,,,,,,,0,167,167,16,,,,,,,,,,,,,,,,,moral_self_bias,28,20,60.0823960166,f,001,2018_Apr_02_1945,
