Block1_Old,Num_Source3,Num_Source2,Num_Source1,valence1,valence2,valence3,Num_Old2,Corr_S1,Num_Old1,Corr_S3,Corr_S2,Block3_Old,Block2_Old,Source_2,Source_3,Source_1,domain3,domain2,domain1,Num_Old3,math,Num_All2,valence_all1,All_Words3,Num_All1,valence_all2,Num_All3,All_Words1,valence_all3,Corr_Rec2,Corr_Rec3,Corr_Rec1,domian_all3,domian_all2,domian_all1,All_Words2,trials.thisRepN,trials.thisTrialN,trials.thisN,trials.thisIndex,trials_2.thisRepN,trials_2.thisTrialN,trials_2.thisN,trials_2.thisIndex,trials_4.thisRepN,trials_4.thisTrialN,trials_4.thisN,trials_4.thisIndex,trials_3.thisRepN,trials_3.thisTrialN,trials_3.thisN,trials_3.thisIndex,block_resp_1.keys,block_resp_1.rt,words_rating.keys,words_rating.rt,block_resp_2.keys,block_resp_2.rt,Rec_resp.keys,Rec_resp.corr,Rec_resp.rt,Source_resp.keys,Source_resp.corr,Source_resp.rt,expName,participant,Age,frameRate,Sex,session,date,
,,,,,,,,,,,,,,,,,,,,,,,,,,,,,,,,,,,,,,,,,,,,,,,,,,,,,2,17.8234279156,,,,,,,,,,,moral_self_bias,29,19,59.9732899414,f,001,2018_Apr_02_2005,
忠心,material/instr2_1.png,material/instr2_1.png,material/instr2_1.png,1,1,1,material/12.png,f,material/112.png,f,f,忠心,忠诚,self,self,self,1,1,1,material/112.png,,,,,,,,,,,,,,,,,0,0,0,11,,,,,,,,,,,,,,,4,2.37549591064,,,,,,,,,moral_self_bias,29,19,59.9732899414,f,001,2018_Apr_02_2005,
虚荣,material/instr2_1.png,material/instr2_1.png,material/instr2_1.png,2,2,2,material/43.png,f,material/143.png,f,f,虚荣,拜金,self,self,self,1,1,1,material/143.png,,,,,,,,,,,,,,,,,0,1,1,42,,,,,,,,,,,,,,,2,2.27130508423,,,,,,,,,moral_self_bias,29,19,59.9732899414,f,001,2018_Apr_02_2005,
盲目,material/instr2_1.png,material/instr2_1.png,material/instr2_1.png,2,2,2,material/55.png,f,material/155.png,f,f,盲从,盲从,self,self,self,2,2,2,material/55.png,,,,,,,,,,,,,,,,,0,2,2,54,,,,,,,,,,,,,,,4,2.0089058876,,,,,,,,,moral_self_bias,29,19,59.9732899414,f,001,2018_Apr_02_2005,
厌学,material/instr2_2.png,material/instr2_2.png,material/instr2_2.png,2,2,2,material/182.png,j,material/184.png,j,j,健忘,才尽,friend,friend,friend,2,2,2,material/80.png,,,,,,,,,,,,,,,,,0,3,3,83,,,,,,,,,,,,,,,None,,,,,,,,,,moral_self_bias,29,19,59.9732899414,f,001,2018_Apr_02_2005,
笨蛋,material/instr2_2.png,material/instr2_2.png,material/instr2_2.png,2,2,2,material/48.png,j,material/148.png,j,j,愚蠢,愚蠢,friend,friend,friend,2,2,2,material/48.png,,,,,,,,,,,,,,,,,0,4,4,47,,,,,,,,,,,,,,,2,2.47565603256,,,,,,,,,moral_self_bias,29,19,59.9732899414,f,001,2018_Apr_02_2005,
浮夸,material/instr2_2.png,material/instr2_2.png,material/instr2_2.png,2,2,2,material/77.png,j,material/172.png,j,j,浮夸,软弱,friend,friend,friend,1,1,1,material/172.png,,,,,,,,,,,,,,,,,0,5,5,71,,,,,,,,,,,,,,,1,1.89148497581,,,,,,,,,moral_self_bias,29,19,59.9732899414,f,001,2018_Apr_02_2005,
愚钝,material/instr2_1.png,material/instr2_1.png,material/instr2_1.png,2,2,2,material/56.png,f,material/156.png,f,f,愚昧,愚昧,self,self,self,2,2,2,material/56.png,,,,,,,,,,,,,,,,,0,6,6,55,,,,,,,,,,,,,,,1,1.49173402786,,,,,,,,,moral_self_bias,29,19,59.9732899414,f,001,2018_Apr_02_2005,
可恶,material/instr2_1.png,material/instr2_1.png,material/instr2_1.png,2,2,2,material/34.png,f,material/134.png,f,f,可恶,可恨,self,self,self,1,1,1,material/134.png,,,,,,,,,,,,,,,,,0,7,7,33,,,,,,,,,,,,,,,2,1.69213700294,,,,,,,,,moral_self_bias,29,19,59.9732899414,f,001,2018_Apr_02_2005,
撒谎,material/instr2_1.png,material/instr2_1.png,material/instr2_1.png,2,2,2,material/36.png,f,material/136.png,f,f,撒谎,说谎,self,self,self,1,1,1,material/136.png,,,,,,,,,,,,,,,,,0,8,8,35,,,,,,,,,,,,,,,4,2.20891594887,,,,,,,,,moral_self_bias,29,19,59.9732899414,f,001,2018_Apr_02_2005,
顽愚,material/instr2_1.png,material/instr2_1.png,material/instr2_1.png,2,2,2,material/84.png,f,material/84.png,f,f,犹豫,顽愚,self,self,self,2,2,2,material/181.png,,,,,,,,,,,,,,,,,0,9,9,87,,,,,,,,,,,,,,,4,0.925641059875,,,,,,,,,moral_self_bias,29,19,59.9732899414,f,001,2018_Apr_02_2005,
迟钝,material/instr2_1.png,material/instr2_1.png,material/instr2_1.png,2,2,2,material/53.png,f,material/153.png,f,f,迟缓,迟缓,self,self,self,2,2,2,material/53.png,,,,,,,,,,,,,,,,,0,10,10,52,,,,,,,,,,,,,,,4,1.09198904037,,,,,,,,,moral_self_bias,29,19,59.9732899414,f,001,2018_Apr_02_2005,
仗义,material/instr2_1.png,material/instr2_1.png,material/instr2_1.png,1,1,1,material/63.png,f,material/166.png,f,f,正义,文明,self,self,self,1,1,1,material/66.png,,,,,,,,,,,,,,,,,0,11,11,65,,,,,,,,,,,,,,,4,1.59184002876,,,,,,,,,moral_self_bias,29,19,59.9732899414,f,001,2018_Apr_02_2005,
迷糊,material/instr2_2.png,material/instr2_2.png,material/instr2_2.png,2,2,2,material/51.png,j,material/151.png,j,j,糊涂,糊涂,friend,friend,friend,2,2,2,material/51.png,,,,,,,,,,,,,,,,,0,12,12,50,,,,,,,,,,,,,,,1,2.30823898315,,,,,,,,,moral_self_bias,29,19,59.9732899414,f,001,2018_Apr_02_2005,
独立,material/instr2_1.png,material/instr2_1.png,material/instr2_1.png,1,1,1,material/64.png,f,material/165.png,f,f,谦虚,奉献,self,self,self,1,1,1,material/65.png,,,,,,,,,,,,,,,,,0,13,13,64,,,,,,,,,,,,,,,4,2.65879201889,,,,,,,,,moral_self_bias,29,19,59.9732899414,f,001,2018_Apr_02_2005,
正义,material/instr2_1.png,material/instr2_1.png,material/instr2_1.png,1,1,1,material/66.png,f,material/66.png,f,f,独立,正义,self,self,self,1,1,1,material/165.png,,,,,,,,,,,,,,,,,0,14,14,84,,,,,,,,,,,,,,,5,1.80757808685,,,,,,,,,moral_self_bias,29,19,59.9732899414,f,001,2018_Apr_02_2005,
笨拙,material/instr2_1.png,material/instr2_1.png,material/instr2_1.png,2,2,2,material/60.png,f,material/160.png,f,f,粗拙,粗拙,self,self,self,2,2,2,material/60.png,,,,,,,,,,,,,,,,,0,15,15,59,,,,,,,,,,,,,,,1,1.49144697189,,,,,,,,,moral_self_bias,29,19,59.9732899414,f,001,2018_Apr_02_2005,
不义,material/instr2_2.png,material/instr2_2.png,material/instr2_2.png,2,2,2,material/173.png,j,material/174.png,j,j,不义,黑心,friend,friend,friend,1,1,1,material/174.png,,,,,,,,,,,,,,,,,0,16,16,73,,,,,,,,,,,,,,,1,1.54178714752,,,,,,,,,moral_self_bias,29,19,59.9732899414,f,001,2018_Apr_02_2005,
诚信,material/instr2_1.png,material/instr2_1.png,material/instr2_1.png,1,1,1,material/5.png,f,material/105.png,f,f,诚信,守信,self,self,self,1,1,1,material/105.png,,,,,,,,,,,,,,,,,0,17,17,4,,,,,,,,,,,,,,,4,2.05846500397,,,,,,,,,moral_self_bias,29,19,59.9732899414,f,001,2018_Apr_02_2005,
爱心,material/instr2_1.png,material/instr2_1.png,material/instr2_1.png,1,1,1,material/2.png,f,material/102.png,f,f,爱心,善心,self,self,self,1,1,1,material/102.png,,,,,,,,,,,,,,,,,0,18,18,1,,,,,,,,,,,,,,,4,1.39231395721,,,,,,,,,moral_self_bias,29,19,59.9732899414,f,001,2018_Apr_02_2005,
奸诈,material/instr2_1.png,material/instr2_1.png,material/instr2_1.png,2,2,2,material/42.png,f,material/142.png,f,f,奸诈,阴险,self,self,self,1,1,1,material/142.png,,,,,,,,,,,,,,,,,0,19,19,41,,,,,,,,,,,,,,,1,1.35824608803,,,,,,,,,moral_self_bias,29,19,59.9732899414,f,001,2018_Apr_02_2005,
正直,material/instr2_2.png,material/instr2_2.png,material/instr2_2.png,1,1,1,material/9.png,j,material/109.png,j,j,正直,秉直,friend,friend,friend,1,1,1,material/109.png,,,,,,,,,,,,,,,,,0,20,20,8,,,,,,,,,,,,,,,4,2.42541480064,,,,,,,,,moral_self_bias,29,19,59.9732899414,f,001,2018_Apr_02_2005,
残虐,material/instr2_1.png,material/instr2_1.png,material/instr2_1.png,2,2,2,material/175.png,f,material/73.png,f,f,残虐,无情,self,self,self,1,1,1,material/73.png,,,,,,,,,,,,,,,,,0,21,21,85,,,,,,,,,,,,,,,1,1.15882587433,,,,,,,,,moral_self_bias,29,19,59.9732899414,f,001,2018_Apr_02_2005,
超群,material/instr2_2.png,material/instr2_2.png,material/instr2_2.png,1,1,1,material/27.png,j,material/127.png,j,j,卓越,卓越,friend,friend,friend,2,2,2,material/27.png,,,,,,,,,,,,,,,,,0,22,22,26,,,,,,,,,,,,,,,4,2.35831093788,,,,,,,,,moral_self_bias,29,19,59.9732899414,f,001,2018_Apr_02_2005,
颖悟,material/instr2_2.png,material/instr2_2.png,material/instr2_2.png,1,1,1,material/167.png,j,material/169.png,j,j,高手,高手,friend,friend,friend,2,2,2,material/167.png,,,,,,,,,,,,,,,,,0,23,23,68,,,,,,,,,,,,,,,5,1.87483000755,,,,,,,,,moral_self_bias,29,19,59.9732899414,f,001,2018_Apr_02_2005,
贪污,material/instr2_1.png,material/instr2_1.png,material/instr2_1.png,2,2,2,material/33.png,f,material/133.png,f,f,贪污,腐败,self,self,self,1,1,1,material/133.png,,,,,,,,,,,,,,,,,0,24,24,32,,,,,,,,,,,,,,,1,1.12543797493,,,,,,,,,moral_self_bias,29,19,59.9732899414,f,001,2018_Apr_02_2005,
小人,material/instr2_2.png,material/instr2_2.png,material/instr2_2.png,2,2,2,material/45.png,j,material/145.png,j,j,小人,下流,friend,friend,friend,1,1,1,material/145.png,,,,,,,,,,,,,,,,,0,25,25,44,,,,,,,,,,,,,,,1,1.09224104881,,,,,,,,,moral_self_bias,29,19,59.9732899414,f,001,2018_Apr_02_2005,
纯洁,material/instr2_2.png,material/instr2_2.png,material/instr2_2.png,1,1,1,material/15.png,j,material/115.png,j,j,纯洁,清白,friend,friend,friend,1,1,1,material/115.png,,,,,,,,,,,,,,,,,0,26,26,14,,,,,,,,,,,,,,,5,2.22517085075,,,,,,,,,moral_self_bias,29,19,59.9732899414,f,001,2018_Apr_02_2005,
多才,material/instr2_1.png,material/instr2_1.png,material/instr2_1.png,1,1,1,material/23.png,f,material/123.png,f,f,有才,有才,self,self,self,2,2,2,material/23.png,,,,,,,,,,,,,,,,,0,27,27,22,,,,,,,,,,,,,,,4,1.67556095123,,,,,,,,,moral_self_bias,29,19,59.9732899414,f,001,2018_Apr_02_2005,
刻板,material/instr2_2.png,material/instr2_2.png,material/instr2_2.png,2,2,2,material/47.png,j,material/147.png,j,j,死板,死板,friend,friend,friend,2,2,2,material/47.png,,,,,,,,,,,,,,,,,0,28,28,46,,,,,,,,,,,,,,,1,1.4086420536,,,,,,,,,moral_self_bias,29,19,59.9732899414,f,001,2018_Apr_02_2005,
卑鄙,material/instr2_2.png,material/instr2_2.png,material/instr2_2.png,2,2,2,material/37.png,j,material/137.png,j,j,卑鄙,无耻,friend,friend,friend,1,1,1,material/137.png,,,,,,,,,,,,,,,,,0,29,29,36,,,,,,,,,,,,,,,1,1.00906610489,,,,,,,,,moral_self_bias,29,19,59.9732899414,f,001,2018_Apr_02_2005,
高尚,material/instr2_1.png,material/instr2_1.png,material/instr2_1.png,1,1,1,material/11.png,f,material/111.png,f,f,高尚,高雅,self,self,self,1,1,1,material/111.png,,,,,,,,,,,,,,,,,0,30,30,10,,,,,,,,,,,,,,,4,1.27562403679,,,,,,,,,moral_self_bias,29,19,59.9732899414,f,001,2018_Apr_02_2005,
高手,material/instr2_2.png,material/instr2_2.png,material/instr2_2.png,1,1,1,material/68.png,j,material/167.png,j,j,广博,广博,friend,friend,friend,2,2,2,material/68.png,,,,,,,,,,,,,,,,,0,31,31,66,,,,,,,,,,,,,,,4,1.84976792336,,,,,,,,,moral_self_bias,29,19,59.9732899414,f,001,2018_Apr_02_2005,
白痴,material/instr2_2.png,material/instr2_2.png,material/instr2_2.png,2,2,2,material/49.png,j,material/149.png,j,j,痴呆,痴呆,friend,friend,friend,2,2,2,material/49.png,,,,,,,,,,,,,,,,,0,32,32,48,,,,,,,,,,,,,,,1,0.908185958862,,,,,,,,,moral_self_bias,29,19,59.9732899414,f,001,2018_Apr_02_2005,
聪颖,material/instr2_2.png,material/instr2_2.png,material/instr2_2.png,1,1,1,material/17.png,j,material/117.png,j,j,聪明,聪明,friend,friend,friend,2,2,2,material/17.png,,,,,,,,,,,,,,,,,0,33,33,16,,,,,,,,,,,,,,,4,1.24253511429,,,,,,,,,moral_self_bias,29,19,59.9732899414,f,001,2018_Apr_02_2005,
毛糙,material/instr2_2.png,material/instr2_2.png,material/instr2_2.png,2,2,2,material/179.png,j,material/178.png,j,j,顽愚,差生,friend,friend,friend,2,2,2,material/84.png,,,,,,,,,,,,,,,,,0,34,34,77,,,,,,,,,,,,,,,1,1.72530198097,,,,,,,,,moral_self_bias,29,19,59.9732899414,f,001,2018_Apr_02_2005,
鲁钝,material/instr2_2.png,material/instr2_2.png,material/instr2_2.png,2,2,2,material/50.png,j,material/150.png,j,j,愚笨,愚笨,friend,friend,friend,2,2,2,material/50.png,,,,,,,,,,,,,,,,,0,35,35,49,,,,,,,,,,,,,,,1,0.950277090073,,,,,,,,,moral_self_bias,29,19,59.9732899414,f,001,2018_Apr_02_2005,
坚毅,material/instr2_2.png,material/instr2_2.png,material/instr2_2.png,1,1,1,material/10.png,j,material/110.png,j,j,坚毅,顽强,friend,friend,friend,1,1,1,material/110.png,,,,,,,,,,,,,,,,,0,36,36,9,,,,,,,,,,,,,,,4,1.24239110947,,,,,,,,,moral_self_bias,29,19,59.9732899414,f,001,2018_Apr_02_2005,
高效,material/instr2_1.png,material/instr2_1.png,material/instr2_1.png,1,1,1,material/169.png,f,material/171.png,f,f,颖悟,颖悟,self,self,self,2,2,2,material/169.png,,,,,,,,,,,,,,,,,0,37,37,70,,,,,,,,,,,,,,,5,1.74204993248,,,,,,,,,moral_self_bias,29,19,59.9732899414,f,001,2018_Apr_02_2005,
犹豫,material/instr2_1.png,material/instr2_1.png,material/instr2_1.png,2,2,2,material/78.png,f,material/181.png,f,f,厌学,草率,self,self,self,2,2,2,material/184.png,,,,,,,,,,,,,,,,,0,38,38,80,,,,,,,,,,,,,,,1,1.40905499458,,,,,,,,,moral_self_bias,29,19,59.9732899414,f,001,2018_Apr_02_2005,
机变,material/instr2_2.png,material/instr2_2.png,material/instr2_2.png,1,1,1,material/70.png,j,material/168.png,j,j,全面,全面,friend,friend,friend,2,2,2,material/70.png,,,,,,,,,,,,,,,,,0,39,39,67,,,,,,,,,,,,,,,3,1.89261102676,,,,,,,,,moral_self_bias,29,19,59.9732899414,f,001,2018_Apr_02_2005,
缓慢,material/instr2_1.png,material/instr2_1.png,material/instr2_1.png,2,2,2,material/52.png,f,material/152.png,f,f,拖延,拖延,self,self,self,2,2,2,material/52.png,,,,,,,,,,,,,,,,,0,40,40,51,,,,,,,,,,,,,,,2,2.10921311378,,,,,,,,,moral_self_bias,29,19,59.9732899414,f,001,2018_Apr_02_2005,
背叛,material/instr2_1.png,material/instr2_1.png,material/instr2_1.png,2,2,2,material/32.png,f,material/132.png,f,f,背叛,不忠,self,self,self,1,1,1,material/132.png,,,,,,,,,,,,,,,,,0,41,41,31,,,,,,,,,,,,,,,1,2.86014509201,,,,,,,,,moral_self_bias,29,19,59.9732899414,f,001,2018_Apr_02_2005,
敬业,material/instr2_2.png,material/instr2_2.png,material/instr2_2.png,1,1,1,material/62.png,j,material/162.png,j,j,坚韧,坚韧,friend,friend,friend,1,1,1,material/62.png,,,,,,,,,,,,,,,,,0,42,42,61,,,,,,,,,,,,,,,4,1.60856103897,,,,,,,,,moral_self_bias,29,19,59.9732899414,f,001,2018_Apr_02_2005,
宽容,material/instr2_2.png,material/instr2_2.png,material/instr2_2.png,1,1,1,material/163.png,j,material/163.png,j,j,文明,宽容,friend,friend,friend,1,1,1,material/63.png,,,,,,,,,,,,,,,,,0,43,43,62,,,,,,,,,,,,,,,4,1.64130783081,,,,,,,,,moral_self_bias,29,19,59.9732899414,f,001,2018_Apr_02_2005,
差生,material/instr2_2.png,material/instr2_2.png,material/instr2_2.png,2,2,2,material/81.png,j,material/179.png,j,j,呆笨,无助,friend,friend,friend,2,2,2,material/83.png,,,,,,,,,,,,,,,,,0,44,44,78,,,,,,,,,,,,,,,1,1.45903205872,,,,,,,,,moral_self_bias,29,19,59.9732899414,f,001,2018_Apr_02_2005,
坚忍,material/instr2_1.png,material/instr2_1.png,material/instr2_1.png,1,1,1,material/168.png,f,material/170.png,f,f,机变,机变,self,self,self,2,2,2,material/168.png,,,,,,,,,,,,,,,,,0,45,45,69,,,,,,,,,,,,,,,2,2.20803594589,,,,,,,,,moral_self_bias,29,19,59.9732899414,f,001,2018_Apr_02_2005,
自律,material/instr2_2.png,material/instr2_2.png,material/instr2_2.png,1,1,1,material/28.png,j,material/128.png,j,j,克己,克己,friend,friend,friend,2,2,2,material/28.png,,,,,,,,,,,,,,,,,0,46,46,27,,,,,,,,,,,,,,,4,1.99145197868,,,,,,,,,moral_self_bias,29,19,59.9732899414,f,001,2018_Apr_02_2005,
残忍,material/instr2_2.png,material/instr2_2.png,material/instr2_2.png,2,2,2,material/41.png,j,material/141.png,j,j,残忍,歹毒,friend,friend,friend,1,1,1,material/141.png,,,,,,,,,,,,,,,,,0,47,47,40,,,,,,,,,,,,,,,1,1.02593588829,,,,,,,,,moral_self_bias,29,19,59.9732899414,f,001,2018_Apr_02_2005,
仁厚,material/instr2_1.png,material/instr2_1.png,material/instr2_1.png,1,1,1,material/3.png,f,material/103.png,f,f,仁厚,仁慈,self,self,self,1,1,1,material/103.png,,,,,,,,,,,,,,,,,0,48,48,2,,,,,,,,,,,,,,,4,0.975620031357,,,,,,,,,moral_self_bias,29,19,59.9732899414,f,001,2018_Apr_02_2005,
博学,material/instr2_1.png,material/instr2_1.png,material/instr2_1.png,1,1,1,material/22.png,f,material/122.png,f,f,才学,才学,self,self,self,2,2,2,material/22.png,,,,,,,,,,,,,,,,,0,49,49,21,,,,,,,,,,,,,,,4,1.77573299408,,,,,,,,,moral_self_bias,29,19,59.9732899414,f,001,2018_Apr_02_2005,
勇敢,material/instr2_2.png,material/instr2_2.png,material/instr2_2.png,1,1,1,material/165.png,j,material/161.png,j,j,平等,独立,friend,friend,friend,1,1,1,material/61.png,,,,,,,,,,,,,,,,,0,50,50,60,,,,,,,,,,,,,,,4,1.44214105606,,,,,,,,,moral_self_bias,29,19,59.9732899414,f,001,2018_Apr_02_2005,
笃行,material/instr2_1.png,material/instr2_1.png,material/instr2_1.png,1,1,1,material/31.png,f,material/131.png,f,f,笃学,笃学,self,self,self,2,2,2,material/31.png,,,,,,,,,,,,,,,,,0,51,51,30,,,,,,,,,,,,,,,1,1.44212889671,,,,,,,,,moral_self_bias,29,19,59.9732899414,f,001,2018_Apr_02_2005,
无能,material/instr2_2.png,material/instr2_2.png,material/instr2_2.png,2,2,2,material/57.png,j,material/157.png,j,j,无知,无知,friend,friend,friend,2,2,2,material/57.png,,,,,,,,,,,,,,,,,0,52,52,56,,,,,,,,,,,,,,,1,1.09226298332,,,,,,,,,moral_self_bias,29,19,59.9732899414,f,001,2018_Apr_02_2005,
弱智,material/instr2_1.png,material/instr2_1.png,material/instr2_1.png,2,2,2,material/59.png,f,material/159.png,f,f,智障,智障,self,self,self,2,2,2,material/59.png,,,,,,,,,,,,,,,,,0,53,53,58,,,,,,,,,,,,,,,1,1.04228305817,,,,,,,,,moral_self_bias,29,19,59.9732899414,f,001,2018_Apr_02_2005,
狠毒,material/instr2_2.png,material/instr2_2.png,material/instr2_2.png,2,2,2,material/40.png,j,material/140.png,j,j,狠毒,邪恶,friend,friend,friend,1,1,1,material/140.png,,,,,,,,,,,,,,,,,0,54,54,39,,,,,,,,,,,,,,,1,0.894796133041,,,,,,,,,moral_self_bias,29,19,59.9732899414,f,001,2018_Apr_02_2005,
依靠,material/instr2_1.png,material/instr2_1.png,material/instr2_1.png,2,2,2,material/54.png,f,material/154.png,f,f,依赖,依赖,self,self,self,2,2,2,material/54.png,,,,,,,,,,,,,,,,,0,55,55,53,,,,,,,,,,,,,,,4,1.30903196335,,,,,,,,,moral_self_bias,29,19,59.9732899414,f,001,2018_Apr_02_2005,
缺德,material/instr2_2.png,material/instr2_2.png,material/instr2_2.png,2,2,2,material/38.png,j,material/138.png,j,j,缺德,无德,friend,friend,friend,1,1,1,material/138.png,,,,,,,,,,,,,,,,,0,56,56,37,,,,,,,,,,,,,,,1,0.842453956604,,,,,,,,,moral_self_bias,29,19,59.9732899414,f,001,2018_Apr_02_2005,
恶心,material/instr2_1.png,material/instr2_1.png,material/instr2_1.png,2,2,2,material/73.png,f,material/177.png,f,f,恶心,残虐,self,self,self,1,1,1,material/177.png,,,,,,,,,,,,,,,,,0,57,57,76,,,,,,,,,,,,,,,1,0.908867835999,,,,,,,,,moral_self_bias,29,19,59.9732899414,f,001,2018_Apr_02_2005,
好问,material/instr2_1.png,material/instr2_1.png,material/instr2_1.png,1,1,1,material/29.png,f,material/129.png,f,f,好学,好学,self,self,self,2,2,2,material/29.png,,,,,,,,,,,,,,,,,0,58,58,28,,,,,,,,,,,,,,,4,1.8079059124,,,,,,,,,moral_self_bias,29,19,59.9732899414,f,001,2018_Apr_02_2005,
进取,material/instr2_1.png,material/instr2_1.png,material/instr2_1.png,1,1,1,material/30.png,f,material/130.png,f,f,上进,上进,self,self,self,2,2,2,material/30.png,,,,,,,,,,,,,,,,,0,59,59,29,,,,,,,,,,,,,,,3,2.59188389778,,,,,,,,,moral_self_bias,29,19,59.9732899414,f,001,2018_Apr_02_2005,
博爱,material/instr2_1.png,material/instr2_1.png,material/instr2_1.png,1,1,1,material/1.png,f,material/101.png,f,f,博爱,善良,self,self,self,1,1,1,material/101.png,,,,,,,,,,,,,,,,,0,60,60,0,,,,,,,,,,,,,,,5,1.84174180031,,,,,,,,,moral_self_bias,29,19,59.9732899414,f,001,2018_Apr_02_2005,
高明,material/instr2_1.png,material/instr2_1.png,material/instr2_1.png,1,1,1,material/69.png,f,material/69.png,f,f,高明,高明,self,self,self,2,2,2,material/69.png,,,,,,,,,,,,,,,,,0,61,61,86,,,,,,,,,,,,,,,1,1.32540988922,,,,,,,,,moral_self_bias,29,19,59.9732899414,f,001,2018_Apr_02_2005,
爽约,material/instr2_2.png,material/instr2_2.png,material/instr2_2.png,2,2,2,material/44.png,j,material/144.png,j,j,爽约,失信,friend,friend,friend,1,1,1,material/144.png,,,,,,,,,,,,,,,,,0,62,62,43,,,,,,,,,,,,,,,1,1.04218101501,,,,,,,,,moral_self_bias,29,19,59.9732899414,f,001,2018_Apr_02_2005,
放纵,material/instr2_1.png,material/instr2_1.png,material/instr2_1.png,2,2,2,material/76.png,f,material/176.png,f,f,放纵,虚伪,self,self,self,1,1,1,material/176.png,,,,,,,,,,,,,,,,,0,63,63,75,,,,,,,,,,,,,,,1,1.25926589966,,,,,,,,,moral_self_bias,29,19,59.9732899414,f,001,2018_Apr_02_2005,
廉明,material/instr2_2.png,material/instr2_2.png,material/instr2_2.png,1,1,1,material/13.png,j,material/113.png,j,j,廉明,廉洁,friend,friend,friend,1,1,1,material/113.png,,,,,,,,,,,,,,,,,0,64,64,12,,,,,,,,,,,,,,,4,1.40804791451,,,,,,,,,moral_self_bias,29,19,59.9732899414,f,001,2018_Apr_02_2005,
恶毒,material/instr2_2.png,material/instr2_2.png,material/instr2_2.png,2,2,2,material/39.png,j,material/139.png,j,j,恶毒,凶残,friend,friend,friend,1,1,1,material/139.png,,,,,,,,,,,,,,,,,0,65,65,38,,,,,,,,,,,,,,,1,0.825369119644,,,,,,,,,moral_self_bias,29,19,59.9732899414,f,001,2018_Apr_02_2005,
无私,material/instr2_2.png,material/instr2_2.png,material/instr2_2.png,1,1,1,material/8.png,j,material/108.png,j,j,无私,公道,friend,friend,friend,1,1,1,material/108.png,,,,,,,,,,,,,,,,,0,66,66,7,,,,,,,,,,,,,,,4,1.45864892006,,,,,,,,,moral_self_bias,29,19,59.9732899414,f,001,2018_Apr_02_2005,
公平,material/instr2_2.png,material/instr2_2.png,material/instr2_2.png,1,1,1,material/7.png,j,material/107.png,j,j,公平,公正,friend,friend,friend,1,1,1,material/107.png,,,,,,,,,,,,,,,,,0,67,67,6,,,,,,,,,,,,,,,4,1.87639188766,,,,,,,,,moral_self_bias,29,19,59.9732899414,f,001,2018_Apr_02_2005,
友善,material/instr2_1.png,material/instr2_1.png,material/instr2_1.png,1,1,1,material/4.png,f,material/104.png,f,f,友善,友爱,self,self,self,1,1,1,material/104.png,,,,,,,,,,,,,,,,,0,68,68,3,,,,,,,,,,,,,,,5,0.973686933517,,,,,,,,,moral_self_bias,29,19,59.9732899414,f,001,2018_Apr_02_2005,
黑心,material/instr2_2.png,material/instr2_2.png,material/instr2_2.png,2,2,2,material/74.png,j,material/173.png,j,j,黑心,卑劣,friend,friend,friend,1,1,1,material/173.png,,,,,,,,,,,,,,,,,0,69,69,72,,,,,,,,,,,,,,,1,1.12576699257,,,,,,,,,moral_self_bias,29,19,59.9732899414,f,001,2018_Apr_02_2005,
勤快,material/instr2_2.png,material/instr2_2.png,material/instr2_2.png,1,1,1,material/26.png,j,material/126.png,j,j,刻苦,刻苦,friend,friend,friend,2,2,2,material/26.png,,,,,,,,,,,,,,,,,0,70,70,25,,,,,,,,,,,,,,,2,2.35887098312,,,,,,,,,moral_self_bias,29,19,59.9732899414,f,001,2018_Apr_02_2005,
自私,material/instr2_2.png,material/instr2_2.png,material/instr2_2.png,2,2,2,material/46.png,j,material/146.png,j,j,自私,小气,friend,friend,friend,1,1,1,material/146.png,,,,,,,,,,,,,,,,,0,71,71,45,,,,,,,,,,,,,,,1,1.62536501884,,,,,,,,,moral_self_bias,29,19,59.9732899414,f,001,2018_Apr_02_2005,
薄弱,material/instr2_1.png,material/instr2_1.png,material/instr2_1.png,2,2,2,material/82.png,f,material/183.png,f,f,毛糙,窝囊,self,self,self,2,2,2,material/178.png,,,,,,,,,,,,,,,,,0,72,72,82,,,,,,,,,,,,,,,1,1.45900797844,,,,,,,,,moral_self_bias,29,19,59.9732899414,f,001,2018_Apr_02_2005,
精干,material/instr2_1.png,material/instr2_1.png,material/instr2_1.png,1,1,1,material/21.png,f,material/121.png,f,f,干练,干练,self,self,self,2,2,2,material/21.png,,,,,,,,,,,,,,,,,0,73,73,20,,,,,,,,,,,,,,,2,2.35926008224,,,,,,,,,moral_self_bias,29,19,59.9732899414,f,001,2018_Apr_02_2005,
冷血,material/instr2_1.png,material/instr2_1.png,material/instr2_1.png,2,2,2,material/35.png,f,material/135.png,f,f,冷血,冷漠,self,self,self,1,1,1,material/135.png,,,,,,,,,,,,,,,,,0,74,74,34,,,,,,,,,,,,,,,1,2.00881505013,,,,,,,,,moral_self_bias,29,19,59.9732899414,f,001,2018_Apr_02_2005,
浅薄,material/instr2_2.png,material/instr2_2.png,material/instr2_2.png,2,2,2,material/58.png,j,material/158.png,j,j,肤浅,肤浅,friend,friend,friend,2,2,2,material/58.png,,,,,,,,,,,,,,,,,0,75,75,57,,,,,,,,,,,,,,,1,1.61653208733,,,,,,,,,moral_self_bias,29,19,59.9732899414,f,001,2018_Apr_02_2005,
怠惰,material/instr2_2.png,material/instr2_2.png,material/instr2_2.png,2,2,2,material/181.png,j,material/180.png,j,j,怠惰,犹豫,friend,friend,friend,2,2,2,material/180.png,,,,,,,,,,,,,,,,,0,76,76,79,,,,,,,,,,,,,,,1,1.27505493164,,,,,,,,,moral_self_bias,29,19,59.9732899414,f,001,2018_Apr_02_2005,
机灵,material/instr2_2.png,material/instr2_2.png,material/instr2_2.png,1,1,1,material/19.png,j,material/119.png,j,j,灵活,灵活,friend,friend,friend,2,2,2,material/19.png,,,,,,,,,,,,,,,,,0,77,77,18,,,,,,,,,,,,,,,4,1.34020400047,,,,,,,,,moral_self_bias,29,19,59.9732899414,f,001,2018_Apr_02_2005,
果敢,material/instr2_1.png,material/instr2_1.png,material/instr2_1.png,1,1,1,material/25.png,f,material/125.png,f,f,果断,果断,self,self,self,2,2,2,material/25.png,,,,,,,,,,,,,,,,,0,78,78,24,,,,,,,,,,,,,,,1,1.75863289833,,,,,,,,,moral_self_bias,29,19,59.9732899414,f,001,2018_Apr_02_2005,
能干,material/instr2_2.png,material/instr2_2.png,material/instr2_2.png,1,1,1,material/20.png,j,material/120.png,j,j,厉害,厉害,friend,friend,friend,2,2,2,material/20.png,,,,,,,,,,,,,,,,,0,79,79,19,,,,,,,,,,,,,,,4,1.05885601044,,,,,,,,,moral_self_bias,29,19,59.9732899414,f,001,2018_Apr_02_2005,
冷静,material/instr2_1.png,material/instr2_1.png,material/instr2_1.png,1,1,1,material/24.png,f,material/124.png,f,f,理智,理智,self,self,self,2,2,2,material/24.png,,,,,,,,,,,,,,,,,0,80,80,23,,,,,,,,,,,,,,,1,1.76688098907,,,,,,,,,moral_self_bias,29,19,59.9732899414,f,001,2018_Apr_02_2005,
才尽,material/instr2_1.png,material/instr2_1.png,material/instr2_1.png,2,2,2,material/183.png,f,material/182.png,f,f,颓废,薄弱,self,self,self,2,2,2,material/79.png,,,,,,,,,,,,,,,,,0,81,81,81,,,,,,,,,,,,,,,4,1.35858392715,,,,,,,,,moral_self_bias,29,19,59.9732899414,f,001,2018_Apr_02_2005,
孝顺,material/instr2_1.png,material/instr2_1.png,material/instr2_1.png,1,1,1,material/161.png,f,material/164.png,f,f,奉献,勇敢,self,self,self,1,1,1,material/64.png,,,,,,,,,,,,,,,,,0,82,82,63,,,,,,,,,,,,,,,3,2.18413996696,,,,,,,,,moral_self_bias,29,19,59.9732899414,f,001,2018_Apr_02_2005,
机智,material/instr2_2.png,material/instr2_2.png,material/instr2_2.png,1,1,1,material/16.png,j,material/116.png,j,j,睿智,睿智,friend,friend,friend,2,2,2,material/16.png,,,,,,,,,,,,,,,,,0,83,83,15,,,,,,,,,,,,,,,4,2.22556090355,,,,,,,,,moral_self_bias,29,19,59.9732899414,f,001,2018_Apr_02_2005,
厚道,material/instr2_2.png,material/instr2_2.png,material/instr2_2.png,1,1,1,material/6.png,j,material/106.png,j,j,厚道,诚实,friend,friend,friend,1,1,1,material/106.png,,,,,,,,,,,,,,,,,0,84,84,5,,,,,,,,,,,,,,,4,1.00897288322,,,,,,,,,moral_self_bias,29,19,59.9732899414,f,001,2018_Apr_02_2005,
忠贞,material/instr2_2.png,material/instr2_2.png,material/instr2_2.png,1,1,1,material/14.png,j,material/114.png,j,j,忠贞,爱国,friend,friend,friend,1,1,1,material/114.png,,,,,,,,,,,,,,,,,0,85,85,13,,,,,,,,,,,,,,,4,1.94226980209,,,,,,,,,moral_self_bias,29,19,59.9732899414,f,001,2018_Apr_02_2005,
机敏,material/instr2_2.png,material/instr2_2.png,material/instr2_2.png,1,1,1,material/18.png,j,material/118.png,j,j,敏锐,敏锐,friend,friend,friend,2,2,2,material/18.png,,,,,,,,,,,,,,,,,0,86,86,17,,,,,,,,,,,,,,,4,1.20858597755,,,,,,,,,moral_self_bias,29,19,59.9732899414,f,001,2018_Apr_02_2005,
无情,material/instr2_1.png,material/instr2_1.png,material/instr2_1.png,2,2,2,material/172.png,f,material/175.png,f,f,无情,浮夸,self,self,self,1,1,1,material/175.png,,,,,,,,,,,,,,,,,0,87,87,74,,,,,,,,,,,,,,,1,1.99269199371,,,,,,,,,moral_self_bias,29,19,59.9732899414,f,001,2018_Apr_02_2005,
,,,,,,,,,,,,,,,,,,,,,2+5= ?,,,,,,,,,,,,,,,,,,,,0,0,0,11,,,,,,,,,,,,,,,,,,,,,moral_self_bias,29,19,59.9732899414,f,001,2018_Apr_02_2005,
,,,,,,,,,,,,,,,,,,,,,12/4= ?,,,,,,,,,,,,,,,,,,,,0,1,1,89,,,,,,,,,,,,,,,,,,,,,moral_self_bias,29,19,59.9732899414,f,001,2018_Apr_02_2005,
,,,,,,,,,,,,,,,,,,,,,7+2= ?,,,,,,,,,,,,,,,,,,,,0,2,2,47,,,,,,,,,,,,,,,,,,,,,moral_self_bias,29,19,59.9732899414,f,001,2018_Apr_02_2005,
,,,,,,,,,,,,,,,,,,,,,22/11= ?,,,,,,,,,,,,,,,,,,,,0,3,3,71,,,,,,,,,,,,,,,,,,,,,moral_self_bias,29,19,59.9732899414,f,001,2018_Apr_02_2005,
,,,,,,,,,,,,,,,,,,,,,11-8= ?,,,,,,,,,,,,,,,,,,,,0,4,4,106,,,,,,,,,,,,,,,,,,,,,moral_self_bias,29,19,59.9732899414,f,001,2018_Apr_02_2005,
,,,,,,,,,,,,,,,,,,,,,90/45= ?,,,,,,,,,,,,,,,,,,,,0,5,5,74,,,,,,,,,,,,,,,,,,,,,moral_self_bias,29,19,59.9732899414,f,001,2018_Apr_02_2005,
,,,,,,,,,,,,,,,,,,,,,4*2= ?,,,,,,,,,,,,,,,,,,,,0,6,6,82,,,,,,,,,,,,,,,,,,,,,moral_self_bias,29,19,59.9732899414,f,001,2018_Apr_02_2005,
,,,,,,,,,,,,,,,,,,,,,5-3= ?,,,,,,,,,,,,,,,,,,,,0,7,7,116,,,,,,,,,,,,,,,,,,,,,moral_self_bias,29,19,59.9732899414,f,001,2018_Apr_02_2005,
,,,,,,,,,,,,,,,,,,,,,11-5= ?,,,,,,,,,,,,,,,,,,,,0,8,8,107,,,,,,,,,,,,,,,,,,,,,moral_self_bias,29,19,59.9732899414,f,001,2018_Apr_02_2005,
,,,,,,,,,,,,,,,,,,,,,3*1= ?,,,,,,,,,,,,,,,,,,,,0,9,9,83,,,,,,,,,,,,,,,,,,,,,moral_self_bias,29,19,59.9732899414,f,001,2018_Apr_02_2005,
,,,,,,,,,,,,,,,,,,,,,8-2= ?,,,,,,,,,,,,,,,,,,,,0,10,10,38,,,,,,,,,,,,,,,,,,,,,moral_self_bias,29,19,59.9732899414,f,001,2018_Apr_02_2005,
,,,,,,,,,,,,,,,,,,,,,12-7= ?,,,,,,,,,,,,,,,,,,,,0,11,11,115,,,,,,,,,,,,,,,,,,,,,moral_self_bias,29,19,59.9732899414,f,001,2018_Apr_02_2005,
,,,,,,,,,,,,,,,,,,,,,2+6= ?,,,,,,,,,,,,,,,,,,,,0,12,12,12,,,,,,,,,,,,,,,,,,,,,moral_self_bias,29,19,59.9732899414,f,001,2018_Apr_02_2005,
,,,,,,,,,,,,,,,,,,,,,3+2= ?,,,,,,,,,,,,,,,,,,,,0,13,13,17,,,,,,,,,,,,,,,,,,,,,moral_self_bias,29,19,59.9732899414,f,001,2018_Apr_02_2005,
,,,,,,,,,,,,,,,,,,,,,2+4= ?,,,,,,,,,,,,,,,,,,,,0,14,14,10,,,,,,,,,,,,,,,,,,,,,moral_self_bias,29,19,59.9732899414,f,001,2018_Apr_02_2005,
,,,,,,,,,,,,,,,,,,,,,6+3= ?,,,,,,,,,,,,,,,,,,,,0,15,15,45,,,,,,,,,,,,,,,,,,,,,moral_self_bias,29,19,59.9732899414,f,001,2018_Apr_02_2005,
,,,,,,,,,,,,,,,,,,,,,5*0= ?,,,,,,,,,,,,,,,,,,,,0,16,16,86,,,,,,,,,,,,,,,,,,,,,moral_self_bias,29,19,59.9732899414,f,001,2018_Apr_02_2005,
,,,,,,,,,,,,,,,,,,,,,11-3=？,,,,,,,,,,,,,,,,,,,,0,17,17,68,,,,,,,,,,,,,,,,,,,,,moral_self_bias,29,19,59.9732899414,f,001,2018_Apr_02_2005,
,,,,,,,,,,,,,,,,,,,,,19-17= ?,,,,,,,,,,,,,,,,,,,,0,18,18,100,,,,,,,,,,,,,,,,,,,,,moral_self_bias,29,19,59.9732899414,f,001,2018_Apr_02_2005,
,,,,,,,,,,,,,,,,,,,,,6+1= ?,,,,,,,,,,,,,,,,,,,,0,19,19,43,,,,,,,,,,,,,,,,,,,,,moral_self_bias,29,19,59.9732899414,f,001,2018_Apr_02_2005,
,,,,,,,,,,,,,,,,,,,,,1+8= ?,,,,,,,,,,,,,,,,,,,,0,20,20,6,,,,,,,,,,,,,,,,,,,,,moral_self_bias,29,19,59.9732899414,f,001,2018_Apr_02_2005,
,,,,,,,,,,,,,,,,,,,,,4*1= ?,,,,,,,,,,,,,,,,,,,,0,21,21,85,,,,,,,,,,,,,,,,,,,,,moral_self_bias,29,19,59.9732899414,f,001,2018_Apr_02_2005,
,,,,,,,,,,,,,,,,,,,,,17-12= ? ,,,,,,,,,,,,,,,,,,,,0,22,22,104,,,,,,,,,,,,,,,,,,,,,moral_self_bias,29,19,59.9732899414,f,001,2018_Apr_02_2005,
,,,,,,,,,,,,,,,,,,,,,3+1= ?,,,,,,,,,,,,,,,,,,,,0,23,23,16,,,,,,,,,,,,,,,,,,,,,moral_self_bias,29,19,59.9732899414,f,001,2018_Apr_02_2005,
,,,,,,,,,,,,,,,,,,,,,43-34= ?,,,,,,,,,,,,,,,,,,,,0,24,24,79,,,,,,,,,,,,,,,,,,,,,moral_self_bias,29,19,59.9732899414,f,001,2018_Apr_02_2005,
,,,,,,,,,,,,,,,,,,,,,3+6= ?,,,,,,,,,,,,,,,,,,,,0,25,25,21,,,,,,,,,,,,,,,,,,,,,moral_self_bias,29,19,59.9732899414,f,001,2018_Apr_02_2005,
,,,,,,,,,,,,,,,,,,,,,12-12= ?,,,,,,,,,,,,,,,,,,,,0,26,26,99,,,,,,,,,,,,,,,,,,,,,moral_self_bias,29,19,59.9732899414,f,001,2018_Apr_02_2005,
,,,,,,,,,,,,,,,,,,,,,2*4= ?,,,,,,,,,,,,,,,,,,,,0,27,27,84,,,,,,,,,,,,,,,,,,,,,moral_self_bias,29,19,59.9732899414,f,001,2018_Apr_02_2005,
,,,,,,,,,,,,,,,,,,,,,6^0= ?,,,,,,,,,,,,,,,,,,,,0,28,28,103,,,,,,,,,,,,,,,,,,,,,moral_self_bias,29,19,59.9732899414,f,001,2018_Apr_02_2005,
,,,,,,,,,,,,,,,,,,,,,56/7= ?,,,,,,,,,,,,,,,,,,,,0,29,29,77,,,,,,,,,,,,,,,,,,,,,moral_self_bias,29,19,59.9732899414,f,001,2018_Apr_02_2005,
,,,,,,,,,,,,,,,,,,,,,3*2= ?,,,,,,,,,,,,,,,,,,,,0,30,30,53,,,,,,,,,,,,,,,,,,,,,moral_self_bias,29,19,59.9732899414,f,001,2018_Apr_02_2005,
,,,,,,,,,,,,,,,,,,,,,20/5=？,,,,,,,,,,,,,,,,,,,,0,31,31,69,,,,,,,,,,,,,,,,,,,,,moral_self_bias,29,19,59.9732899414,f,001,2018_Apr_02_2005,
,,,,,,,,,,,,,,,,,,,,,9-5= ?,,,,,,,,,,,,,,,,,,,,0,32,32,23,,,,,,,,,,,,,,,,,,,,,moral_self_bias,29,19,59.9732899414,f,001,2018_Apr_02_2005,
,,,,,,,,,,,,,,,,,,,,,8-3= ?,,,,,,,,,,,,,,,,,,,,0,33,33,39,,,,,,,,,,,,,,,,,,,,,moral_self_bias,29,19,59.9732899414,f,001,2018_Apr_02_2005,
,,,,,,,,,,,,,,,,,,,,,3*3= ?,,,,,,,,,,,,,,,,,,,,0,34,34,54,,,,,,,,,,,,,,,,,,,,,moral_self_bias,29,19,59.9732899414,f,001,2018_Apr_02_2005,
,,,,,,,,,,,,,,,,,,,,,9-6= ?,,,,,,,,,,,,,,,,,,,,0,35,35,24,,,,,,,,,,,,,,,,,,,,,moral_self_bias,29,19,59.9732899414,f,001,2018_Apr_02_2005,
,,,,,,,,,,,,,,,,,,,,,2^2= ?,,,,,,,,,,,,,,,,,,,,0,36,36,49,,,,,,,,,,,,,,,,,,,,,moral_self_bias,29,19,59.9732899414,f,001,2018_Apr_02_2005,
,,,,,,,,,,,,,,,,,,,,,4+2= ?,,,,,,,,,,,,,,,,,,,,0,37,37,26,,,,,,,,,,,,,,,,,,,,,moral_self_bias,29,19,59.9732899414,f,001,2018_Apr_02_2005,
,,,,,,,,,,,,,,,,,,,,,11-11= ?,,,,,,,,,,,,,,,,,,,,0,38,38,119,,,,,,,,,,,,,,,,,,,,,moral_self_bias,29,19,59.9732899414,f,001,2018_Apr_02_2005,
,,,,,,,,,,,,,,,,,,,,,18/9= ?,,,,,,,,,,,,,,,,,,,,0,39,39,96,,,,,,,,,,,,,,,,,,,,,moral_self_bias,29,19,59.9732899414,f,001,2018_Apr_02_2005,
,,,,,,,,,,,,,,,,,,,,,29-27= ?,,,,,,,,,,,,,,,,,,,,0,40,40,72,,,,,,,,,,,,,,,,,,,,,moral_self_bias,29,19,59.9732899414,f,001,2018_Apr_02_2005,
,,,,,,,,,,,,,,,,,,,,,12/12= ?,,,,,,,,,,,,,,,,,,,,0,41,41,91,,,,,,,,,,,,,,,,,,,,,moral_self_bias,29,19,59.9732899414,f,001,2018_Apr_02_2005,
,,,,,,,,,,,,,,,,,,,,,32-32= ?,,,,,,,,,,,,,,,,,,,,0,42,42,80,,,,,,,,,,,,,,,,,,,,,moral_self_bias,29,19,59.9732899414,f,001,2018_Apr_02_2005,
,,,,,,,,,,,,,,,,,,,,,9-4= ?,,,,,,,,,,,,,,,,,,,,0,43,43,22,,,,,,,,,,,,,,,,,,,,,moral_self_bias,29,19,59.9732899414,f,001,2018_Apr_02_2005,
,,,,,,,,,,,,,,,,,,,,,13-9= ?,,,,,,,,,,,,,,,,,,,,0,44,44,92,,,,,,,,,,,,,,,,,,,,,moral_self_bias,29,19,59.9732899414,f,001,2018_Apr_02_2005,
,,,,,,,,,,,,,,,,,,,,,22-22= ?,,,,,,,,,,,,,,,,,,,,0,45,45,93,,,,,,,,,,,,,,,,,,,,,moral_self_bias,29,19,59.9732899414,f,001,2018_Apr_02_2005,
,,,,,,,,,,,,,,,,,,,,,9-3= ?,,,,,,,,,,,,,,,,,,,,0,46,46,15,,,,,,,,,,,,,,,,,,,,,moral_self_bias,29,19,59.9732899414,f,001,2018_Apr_02_2005,
,,,,,,,,,,,,,,,,,,,,,10-9= ?,,,,,,,,,,,,,,,,,,,,0,47,47,112,,,,,,,,,,,,,,,,,,,,,moral_self_bias,29,19,59.9732899414,f,001,2018_Apr_02_2005,
,,,,,,,,,,,,,,,,,,,,,3^2= ?,,,,,,,,,,,,,,,,,,,,0,48,48,50,,,,,,,,,,,,,,,,,,,,,moral_self_bias,29,19,59.9732899414,f,001,2018_Apr_02_2005,
,,,,,,,,,,,,,,,,,,,,,8*1= ?,,,,,,,,,,,,,,,,,,,,0,49,49,111,,,,,,,,,,,,,,,,,,,,,moral_self_bias,29,19,59.9732899414,f,001,2018_Apr_02_2005,
,,,,,,,,,,,,,,,,,,,,,5+4= ?,,,,,,,,,,,,,,,,,,,,0,50,50,37,,,,,,,,,,,,,,,,,,,,,moral_self_bias,29,19,59.9732899414,f,001,2018_Apr_02_2005,
,,,,,,,,,,,,,,,,,,,,,12/6= ?,,,,,,,,,,,,,,,,,,,,0,51,51,90,,,,,,,,,,,,,,,,,,,,,moral_self_bias,29,19,59.9732899414,f,001,2018_Apr_02_2005,
,,,,,,,,,,,,,,,,,,,,,6+2= ?,,,,,,,,,,,,,,,,,,,,0,52,52,44,,,,,,,,,,,,,,,,,,,,,moral_self_bias,29,19,59.9732899414,f,001,2018_Apr_02_2005,
,,,,,,,,,,,,,,,,,,,,,1+2= ?,,,,,,,,,,,,,,,,,,,,0,53,53,1,,,,,,,,,,,,,,,,,,,,,moral_self_bias,29,19,59.9732899414,f,001,2018_Apr_02_2005,
,,,,,,,,,,,,,,,,,,,,,4+4= ?,,,,,,,,,,,,,,,,,,,,0,54,54,28,,,,,,,,,,,,,,,,,,,,,moral_self_bias,29,19,59.9732899414,f,001,2018_Apr_02_2005,
,,,,,,,,,,,,,,,,,,,,,1*8= ?,,,,,,,,,,,,,,,,,,,,0,55,55,110,,,,,,,,,,,,,,,,,,,,,moral_self_bias,29,19,59.9732899414,f,001,2018_Apr_02_2005,
,,,,,,,,,,,,,,,,,,,,,4^1= ?,,,,,,,,,,,,,,,,,,,,0,56,56,102,,,,,,,,,,,,,,,,,,,,,moral_self_bias,29,19,59.9732899414,f,001,2018_Apr_02_2005,
,,,,,,,,,,,,,,,,,,,,,3+5= ?,,,,,,,,,,,,,,,,,,,,0,57,57,20,,,,,,,,,,,,,,,,,,,,,moral_self_bias,29,19,59.9732899414,f,001,2018_Apr_02_2005,
,,,,,,,,,,,,,,,,,,,,,9-2= ?,,,,,,,,,,,,,,,,,,,,0,58,58,14,,,,,,,,,,,,,,,,,,,,,moral_self_bias,29,19,59.9732899414,f,001,2018_Apr_02_2005,
,,,,,,,,,,,,,,,,,,,,,7-0= ?,,,,,,,,,,,,,,,,,,,,0,59,59,117,,,,,,,,,,,,,,,,,,,,,moral_self_bias,29,19,59.9732899414,f,001,2018_Apr_02_2005,
,,,,,,,,,,,,,,,,,,,,,9-9= ?,,,,,,,,,,,,,,,,,,,,0,60,60,32,,,,,,,,,,,,,,,,,,,,,moral_self_bias,29,19,59.9732899414,f,001,2018_Apr_02_2005,
,,,,,,,,,,,,,,,,,,,,,6/2= ?,,,,,,,,,,,,,,,,,,,,0,61,61,58,,,,,,,,,,,,,,,,,,,,,moral_self_bias,29,19,59.9732899414,f,001,2018_Apr_02_2005,
,,,,,,,,,,,,,,,,,,,,,9-8= ?,,,,,,,,,,,,,,,,,,,,0,62,62,31,,,,,,,,,,,,,,,,,,,,,moral_self_bias,29,19,59.9732899414,f,001,2018_Apr_02_2005,
,,,,,,,,,,,,,,,,,,,,,1^2= ?,,,,,,,,,,,,,,,,,,,,0,63,63,51,,,,,,,,,,,,,,,,,,,,,moral_self_bias,29,19,59.9732899414,f,001,2018_Apr_02_2005,
,,,,,,,,,,,,,,,,,,,,,12-5=？,,,,,,,,,,,,,,,,,,,,0,64,64,65,,,,,,,,,,,,,,,,,,,,,moral_self_bias,29,19,59.9732899414,f,001,2018_Apr_02_2005,
,,,,,,,,,,,,,,,,,,,,,9-7= ?,,,,,,,,,,,,,,,,,,,,0,65,65,30,,,,,,,,,,,,,,,,,,,,,moral_self_bias,29,19,59.9732899414,f,001,2018_Apr_02_2005,
,,,,,,,,,,,,,,,,,,,,,21/3= ? ,,,,,,,,,,,,,,,,,,,,0,66,66,95,,,,,,,,,,,,,,,,,,,,,moral_self_bias,29,19,59.9732899414,f,001,2018_Apr_02_2005,
,,,,,,,,,,,,,,,,,,,,,8-6= ?,,,,,,,,,,,,,,,,,,,,0,67,67,42,,,,,,,,,,,,,,,,,,,,,moral_self_bias,29,19,59.9732899414,f,001,2018_Apr_02_2005,
,,,,,,,,,,,,,,,,,,,,,3+4= ?,,,,,,,,,,,,,,,,,,,,0,68,68,19,,,,,,,,,,,,,,,,,,,,,moral_self_bias,29,19,59.9732899414,f,001,2018_Apr_02_2005,
,,,,,,,,,,,,,,,,,,,,,5+3= ?,,,,,,,,,,,,,,,,,,,,0,69,69,36,,,,,,,,,,,,,,,,,,,,,moral_self_bias,29,19,59.9732899414,f,001,2018_Apr_02_2005,
,,,,,,,,,,,,,,,,,,,,,14-9=？,,,,,,,,,,,,,,,,,,,,0,70,70,63,,,,,,,,,,,,,,,,,,,,,moral_self_bias,29,19,59.9732899414,f,001,2018_Apr_02_2005,
,,,,,,,,,,,,,,,,,,,,,1+6= ?,,,,,,,,,,,,,,,,,,,,0,71,71,5,,,,,,,,,,,,,,,,,,,,,moral_self_bias,29,19,59.9732899414,f,001,2018_Apr_02_2005,
,,,,,,,,,,,,,,,,,,,,,13-6=？,,,,,,,,,,,,,,,,,,,,0,72,72,64,,,,,,,,,,,,,,,,,,,,,moral_self_bias,29,19,59.9732899414,f,001,2018_Apr_02_2005,
,,,,,,,,,,,,,,,,,,,,,7*1= ?,,,,,,,,,,,,,,,,,,,,0,73,73,113,,,,,,,,,,,,,,,,,,,,,moral_self_bias,29,19,59.9732899414,f,001,2018_Apr_02_2005,
,,,,,,,,,,,,,,,,,,,,,11-4=？,,,,,,,,,,,,,,,,,,,,0,74,74,66,,,,,,,,,,,,,,,,,,,,,moral_self_bias,29,19,59.9732899414,f,001,2018_Apr_02_2005,
,,,,,,,,,,,,,,,,,,,,,1+7= ?,,,,,,,,,,,,,,,,,,,,0,75,75,4,,,,,,,,,,,,,,,,,,,,,moral_self_bias,29,19,59.9732899414,f,001,2018_Apr_02_2005,
,,,,,,,,,,,,,,,,,,,,,5+2= ?,,,,,,,,,,,,,,,,,,,,0,76,76,35,,,,,,,,,,,,,,,,,,,,,moral_self_bias,29,19,59.9732899414,f,001,2018_Apr_02_2005,
,,,,,,,,,,,,,,,,,,,,,3+3= ?,,,,,,,,,,,,,,,,,,,,0,77,77,18,,,,,,,,,,,,,,,,,,,,,moral_self_bias,29,19,59.9732899414,f,001,2018_Apr_02_2005,
,,,,,,,,,,,,,,,,,,,,,3+0= ?,,,,,,,,,,,,,,,,,,,,0,78,78,105,,,,,,,,,,,,,,,,,,,,,moral_self_bias,29,19,59.9732899414,f,001,2018_Apr_02_2005,
,,,,,,,,,,,,,,,,,,,,,2+3= ?,,,,,,,,,,,,,,,,,,,,0,79,79,9,,,,,,,,,,,,,,,,,,,,,moral_self_bias,29,19,59.9732899414,f,001,2018_Apr_02_2005,
,,,,,,,,,,,,,,,,,,,,,6*0= ?,,,,,,,,,,,,,,,,,,,,0,80,80,87,,,,,,,,,,,,,,,,,,,,,moral_self_bias,29,19,59.9732899414,f,001,2018_Apr_02_2005,
,,,,,,,,,,,,,,,,,,,,,1+9= ?,,,,,,,,,,,,,,,,,,,,0,81,81,3,,,,,,,,,,,,,,,,,,,,,moral_self_bias,29,19,59.9732899414,f,001,2018_Apr_02_2005,
,,,,,,,,,,,,,,,,,,,,,2+1= ?,,,,,,,,,,,,,,,,,,,,0,82,82,7,,,,,,,,,,,,,,,,,,,,,moral_self_bias,29,19,59.9732899414,f,001,2018_Apr_02_2005,
,,,,,,,,,,,,,,,,,,,,,4+3= ?,,,,,,,,,,,,,,,,,,,,0,83,83,27,,,,,,,,,,,,,,,,,,,,,moral_self_bias,29,19,59.9732899414,f,001,2018_Apr_02_2005,
,,,,,,,,,,,,,,,,,,,,,9-1=?,,,,,,,,,,,,,,,,,,,,0,84,84,2,,,,,,,,,,,,,,,,,,,,,moral_self_bias,29,19,59.9732899414,f,001,2018_Apr_02_2005,
,,,,,,,,,,,,,,,,,,,,,30-29= ?,,,,,,,,,,,,,,,,,,,,0,85,85,73,,,,,,,,,,,,,,,,,,,,,moral_self_bias,29,19,59.9732899414,f,001,2018_Apr_02_2005,
,,,,,,,,,,,,,,,,,,,,,5+1= ?,,,,,,,,,,,,,,,,,,,,0,86,86,34,,,,,,,,,,,,,,,,,,,,,moral_self_bias,29,19,59.9732899414,f,001,2018_Apr_02_2005,
,,,,,,,,,,,,,,,,,,,,,1*9= ?,,,,,,,,,,,,,,,,,,,,0,87,87,109,,,,,,,,,,,,,,,,,,,,,moral_self_bias,29,19,59.9732899414,f,001,2018_Apr_02_2005,
,,,,,,,,,,,,,,,,,,,,,4+5= ?,,,,,,,,,,,,,,,,,,,,0,88,88,29,,,,,,,,,,,,,,,,,,,,,moral_self_bias,29,19,59.9732899414,f,001,2018_Apr_02_2005,
,,,,,,,,,,,,,,,,,,,,,3^1= ?,,,,,,,,,,,,,,,,,,,,0,89,89,101,,,,,,,,,,,,,,,,,,,,,moral_self_bias,29,19,59.9732899414,f,001,2018_Apr_02_2005,
,,,,,,,,,,,,,,,,,,,,,81/9= ?,,,,,,,,,,,,,,,,,,,,0,90,90,75,,,,,,,,,,,,,,,,,,,,,moral_self_bias,29,19,59.9732899414,f,001,2018_Apr_02_2005,
,,,,,,,,,,,,,,,,,,,,,5/1= ?,,,,,,,,,,,,,,,,,,,,0,91,91,59,,,,,,,,,,,,,,,,,,,,,moral_self_bias,29,19,59.9732899414,f,001,2018_Apr_02_2005,
,,,,,,,,,,,,,,,,,,,,,7*0= ?,,,,,,,,,,,,,,,,,,,,0,92,92,88,,,,,,,,,,,,,,,,,,,,,moral_self_bias,29,19,59.9732899414,f,001,2018_Apr_02_2005,
,,,,,,,,,,,,,,,,,,,,,8-1= ?,,,,,,,,,,,,,,,,,,,,0,93,93,33,,,,,,,,,,,,,,,,,,,,,moral_self_bias,29,19,59.9732899414,f,001,2018_Apr_02_2005,
,,,,,,,,,,,,,,,,,,,,,15-10=？,,,,,,,,,,,,,,,,,,,,0,94,94,61,,,,,,,,,,,,,,,,,,,,,moral_self_bias,29,19,59.9732899414,f,001,2018_Apr_02_2005,
,,,,,,,,,,,,,,,,,,,,,8-4= ?,,,,,,,,,,,,,,,,,,,,0,95,95,40,,,,,,,,,,,,,,,,,,,,,moral_self_bias,29,19,59.9732899414,f,001,2018_Apr_02_2005,
,,,,,,,,,,,,,,,,,,,,,18/2= ?,,,,,,,,,,,,,,,,,,,,0,96,96,97,,,,,,,,,,,,,,,,,,,,,moral_self_bias,29,19,59.9732899414,f,001,2018_Apr_02_2005,
,,,,,,,,,,,,,,,,,,,,,9+0= ?,,,,,,,,,,,,,,,,,,,,0,97,97,118,,,,,,,,,,,,,,,,,,,,,moral_self_bias,29,19,59.9732899414,f,001,2018_Apr_02_2005,
,,,,,,,,,,,,,,,,,,,,,50-42= ?,,,,,,,,,,,,,,,,,,,,0,98,98,81,,,,,,,,,,,,,,,,,,,,,moral_self_bias,29,19,59.9732899414,f,001,2018_Apr_02_2005,
,,,,,,,,,,,,,,,,,,,,,1-1= ?,,,,,,,,,,,,,,,,,,,,0,99,99,52,,,,,,,,,,,,,,,,,,,,,moral_self_bias,29,19,59.9732899414,f,001,2018_Apr_02_2005,
,,,,,,,,,,,,,,,,,,,,,32-23=？,,,,,,,,,,,,,,,,,,,,0,100,100,60,,,,,,,,,,,,,,,,,,,,,moral_self_bias,29,19,59.9732899414,f,001,2018_Apr_02_2005,
,,,,,,,,,,,,,,,,,,,,,72/9= ?,,,,,,,,,,,,,,,,,,,,0,101,101,76,,,,,,,,,,,,,,,,,,,,,moral_self_bias,29,19,59.9732899414,f,001,2018_Apr_02_2005,
,,,,,,,,,,,,,,,,,,,,,23^0= ?,,,,,,,,,,,,,,,,,,,,0,102,102,94,,,,,,,,,,,,,,,,,,,,,moral_self_bias,29,19,59.9732899414,f,001,2018_Apr_02_2005,
,,,,,,,,,,,,,,,,,,,,,8-5= ?,,,,,,,,,,,,,,,,,,,,0,103,103,41,,,,,,,,,,,,,,,,,,,,,moral_self_bias,29,19,59.9732899414,f,001,2018_Apr_02_2005,
,,,,,,,,,,,,,,,,,,,,,2*3= ?,,,,,,,,,,,,,,,,,,,,0,104,104,108,,,,,,,,,,,,,,,,,,,,,moral_self_bias,29,19,59.9732899414,f,001,2018_Apr_02_2005,
,,,,,,,,,,,,,,,,,,,,,2+2= ?,,,,,,,,,,,,,,,,,,,,0,105,105,8,,,,,,,,,,,,,,,,,,,,,moral_self_bias,29,19,59.9732899414,f,001,2018_Apr_02_2005,
,,,,,,,,,,,,,,,,,,,,,8/4= ?,,,,,,,,,,,,,,,,,,,,0,106,106,57,,,,,,,,,,,,,,,,,,,,,moral_self_bias,29,19,59.9732899414,f,001,2018_Apr_02_2005,
,,,,,,,,,,,,,,,,,,,,,4+1= ?,,,,,,,,,,,,,,,,,,,,0,107,107,25,,,,,,,,,,,,,,,,,,,,,moral_self_bias,29,19,59.9732899414,f,001,2018_Apr_02_2005,
,,,,,,,,,,,,,,,,,,,,,7+1= ?,,,,,,,,,,,,,,,,,,,,0,108,108,46,,,,,,,,,,,,,,,,,,,,,moral_self_bias,29,19,59.9732899414,f,001,2018_Apr_02_2005,
,,,,,,,,,,,,,,,,,,,,,10-5=？,,,,,,,,,,,,,,,,,,,,0,109,109,67,,,,,,,,,,,,,,,,,,,,,moral_self_bias,29,19,59.9732899414,f,001,2018_Apr_02_2005,
,,,,,,,,,,,,,,,,,,,,,49/7 = ?,,,,,,,,,,,,,,,,,,,,0,110,110,78,,,,,,,,,,,,,,,,,,,,,moral_self_bias,29,19,59.9732899414,f,001,2018_Apr_02_2005,
,,,,,,,,,,,,,,,,,,,,,8+1= ?,,,,,,,,,,,,,,,,,,,,0,111,111,48,,,,,,,,,,,,,,,,,,,,,moral_self_bias,29,19,59.9732899414,f,001,2018_Apr_02_2005,
,,,,,,,,,,,,,,,,,,,,,21/7= ?,,,,,,,,,,,,,,,,,,,,0,112,112,70,,,,,,,,,,,,,,,,,,,,,moral_self_bias,29,19,59.9732899414,f,001,2018_Apr_02_2005,
,,,,,,,,,,,,,,,,,,,,,2+7= ?,,,,,,,,,,,,,,,,,,,,0,113,113,13,,,,,,,,,,,,,,,,,,,,,moral_self_bias,29,19,59.9732899414,f,001,2018_Apr_02_2005,
,,,,,,,,,,,,,,,,,,,,,1+1= ?,,,,,,,,,,,,,,,,,,,,0,114,114,0,,,,,,,,,,,,,,,,,,,,,moral_self_bias,29,19,59.9732899414,f,001,2018_Apr_02_2005,
,,,,,,,,,,,,,,,,,,,,,9/3= ?,,,,,,,,,,,,,,,,,,,,0,115,115,56,,,,,,,,,,,,,,,,,,,,,moral_self_bias,29,19,59.9732899414,f,001,2018_Apr_02_2005,
,,,,,,,,,,,,,,,,,,,,,4/4= ?,,,,,,,,,,,,,,,,,,,,0,116,116,55,,,,,,,,,,,,,,,,,,,,,moral_self_bias,29,19,59.9732899414,f,001,2018_Apr_02_2005,
,,,,,,,,,,,,,,,,,,,,,6^0= ?,,,,,,,,,,,,,,,,,,,,0,117,117,114,,,,,,,,,,,,,,,,,,,,,moral_self_bias,29,19,59.9732899414,f,001,2018_Apr_02_2005,
,,,,,,,,,,,,,,,,,,,,,16-11=？,,,,,,,,,,,,,,,,,,,,0,118,118,62,,,,,,,,,,,,,,,,,,,,,moral_self_bias,29,19,59.9732899414,f,001,2018_Apr_02_2005,
,,,,,,,,,,,,,,,,,,,,,13-5= ?,,,,,,,,,,,,,,,,,,,,0,119,119,98,,,,,,,,,,,,,,,,,,,,,moral_self_bias,29,19,59.9732899414,f,001,2018_Apr_02_2005,
,,,,,,,,,,,,,,,,,,,,,,,,,,,,,,,,,,,,,,,,,,,,,,,,,,,,,,,,,2,3.40973210335,,,,,,,moral_self_bias,29,19,59.9732899414,f,001,2018_Apr_02_2005,
,,,,,,,,,,,,,,,,,,,,,,material/151.png,2,迷糊,material/51.png,2,material/151.png,糊涂,2,j,j,j,2,2,2,迷糊,,,,,,,,,0,0,0,50,0,0,0,0,,,,,,,f,0,8.48985815048,j,0,8.90794181824,moral_self_bias,29,19,59.9732899414,f,001,2018_Apr_02_2005,
,,,,,,,,,,,,,,,,,,,,,,material/151.png,2,迷糊,material/51.png,2,material/151.png,糊涂,2,j,j,j,2,2,2,迷糊,,,,,,,,,0,0,0,50,,,,,,,,,,,,,,,,,moral_self_bias,29,19,59.9732899414,f,001,2018_Apr_02_2005,
,,,,,,,,,,,,,,,,,,,,,,material/154.png,2,依靠,material/54.png,2,material/154.png,依赖,2,j,j,j,2,2,2,依靠,,,,,,,,,0,1,1,53,0,0,0,0,,,,,,,f,0,5.54217791557,f,1,1.92611789703,moral_self_bias,29,19,59.9732899414,f,001,2018_Apr_02_2005,
,,,,,,,,,,,,,,,,,,,,,,material/154.png,2,依靠,material/54.png,2,material/154.png,依赖,2,j,j,j,2,2,2,依靠,,,,,,,,,0,1,1,53,,,,,,,,,,,,,,,,,moral_self_bias,29,19,59.9732899414,f,001,2018_Apr_02_2005,
,,,,,,,,,,,,,,,,,,,,,,material/115.png,1,清白,material/15.png,1,material/15.png,清白,1,j,j,j,1,1,1,纯洁,,,,,,,,,0,2,2,14,0,0,0,0,,,,,,,f,0,5.9586148262,j,0,1.84155797958,moral_self_bias,29,19,59.9732899414,f,001,2018_Apr_02_2005,
,,,,,,,,,,,,,,,,,,,,,,material/115.png,1,清白,material/15.png,1,material/15.png,清白,1,j,j,j,1,1,1,纯洁,,,,,,,,,0,2,2,14,,,,,,,,,,,,,,,,,moral_self_bias,29,19,59.9732899414,f,001,2018_Apr_02_2005,
,,,,,,,,,,,,,,,,,,,,,,material/36.png,2,撒谎,material/136.png,2,material/136.png,撒谎,2,f,f,f,1,1,1,说谎,,,,,,,,,0,3,3,115,0,0,0,0,,,,,,,f,1,8.29139590263,f,1,2.25759601593,moral_self_bias,29,19,59.9732899414,f,001,2018_Apr_02_2005,
,,,,,,,,,,,,,,,,,,,,,,material/36.png,2,撒谎,material/136.png,2,material/136.png,撒谎,2,f,f,f,1,1,1,说谎,,,,,,,,,0,3,3,115,,,,,,,,,,,,,,,,,moral_self_bias,29,19,59.9732899414,f,001,2018_Apr_02_2005,
,,,,,,,,,,,,,,,,,,,,,,material/147.png,2,刻板,material/47.png,2,material/147.png,死板,2,j,j,j,2,2,2,刻板,,,,,,,,,0,4,4,46,0,0,0,0,,,,,,,f,0,3.04086995125,j,0,2.8580019474,moral_self_bias,29,19,59.9732899414,f,001,2018_Apr_02_2005,
,,,,,,,,,,,,,,,,,,,,,,material/147.png,2,刻板,material/47.png,2,material/147.png,死板,2,j,j,j,2,2,2,刻板,,,,,,,,,0,4,4,46,,,,,,,,,,,,,,,,,moral_self_bias,29,19,59.9732899414,f,001,2018_Apr_02_2005,
,,,,,,,,,,,,,,,,,,,,,,material/22.png,1,才学,material/122.png,1,material/22.png,博学,1,f,f,f,2,2,2,才学,,,,,,,,,0,5,5,101,0,0,0,0,,,,,,,f,1,2.45764303207,j,0,1.10842704773,moral_self_bias,29,19,59.9732899414,f,001,2018_Apr_02_2005,
,,,,,,,,,,,,,,,,,,,,,,material/22.png,1,才学,material/122.png,1,material/22.png,博学,1,f,f,f,2,2,2,才学,,,,,,,,,0,5,5,101,,,,,,,,,,,,,,,,,moral_self_bias,29,19,59.9732899414,f,001,2018_Apr_02_2005,
,,,,,,,,,,,,,,,,,,,,,,material/8.png,1,无私,material/108.png,1,material/108.png,无私,1,f,f,f,1,1,1,公道,,,,,,,,,0,6,6,87,0,0,0,0,,,,,,,f,1,1.92473101616,f,1,0.558315038681,moral_self_bias,29,19,59.9732899414,f,001,2018_Apr_02_2005,
,,,,,,,,,,,,,,,,,,,,,,material/8.png,1,无私,material/108.png,1,material/108.png,无私,1,f,f,f,1,1,1,公道,,,,,,,,,0,6,6,87,,,,,,,,,,,,,,,,,moral_self_bias,29,19,59.9732899414,f,001,2018_Apr_02_2005,
,,,,,,,,,,,,,,,,,,,,,,material/46.png,2,自私,material/146.png,2,material/146.png,自私,2,f,f,f,1,1,1,小气,,,,,,,,,0,7,7,125,0,0,0,0,,,,,,,f,1,2.0413749218,f,1,1.20755887032,moral_self_bias,29,19,59.9732899414,f,001,2018_Apr_02_2005,
,,,,,,,,,,,,,,,,,,,,,,material/46.png,2,自私,material/146.png,2,material/146.png,自私,2,f,f,f,1,1,1,小气,,,,,,,,,0,7,7,125,,,,,,,,,,,,,,,,,moral_self_bias,29,19,59.9732899414,f,001,2018_Apr_02_2005,
,,,,,,,,,,,,,,,,,,,,,,material/75.png,2,卑劣,material/74.png,2,material/74.png,卑劣,2,j,j,j,1,1,1,害人,,,,,,,,,0,8,8,70,,,,,,,,,,,j,1,2.74008893967,,,,moral_self_bias,29,19,59.9732899414,f,001,2018_Apr_02_2005,
,,,,,,,,,,,,,,,,,,,,,,material/45.png,2,小人,material/145.png,2,material/145.png,小人,2,f,f,f,1,1,1,下流,,,,,,,,,0,9,9,124,,,,,,,,,,,j,0,1.38403105736,,,,moral_self_bias,29,19,59.9732899414,f,001,2018_Apr_02_2005,
,,,,,,,,,,,,,,,,,,,,,,material/177.png,2,谄媚,material/72.png,2,material/72.png,谄媚,2,j,j,j,1,1,1,恶心,,,,,,,,,0,10,10,69,,,,,,,,,,,j,1,1.12492513657,,,,moral_self_bias,29,19,59.9732899414,f,001,2018_Apr_02_2005,
,,,,,,,,,,,,,,,,,,,,,,material/6.png,1,厚道,material/106.png,1,material/106.png,厚道,1,f,f,f,1,1,1,诚实,,,,,,,,,0,11,11,85,,,,,,,,,,,j,0,1.39200401306,,,,moral_self_bias,29,19,59.9732899414,f,001,2018_Apr_02_2005,
,,,,,,,,,,,,,,,,,,,,,,material/79.png,2,薄弱,material/81.png,2,material/183.png,无助,2,j,j,j,2,2,2,颓废,,,,,,,,,0,12,12,77,0,0,0,0,,,,,,,f,0,2.95726299286,j,0,0.424376964569,moral_self_bias,29,19,59.9732899414,f,001,2018_Apr_02_2005,
,,,,,,,,,,,,,,,,,,,,,,material/79.png,2,薄弱,material/81.png,2,material/183.png,无助,2,j,j,j,2,2,2,颓废,,,,,,,,,0,12,12,77,,,,,,,,,,,,,,,,,moral_self_bias,29,19,59.9732899414,f,001,2018_Apr_02_2005,
,,,,,,,,,,,,,,,,,,,,,,material/139.png,2,凶残,material/39.png,2,material/39.png,凶残,2,j,j,j,1,1,1,恶毒,,,,,,,,,0,13,13,38,0,0,0,0,,,,,,,f,0,4.20835590363,j,0,3.28427600861,moral_self_bias,29,19,59.9732899414,f,001,2018_Apr_02_2005,
,,,,,,,,,,,,,,,,,,,,,,material/139.png,2,凶残,material/39.png,2,material/39.png,凶残,2,j,j,j,1,1,1,恶毒,,,,,,,,,0,13,13,38,,,,,,,,,,,,,,,,,moral_self_bias,29,19,59.9732899414,f,001,2018_Apr_02_2005,
,,,,,,,,,,,,,,,,,,,,,,material/179.png,2,顽愚,material/178.png,2,material/84.png,毛糙,2,f,f,f,2,2,2,差生,,,,,,,,,0,14,14,157,,,,,,,,,,,j,0,1.59192204475,,,,moral_self_bias,29,19,59.9732899414,f,001,2018_Apr_02_2005,
,,,,,,,,,,,,,,,,,,,,,,material/138.png,2,无德,material/38.png,2,material/38.png,无德,2,j,j,j,1,1,1,缺德,,,,,,,,,0,15,15,37,,,,,,,,,,,j,1,1.34187912941,,,,moral_self_bias,29,19,59.9732899414,f,001,2018_Apr_02_2005,
,,,,,,,,,,,,,,,,,,,,,,material/131.png,1,笃行,material/31.png,1,material/131.png,笃学,1,j,j,j,2,2,2,笃行,,,,,,,,,0,16,16,30,0,0,0,0,,,,,,,f,0,1.45648217201,f,1,0.341462135315,moral_self_bias,29,19,59.9732899414,f,001,2018_Apr_02_2005,
,,,,,,,,,,,,,,,,,,,,,,material/131.png,1,笃行,material/31.png,1,material/131.png,笃学,1,j,j,j,2,2,2,笃行,,,,,,,,,0,16,16,30,,,,,,,,,,,,,,,,,moral_self_bias,29,19,59.9732899414,f,001,2018_Apr_02_2005,
,,,,,,,,,,,,,,,,,,,,,,material/129.png,1,好问,material/29.png,1,material/129.png,好学,1,j,j,j,2,2,2,好问,,,,,,,,,0,17,17,28,0,0,0,0,,,,,,,f,0,1.94118285179,f,1,0.892462015152,moral_self_bias,29,19,59.9732899414,f,001,2018_Apr_02_2005,
,,,,,,,,,,,,,,,,,,,,,,material/129.png,1,好问,material/29.png,1,material/129.png,好学,1,j,j,j,2,2,2,好问,,,,,,,,,0,17,17,28,,,,,,,,,,,,,,,,,moral_self_bias,29,19,59.9732899414,f,001,2018_Apr_02_2005,
,,,,,,,,,,,,,,,,,,,,,,material/180.png,2,无助,material/79.png,2,material/81.png,颓废,2,j,j,j,2,2,2,怠惰,,,,,,,,,0,18,18,75,,,,,,,,,,,j,1,4.26736187935,,,,moral_self_bias,29,19,59.9732899414,f,001,2018_Apr_02_2005,
,,,,,,,,,,,,,,,,,,,,,,material/183.png,2,颓废,material/182.png,2,material/79.png,才尽,2,f,f,f,2,2,2,薄弱,,,,,,,,,0,19,19,161,0,0,0,0,,,,,,,f,1,1.59998297691,f,1,0.807749032974,moral_self_bias,29,19,59.9732899414,f,001,2018_Apr_02_2005,
,,,,,,,,,,,,,,,,,,,,,,material/183.png,2,颓废,material/182.png,2,material/79.png,才尽,2,f,f,f,2,2,2,薄弱,,,,,,,,,0,19,19,161,,,,,,,,,,,,,,,,,moral_self_bias,29,19,59.9732899414,f,001,2018_Apr_02_2005,
,,,,,,,,,,,,,,,,,,,,,,material/157.png,2,无能,material/57.png,2,material/157.png,无知,2,j,j,j,2,2,2,无能,,,,,,,,,0,20,20,56,0,0,0,0,,,,,,,f,0,1.64006090164,j,0,0.65789103508,moral_self_bias,29,19,59.9732899414,f,001,2018_Apr_02_2005,
,,,,,,,,,,,,,,,,,,,,,,material/157.png,2,无能,material/57.png,2,material/157.png,无知,2,j,j,j,2,2,2,无能,,,,,,,,,0,20,20,56,,,,,,,,,,,,,,,,,moral_self_bias,29,19,59.9732899414,f,001,2018_Apr_02_2005,
,,,,,,,,,,,,,,,,,,,,,,material/178.png,2,窝囊,material/82.png,2,material/82.png,窝囊,2,j,j,j,2,2,2,毛糙,,,,,,,,,0,21,21,78,,,,,,,,,,,j,1,1.24162602425,,,,moral_self_bias,29,19,59.9732899414,f,001,2018_Apr_02_2005,
,,,,,,,,,,,,,,,,,,,,,,material/171.png,1,高效,material/67.png,1,material/171.png,骁勇,1,j,j,j,2,2,2,高效,,,,,,,,,0,22,22,65,,,,,,,,,,,j,1,1.41717386246,,,,moral_self_bias,29,19,59.9732899414,f,001,2018_Apr_02_2005,
,,,,,,,,,,,,,,,,,,,,,,material/41.png,2,残忍,material/141.png,2,material/141.png,残忍,2,f,f,f,1,1,1,歹毒,,,,,,,,,0,23,23,120,0,0,0,0,,,,,,,f,1,1.87407803535,f,1,0.389978885651,moral_self_bias,29,19,59.9732899414,f,001,2018_Apr_02_2005,
,,,,,,,,,,,,,,,,,,,,,,material/41.png,2,残忍,material/141.png,2,material/141.png,残忍,2,f,f,f,1,1,1,歹毒,,,,,,,,,0,23,23,120,,,,,,,,,,,,,,,,,moral_self_bias,29,19,59.9732899414,f,001,2018_Apr_02_2005,
,,,,,,,,,,,,,,,,,,,,,,material/42.png,2,奸诈,material/142.png,2,material/142.png,奸诈,2,f,f,f,1,1,1,阴险,,,,,,,,,0,24,24,121,,,,,,,,,,,j,0,0.924613952637,,,,moral_self_bias,29,19,59.9732899414,f,001,2018_Apr_02_2005,
,,,,,,,,,,,,,,,,,,,,,,material/125.png,1,果敢,material/25.png,1,material/125.png,果断,1,j,j,j,2,2,2,果敢,,,,,,,,,0,25,25,24,,,,,,,,,,,j,1,0.607693195343,,,,moral_self_bias,29,19,59.9732899414,f,001,2018_Apr_02_2005,
,,,,,,,,,,,,,,,,,,,,,,material/49.png,2,痴呆,material/149.png,2,material/49.png,白痴,2,f,f,f,2,2,2,痴呆,,,,,,,,,0,26,26,128,0,0,0,0,,,,,,,f,1,2.14118504524,f,1,0.407957792282,moral_self_bias,29,19,59.9732899414,f,001,2018_Apr_02_2005,
,,,,,,,,,,,,,,,,,,,,,,material/49.png,2,痴呆,material/149.png,2,material/49.png,白痴,2,f,f,f,2,2,2,痴呆,,,,,,,,,0,26,26,128,,,,,,,,,,,,,,,,,moral_self_bias,29,19,59.9732899414,f,001,2018_Apr_02_2005,
,,,,,,,,,,,,,,,,,,,,,,material/161.png,1,奉献,material/164.png,1,material/64.png,孝顺,1,f,f,f,1,1,1,勇敢,,,,,,,,,0,27,27,143,,,,,,,,,,,j,0,0.757653236389,,,,moral_self_bias,29,19,59.9732899414,f,001,2018_Apr_02_2005,
,,,,,,,,,,,,,,,,,,,,,,material/70.png,1,全面,material/168.png,1,material/70.png,机变,1,f,f,f,2,2,2,全面,,,,,,,,,0,28,28,147,,,,,,,,,,,j,0,1.04065084457,,,,moral_self_bias,29,19,59.9732899414,f,001,2018_Apr_02_2005,
,,,,,,,,,,,,,,,,,,,,,,material/146.png,2,小气,material/46.png,2,material/46.png,小气,2,j,j,j,1,1,1,自私,,,,,,,,,0,29,29,45,0,0,0,0,,,,,,,f,0,1.43382978439,j,0,0.341295003891,moral_self_bias,29,19,59.9732899414,f,001,2018_Apr_02_2005,
,,,,,,,,,,,,,,,,,,,,,,material/146.png,2,小气,material/46.png,2,material/46.png,小气,2,j,j,j,1,1,1,自私,,,,,,,,,0,29,29,45,,,,,,,,,,,,,,,,,moral_self_bias,29,19,59.9732899414,f,001,2018_Apr_02_2005,
,,,,,,,,,,,,,,,,,,,,,,material/156.png,2,愚钝,material/56.png,2,material/156.png,愚昧,2,j,j,j,2,2,2,愚钝,,,,,,,,,0,30,30,55,0,0,0,0,,,,,,,f,0,2.64103102684,j,0,0.407647848129,moral_self_bias,29,19,59.9732899414,f,001,2018_Apr_02_2005,
,,,,,,,,,,,,,,,,,,,,,,material/156.png,2,愚钝,material/56.png,2,material/156.png,愚昧,2,j,j,j,2,2,2,愚钝,,,,,,,,,0,30,30,55,,,,,,,,,,,,,,,,,moral_self_bias,29,19,59.9732899414,f,001,2018_Apr_02_2005,
,,,,,,,,,,,,,,,,,,,,,,material/15.png,1,纯洁,material/115.png,1,material/115.png,纯洁,1,f,f,f,1,1,1,清白,,,,,,,,,0,31,31,94,,,,,,,,,,,j,0,1.97436594963,,,,moral_self_bias,29,19,59.9732899414,f,001,2018_Apr_02_2005,
,,,,,,,,,,,,,,,,,,,,,,material/57.png,2,无知,material/157.png,2,material/57.png,无能,2,f,f,f,2,2,2,无知,,,,,,,,,0,32,32,136,,,,,,,,,,,j,0,1.90813612938,,,,moral_self_bias,29,19,59.9732899414,f,001,2018_Apr_02_2005,
,,,,,,,,,,,,,,,,,,,,,,material/27.png,1,卓越,material/127.png,1,material/27.png,超群,1,f,f,f,2,2,2,卓越,,,,,,,,,0,33,33,106,,,,,,,,,,,j,0,0.634191036224,,,,moral_self_bias,29,19,59.9732899414,f,001,2018_Apr_02_2005,
,,,,,,,,,,,,,,,,,,,,,,material/141.png,2,歹毒,material/41.png,2,material/41.png,歹毒,2,j,j,j,1,1,1,残忍,,,,,,,,,0,34,34,40,0,0,0,0,,,,,,,f,0,1.21712493896,j,0,1.34139800072,moral_self_bias,29,19,59.9732899414,f,001,2018_Apr_02_2005,
,,,,,,,,,,,,,,,,,,,,,,material/141.png,2,歹毒,material/41.png,2,material/41.png,歹毒,2,j,j,j,1,1,1,残忍,,,,,,,,,0,34,34,40,,,,,,,,,,,,,,,,,moral_self_bias,29,19,59.9732899414,f,001,2018_Apr_02_2005,
,,,,,,,,,,,,,,,,,,,,,,material/1.png,1,博爱,material/101.png,1,material/101.png,博爱,1,f,f,f,1,1,1,善良,,,,,,,,,0,35,35,80,,,,,,,,,,,j,0,3.72412395477,,,,moral_self_bias,29,19,59.9732899414,f,001,2018_Apr_02_2005,
,,,,,,,,,,,,,,,,,,,,,,material/181.png,2,怠惰,material/180.png,2,material/180.png,怠惰,2,f,f,f,2,2,2,犹豫,,,,,,,,,0,36,36,159,,,,,,,,,,,j,0,0.725004911423,,,,moral_self_bias,29,19,59.9732899414,f,001,2018_Apr_02_2005,
,,,,,,,,,,,,,,,,,,,,,,material/19.png,1,灵活,material/119.png,1,material/19.png,机灵,1,f,f,f,2,2,2,灵活,,,,,,,,,0,37,37,98,,,,,,,,,,,j,0,0.724222898483,,,,moral_self_bias,29,19,59.9732899414,f,001,2018_Apr_02_2005,
,,,,,,,,,,,,,,,,,,,,,,material/51.png,2,糊涂,material/151.png,2,material/51.png,迷糊,2,f,f,f,2,2,2,糊涂,,,,,,,,,0,38,38,130,,,,,,,,,,,j,0,0.790988922119,,,,moral_self_bias,29,19,59.9732899414,f,001,2018_Apr_02_2005,
,,,,,,,,,,,,,,,,,,,,,,material/175.png,2,残虐,material/73.png,2,material/73.png,残虐,2,f,f,f,1,1,1,无情,,,,,,,,,0,39,39,165,0,0,0,0,,,,,,,f,1,1.44226503372,f,1,0.274879932404,moral_self_bias,29,19,59.9732899414,f,001,2018_Apr_02_2005,
,,,,,,,,,,,,,,,,,,,,,,material/175.png,2,残虐,material/73.png,2,material/73.png,残虐,2,f,f,f,1,1,1,无情,,,,,,,,,0,39,39,165,,,,,,,,,,,,,,,,,moral_self_bias,29,19,59.9732899414,f,001,2018_Apr_02_2005,
,,,,,,,,,,,,,,,,,,,,,,material/30.png,1,上进,material/130.png,1,material/30.png,进取,1,f,f,f,2,2,2,上进,,,,,,,,,0,40,40,109,,,,,,,,,,,j,0,0.691611051559,,,,moral_self_bias,29,19,59.9732899414,f,001,2018_Apr_02_2005,
,,,,,,,,,,,,,,,,,,,,,,material/124.png,1,冷静,material/24.png,1,material/124.png,理智,1,j,j,j,2,2,2,冷静,,,,,,,,,0,41,41,23,,,,,,,,,,,j,1,0.80820608139,,,,moral_self_bias,29,19,59.9732899414,f,001,2018_Apr_02_2005,
,,,,,,,,,,,,,,,,,,,,,,material/53.png,2,迟缓,material/153.png,2,material/53.png,迟钝,2,f,f,f,2,2,2,迟缓,,,,,,,,,0,42,42,132,,,,,,,,,,,j,0,0.824331998825,,,,moral_self_bias,29,19,59.9732899414,f,001,2018_Apr_02_2005,
,,,,,,,,,,,,,,,,,,,,,,material/169.png,1,颖悟,material/171.png,1,material/169.png,高效,1,f,f,f,2,2,2,颖悟,,,,,,,,,0,43,43,150,,,,,,,,,,,j,0,0.71586894989,,,,moral_self_bias,29,19,59.9732899414,f,001,2018_Apr_02_2005,
,,,,,,,,,,,,,,,,,,,,,,material/69.png,1,高明,material/69.png,1,material/69.png,高明,1,f,f,f,2,2,2,高明,,,,,,,,,0,44,44,166,,,,,,,,,,,j,0,0.799659967422,,,,moral_self_bias,29,19,59.9732899414,f,001,2018_Apr_02_2005,
,,,,,,,,,,,,,,,,,,,,,,material/135.png,2,冷漠,material/35.png,2,material/35.png,冷漠,2,j,j,j,1,1,1,冷血,,,,,,,,,0,45,45,34,0,0,0,0,,,,,,,f,0,1.0746281147,f,1,0.325468063354,moral_self_bias,29,19,59.9732899414,f,001,2018_Apr_02_2005,
,,,,,,,,,,,,,,,,,,,,,,material/135.png,2,冷漠,material/35.png,2,material/35.png,冷漠,2,j,j,j,1,1,1,冷血,,,,,,,,,0,45,45,34,,,,,,,,,,,,,,,,,moral_self_bias,29,19,59.9732899414,f,001,2018_Apr_02_2005,
,,,,,,,,,,,,,,,,,,,,,,material/132.png,2,不忠,material/32.png,2,material/32.png,不忠,2,j,j,j,1,1,1,背叛,,,,,,,,,0,46,46,31,0,0,0,0,,,,,,,f,0,4.45828700066,j,0,0.358815908432,moral_self_bias,29,19,59.9732899414,f,001,2018_Apr_02_2005,
,,,,,,,,,,,,,,,,,,,,,,material/132.png,2,不忠,material/32.png,2,material/32.png,不忠,2,j,j,j,1,1,1,背叛,,,,,,,,,0,46,46,31,,,,,,,,,,,,,,,,,moral_self_bias,29,19,59.9732899414,f,001,2018_Apr_02_2005,
,,,,,,,,,,,,,,,,,,,,,,material/20.png,1,厉害,material/120.png,1,material/20.png,能干,1,f,f,f,2,2,2,厉害,,,,,,,,,0,47,47,99,,,,,,,,,,,j,0,1.77451515198,,,,moral_self_bias,29,19,59.9732899414,f,001,2018_Apr_02_2005,
,,,,,,,,,,,,,,,,,,,,,,material/77.png,2,浮夸,material/172.png,2,material/172.png,浮夸,2,f,f,f,1,1,1,软弱,,,,,,,,,0,48,48,151,,,,,,,,,,,j,0,1.27458500862,,,,moral_self_bias,29,19,59.9732899414,f,001,2018_Apr_02_2005,
,,,,,,,,,,,,,,,,,,,,,,material/152.png,2,缓慢,material/52.png,2,material/152.png,拖延,2,j,j,j,2,2,2,缓慢,,,,,,,,,0,49,49,51,0,0,0,0,,,,,,,f,0,1.40814685822,f,1,0.349718093872,moral_self_bias,29,19,59.9732899414,f,001,2018_Apr_02_2005,
,,,,,,,,,,,,,,,,,,,,,,material/152.png,2,缓慢,material/52.png,2,material/152.png,拖延,2,j,j,j,2,2,2,缓慢,,,,,,,,,0,49,49,51,,,,,,,,,,,,,,,,,moral_self_bias,29,19,59.9732899414,f,001,2018_Apr_02_2005,
,,,,,,,,,,,,,,,,,,,,,,material/106.png,1,诚实,material/6.png,1,material/6.png,诚实,1,j,j,j,1,1,1,厚道,,,,,,,,,0,50,50,5,,,,,,,,,,,j,1,1.2912299633,,,,moral_self_bias,29,19,59.9732899414,f,001,2018_Apr_02_2005,
,,,,,,,,,,,,,,,,,,,,,,material/38.png,2,缺德,material/138.png,2,material/138.png,缺德,2,f,f,f,1,1,1,无德,,,,,,,,,0,51,51,117,0,0,0,0,,,,,,,f,1,2.89178299904,j,0,0.32501912117,moral_self_bias,29,19,59.9732899414,f,001,2018_Apr_02_2005,
,,,,,,,,,,,,,,,,,,,,,,material/38.png,2,缺德,material/138.png,2,material/138.png,缺德,2,f,f,f,1,1,1,无德,,,,,,,,,0,51,51,117,,,,,,,,,,,,,,,,,moral_self_bias,29,19,59.9732899414,f,001,2018_Apr_02_2005,
,,,,,,,,,,,,,,,,,,,,,,material/107.png,1,公正,material/7.png,1,material/7.png,公正,1,j,j,j,1,1,1,公平,,,,,,,,,0,52,52,6,,,,,,,,,,,j,1,1.92448091507,,,,moral_self_bias,29,19,59.9732899414,f,001,2018_Apr_02_2005,
,,,,,,,,,,,,,,,,,,,,,,material/164.png,1,宽容,material/63.png,1,material/163.png,文明,1,j,j,j,1,1,1,孝顺,,,,,,,,,0,53,53,62,0,0,0,0,,,,,,,f,0,1.10728812218,f,1,0.32535815239,moral_self_bias,29,19,59.9732899414,f,001,2018_Apr_02_2005,
,,,,,,,,,,,,,,,,,,,,,,material/164.png,1,宽容,material/63.png,1,material/163.png,文明,1,j,j,j,1,1,1,孝顺,,,,,,,,,0,53,53,62,,,,,,,,,,,,,,,,,moral_self_bias,29,19,59.9732899414,f,001,2018_Apr_02_2005,
,,,,,,,,,,,,,,,,,,,,,,material/34.png,2,可恶,material/134.png,2,material/134.png,可恶,2,f,f,f,1,1,1,可恨,,,,,,,,,0,54,54,113,0,0,0,0,,,,,,,f,1,2.00753712654,j,0,0.708227157593,moral_self_bias,29,19,59.9732899414,f,001,2018_Apr_02_2005,
,,,,,,,,,,,,,,,,,,,,,,material/34.png,2,可恶,material/134.png,2,material/134.png,可恶,2,f,f,f,1,1,1,可恨,,,,,,,,,0,54,54,113,,,,,,,,,,,,,,,,,moral_self_bias,29,19,59.9732899414,f,001,2018_Apr_02_2005,
,,,,,,,,,,,,,,,,,,,,,,material/101.png,1,善良,material/1.png,1,material/1.png,善良,1,j,j,j,1,1,1,博爱,,,,,,,,,0,55,55,0,0,0,0,0,,,,,,,f,0,0.975497961044,f,1,0.300830841064,moral_self_bias,29,19,59.9732899414,f,001,2018_Apr_02_2005,
,,,,,,,,,,,,,,,,,,,,,,material/101.png,1,善良,material/1.png,1,material/1.png,善良,1,j,j,j,1,1,1,博爱,,,,,,,,,0,55,55,0,,,,,,,,,,,,,,,,,moral_self_bias,29,19,59.9732899414,f,001,2018_Apr_02_2005,
,,,,,,,,,,,,,,,,,,,,,,material/84.png,2,犹豫,material/84.png,2,material/181.png,顽愚,2,f,f,f,2,2,2,顽愚,,,,,,,,,0,56,56,167,,,,,,,,,,,j,0,1.94067788124,,,,moral_self_bias,29,19,59.9732899414,f,001,2018_Apr_02_2005,
,,,,,,,,,,,,,,,,,,,,,,material/102.png,1,善心,material/2.png,1,material/2.png,善心,1,j,j,j,1,1,1,爱心,,,,,,,,,0,57,57,1,0,0,0,0,,,,,,,f,0,2.99116396904,f,1,0.658495903015,moral_self_bias,29,19,59.9732899414,f,001,2018_Apr_02_2005,
,,,,,,,,,,,,,,,,,,,,,,material/102.png,1,善心,material/2.png,1,material/2.png,善心,1,j,j,j,1,1,1,爱心,,,,,,,,,0,57,57,1,,,,,,,,,,,,,,,,,moral_self_bias,29,19,59.9732899414,f,001,2018_Apr_02_2005,
,,,,,,,,,,,,,,,,,,,,,,material/143.png,2,拜金,material/43.png,2,material/43.png,拜金,2,j,j,j,1,1,1,虚荣,,,,,,,,,0,58,58,42,0,0,0,0,,,,,,,f,0,0.741605997086,f,1,0.357564926147,moral_self_bias,29,19,59.9732899414,f,001,2018_Apr_02_2005,
,,,,,,,,,,,,,,,,,,,,,,material/143.png,2,拜金,material/43.png,2,material/43.png,拜金,2,j,j,j,1,1,1,虚荣,,,,,,,,,0,58,58,42,,,,,,,,,,,,,,,,,moral_self_bias,29,19,59.9732899414,f,001,2018_Apr_02_2005,
,,,,,,,,,,,,,,,,,,,,,,material/23.png,1,有才,material/123.png,1,material/23.png,多才,1,f,f,f,2,2,2,有才,,,,,,,,,0,59,59,102,,,,,,,,,,,j,0,1.60716199875,,,,moral_self_bias,29,19,59.9732899414,f,001,2018_Apr_02_2005,
,,,,,,,,,,,,,,,,,,,,,,material/76.png,2,放纵,material/176.png,2,material/176.png,放纵,2,f,f,f,1,1,1,虚伪,,,,,,,,,0,60,60,155,,,,,,,,,,,j,0,1.81697106361,,,,moral_self_bias,29,19,59.9732899414,f,001,2018_Apr_02_2005,
,,,,,,,,,,,,,,,,,,,,,,material/2.png,1,爱心,material/102.png,1,material/102.png,爱心,1,f,f,f,1,1,1,善心,,,,,,,,,0,61,61,81,,,,,,,,,,,j,0,0.990442037582,,,,moral_self_bias,29,19,59.9732899414,f,001,2018_Apr_02_2005,
,,,,,,,,,,,,,,,,,,,,,,material/172.png,2,无情,material/175.png,2,material/175.png,无情,2,f,f,f,1,1,1,浮夸,,,,,,,,,0,62,62,154,,,,,,,,,,,j,0,1.7078127861,,,,moral_self_bias,29,19,59.9732899414,f,001,2018_Apr_02_2005,
,,,,,,,,,,,,,,,,,,,,,,material/33.png,2,贪污,material/133.png,2,material/133.png,贪污,2,f,f,f,1,1,1,腐败,,,,,,,,,0,63,63,112,,,,,,,,,,,j,0,0.691726922989,,,,moral_self_bias,29,19,59.9732899414,f,001,2018_Apr_02_2005,
,,,,,,,,,,,,,,,,,,,,,,material/21.png,1,干练,material/121.png,1,material/21.png,精干,1,f,f,f,2,2,2,干练,,,,,,,,,0,64,64,100,,,,,,,,,,,j,0,0.724442958832,,,,moral_self_bias,29,19,59.9732899414,f,001,2018_Apr_02_2005,
,,,,,,,,,,,,,,,,,,,,,,material/160.png,2,笨拙,material/60.png,2,material/160.png,粗拙,2,j,j,j,2,2,2,笨拙,,,,,,,,,0,65,65,59,,,,,,,,,,,j,1,0.758321046829,,,,moral_self_bias,29,19,59.9732899414,f,001,2018_Apr_02_2005,
,,,,,,,,,,,,,,,,,,,,,,material/116.png,1,机智,material/16.png,1,material/116.png,睿智,1,j,j,j,2,2,2,机智,,,,,,,,,0,66,66,15,,,,,,,,,,,j,1,0.624560832977,,,,moral_self_bias,29,19,59.9732899414,f,001,2018_Apr_02_2005,
,,,,,,,,,,,,,,,,,,,,,,material/82.png,2,毛糙,material/183.png,2,material/178.png,薄弱,2,f,f,f,2,2,2,窝囊,,,,,,,,,0,67,67,162,0,0,0,0,,,,,,,f,1,1.54117488861,j,0,0.392213106155,moral_self_bias,29,19,59.9732899414,f,001,2018_Apr_02_2005,
,,,,,,,,,,,,,,,,,,,,,,material/82.png,2,毛糙,material/183.png,2,material/178.png,薄弱,2,f,f,f,2,2,2,窝囊,,,,,,,,,0,67,67,162,,,,,,,,,,,,,,,,,moral_self_bias,29,19,59.9732899414,f,001,2018_Apr_02_2005,
,,,,,,,,,,,,,,,,,,,,,,material/17.png,1,聪明,material/117.png,1,material/17.png,聪颖,1,f,f,f,2,2,2,聪明,,,,,,,,,0,68,68,96,0,0,0,0,,,,,,,f,1,1.54142785072,j,0,0.25812792778,moral_self_bias,29,19,59.9732899414,f,001,2018_Apr_02_2005,
,,,,,,,,,,,,,,,,,,,,,,material/17.png,1,聪明,material/117.png,1,material/17.png,聪颖,1,f,f,f,2,2,2,聪明,,,,,,,,,0,68,68,96,,,,,,,,,,,,,,,,,moral_self_bias,29,19,59.9732899414,f,001,2018_Apr_02_2005,
,,,,,,,,,,,,,,,,,,,,,,material/173.png,2,不义,material/174.png,2,material/174.png,不义,2,f,f,f,1,1,1,黑心,,,,,,,,,0,69,69,153,,,,,,,,,,,j,0,0.740215063095,,,,moral_self_bias,29,19,59.9732899414,f,001,2018_Apr_02_2005,
,,,,,,,,,,,,,,,,,,,,,,material/119.png,1,机灵,material/19.png,1,material/119.png,灵活,1,j,j,j,2,2,2,机灵,,,,,,,,,0,70,70,18,,,,,,,,,,,j,1,0.741536140442,,,,moral_self_bias,29,19,59.9732899414,f,001,2018_Apr_02_2005,
,,,,,,,,,,,,,,,,,,,,,,material/134.png,2,可恨,material/34.png,2,material/34.png,可恨,2,j,j,j,1,1,1,可恶,,,,,,,,,0,71,71,33,,,,,,,,,,,j,1,0.674320936203,,,,moral_self_bias,29,19,59.9732899414,f,001,2018_Apr_02_2005,
,,,,,,,,,,,,,,,,,,,,,,material/55.png,2,盲从,material/155.png,2,material/55.png,盲目,2,f,f,f,2,2,2,盲从,,,,,,,,,0,72,72,134,,,,,,,,,,,j,0,0.64151597023,,,,moral_self_bias,29,19,59.9732899414,f,001,2018_Apr_02_2005,
,,,,,,,,,,,,,,,,,,,,,,material/112.png,1,忠诚,material/12.png,1,material/12.png,忠诚,1,j,j,j,1,1,1,忠心,,,,,,,,,0,73,73,11,0,0,0,0,,,,,,,f,0,2.5419459343,f,1,1.75823688507,moral_self_bias,29,19,59.9732899414,f,001,2018_Apr_02_2005,
,,,,,,,,,,,,,,,,,,,,,,material/112.png,1,忠诚,material/12.png,1,material/12.png,忠诚,1,j,j,j,1,1,1,忠心,,,,,,,,,0,73,73,11,,,,,,,,,,,,,,,,,moral_self_bias,29,19,59.9732899414,f,001,2018_Apr_02_2005,
,,,,,,,,,,,,,,,,,,,,,,material/133.png,2,腐败,material/33.png,2,material/33.png,腐败,2,j,j,j,1,1,1,贪污,,,,,,,,,0,74,74,32,0,0,0,0,,,,,,,f,0,3.02414608002,j,0,0.39182806015,moral_self_bias,29,19,59.9732899414,f,001,2018_Apr_02_2005,
,,,,,,,,,,,,,,,,,,,,,,material/133.png,2,腐败,material/33.png,2,material/33.png,腐败,2,j,j,j,1,1,1,贪污,,,,,,,,,0,74,74,32,,,,,,,,,,,,,,,,,moral_self_bias,29,19,59.9732899414,f,001,2018_Apr_02_2005,
,,,,,,,,,,,,,,,,,,,,,,material/35.png,2,冷血,material/135.png,2,material/135.png,冷血,2,f,f,f,1,1,1,冷漠,,,,,,,,,0,75,75,114,,,,,,,,,,,j,0,1.02438282967,,,,moral_self_bias,29,19,59.9732899414,f,001,2018_Apr_02_2005,
,,,,,,,,,,,,,,,,,,,,,,material/128.png,1,自律,material/28.png,1,material/128.png,克己,1,j,j,j,2,2,2,自律,,,,,,,,,0,76,76,27,,,,,,,,,,,j,1,0.583073139191,,,,moral_self_bias,29,19,59.9732899414,f,001,2018_Apr_02_2005,
,,,,,,,,,,,,,,,,,,,,,,material/182.png,2,健忘,material/184.png,2,material/80.png,厌学,2,f,f,f,2,2,2,才尽,,,,,,,,,0,77,77,163,,,,,,,,,,,j,0,0.625443935394,,,,moral_self_bias,29,19,59.9732899414,f,001,2018_Apr_02_2005,
,,,,,,,,,,,,,,,,,,,,,,material/5.png,1,诚信,material/105.png,1,material/105.png,诚信,1,f,f,f,1,1,1,守信,,,,,,,,,0,78,78,84,0,0,0,0,,,,,,,f,1,1.15803599358,f,1,0.442101955414,moral_self_bias,29,19,59.9732899414,f,001,2018_Apr_02_2005,
,,,,,,,,,,,,,,,,,,,,,,material/5.png,1,诚信,material/105.png,1,material/105.png,诚信,1,f,f,f,1,1,1,守信,,,,,,,,,0,78,78,84,,,,,,,,,,,,,,,,,moral_self_bias,29,19,59.9732899414,f,001,2018_Apr_02_2005,
,,,,,,,,,,,,,,,,,,,,,,material/113.png,1,廉洁,material/13.png,1,material/13.png,廉洁,1,j,j,j,1,1,1,廉明,,,,,,,,,0,79,79,12,,,,,,,,,,,j,1,1.54173707962,,,,moral_self_bias,29,19,59.9732899414,f,001,2018_Apr_02_2005,
,,,,,,,,,,,,,,,,,,,,,,material/120.png,1,能干,material/20.png,1,material/120.png,厉害,1,j,j,j,2,2,2,能干,,,,,,,,,0,80,80,19,,,,,,,,,,,j,1,0.741276979446,,,,moral_self_bias,29,19,59.9732899414,f,001,2018_Apr_02_2005,
,,,,,,,,,,,,,,,,,,,,,,material/10.png,1,坚毅,material/110.png,1,material/110.png,坚毅,1,f,f,f,1,1,1,顽强,,,,,,,,,0,81,81,89,,,,,,,,,,,j,0,0.533809185028,,,,moral_self_bias,29,19,59.9732899414,f,001,2018_Apr_02_2005,
,,,,,,,,,,,,,,,,,,,,,,material/65.png,1,勇敢,material/61.png,1,material/161.png,平等,1,j,j,j,1,1,1,谦虚,,,,,,,,,0,82,82,60,,,,,,,,,,,j,1,0.541127920151,,,,moral_self_bias,29,19,59.9732899414,f,001,2018_Apr_02_2005,
,,,,,,,,,,,,,,,,,,,,,,material/148.png,2,笨蛋,material/48.png,2,material/148.png,愚蠢,2,j,j,j,2,2,2,笨蛋,,,,,,,,,0,83,83,47,,,,,,,,,,,j,1,0.641127109528,,,,moral_self_bias,29,19,59.9732899414,f,001,2018_Apr_02_2005,
,,,,,,,,,,,,,,,,,,,,,,material/74.png,2,黑心,material/173.png,2,material/173.png,黑心,2,f,f,f,1,1,1,卑劣,,,,,,,,,0,84,84,152,,,,,,,,,,,j,0,0.974834918976,,,,moral_self_bias,29,19,59.9732899414,f,001,2018_Apr_02_2005,
,,,,,,,,,,,,,,,,,,,,,,material/111.png,1,高雅,material/11.png,1,material/11.png,高雅,1,j,j,j,1,1,1,高尚,,,,,,,,,0,85,85,10,,,,,,,,,,,j,1,0.541332006454,,,,moral_self_bias,29,19,59.9732899414,f,001,2018_Apr_02_2005,
,,,,,,,,,,,,,,,,,,,,,,material/29.png,1,好学,material/129.png,1,material/29.png,好问,1,f,f,f,2,2,2,好学,,,,,,,,,0,86,86,108,,,,,,,,,,,j,0,0.824849128723,,,,moral_self_bias,29,19,59.9732899414,f,001,2018_Apr_02_2005,
,,,,,,,,,,,,,,,,,,,,,,material/153.png,2,迟钝,material/53.png,2,material/153.png,迟缓,2,j,j,j,2,2,2,迟钝,,,,,,,,,0,87,87,52,,,,,,,,,,,j,1,1.30824398994,,,,moral_self_bias,29,19,59.9732899414,f,001,2018_Apr_02_2005,
,,,,,,,,,,,,,,,,,,,,,,material/137.png,2,无耻,material/37.png,2,material/37.png,无耻,2,j,j,j,1,1,1,卑鄙,,,,,,,,,0,88,88,36,,,,,,,,,,,j,1,0.916565179825,,,,moral_self_bias,29,19,59.9732899414,f,001,2018_Apr_02_2005,
,,,,,,,,,,,,,,,,,,,,,,material/50.png,2,愚笨,material/150.png,2,material/50.png,鲁钝,2,f,f,f,2,2,2,愚笨,,,,,,,,,0,89,89,129,,,,,,,,,,,j,0,0.524075031281,,,,moral_self_bias,29,19,59.9732899414,f,001,2018_Apr_02_2005,
,,,,,,,,,,,,,,,,,,,,,,material/4.png,1,友善,material/104.png,1,material/104.png,友善,1,f,f,f,1,1,1,友爱,,,,,,,,,0,90,90,83,0,0,0,0,,,,,,,f,1,1.3241288662,j,0,0.992521047592,moral_self_bias,29,19,59.9732899414,f,001,2018_Apr_02_2005,
,,,,,,,,,,,,,,,,,,,,,,material/4.png,1,友善,material/104.png,1,material/104.png,友善,1,f,f,f,1,1,1,友爱,,,,,,,,,0,90,90,83,,,,,,,,,,,,,,,,,moral_self_bias,29,19,59.9732899414,f,001,2018_Apr_02_2005,
,,,,,,,,,,,,,,,,,,,,,,material/105.png,1,守信,material/5.png,1,material/5.png,守信,1,j,j,j,1,1,1,诚信,,,,,,,,,0,91,91,4,0,0,0,0,,,,,,,f,0,1.45919799805,f,1,0.323929071426,moral_self_bias,29,19,59.9732899414,f,001,2018_Apr_02_2005,
,,,,,,,,,,,,,,,,,,,,,,material/105.png,1,守信,material/5.png,1,material/5.png,守信,1,j,j,j,1,1,1,诚信,,,,,,,,,0,91,91,4,,,,,,,,,,,,,,,,,moral_self_bias,29,19,59.9732899414,f,001,2018_Apr_02_2005,
,,,,,,,,,,,,,,,,,,,,,,material/39.png,2,恶毒,material/139.png,2,material/139.png,恶毒,2,f,f,f,1,1,1,凶残,,,,,,,,,0,92,92,118,0,0,0,0,,,,,,,f,1,3.82444000244,j,0,3.17482209206,moral_self_bias,29,19,59.9732899414,f,001,2018_Apr_02_2005,
,,,,,,,,,,,,,,,,,,,,,,material/39.png,2,恶毒,material/139.png,2,material/139.png,恶毒,2,f,f,f,1,1,1,凶残,,,,,,,,,0,92,92,118,,,,,,,,,,,,,,,,,moral_self_bias,29,19,59.9732899414,f,001,2018_Apr_02_2005,
,,,,,,,,,,,,,,,,,,,,,,material/83.png,2,差生,material/78.png,2,material/179.png,草率,2,j,j,j,2,2,2,呆笨,,,,,,,,,0,93,93,74,0,0,0,0,,,,,,,f,0,4.12483096123,j,0,0.325312137604,moral_self_bias,29,19,59.9732899414,f,001,2018_Apr_02_2005,
,,,,,,,,,,,,,,,,,,,,,,material/83.png,2,差生,material/78.png,2,material/179.png,草率,2,j,j,j,2,2,2,呆笨,,,,,,,,,0,93,93,74,,,,,,,,,,,,,,,,,moral_self_bias,29,19,59.9732899414,f,001,2018_Apr_02_2005,
,,,,,,,,,,,,,,,,,,,,,,material/167.png,1,高手,material/169.png,1,material/167.png,颖悟,1,f,f,f,2,2,2,高手,,,,,,,,,0,94,94,148,0,0,0,0,,,,,,,f,1,1.50759196281,j,0,0.30113697052,moral_self_bias,29,19,59.9732899414,f,001,2018_Apr_02_2005,
,,,,,,,,,,,,,,,,,,,,,,material/167.png,1,高手,material/169.png,1,material/167.png,颖悟,1,f,f,f,2,2,2,高手,,,,,,,,,0,94,94,148,,,,,,,,,,,,,,,,,moral_self_bias,29,19,59.9732899414,f,001,2018_Apr_02_2005,
,,,,,,,,,,,,,,,,,,,,,,material/7.png,1,公平,material/107.png,1,material/107.png,公平,1,f,f,f,1,1,1,公正,,,,,,,,,0,95,95,86,,,,,,,,,,,j,0,1.52461481094,,,,moral_self_bias,29,19,59.9732899414,f,001,2018_Apr_02_2005,
,,,,,,,,,,,,,,,,,,,,,,material/62.png,1,坚韧,material/162.png,1,material/62.png,敬业,1,f,f,f,1,1,1,坚韧,,,,,,,,,0,96,96,141,,,,,,,,,,,j,0,0.674529075623,,,,moral_self_bias,29,19,59.9732899414,f,001,2018_Apr_02_2005,
,,,,,,,,,,,,,,,,,,,,,,material/144.png,2,失信,material/44.png,2,material/44.png,失信,2,j,j,j,1,1,1,爽约,,,,,,,,,0,97,97,43,,,,,,,,,,,j,1,0.840795040131,,,,moral_self_bias,29,19,59.9732899414,f,001,2018_Apr_02_2005,
,,,,,,,,,,,,,,,,,,,,,,material/149.png,2,白痴,material/49.png,2,material/149.png,痴呆,2,j,j,j,2,2,2,白痴,,,,,,,,,0,98,98,48,,,,,,,,,,,j,1,0.724444150925,,,,moral_self_bias,29,19,59.9732899414,f,001,2018_Apr_02_2005,
,,,,,,,,,,,,,,,,,,,,,,material/59.png,2,智障,material/159.png,2,material/59.png,弱智,2,f,f,f,2,2,2,智障,,,,,,,,,0,99,99,138,0,0,0,0,,,,,,,f,1,2.72467207909,f,1,0.37552189827,moral_self_bias,29,19,59.9732899414,f,001,2018_Apr_02_2005,
,,,,,,,,,,,,,,,,,,,,,,material/59.png,2,智障,material/159.png,2,material/59.png,弱智,2,f,f,f,2,2,2,智障,,,,,,,,,0,99,99,138,,,,,,,,,,,,,,,,,moral_self_bias,29,19,59.9732899414,f,001,2018_Apr_02_2005,
,,,,,,,,,,,,,,,,,,,,,,material/13.png,1,廉明,material/113.png,1,material/113.png,廉明,1,f,f,f,1,1,1,廉洁,,,,,,,,,0,100,100,92,,,,,,,,,,,j,0,1.28407812119,,,,moral_self_bias,29,19,59.9732899414,f,001,2018_Apr_02_2005,
,,,,,,,,,,,,,,,,,,,,,,material/52.png,2,拖延,material/152.png,2,material/52.png,缓慢,2,f,f,f,2,2,2,拖延,,,,,,,,,0,101,101,131,,,,,,,,,,,j,0,0.624536991119,,,,moral_self_bias,29,19,59.9732899414,f,001,2018_Apr_02_2005,
,,,,,,,,,,,,,,,,,,,,,,material/170.png,1,坚忍,material/71.png,1,material/170.png,严谨,1,j,j,j,2,2,2,坚忍,,,,,,,,,0,102,102,68,,,,,,,,,,,j,1,0.690196037292,,,,moral_self_bias,29,19,59.9732899414,f,001,2018_Apr_02_2005,
,,,,,,,,,,,,,,,,,,,,,,material/47.png,2,死板,material/147.png,2,material/47.png,刻板,2,f,f,f,2,2,2,死板,,,,,,,,,0,103,103,126,,,,,,,,,,,j,0,0.524647951126,,,,moral_self_bias,29,19,59.9732899414,f,001,2018_Apr_02_2005,
,,,,,,,,,,,,,,,,,,,,,,material/165.png,1,平等,material/161.png,1,material/61.png,勇敢,1,f,f,f,1,1,1,独立,,,,,,,,,0,104,104,140,,,,,,,,,,,j,0,1.01656007767,,,,moral_self_bias,29,19,59.9732899414,f,001,2018_Apr_02_2005,
,,,,,,,,,,,,,,,,,,,,,,material/63.png,1,正义,material/166.png,1,material/66.png,仗义,1,f,f,f,1,1,1,文明,,,,,,,,,0,105,105,145,,,,,,,,,,,j,0,0.674393177032,,,,moral_self_bias,29,19,59.9732899414,f,001,2018_Apr_02_2005,
,,,,,,,,,,,,,,,,,,,,,,material/122.png,1,博学,material/22.png,1,material/122.png,才学,1,j,j,j,2,2,2,博学,,,,,,,,,0,106,106,21,0,0,0,0,,,,,,,f,0,2.94190812111,j,0,0.300385951996,moral_self_bias,29,19,59.9732899414,f,001,2018_Apr_02_2005,
,,,,,,,,,,,,,,,,,,,,,,material/122.png,1,博学,material/22.png,1,material/122.png,才学,1,j,j,j,2,2,2,博学,,,,,,,,,0,106,106,21,,,,,,,,,,,,,,,,,moral_self_bias,29,19,59.9732899414,f,001,2018_Apr_02_2005,
,,,,,,,,,,,,,,,,,,,,,,material/103.png,1,仁慈,material/3.png,1,material/3.png,仁慈,1,j,j,j,1,1,1,仁厚,,,,,,,,,0,107,107,2,0,0,0,0,,,,,,,f,0,0.940129041672,j,0,0.276079177856,moral_self_bias,29,19,59.9732899414,f,001,2018_Apr_02_2005,
,,,,,,,,,,,,,,,,,,,,,,material/103.png,1,仁慈,material/3.png,1,material/3.png,仁慈,1,j,j,j,1,1,1,仁厚,,,,,,,,,0,107,107,2,,,,,,,,,,,,,,,,,moral_self_bias,29,19,59.9732899414,f,001,2018_Apr_02_2005,
,,,,,,,,,,,,,,,,,,,,,,material/16.png,1,睿智,material/116.png,1,material/16.png,机智,1,f,f,f,2,2,2,睿智,,,,,,,,,0,108,108,95,,,,,,,,,,,j,0,1.13361001015,,,,moral_self_bias,29,19,59.9732899414,f,001,2018_Apr_02_2005,
,,,,,,,,,,,,,,,,,,,,,,material/9.png,1,正直,material/109.png,1,material/109.png,正直,1,f,f,f,1,1,1,秉直,,,,,,,,,0,109,109,88,,,,,,,,,,,j,0,0.607440948486,,,,moral_self_bias,29,19,59.9732899414,f,001,2018_Apr_02_2005,
,,,,,,,,,,,,,,,,,,,,,,material/184.png,2,草率,material/80.png,2,material/78.png,健忘,2,j,j,j,2,2,2,厌学,,,,,,,,,0,110,110,76,,,,,,,,,,,j,1,2.37372493744,,,,moral_self_bias,29,19,59.9732899414,f,001,2018_Apr_02_2005,
,,,,,,,,,,,,,,,,,,,,,,material/48.png,2,愚蠢,material/148.png,2,material/48.png,笨蛋,2,f,f,f,2,2,2,愚蠢,,,,,,,,,0,111,111,127,,,,,,,,,,,j,0,0.641258001328,,,,moral_self_bias,29,19,59.9732899414,f,001,2018_Apr_02_2005,
,,,,,,,,,,,,,,,,,,,,,,material/168.png,1,机变,material/170.png,1,material/168.png,坚忍,1,f,f,f,2,2,2,机变,,,,,,,,,0,112,112,149,,,,,,,,,,,j,0,0.624850988388,,,,moral_self_bias,29,19,59.9732899414,f,001,2018_Apr_02_2005,
,,,,,,,,,,,,,,,,,,,,,,material/18.png,1,敏锐,material/118.png,1,material/18.png,机敏,1,f,f,f,2,2,2,敏锐,,,,,,,,,0,113,113,97,,,,,,,,,,,j,0,0.641225099564,,,,moral_self_bias,29,19,59.9732899414,f,001,2018_Apr_02_2005,
,,,,,,,,,,,,,,,,,,,,,,material/31.png,1,笃学,material/131.png,1,material/31.png,笃行,1,f,f,f,2,2,2,笃学,,,,,,,,,0,114,114,110,,,,,,,,,,,j,0,1.29086112976,,,,moral_self_bias,29,19,59.9732899414,f,001,2018_Apr_02_2005,
,,,,,,,,,,,,,,,,,,,,,,material/66.png,1,独立,material/66.png,1,material/165.png,正义,1,f,f,f,1,1,1,正义,,,,,,,,,0,115,115,164,,,,,,,,,,,j,0,0.674029111862,,,,moral_self_bias,29,19,59.9732899414,f,001,2018_Apr_02_2005,
,,,,,,,,,,,,,,,,,,,,,,material/26.png,1,刻苦,material/126.png,1,material/26.png,勤快,1,f,f,f,2,2,2,刻苦,,,,,,,,,0,116,116,105,,,,,,,,,,,j,0,0.691620111465,,,,moral_self_bias,29,19,59.9732899414,f,001,2018_Apr_02_2005,
,,,,,,,,,,,,,,,,,,,,,,material/3.png,1,仁厚,material/103.png,1,material/103.png,仁厚,1,f,f,f,1,1,1,仁慈,,,,,,,,,0,117,117,82,,,,,,,,,,,j,0,0.708293914795,,,,moral_self_bias,29,19,59.9732899414,f,001,2018_Apr_02_2005,
,,,,,,,,,,,,,,,,,,,,,,material/25.png,1,果断,material/125.png,1,material/25.png,果敢,1,f,f,f,2,2,2,果断,,,,,,,,,0,118,118,104,0,0,0,0,,,,,,,f,1,2.32420992851,f,1,0.306657075882,moral_self_bias,29,19,59.9732899414,f,001,2018_Apr_02_2005,
,,,,,,,,,,,,,,,,,,,,,,material/25.png,1,果断,material/125.png,1,material/25.png,果敢,1,f,f,f,2,2,2,果断,,,,,,,,,0,118,118,104,,,,,,,,,,,,,,,,,moral_self_bias,29,19,59.9732899414,f,001,2018_Apr_02_2005,
,,,,,,,,,,,,,,,,,,,,,,material/80.png,2,才尽,material/83.png,2,material/182.png,呆笨,2,j,j,j,2,2,2,健忘,,,,,,,,,0,119,119,79,,,,,,,,,,,j,1,0.640769958496,,,,moral_self_bias,29,19,59.9732899414,f,001,2018_Apr_02_2005,
,,,,,,,,,,,,,,,,,,,,,,material/78.png,2,厌学,material/181.png,2,material/184.png,犹豫,2,f,f,f,2,2,2,草率,,,,,,,,,0,120,120,160,0,0,0,0,,,,,,,f,1,1.80767703056,j,0,0.283443927765,moral_self_bias,29,19,59.9732899414,f,001,2018_Apr_02_2005,
,,,,,,,,,,,,,,,,,,,,,,material/78.png,2,厌学,material/181.png,2,material/184.png,犹豫,2,f,f,f,2,2,2,草率,,,,,,,,,0,120,120,160,,,,,,,,,,,,,,,,,moral_self_bias,29,19,59.9732899414,f,001,2018_Apr_02_2005,
,,,,,,,,,,,,,,,,,,,,,,material/114.png,1,爱国,material/14.png,1,material/14.png,爱国,1,j,j,j,1,1,1,忠贞,,,,,,,,,0,121,121,13,0,0,0,0,,,,,,,f,0,1.07424688339,j,0,0.291507005692,moral_self_bias,29,19,59.9732899414,f,001,2018_Apr_02_2005,
,,,,,,,,,,,,,,,,,,,,,,material/114.png,1,爱国,material/14.png,1,material/14.png,爱国,1,j,j,j,1,1,1,忠贞,,,,,,,,,0,121,121,13,,,,,,,,,,,,,,,,,moral_self_bias,29,19,59.9732899414,f,001,2018_Apr_02_2005,
,,,,,,,,,,,,,,,,,,,,,,material/158.png,2,浅薄,material/58.png,2,material/158.png,肤浅,2,j,j,j,2,2,2,浅薄,,,,,,,,,0,122,122,57,0,0,0,0,,,,,,,f,0,3.80597305298,j,0,0.240286111832,moral_self_bias,29,19,59.9732899414,f,001,2018_Apr_02_2005,
,,,,,,,,,,,,,,,,,,,,,,material/158.png,2,浅薄,material/58.png,2,material/158.png,肤浅,2,j,j,j,2,2,2,浅薄,,,,,,,,,0,122,122,57,,,,,,,,,,,,,,,,,moral_self_bias,29,19,59.9732899414,f,001,2018_Apr_02_2005,
,,,,,,,,,,,,,,,,,,,,,,material/110.png,1,顽强,material/10.png,1,material/10.png,顽强,1,j,j,j,1,1,1,坚毅,,,,,,,,,0,123,123,9,0,0,0,0,,,,,,,f,0,2.00792717934,j,0,0.266638994217,moral_self_bias,29,19,59.9732899414,f,001,2018_Apr_02_2005,
,,,,,,,,,,,,,,,,,,,,,,material/110.png,1,顽强,material/10.png,1,material/10.png,顽强,1,j,j,j,1,1,1,坚毅,,,,,,,,,0,123,123,9,,,,,,,,,,,,,,,,,moral_self_bias,29,19,59.9732899414,f,001,2018_Apr_02_2005,
,,,,,,,,,,,,,,,,,,,,,,material/37.png,2,卑鄙,material/137.png,2,material/137.png,卑鄙,2,f,f,f,1,1,1,无耻,,,,,,,,,0,124,124,116,,,,,,,,,,,j,0,1.07521295547,,,,moral_self_bias,29,19,59.9732899414,f,001,2018_Apr_02_2005,
,,,,,,,,,,,,,,,,,,,,,,material/136.png,2,说谎,material/36.png,2,material/36.png,说谎,2,j,j,j,1,1,1,撒谎,,,,,,,,,0,125,125,35,0,0,0,0,,,,,,,f,0,1.1749958992,f,1,0.357897996902,moral_self_bias,29,19,59.9732899414,f,001,2018_Apr_02_2005,
,,,,,,,,,,,,,,,,,,,,,,material/136.png,2,说谎,material/36.png,2,material/36.png,说谎,2,j,j,j,1,1,1,撒谎,,,,,,,,,0,125,125,35,,,,,,,,,,,,,,,,,moral_self_bias,29,19,59.9732899414,f,001,2018_Apr_02_2005,
,,,,,,,,,,,,,,,,,,,,,,material/43.png,2,虚荣,material/143.png,2,material/143.png,虚荣,2,f,f,f,1,1,1,拜金,,,,,,,,,0,126,126,122,,,,,,,,,,,j,0,0.957292079926,,,,moral_self_bias,29,19,59.9732899414,f,001,2018_Apr_02_2005,
,,,,,,,,,,,,,,,,,,,,,,material/104.png,1,友爱,material/4.png,1,material/4.png,友爱,1,j,j,j,1,1,1,友善,,,,,,,,,0,127,127,3,0,0,0,0,,,,,,,f,0,1.34116697311,f,1,0.325081110001,moral_self_bias,29,19,59.9732899414,f,001,2018_Apr_02_2005,
,,,,,,,,,,,,,,,,,,,,,,material/104.png,1,友爱,material/4.png,1,material/4.png,友爱,1,j,j,j,1,1,1,友善,,,,,,,,,0,127,127,3,,,,,,,,,,,,,,,,,moral_self_bias,29,19,59.9732899414,f,001,2018_Apr_02_2005,
,,,,,,,,,,,,,,,,,,,,,,material/81.png,2,呆笨,material/179.png,2,material/83.png,差生,2,f,f,f,2,2,2,无助,,,,,,,,,0,128,128,158,,,,,,,,,,,j,0,0.691844940186,,,,moral_self_bias,29,19,59.9732899414,f,001,2018_Apr_02_2005,
,,,,,,,,,,,,,,,,,,,,,,material/123.png,1,多才,material/23.png,1,material/123.png,有才,1,j,j,j,2,2,2,多才,,,,,,,,,0,129,129,22,,,,,,,,,,,j,1,2.91665506363,,,,moral_self_bias,29,19,59.9732899414,f,001,2018_Apr_02_2005,
,,,,,,,,,,,,,,,,,,,,,,material/155.png,2,盲目,material/55.png,2,material/155.png,盲从,2,j,j,j,2,2,2,盲目,,,,,,,,,0,130,130,54,0,0,0,0,,,,,,,f,0,1.30802202225,f,1,0.275408983231,moral_self_bias,29,19,59.9732899414,f,001,2018_Apr_02_2005,
,,,,,,,,,,,,,,,,,,,,,,material/155.png,2,盲目,material/55.png,2,material/155.png,盲从,2,j,j,j,2,2,2,盲目,,,,,,,,,0,130,130,54,,,,,,,,,,,,,,,,,moral_self_bias,29,19,59.9732899414,f,001,2018_Apr_02_2005,
,,,,,,,,,,,,,,,,,,,,,,material/174.png,2,虚伪,material/76.png,2,material/76.png,虚伪,2,j,j,j,1,1,1,不义,,,,,,,,,0,131,131,72,0,0,0,0,,,,,,,f,0,1.19102811813,f,1,0.326041936874,moral_self_bias,29,19,59.9732899414,f,001,2018_Apr_02_2005,
,,,,,,,,,,,,,,,,,,,,,,material/174.png,2,虚伪,material/76.png,2,material/76.png,虚伪,2,j,j,j,1,1,1,不义,,,,,,,,,0,131,131,72,,,,,,,,,,,,,,,,,moral_self_bias,29,19,59.9732899414,f,001,2018_Apr_02_2005,
,,,,,,,,,,,,,,,,,,,,,,material/28.png,1,克己,material/128.png,1,material/28.png,自律,1,f,f,f,2,2,2,克己,,,,,,,,,0,132,132,107,,,,,,,,,,,j,0,0.691130161285,,,,moral_self_bias,29,19,59.9732899414,f,001,2018_Apr_02_2005,
,,,,,,,,,,,,,,,,,,,,,,material/140.png,2,邪恶,material/40.png,2,material/40.png,邪恶,2,j,j,j,1,1,1,狠毒,,,,,,,,,0,133,133,39,,,,,,,,,,,j,1,0.867011785507,,,,moral_self_bias,29,19,59.9732899414,f,001,2018_Apr_02_2005,
,,,,,,,,,,,,,,,,,,,,,,material/71.png,1,严谨,material/68.png,1,material/71.png,广博,1,j,j,j,2,2,2,严谨,,,,,,,,,0,134,134,66,0,0,0,0,,,,,,,f,0,1.67420101166,j,0,0.275063037872,moral_self_bias,29,19,59.9732899414,f,001,2018_Apr_02_2005,
,,,,,,,,,,,,,,,,,,,,,,material/71.png,1,严谨,material/68.png,1,material/71.png,广博,1,j,j,j,2,2,2,严谨,,,,,,,,,0,134,134,66,,,,,,,,,,,,,,,,,moral_self_bias,29,19,59.9732899414,f,001,2018_Apr_02_2005,
,,,,,,,,,,,,,,,,,,,,,,material/68.png,1,广博,material/167.png,1,material/68.png,高手,1,f,f,f,2,2,2,广博,,,,,,,,,0,135,135,146,,,,,,,,,,,j,0,0.907796144485,,,,moral_self_bias,29,19,59.9732899414,f,001,2018_Apr_02_2005,
,,,,,,,,,,,,,,,,,,,,,,material/40.png,2,狠毒,material/140.png,2,material/140.png,狠毒,2,f,f,f,1,1,1,邪恶,,,,,,,,,0,136,136,119,0,0,0,0,,,,,,,f,1,2.05721306801,j,0,0.491086006165,moral_self_bias,29,19,59.9732899414,f,001,2018_Apr_02_2005,
,,,,,,,,,,,,,,,,,,,,,,material/40.png,2,狠毒,material/140.png,2,material/140.png,狠毒,2,f,f,f,1,1,1,邪恶,,,,,,,,,0,136,136,119,,,,,,,,,,,,,,,,,moral_self_bias,29,19,59.9732899414,f,001,2018_Apr_02_2005,
,,,,,,,,,,,,,,,,,,,,,,material/58.png,2,肤浅,material/158.png,2,material/58.png,浅薄,2,f,f,f,2,2,2,肤浅,,,,,,,,,0,137,137,137,,,,,,,,,,,j,0,0.891149044037,,,,moral_self_bias,29,19,59.9732899414,f,001,2018_Apr_02_2005,
,,,,,,,,,,,,,,,,,,,,,,material/117.png,1,聪颖,material/17.png,1,material/117.png,聪明,1,j,j,j,2,2,2,聪颖,,,,,,,,,0,138,138,16,,,,,,,,,,,j,1,1.09155988693,,,,moral_self_bias,29,19,59.9732899414,f,001,2018_Apr_02_2005,
,,,,,,,,,,,,,,,,,,,,,,material/159.png,2,弱智,material/59.png,2,material/159.png,智障,2,j,j,j,2,2,2,弱智,,,,,,,,,0,139,139,58,,,,,,,,,,,j,1,0.558761119843,,,,moral_self_bias,29,19,59.9732899414,f,001,2018_Apr_02_2005,
,,,,,,,,,,,,,,,,,,,,,,material/54.png,2,依赖,material/154.png,2,material/54.png,依靠,2,f,f,f,2,2,2,依赖,,,,,,,,,0,140,140,133,,,,,,,,,,,j,0,4.00062417984,,,,moral_self_bias,29,19,59.9732899414,f,001,2018_Apr_02_2005,
,,,,,,,,,,,,,,,,,,,,,,material/109.png,1,秉直,material/9.png,1,material/9.png,秉直,1,j,j,j,1,1,1,正直,,,,,,,,,0,141,141,8,,,,,,,,,,,j,1,0.558254957199,,,,moral_self_bias,29,19,59.9732899414,f,001,2018_Apr_02_2005,
,,,,,,,,,,,,,,,,,,,,,,material/127.png,1,超群,material/27.png,1,material/127.png,卓越,1,j,j,j,2,2,2,超群,,,,,,,,,0,142,142,26,,,,,,,,,,,j,1,0.690587997437,,,,moral_self_bias,29,19,59.9732899414,f,001,2018_Apr_02_2005,
,,,,,,,,,,,,,,,,,,,,,,material/108.png,1,公道,material/8.png,1,material/8.png,公道,1,j,j,j,1,1,1,无私,,,,,,,,,0,143,143,7,,,,,,,,,,,j,1,0.624424219131,,,,moral_self_bias,29,19,59.9732899414,f,001,2018_Apr_02_2005,
,,,,,,,,,,,,,,,,,,,,,,material/44.png,2,爽约,material/144.png,2,material/144.png,爽约,2,f,f,f,1,1,1,失信,,,,,,,,,0,144,144,123,,,,,,,,,,,j,0,0.540293931961,,,,moral_self_bias,29,19,59.9732899414,f,001,2018_Apr_02_2005,
,,,,,,,,,,,,,,,,,,,,,,material/162.png,1,敬业,material/62.png,1,material/162.png,坚韧,1,j,j,j,1,1,1,敬业,,,,,,,,,0,145,145,61,0,0,0,0,,,,,,,f,0,4.20851206779,j,0,0.558022975922,moral_self_bias,29,19,59.9732899414,f,001,2018_Apr_02_2005,
,,,,,,,,,,,,,,,,,,,,,,material/162.png,1,敬业,material/62.png,1,material/162.png,坚韧,1,j,j,j,1,1,1,敬业,,,,,,,,,0,145,145,61,,,,,,,,,,,,,,,,,moral_self_bias,29,19,59.9732899414,f,001,2018_Apr_02_2005,
,,,,,,,,,,,,,,,,,,,,,,material/163.png,1,文明,material/163.png,1,material/63.png,宽容,1,f,f,f,1,1,1,宽容,,,,,,,,,0,146,146,142,0,0,0,0,,,,,,,f,1,1.32434797287,j,0,0.291124105453,moral_self_bias,29,19,59.9732899414,f,001,2018_Apr_02_2005,
,,,,,,,,,,,,,,,,,,,,,,material/163.png,1,文明,material/163.png,1,material/63.png,宽容,1,f,f,f,1,1,1,宽容,,,,,,,,,0,146,146,142,,,,,,,,,,,,,,,,,moral_self_bias,29,19,59.9732899414,f,001,2018_Apr_02_2005,
,,,,,,,,,,,,,,,,,,,,,,material/176.png,2,害人,material/75.png,2,material/75.png,害人,2,j,j,j,1,1,1,放纵,,,,,,,,,0,147,147,71,,,,,,,,,,,j,1,0.808757066727,,,,moral_self_bias,29,19,59.9732899414,f,001,2018_Apr_02_2005,
,,,,,,,,,,,,,,,,,,,,,,material/126.png,1,勤快,material/26.png,1,material/126.png,刻苦,1,j,j,j,2,2,2,勤快,,,,,,,,,0,148,148,25,0,0,0,0,,,,,,,f,0,1.82536196709,j,0,0.291599988937,moral_self_bias,29,19,59.9732899414,f,001,2018_Apr_02_2005,
,,,,,,,,,,,,,,,,,,,,,,material/126.png,1,勤快,material/26.png,1,material/126.png,刻苦,1,j,j,j,2,2,2,勤快,,,,,,,,,0,148,148,25,,,,,,,,,,,,,,,,,moral_self_bias,29,19,59.9732899414,f,001,2018_Apr_02_2005,
,,,,,,,,,,,,,,,,,,,,,,material/14.png,1,忠贞,material/114.png,1,material/114.png,忠贞,1,f,f,f,1,1,1,爱国,,,,,,,,,0,149,149,93,,,,,,,,,,,j,0,0.858007907867,,,,moral_self_bias,29,19,59.9732899414,f,001,2018_Apr_02_2005,
,,,,,,,,,,,,,,,,,,,,,,material/24.png,1,理智,material/124.png,1,material/24.png,冷静,1,f,f,f,2,2,2,理智,,,,,,,,,0,150,150,103,,,,,,,,,,,j,0,1.45754909515,,,,moral_self_bias,29,19,59.9732899414,f,001,2018_Apr_02_2005,
,,,,,,,,,,,,,,,,,,,,,,material/61.png,1,仗义,material/65.png,1,material/166.png,谦虚,1,j,j,j,1,1,1,平等,,,,,,,,,0,151,151,64,,,,,,,,,,,j,1,2.14211893082,,,,moral_self_bias,29,19,59.9732899414,f,001,2018_Apr_02_2005,
,,,,,,,,,,,,,,,,,,,,,,material/72.png,2,软弱,material/77.png,2,material/77.png,软弱,2,j,j,j,1,1,1,谄媚,,,,,,,,,0,152,152,73,0,0,0,0,,,,,,,f,0,3.52479887009,j,0,0.242269992828,moral_self_bias,29,19,59.9732899414,f,001,2018_Apr_02_2005,
,,,,,,,,,,,,,,,,,,,,,,material/72.png,2,软弱,material/77.png,2,material/77.png,软弱,2,j,j,j,1,1,1,谄媚,,,,,,,,,0,152,152,73,,,,,,,,,,,,,,,,,moral_self_bias,29,19,59.9732899414,f,001,2018_Apr_02_2005,
,,,,,,,,,,,,,,,,,,,,,,material/118.png,1,机敏,material/18.png,1,material/118.png,敏锐,1,j,j,j,2,2,2,机敏,,,,,,,,,0,153,153,17,0,0,0,0,,,,,,,f,0,0.758209228516,j,0,0.28434419632,moral_self_bias,29,19,59.9732899414,f,001,2018_Apr_02_2005,
,,,,,,,,,,,,,,,,,,,,,,material/118.png,1,机敏,material/18.png,1,material/118.png,敏锐,1,j,j,j,2,2,2,机敏,,,,,,,,,0,153,153,17,,,,,,,,,,,,,,,,,moral_self_bias,29,19,59.9732899414,f,001,2018_Apr_02_2005,
,,,,,,,,,,,,,,,,,,,,,,material/11.png,1,高尚,material/111.png,1,material/111.png,高尚,1,f,f,f,1,1,1,高雅,,,,,,,,,0,154,154,90,,,,,,,,,,,j,0,0.758256912231,,,,moral_self_bias,29,19,59.9732899414,f,001,2018_Apr_02_2005,
,,,,,,,,,,,,,,,,,,,,,,material/67.png,1,骁勇,material/70.png,1,material/67.png,全面,1,j,j,j,2,2,2,骁勇,,,,,,,,,0,155,155,67,,,,,,,,,,,j,1,0.784187078476,,,,moral_self_bias,29,19,59.9732899414,f,001,2018_Apr_02_2005,
,,,,,,,,,,,,,,,,,,,,,,material/142.png,2,阴险,material/42.png,2,material/42.png,阴险,2,j,j,j,1,1,1,奸诈,,,,,,,,,0,156,156,41,,,,,,,,,,,j,1,0.59131193161,,,,moral_self_bias,29,19,59.9732899414,f,001,2018_Apr_02_2005,
,,,,,,,,,,,,,,,,,,,,,,material/166.png,1,孝顺,material/64.png,1,material/164.png,奉献,1,j,j,j,1,1,1,仗义,,,,,,,,,0,157,157,63,,,,,,,,,,,j,1,0.657735109329,,,,moral_self_bias,29,19,59.9732899414,f,001,2018_Apr_02_2005,
,,,,,,,,,,,,,,,,,,,,,,material/32.png,2,背叛,material/132.png,2,material/132.png,背叛,2,f,f,f,1,1,1,不忠,,,,,,,,,0,158,158,111,,,,,,,,,,,j,0,0.623763084412,,,,moral_self_bias,29,19,59.9732899414,f,001,2018_Apr_02_2005,
,,,,,,,,,,,,,,,,,,,,,,material/130.png,1,进取,material/30.png,1,material/130.png,上进,1,j,j,j,2,2,2,进取,,,,,,,,,0,159,159,29,,,,,,,,,,,j,1,0.782916069031,,,,moral_self_bias,29,19,59.9732899414,f,001,2018_Apr_02_2005,
,,,,,,,,,,,,,,,,,,,,,,material/150.png,2,鲁钝,material/50.png,2,material/150.png,愚笨,2,j,j,j,2,2,2,鲁钝,,,,,,,,,0,160,160,49,,,,,,,,,,,j,1,0.623918056488,,,,moral_self_bias,29,19,59.9732899414,f,001,2018_Apr_02_2005,
,,,,,,,,,,,,,,,,,,,,,,material/12.png,1,忠心,material/112.png,1,material/112.png,忠心,1,f,f,f,1,1,1,忠诚,,,,,,,,,0,161,161,91,0,0,0,0,,,,,,,f,1,2.19203901291,j,0,0.258342027664,moral_self_bias,29,19,59.9732899414,f,001,2018_Apr_02_2005,
,,,,,,,,,,,,,,,,,,,,,,material/12.png,1,忠心,material/112.png,1,material/112.png,忠心,1,f,f,f,1,1,1,忠诚,,,,,,,,,0,161,161,91,,,,,,,,,,,,,,,,,moral_self_bias,29,19,59.9732899414,f,001,2018_Apr_02_2005,
,,,,,,,,,,,,,,,,,,,,,,material/60.png,2,粗拙,material/160.png,2,material/60.png,笨拙,2,f,f,f,2,2,2,粗拙,,,,,,,,,0,162,162,139,,,,,,,,,,,j,0,1.5068898201,,,,moral_self_bias,29,19,59.9732899414,f,001,2018_Apr_02_2005,
,,,,,,,,,,,,,,,,,,,,,,material/64.png,1,谦虚,material/165.png,1,material/65.png,独立,1,f,f,f,1,1,1,奉献,,,,,,,,,0,163,163,144,0,0,0,0,,,,,,,f,1,1.34171891212,j,0,0.259050130844,moral_self_bias,29,19,59.9732899414,f,001,2018_Apr_02_2005,
,,,,,,,,,,,,,,,,,,,,,,material/64.png,1,谦虚,material/165.png,1,material/65.png,独立,1,f,f,f,1,1,1,奉献,,,,,,,,,0,163,163,144,,,,,,,,,,,,,,,,,moral_self_bias,29,19,59.9732899414,f,001,2018_Apr_02_2005,
,,,,,,,,,,,,,,,,,,,,,,material/56.png,2,愚昧,material/156.png,2,material/56.png,愚钝,2,f,f,f,2,2,2,愚昧,,,,,,,,,0,164,164,135,,,,,,,,,,,j,0,1.17491197586,,,,moral_self_bias,29,19,59.9732899414,f,001,2018_Apr_02_2005,
,,,,,,,,,,,,,,,,,,,,,,material/145.png,2,下流,material/45.png,2,material/45.png,下流,2,j,j,j,1,1,1,小人,,,,,,,,,0,165,165,44,,,,,,,,,,,j,1,0.908711194992,,,,moral_self_bias,29,19,59.9732899414,f,001,2018_Apr_02_2005,
,,,,,,,,,,,,,,,,,,,,,,material/73.png,2,恶心,material/177.png,2,material/177.png,恶心,2,f,f,f,1,1,1,残虐,,,,,,,,,0,166,166,156,,,,,,,,,,,j,0,0.692511081696,,,,moral_self_bias,29,19,59.9732899414,f,001,2018_Apr_02_2005,
,,,,,,,,,,,,,,,,,,,,,,material/121.png,1,精干,material/21.png,1,material/121.png,干练,1,j,j,j,2,2,2,精干,,,,,,,,,0,167,167,20,0,0,0,0,,,,,,,f,0,1.3577580452,j,0,0.24135518074,moral_self_bias,29,19,59.9732899414,f,001,2018_Apr_02_2005,
,,,,,,,,,,,,,,,,,,,,,,material/121.png,1,精干,material/21.png,1,material/121.png,干练,1,j,j,j,2,2,2,精干,,,,,,,,,0,167,167,20,,,,,,,,,,,,,,,,,moral_self_bias,29,19,59.9732899414,f,001,2018_Apr_02_2005,
