"rt","stimulus","response","trial_type","trial_index","time_elapsed","internal_node_id","ses_1","ses_2","ses_3","ses_4","ses_5","ses_6","ses_7","ses_8","ses_9","ses_10","coreself_1","coreself_2","coreself_3","coreself_4","coreself_5","coreself_6","coreself_7","coreself_8","coreself_9","coreself_10","SGPS_1","SGPS_2","SGPS_3","SGPS_4","SGPS_5","SGPS_6","SGPS_7","SGPS_8","SGPS_9","NPI1","NPI2","NPI3","NPI4","NPI5","NPI6","NPI7","NPI8","NPI9","NPI10","NPI11","NPI12","NPI13","NPI14","NPI15","hsns_1","hsns_2","hsns_3","hsns_4","hsns_5","hsns_6","hsns_7","hsns_8","hsns_9","hsns_10","subj_idx","friend_name","value","success","user_agent","responses","item_order","radio_event_ids","radio_event_times","key_event_times","mouse_event_times","straightlining","zigzagging","honeypot","timeout","failed_images","failed_audio","failed_video","view_history","response_type","key_press","avg_frame_time","center_x","center_y","correct_response","correct","identity","Image","word","condition","task_id","screen_id","time_stamp","version_attrib2","version_target2","IAT","RT","varname","summary","version_attrib","version_target","question_order"
"10154","
   <p><div style = ""color: white;font-size:25px;"">您好，欢迎参加本次实验。</div> </p>
   <p><div style = ""color: white;font-size:25px;"">为充分保障您的权利，请确保您已经知晓并同意《参与实验同意书》以及《数据公开知情同意书》。</div></p>
   <p><div style = ""color: white;font-size:25px;"">如果您未见过上述内容，请咨询实验员。</div></p>
   <p><div style = ""color: white;font-size:25px;"">如果您选择继续实验，则表示您已经清楚两份知情同意书的内容并同意。</div></p>
   <p> <div style = ""color: green;font-size:25px;""><按空格键至下页></div> </p>
   "," ","html-keyboard-response","0","10156","0.0-0.0","2","3","3","2","1","2","1","2","2","3","3","2","1","2","2","2","2","2","3","3","2","3","4","4","4","4","4","1","4","1","0","1","1","0","0","1","1","0","1","-1","0","1","0","1","3","5","4","4","4","5","2","3","2","1","746397539082964994","孟","","","","","","","","","","","","","","","","","","","","","","","","","","","","","","","","","","","","","","","",""
"","","","call-function","1","10157","0.0-1.0-0.0","2","3","3","2","1","2","1","2","2","3","3","2","1","2","2","2","2","2","3","3","2","3","4","4","4","4","4","1","4","1","0","1","1","0","0","1","1","0","1","-1","0","1","0","1","3","5","4","4","4","5","2","3","2","1","746397539082964994","孟","","","","","","","","","","","","","","","","","","","","","","","","","","","","","","","","","","","","","","","",""
"50736","","{""friend_name"":""孟""}","survey-html-form","2","60894","0.0-1.0-1.0","2","3","3","2","1","2","1","2","2","3","3","2","1","2","2","2","2","2","3","3","2","3","4","4","4","4","4","1","4","1","0","1","1","0","0","1","1","0","1","-1","0","1","0","1","3","5","4","4","4","5","2","3","2","1","746397539082964994","孟","","","","","","","","","","","","","","","","","","","","","","","","","","","","","","","","","","","","","","","",""
"","","","fullscreen","3","80108","0.0-2.0","2","3","3","2","1","2","1","2","2","3","3","2","1","2","2","2","2","2","3","3","2","3","4","4","4","4","4","1","4","1","0","1","1","0","0","1","1","0","1","-1","0","1","0","1","3","5","4","4","4","5","2","3","2","1","746397539082964994","孟","","true","{}","","","","","","","","","","","","","","","","","","","","","","","","","","","","","","","","","","","","",""
"48721.10000002384","","{""Q01"":""2"",""Q02"":""3"",""Q03"":""3"",""Q04"":""2"",""Q05"":""1"",""Q06"":""2"",""Q07"":""1"",""Q08"":""2"",""Q09"":""2"",""Q10"":""3""}","survey-template","4","128831","0.0-3.0","2","3","3","2","1","2","1","2","2","3","3","2","1","2","2","2","2","2","3","3","2","3","4","4","4","4","4","1","4","1","0","1","1","0","0","1","1","0","1","-1","0","1","0","1","3","5","4","4","4","5","2","3","2","1","746397539082964994","孟","","","","{""Q01"":""2"",""Q02"":""3"",""Q03"":""3"",""Q04"":""2"",""Q05"":""1"",""Q06"":""2"",""Q07"":""1"",""Q08"":""2"",""Q09"":""2"",""Q10"":""3""}","[0,1,2,3,4,5,6,7,8,9]","[""Q01"",""Q02"",""Q03"",""Q04"",""Q05"",""Q06"",""Q07"",""Q08"",""Q09"",""Q10""]","[7330.700000047684,14720.300000011921,17892.200000047684,19408.600000023842,24442,30104.400000035763,33311.90000003576,37840.30000001192,40384.200000047684,47140.200000047684]","[]","[7330.700000047684,14720.300000011921,17192.30000001192,17892.200000047684,19408.600000023842,24442,30104.400000035763,33311.90000003576,37840.30000001192,40384.200000047684,47140.200000047684,48720.200000047684]","0.5","0.4444444444444444","0","","","","","","","","","","","","","","","","","","","","","","","","","","","",""
"36683.90000003576","","{""Q01"":""3"",""Q02"":""2"",""Q03"":""1"",""Q04"":""2"",""Q05"":""2"",""Q06"":""2"",""Q07"":""2"",""Q08"":""2"",""Q09"":""3"",""Q10"":""3""}","survey-template","5","165520","0.0-4.0","2","3","3","2","1","2","1","2","2","3","3","2","1","2","2","2","2","2","3","3","2","3","4","4","4","4","4","1","4","1","0","1","1","0","0","1","1","0","1","-1","0","1","0","1","3","5","4","4","4","5","2","3","2","1","746397539082964994","孟","","","","{""Q01"":""3"",""Q02"":""2"",""Q03"":""1"",""Q04"":""2"",""Q05"":""2"",""Q06"":""2"",""Q07"":""2"",""Q08"":""2"",""Q09"":""3"",""Q10"":""3""}","[0,1,2,3,4,5,6,7,8,9]","[""Q01"",""Q02"",""Q03"",""Q04"",""Q05"",""Q06"",""Q07"",""Q08"",""Q09"",""Q10"",""Q10""]","[11280.600000023842,13874.700000047684,16652.400000035763,18931,22432.900000035763,24230.80000001192,25922.400000035763,29727,32544.600000023842,34073,35836.90000003576]","[]","[9468.5,11280.600000023842,13874.700000047684,16652.400000035763,18931,22432.900000035763,24230.80000001192,25922.400000035763,29727,32544.600000023842,34073,35836.90000003576,36683.10000002384]","0.4","0.3333333333333333","0","","","","","","","","","","","","","","","","","","","","","","","","","","","",""
"","","","preload","6","166185","0.0-5.0","2","3","3","2","1","2","1","2","2","3","3","2","1","2","2","2","2","2","3","3","2","3","4","4","4","4","4","1","4","1","0","1","1","0","0","1","1","0","1","-1","0","1","0","1","3","5","4","4","4","5","2","3","2","1","746397539082964994","孟","","true","","","","","","","","","","","false","[]","[]","[]","","","","","","","","","","","","","","","","","","","","","","","",""
"73245","","","instructions","7","239430","0.0-6.0","2","3","3","2","1","2","1","2","2","3","3","2","1","2","2","2","2","2","3","3","2","3","4","4","4","4","4","1","4","1","0","1","1","0","0","1","1","0","1","-1","0","1","0","1","3","5","4","4","4","5","2","3","2","1","746397539082964994","孟","","","","","","","","","","","","","","","","","[{""page_index"":0,""viewing_time"":73244}]","","","","","","","","","","","","","","","","","","","","","","",""
"63877","","","instructions","8","303308","0.0-7.0-1.0-0.0","2","3","3","2","1","2","1","2","2","3","3","2","1","2","2","2","2","2","3","3","2","3","4","4","4","4","4","1","4","1","0","1","1","0","0","1","1","0","1","-1","0","1","0","1","3","5","4","4","4","5","2","3","2","1","746397539082964994","孟","","","","","","","","","","","","","","","","","[{""page_index"":0,""viewing_time"":34989},{""page_index"":1,""viewing_time"":25090},{""page_index"":2,""viewing_time"":3799}]","","","","","","","","","","","","","","","","","","","","","","",""
"null","","null","psychophysics","9","305515","0.0-7.0-1.0-1.0-0.0-0.0","2","3","3","2","1","2","1","2","2","3","3","2","1","2","2","2","2","2","3","3","2","3","4","4","4","4","4","1","4","1","0","1","1","0","0","1","1","0","1","-1","0","1","0","1","3","5","4","4","4","5","2","3","2","1","746397539082964994","孟","","","","null","","","","","","","","","","","","","","key","null","16.666160305343453","640","356","f","false","match","img/hexagon.png","六边","六边","ALT1_2","prac_ALT1_2","","","","","","","","","",""
"null","<span class='add_' style='color:yellow; font-size: 70px;'> 太慢! </span>","null","html-keyboard-response","10","306017","0.0-7.0-1.0-1.0-0.0-1.0","2","3","3","2","1","2","1","2","2","3","3","2","1","2","2","2","2","2","3","3","2","3","4","4","4","4","4","1","4","1","0","1","1","0","0","1","1","0","1","-1","0","1","0","1","3","5","4","4","4","5","2","3","2","1","746397539082964994","孟","","","","","","","","","","","","","","","","","","","","","","","","","","","","","","feedback_test","","","","","","","","","",""
"null","","null","psychophysics","11","308220","0.0-7.0-1.0-1.0-0.0-0.1","2","3","3","2","1","2","1","2","2","3","3","2","1","2","2","2","2","2","3","3","2","3","4","4","4","4","4","1","4","1","0","1","1","0","0","1","1","0","1","-1","0","1","0","1","3","5","4","4","4","5","2","3","2","1","746397539082964994","孟","","","","null","","","","","","","","","","","","","","key","null","16.667091603053624","640","356","f","false","match","img/diamond.png","菱形","菱形","ALT1_2","prac_ALT1_2","","","","","","","","","",""
"null","<span class='add_' style='color:yellow; font-size: 70px;'> 太慢! </span>","null","html-keyboard-response","12","308722","0.0-7.0-1.0-1.0-0.0-1.1","2","3","3","2","1","2","1","2","2","3","3","2","1","2","2","2","2","2","3","3","2","3","4","4","4","4","4","1","4","1","0","1","1","0","0","1","1","0","1","-1","0","1","0","1","3","5","4","4","4","5","2","3","2","1","746397539082964994","孟","","","","","","","","","","","","","","","","","","","","","","","","","","","","","","feedback_test","","","","","","","","","",""
"null","","null","psychophysics","13","310925","0.0-7.0-1.0-1.0-0.0-0.2","2","3","3","2","1","2","1","2","2","3","3","2","1","2","2","2","2","2","3","3","2","3","4","4","4","4","4","1","4","1","0","1","1","0","0","1","1","0","1","-1","0","1","0","1","3","5","4","4","4","5","2","3","2","1","746397539082964994","孟","","","","null","","","","","","","","","","","","","","key","null","16.663145038168185","640","356","f","false","match","img/ellipse.png","椭圆","椭圆","ALT1_2","prac_ALT1_2","","","","","","","","","",""
"null","<span class='add_' style='color:yellow; font-size: 70px;'> 太慢! </span>","null","html-keyboard-response","14","311427","0.0-7.0-1.0-1.0-0.0-1.2","2","3","3","2","1","2","1","2","2","3","3","2","1","2","2","2","2","2","3","3","2","3","4","4","4","4","4","1","4","1","0","1","1","0","0","1","1","0","1","-1","0","1","0","1","3","5","4","4","4","5","2","3","2","1","746397539082964994","孟","","","","","","","","","","","","","","","","","","","","","","","","","","","","","","feedback_test","","","","","","","","","",""
"460","","f","psychophysics","15","312888","0.0-7.0-1.0-1.0-0.0-0.3","2","3","3","2","1","2","1","2","2","3","3","2","1","2","2","2","2","2","3","3","2","3","4","4","4","4","4","1","4","1","0","1","1","0","0","1","1","0","1","-1","0","1","0","1","3","5","4","4","4","5","2","3","2","1","746397539082964994","孟","","","","match","","","","","","","","","","","","","","key","f","16.66787209302298","640","356","f","true","match","img/hexagon.png","六边","六边","ALT1_2","prac_ALT1_2","","","","","","","","","",""
"null","<span style='color:GreenYellow; font-size: 70px;'>正确! </span>","null","html-keyboard-response","16","313391","0.0-7.0-1.0-1.0-0.0-1.3","2","3","3","2","1","2","1","2","2","3","3","2","1","2","2","2","2","2","3","3","2","3","4","4","4","4","4","1","4","1","0","1","1","0","0","1","1","0","1","-1","0","1","0","1","3","5","4","4","4","5","2","3","2","1","746397539082964994","孟","","","","","","","","","","","","","","","","","","","","","","","","","","","","","","feedback_test","","","","","","","","","",""
"756","","f","psychophysics","17","315147","0.0-7.0-1.0-1.0-0.0-0.4","2","3","3","2","1","2","1","2","2","3","3","2","1","2","2","2","2","2","3","3","2","3","4","4","4","4","4","1","4","1","0","1","1","0","0","1","1","0","1","-1","0","1","0","1","3","5","4","4","4","5","2","3","2","1","746397539082964994","孟","","","","match","","","","","","","","","","","","","","key","f","16.666932692308016","640","356","f","true","match","img/square.png","方形","方形","ALT1_2","prac_ALT1_2","","","","","","","","","",""
"null","<span style='color:GreenYellow; font-size: 70px;'>正确! </span>","null","html-keyboard-response","18","315648","0.0-7.0-1.0-1.0-0.0-1.4","2","3","3","2","1","2","1","2","2","3","3","2","1","2","2","2","2","2","3","3","2","3","4","4","4","4","4","1","4","1","0","1","1","0","0","1","1","0","1","-1","0","1","0","1","3","5","4","4","4","5","2","3","2","1","746397539082964994","孟","","","","","","","","","","","","","","","","","","","","","","","","","","","","","","feedback_test","","","","","","","","","",""
"382","","f","psychophysics","19","317032","0.0-7.0-1.0-1.0-0.0-0.5","2","3","3","2","1","2","1","2","2","3","3","2","1","2","2","2","2","2","3","3","2","3","4","4","4","4","4","1","4","1","0","1","1","0","0","1","1","0","1","-1","0","1","0","1","3","5","4","4","4","5","2","3","2","1","746397539082964994","孟","","","","match","","","","","","","","","","","","","","key","f","16.668207317073232","640","356","j","false","nonmatch","img/hexagon.png","方形","六边","ALT1_2","prac_ALT1_2","","","","","","","","","",""
"null","<span style='color:red; font-size: 70px;'>错误! </span>","null","html-keyboard-response","20","317533","0.0-7.0-1.0-1.0-0.0-1.5","2","3","3","2","1","2","1","2","2","3","3","2","1","2","2","2","2","2","3","3","2","3","4","4","4","4","4","1","4","1","0","1","1","0","0","1","1","0","1","-1","0","1","0","1","3","5","4","4","4","5","2","3","2","1","746397539082964994","孟","","","","","","","","","","","","","","","","","","","","","","","","","","","","","","feedback_test","","","","","","","","","",""
"616","","f","psychophysics","21","319150","0.0-7.0-1.0-1.0-0.0-0.6","2","3","3","2","1","2","1","2","2","3","3","2","1","2","2","2","2","2","3","3","2","3","4","4","4","4","4","1","4","1","0","1","1","0","0","1","1","0","1","-1","0","1","0","1","3","5","4","4","4","5","2","3","2","1","746397539082964994","孟","","","","match","","","","","","","","","","","","","","key","f","16.66693750000013","640","356","j","false","nonmatch","img/square.png","六边","方形","ALT1_2","prac_ALT1_2","","","","","","","","","",""
"null","<span style='color:red; font-size: 70px;'>错误! </span>","null","html-keyboard-response","22","319650","0.0-7.0-1.0-1.0-0.0-1.6","2","3","3","2","1","2","1","2","2","3","3","2","1","2","2","2","2","2","3","3","2","3","4","4","4","4","4","1","4","1","0","1","1","0","0","1","1","0","1","-1","0","1","0","1","3","5","4","4","4","5","2","3","2","1","746397539082964994","孟","","","","","","","","","","","","","","","","","","","","","","","","","","","","","","feedback_test","","","","","","","","","",""
"686","","j","psychophysics","23","321338","0.0-7.0-1.0-1.0-0.0-0.7","2","3","3","2","1","2","1","2","2","3","3","2","1","2","2","2","2","2","3","3","2","3","4","4","4","4","4","1","4","1","0","1","1","0","0","1","1","0","1","-1","0","1","0","1","3","5","4","4","4","5","2","3","2","1","746397539082964994","孟","","","","nonmatch","","","","","","","","","","","","","","key","j","16.666080000000076","640","356","f","false","match","img/ellipse.png","椭圆","椭圆","ALT1_2","prac_ALT1_2","","","","","","","","","",""
"null","<span style='color:red; font-size: 70px;'>错误! </span>","null","html-keyboard-response","24","321839","0.0-7.0-1.0-1.0-0.0-1.7","2","3","3","2","1","2","1","2","2","3","3","2","1","2","2","2","2","2","3","3","2","3","4","4","4","4","4","1","4","1","0","1","1","0","0","1","1","0","1","-1","0","1","0","1","3","5","4","4","4","5","2","3","2","1","746397539082964994","孟","","","","","","","","","","","","","","","","","","","","","","","","","","","","","","feedback_test","","","","","","","","","",""
"503","","f","psychophysics","25","323343","0.0-7.0-1.0-1.0-0.0-0.8","2","3","3","2","1","2","1","2","2","3","3","2","1","2","2","2","2","2","3","3","2","3","4","4","4","4","4","1","4","1","0","1","1","0","0","1","1","0","1","-1","0","1","0","1","3","5","4","4","4","5","2","3","2","1","746397539082964994","孟","","","","match","","","","","","","","","","","","","","key","f","16.666988764044547","640","356","f","true","match","img/square.png","方形","方形","ALT1_2","prac_ALT1_2","","","","","","","","","",""
"null","<span style='color:GreenYellow; font-size: 70px;'>正确! </span>","null","html-keyboard-response","26","323845","0.0-7.0-1.0-1.0-0.0-1.8","2","3","3","2","1","2","1","2","2","3","3","2","1","2","2","2","2","2","3","3","2","3","4","4","4","4","4","1","4","1","0","1","1","0","0","1","1","0","1","-1","0","1","0","1","3","5","4","4","4","5","2","3","2","1","746397539082964994","孟","","","","","","","","","","","","","","","","","","","","","","","","","","","","","","feedback_test","","","","","","","","","",""
"621","","f","psychophysics","27","325467","0.0-7.0-1.0-1.0-0.0-0.9","2","3","3","2","1","2","1","2","2","3","3","2","1","2","2","2","2","2","3","3","2","3","4","4","4","4","4","1","4","1","0","1","1","0","0","1","1","0","1","-1","0","1","0","1","3","5","4","4","4","5","2","3","2","1","746397539082964994","孟","","","","match","","","","","","","","","","","","","","key","f","16.66670833333289","640","356","j","false","nonmatch","img/square.png","椭圆","方形","ALT1_2","prac_ALT1_2","","","","","","","","","",""
"null","<span style='color:red; font-size: 70px;'>错误! </span>","null","html-keyboard-response","28","325969","0.0-7.0-1.0-1.0-0.0-1.9","2","3","3","2","1","2","1","2","2","3","3","2","1","2","2","2","2","2","3","3","2","3","4","4","4","4","4","1","4","1","0","1","1","0","0","1","1","0","1","-1","0","1","0","1","3","5","4","4","4","5","2","3","2","1","746397539082964994","孟","","","","","","","","","","","","","","","","","","","","","","","","","","","","","","feedback_test","","","","","","","","","",""
"657","","f","psychophysics","29","327627","0.0-7.0-1.0-1.0-0.0-0.10","2","3","3","2","1","2","1","2","2","3","3","2","1","2","2","2","2","2","3","3","2","3","4","4","4","4","4","1","4","1","0","1","1","0","0","1","1","0","1","-1","0","1","0","1","3","5","4","4","4","5","2","3","2","1","746397539082964994","孟","","","","match","","","","","","","","","","","","","","key","f","16.667646464646555","640","356","f","true","match","img/ellipse.png","椭圆","椭圆","ALT1_2","prac_ALT1_2","","","","","","","","","",""
"null","<span style='color:GreenYellow; font-size: 70px;'>正确! </span>","null","html-keyboard-response","30","328129","0.0-7.0-1.0-1.0-0.0-1.10","2","3","3","2","1","2","1","2","2","3","3","2","1","2","2","2","2","2","3","3","2","3","4","4","4","4","4","1","4","1","0","1","1","0","0","1","1","0","1","-1","0","1","0","1","3","5","4","4","4","5","2","3","2","1","746397539082964994","孟","","","","","","","","","","","","","","","","","","","","","","","","","","","","","","feedback_test","","","","","","","","","",""
"948","","j","psychophysics","31","330077","0.0-7.0-1.0-1.0-0.0-0.11","2","3","3","2","1","2","1","2","2","3","3","2","1","2","2","2","2","2","3","3","2","3","4","4","4","4","4","1","4","1","0","1","1","0","0","1","1","0","1","-1","0","1","0","1","3","5","4","4","4","5","2","3","2","1","746397539082964994","孟","","","","nonmatch","","","","","","","","","","","","","","key","j","16.66588793103463","640","356","j","true","nonmatch","img/ellipse.png","方形","椭圆","ALT1_2","prac_ALT1_2","","","","","","","","","",""
"null","<span style='color:GreenYellow; font-size: 70px;'>正确! </span>","null","html-keyboard-response","32","330578","0.0-7.0-1.0-1.0-0.0-1.11","2","3","3","2","1","2","1","2","2","3","3","2","1","2","2","2","2","2","3","3","2","3","4","4","4","4","4","1","4","1","0","1","1","0","0","1","1","0","1","-1","0","1","0","1","3","5","4","4","4","5","2","3","2","1","746397539082964994","孟","","","","","","","","","","","","","","","","","","","","","","","","","","","","","","feedback_test","","","","","","","","","",""
"null","","null","psychophysics","33","332788","0.0-7.0-1.0-1.0-0.0-0.12","2","3","3","2","1","2","1","2","2","3","3","2","1","2","2","2","2","2","3","3","2","3","4","4","4","4","4","1","4","1","0","1","1","0","0","1","1","0","1","-1","0","1","0","1","3","5","4","4","4","5","2","3","2","1","746397539082964994","孟","","","","null","","","","","","","","","","","","","","key","null","16.66626717557265","640","356","j","false","nonmatch","img/square.png","菱形","方形","ALT1_2","prac_ALT1_2","","","","","","","","","",""
"null","<span class='add_' style='color:yellow; font-size: 70px;'> 太慢! </span>","null","html-keyboard-response","34","333291","0.0-7.0-1.0-1.0-0.0-1.12","2","3","3","2","1","2","1","2","2","3","3","2","1","2","2","2","2","2","3","3","2","3","4","4","4","4","4","1","4","1","0","1","1","0","0","1","1","0","1","-1","0","1","0","1","3","5","4","4","4","5","2","3","2","1","746397539082964994","孟","","","","","","","","","","","","","","","","","","","","","","","","","","","","","","feedback_test","","","","","","","","","",""
"942","","f","psychophysics","35","335235","0.0-7.0-1.0-1.0-0.0-0.13","2","3","3","2","1","2","1","2","2","3","3","2","1","2","2","2","2","2","3","3","2","3","4","4","4","4","4","1","4","1","0","1","1","0","0","1","1","0","1","-1","0","1","0","1","3","5","4","4","4","5","2","3","2","1","746397539082964994","孟","","","","match","","","","","","","","","","","","","","key","f","16.666643478261285","640","356","j","false","nonmatch","img/ellipse.png","六边","椭圆","ALT1_2","prac_ALT1_2","","","","","","","","","",""
"null","<span style='color:red; font-size: 70px;'>错误! </span>","null","html-keyboard-response","36","335736","0.0-7.0-1.0-1.0-0.0-1.13","2","3","3","2","1","2","1","2","2","3","3","2","1","2","2","2","2","2","3","3","2","3","4","4","4","4","4","1","4","1","0","1","1","0","0","1","1","0","1","-1","0","1","0","1","3","5","4","4","4","5","2","3","2","1","746397539082964994","孟","","","","","","","","","","","","","","","","","","","","","","","","","","","","","","feedback_test","","","","","","","","","",""
"1080","","j","psychophysics","37","337817","0.0-7.0-1.0-1.0-0.0-0.14","2","3","3","2","1","2","1","2","2","3","3","2","1","2","2","2","2","2","3","3","2","3","4","4","4","4","4","1","4","1","0","1","1","0","0","1","1","0","1","-1","0","1","0","1","3","5","4","4","4","5","2","3","2","1","746397539082964994","孟","","","","nonmatch","","","","","","","","","","","","","","key","j","16.667951612903234","640","356","f","false","match","img/diamond.png","菱形","菱形","ALT1_2","prac_ALT1_2","","","","","","","","","",""
"null","<span style='color:red; font-size: 70px;'>错误! </span>","null","html-keyboard-response","38","338319","0.0-7.0-1.0-1.0-0.0-1.14","2","3","3","2","1","2","1","2","2","3","3","2","1","2","2","2","2","2","3","3","2","3","4","4","4","4","4","1","4","1","0","1","1","0","0","1","1","0","1","-1","0","1","0","1","3","5","4","4","4","5","2","3","2","1","746397539082964994","孟","","","","","","","","","","","","","","","","","","","","","","","","","","","","","","feedback_test","","","","","","","","","",""
"970","","j","psychophysics","39","340291","0.0-7.0-1.0-1.0-0.0-0.15","2","3","3","2","1","2","1","2","2","3","3","2","1","2","2","2","2","2","3","3","2","3","4","4","4","4","4","1","4","1","0","1","1","0","0","1","1","0","1","-1","0","1","0","1","3","5","4","4","4","5","2","3","2","1","746397539082964994","孟","","","","nonmatch","","","","","","","","","","","","","","key","j","16.666085470085726","640","356","j","true","nonmatch","img/diamond.png","方形","菱形","ALT1_2","prac_ALT1_2","","","","","","","","","",""
"null","<span style='color:GreenYellow; font-size: 70px;'>正确! </span>","null","html-keyboard-response","40","340792","0.0-7.0-1.0-1.0-0.0-1.15","2","3","3","2","1","2","1","2","2","3","3","2","1","2","2","2","2","2","3","3","2","3","4","4","4","4","4","1","4","1","0","1","1","0","0","1","1","0","1","-1","0","1","0","1","3","5","4","4","4","5","2","3","2","1","746397539082964994","孟","","","","","","","","","","","","","","","","","","","","","","","","","","","","","","feedback_test","","","","","","","","","",""
"null","","null","psychophysics","41","342994","0.0-7.0-1.0-1.0-0.0-0.16","2","3","3","2","1","2","1","2","2","3","3","2","1","2","2","2","2","2","3","3","2","3","4","4","4","4","4","1","4","1","0","1","1","0","0","1","1","0","1","-1","0","1","0","1","3","5","4","4","4","5","2","3","2","1","746397539082964994","孟","","","","null","","","","","","","","","","","","","","key","null","16.667656488549532","640","356","j","false","nonmatch","img/hexagon.png","椭圆","六边","ALT1_2","prac_ALT1_2","","","","","","","","","",""
"null","<span class='add_' style='color:yellow; font-size: 70px;'> 太慢! </span>","null","html-keyboard-response","42","343496","0.0-7.0-1.0-1.0-0.0-1.16","2","3","3","2","1","2","1","2","2","3","3","2","1","2","2","2","2","2","3","3","2","3","4","4","4","4","4","1","4","1","0","1","1","0","0","1","1","0","1","-1","0","1","0","1","3","5","4","4","4","5","2","3","2","1","746397539082964994","孟","","","","","","","","","","","","","","","","","","","","","","","","","","","","","","feedback_test","","","","","","","","","",""
"null","","null","psychophysics","43","345698","0.0-7.0-1.0-1.0-0.0-0.17","2","3","3","2","1","2","1","2","2","3","3","2","1","2","2","2","2","2","3","3","2","3","4","4","4","4","4","1","4","1","0","1","1","0","0","1","1","0","1","-1","0","1","0","1","3","5","4","4","4","5","2","3","2","1","746397539082964994","孟","","","","null","","","","","","","","","","","","","","key","null","16.667923664121858","640","356","f","false","match","img/diamond.png","菱形","菱形","ALT1_2","prac_ALT1_2","","","","","","","","","",""
"null","<span class='add_' style='color:yellow; font-size: 70px;'> 太慢! </span>","null","html-keyboard-response","44","346198","0.0-7.0-1.0-1.0-0.0-1.17","2","3","3","2","1","2","1","2","2","3","3","2","1","2","2","2","2","2","3","3","2","3","4","4","4","4","4","1","4","1","0","1","1","0","0","1","1","0","1","-1","0","1","0","1","3","5","4","4","4","5","2","3","2","1","746397539082964994","孟","","","","","","","","","","","","","","","","","","","","","","","","","","","","","","feedback_test","","","","","","","","","",""
"845","","j","psychophysics","45","348045","0.0-7.0-1.0-1.0-0.0-0.18","2","3","3","2","1","2","1","2","2","3","3","2","1","2","2","2","2","2","3","3","2","3","4","4","4","4","4","1","4","1","0","1","1","0","0","1","1","0","1","-1","0","1","0","1","3","5","4","4","4","5","2","3","2","1","746397539082964994","孟","","","","nonmatch","","","","","","","","","","","","","","key","j","16.667990909090836","640","356","f","false","match","img/hexagon.png","六边","六边","ALT1_2","prac_ALT1_2","","","","","","","","","",""
"null","<span style='color:red; font-size: 70px;'>错误! </span>","null","html-keyboard-response","46","348547","0.0-7.0-1.0-1.0-0.0-1.18","2","3","3","2","1","2","1","2","2","3","3","2","1","2","2","2","2","2","3","3","2","3","4","4","4","4","4","1","4","1","0","1","1","0","0","1","1","0","1","-1","0","1","0","1","3","5","4","4","4","5","2","3","2","1","746397539082964994","孟","","","","","","","","","","","","","","","","","","","","","","","","","","","","","","feedback_test","","","","","","","","","",""
"952","","f","psychophysics","47","350501","0.0-7.0-1.0-1.0-0.0-0.19","2","3","3","2","1","2","1","2","2","3","3","2","1","2","2","2","2","2","3","3","2","3","4","4","4","4","4","1","4","1","0","1","1","0","0","1","1","0","1","-1","0","1","0","1","3","5","4","4","4","5","2","3","2","1","746397539082964994","孟","","","","match","","","","","","","","","","","","","","key","f","16.667543103448256","640","356","j","false","nonmatch","img/ellipse.png","菱形","椭圆","ALT1_2","prac_ALT1_2","","","","","","","","","",""
"null","<span style='color:red; font-size: 70px;'>错误! </span>","null","html-keyboard-response","48","351003","0.0-7.0-1.0-1.0-0.0-1.19","2","3","3","2","1","2","1","2","2","3","3","2","1","2","2","2","2","2","3","3","2","3","4","4","4","4","4","1","4","1","0","1","1","0","0","1","1","0","1","-1","0","1","0","1","3","5","4","4","4","5","2","3","2","1","746397539082964994","孟","","","","","","","","","","","","","","","","","","","","","","","","","","","","","","feedback_test","","","","","","","","","",""
"882","","j","psychophysics","49","352887","0.0-7.0-1.0-1.0-0.0-0.20","2","3","3","2","1","2","1","2","2","3","3","2","1","2","2","2","2","2","3","3","2","3","4","4","4","4","4","1","4","1","0","1","1","0","0","1","1","0","1","-1","0","1","0","1","3","5","4","4","4","5","2","3","2","1","746397539082964994","孟","","","","nonmatch","","","","","","","","","","","","","","key","j","16.657810810810744","640","356","j","true","nonmatch","img/diamond.png","椭圆","菱形","ALT1_2","prac_ALT1_2","","","","","","","","","",""
"null","<span style='color:GreenYellow; font-size: 70px;'>正确! </span>","null","html-keyboard-response","50","353388","0.0-7.0-1.0-1.0-0.0-1.20","2","3","3","2","1","2","1","2","2","3","3","2","1","2","2","2","2","2","3","3","2","3","4","4","4","4","4","1","4","1","0","1","1","0","0","1","1","0","1","-1","0","1","0","1","3","5","4","4","4","5","2","3","2","1","746397539082964994","孟","","","","","","","","","","","","","","","","","","","","","","","","","","","","","","feedback_test","","","","","","","","","",""
"1017","","f","psychophysics","51","355406","0.0-7.0-1.0-1.0-0.0-0.21","2","3","3","2","1","2","1","2","2","3","3","2","1","2","2","2","2","2","3","3","2","3","4","4","4","4","4","1","4","1","0","1","1","0","0","1","1","0","1","-1","0","1","0","1","3","5","4","4","4","5","2","3","2","1","746397539082964994","孟","","","","match","","","","","","","","","","","","","","key","f","16.665399999999984","640","356","f","true","match","img/square.png","方形","方形","ALT1_2","prac_ALT1_2","","","","","","","","","",""
"null","<span style='color:GreenYellow; font-size: 70px;'>正确! </span>","null","html-keyboard-response","52","355907","0.0-7.0-1.0-1.0-0.0-1.21","2","3","3","2","1","2","1","2","2","3","3","2","1","2","2","2","2","2","3","3","2","3","4","4","4","4","4","1","4","1","0","1","1","0","0","1","1","0","1","-1","0","1","0","1","3","5","4","4","4","5","2","3","2","1","746397539082964994","孟","","","","","","","","","","","","","","","","","","","","","","","","","","","","","","feedback_test","","","","","","","","","",""
"756","","j","psychophysics","53","357664","0.0-7.0-1.0-1.0-0.0-0.22","2","3","3","2","1","2","1","2","2","3","3","2","1","2","2","2","2","2","3","3","2","3","4","4","4","4","4","1","4","1","0","1","1","0","0","1","1","0","1","-1","0","1","0","1","3","5","4","4","4","5","2","3","2","1","746397539082964994","孟","","","","nonmatch","","","","","","","","","","","","","","key","j","16.667134615384455","640","356","j","true","nonmatch","img/hexagon.png","菱形","六边","ALT1_2","prac_ALT1_2","","","","","","","","","",""
"null","<span style='color:GreenYellow; font-size: 70px;'>正确! </span>","null","html-keyboard-response","54","358164","0.0-7.0-1.0-1.0-0.0-1.22","2","3","3","2","1","2","1","2","2","3","3","2","1","2","2","2","2","2","3","3","2","3","4","4","4","4","4","1","4","1","0","1","1","0","0","1","1","0","1","-1","0","1","0","1","3","5","4","4","4","5","2","3","2","1","746397539082964994","孟","","","","","","","","","","","","","","","","","","","","","","","","","","","","","","feedback_test","","","","","","","","","",""
"788","","j","psychophysics","55","359953","0.0-7.0-1.0-1.0-0.0-0.23","2","3","3","2","1","2","1","2","2","3","3","2","1","2","2","2","2","2","3","3","2","3","4","4","4","4","4","1","4","1","0","1","1","0","0","1","1","0","1","-1","0","1","0","1","3","5","4","4","4","5","2","3","2","1","746397539082964994","孟","","","","nonmatch","","","","","","","","","","","","","","key","j","16.66665094339603","640","356","j","true","nonmatch","img/diamond.png","六边","菱形","ALT1_2","prac_ALT1_2","","","","","","","","","",""
"null","<span style='color:GreenYellow; font-size: 70px;'>正确! </span>","null","html-keyboard-response","56","360455","0.0-7.0-1.0-1.0-0.0-1.23","2","3","3","2","1","2","1","2","2","3","3","2","1","2","2","2","2","2","3","3","2","3","4","4","4","4","4","1","4","1","0","1","1","0","0","1","1","0","1","-1","0","1","0","1","3","5","4","4","4","5","2","3","2","1","746397539082964994","孟","","","","","","","","","","","","","","","","","","","","","","","","","","","","","","feedback_test","","","","","","","","","",""
"742","","j","psychophysics","57","362199","0.0-7.0-1.0-1.0-0.0-0.24","2","3","3","2","1","2","1","2","2","3","3","2","1","2","2","2","2","2","3","3","2","3","4","4","4","4","4","1","4","1","0","1","1","0","0","1","1","0","1","-1","0","1","0","1","3","5","4","4","4","5","2","3","2","1","746397539082964994","孟","","","","nonmatch","","","","","","","","","","","","","","key","j","16.66660194174789","640","356","f","false","match","img/hexagon.png","六边","六边","ALT1_2","prac_ALT1_2","","","","","","","","","",""
"null","<span style='color:red; font-size: 70px;'>错误! </span>","null","html-keyboard-response","58","362700","0.0-7.0-1.0-1.0-0.0-1.24","2","3","3","2","1","2","1","2","2","3","3","2","1","2","2","2","2","2","3","3","2","3","4","4","4","4","4","1","4","1","0","1","1","0","0","1","1","0","1","-1","0","1","0","1","3","5","4","4","4","5","2","3","2","1","746397539082964994","孟","","","","","","","","","","","","","","","","","","","","","","","","","","","","","","feedback_test","","","","","","","","","",""
"940","","j","psychophysics","59","364642","0.0-7.0-1.0-1.0-0.0-0.25","2","3","3","2","1","2","1","2","2","3","3","2","1","2","2","2","2","2","3","3","2","3","4","4","4","4","4","1","4","1","0","1","1","0","0","1","1","0","1","-1","0","1","0","1","3","5","4","4","4","5","2","3","2","1","746397539082964994","孟","","","","nonmatch","","","","","","","","","","","","","","key","j","16.6663620689656","640","356","j","true","nonmatch","img/diamond.png","六边","菱形","ALT1_2","prac_ALT1_2","","","","","","","","","",""
"null","<span style='color:GreenYellow; font-size: 70px;'>正确! </span>","null","html-keyboard-response","60","365143","0.0-7.0-1.0-1.0-0.0-1.25","2","3","3","2","1","2","1","2","2","3","3","2","1","2","2","2","2","2","3","3","2","3","4","4","4","4","4","1","4","1","0","1","1","0","0","1","1","0","1","-1","0","1","0","1","3","5","4","4","4","5","2","3","2","1","746397539082964994","孟","","","","","","","","","","","","","","","","","","","","","","","","","","","","","","feedback_test","","","","","","","","","",""
"null","","null","psychophysics","61","367351","0.0-7.0-1.0-1.0-0.0-0.26","2","3","3","2","1","2","1","2","2","3","3","2","1","2","2","2","2","2","3","3","2","3","4","4","4","4","4","1","4","1","0","1","1","0","0","1","1","0","1","-1","0","1","0","1","3","5","4","4","4","5","2","3","2","1","746397539082964994","孟","","","","null","","","","","","","","","","","","","","key","null","16.66562595419836","640","356","f","false","match","img/diamond.png","菱形","菱形","ALT1_2","prac_ALT1_2","","","","","","","","","",""
"null","<span class='add_' style='color:yellow; font-size: 70px;'> 太慢! </span>","null","html-keyboard-response","62","367853","0.0-7.0-1.0-1.0-0.0-1.26","2","3","3","2","1","2","1","2","2","3","3","2","1","2","2","2","2","2","3","3","2","3","4","4","4","4","4","1","4","1","0","1","1","0","0","1","1","0","1","-1","0","1","0","1","3","5","4","4","4","5","2","3","2","1","746397539082964994","孟","","","","","","","","","","","","","","","","","","","","","","","","","","","","","","feedback_test","","","","","","","","","",""
"null","","null","psychophysics","63","370056","0.0-7.0-1.0-1.0-0.0-0.27","2","3","3","2","1","2","1","2","2","3","3","2","1","2","2","2","2","2","3","3","2","3","4","4","4","4","4","1","4","1","0","1","1","0","0","1","1","0","1","-1","0","1","0","1","3","5","4","4","4","5","2","3","2","1","746397539082964994","孟","","","","null","","","","","","","","","","","","","","key","null","16.66587786259572","640","356","j","false","nonmatch","img/hexagon.png","椭圆","六边","ALT1_2","prac_ALT1_2","","","","","","","","","",""
"null","<span class='add_' style='color:yellow; font-size: 70px;'> 太慢! </span>","null","html-keyboard-response","64","370558","0.0-7.0-1.0-1.0-0.0-1.27","2","3","3","2","1","2","1","2","2","3","3","2","1","2","2","2","2","2","3","3","2","3","4","4","4","4","4","1","4","1","0","1","1","0","0","1","1","0","1","-1","0","1","0","1","3","5","4","4","4","5","2","3","2","1","746397539082964994","孟","","","","","","","","","","","","","","","","","","","","","","","","","","","","","","feedback_test","","","","","","","","","",""
"866","","f","psychophysics","65","372426","0.0-7.0-1.0-1.0-0.0-0.28","2","3","3","2","1","2","1","2","2","3","3","2","1","2","2","2","2","2","3","3","2","3","4","4","4","4","4","1","4","1","0","1","1","0","0","1","1","0","1","-1","0","1","0","1","3","5","4","4","4","5","2","3","2","1","746397539082964994","孟","","","","match","","","","","","","","","","","","","","key","f","16.665954954955236","640","356","j","false","nonmatch","img/diamond.png","方形","菱形","ALT1_2","prac_ALT1_2","","","","","","","","","",""
"null","<span style='color:red; font-size: 70px;'>错误! </span>","null","html-keyboard-response","66","372927","0.0-7.0-1.0-1.0-0.0-1.28","2","3","3","2","1","2","1","2","2","3","3","2","1","2","2","2","2","2","3","3","2","3","4","4","4","4","4","1","4","1","0","1","1","0","0","1","1","0","1","-1","0","1","0","1","3","5","4","4","4","5","2","3","2","1","746397539082964994","孟","","","","","","","","","","","","","","","","","","","","","","","","","","","","","","feedback_test","","","","","","","","","",""
"905","","f","psychophysics","67","374835","0.0-7.0-1.0-1.0-0.0-0.29","2","3","3","2","1","2","1","2","2","3","3","2","1","2","2","2","2","2","3","3","2","3","4","4","4","4","4","1","4","1","0","1","1","0","0","1","1","0","1","-1","0","1","0","1","3","5","4","4","4","5","2","3","2","1","746397539082964994","孟","","","","match","","","","","","","","","","","","","","key","f","16.667707964601778","640","356","f","true","match","img/hexagon.png","六边","六边","ALT1_2","prac_ALT1_2","","","","","","","","","",""
"null","<span style='color:GreenYellow; font-size: 70px;'>正确! </span>","null","html-keyboard-response","68","375337","0.0-7.0-1.0-1.0-0.0-1.29","2","3","3","2","1","2","1","2","2","3","3","2","1","2","2","2","2","2","3","3","2","3","4","4","4","4","4","1","4","1","0","1","1","0","0","1","1","0","1","-1","0","1","0","1","3","5","4","4","4","5","2","3","2","1","746397539082964994","孟","","","","","","","","","","","","","","","","","","","","","","","","","","","","","","feedback_test","","","","","","","","","",""
"653","","f","psychophysics","69","376991","0.0-7.0-1.0-1.0-0.0-0.30","2","3","3","2","1","2","1","2","2","3","3","2","1","2","2","2","2","2","3","3","2","3","4","4","4","4","4","1","4","1","0","1","1","0","0","1","1","0","1","-1","0","1","0","1","3","5","4","4","4","5","2","3","2","1","746397539082964994","孟","","","","match","","","","","","","","","","","","","","key","f","16.66496938775467","640","356","f","true","match","img/hexagon.png","六边","六边","ALT1_2","prac_ALT1_2","","","","","","","","","",""
"null","<span style='color:GreenYellow; font-size: 70px;'>正确! </span>","null","html-keyboard-response","70","377493","0.0-7.0-1.0-1.0-0.0-1.30","2","3","3","2","1","2","1","2","2","3","3","2","1","2","2","2","2","2","3","3","2","3","4","4","4","4","4","1","4","1","0","1","1","0","0","1","1","0","1","-1","0","1","0","1","3","5","4","4","4","5","2","3","2","1","746397539082964994","孟","","","","","","","","","","","","","","","","","","","","","","","","","","","","","","feedback_test","","","","","","","","","",""
"839","","f","psychophysics","71","379334","0.0-7.0-1.0-1.0-0.0-0.31","2","3","3","2","1","2","1","2","2","3","3","2","1","2","2","2","2","2","3","3","2","3","4","4","4","4","4","1","4","1","0","1","1","0","0","1","1","0","1","-1","0","1","0","1","3","5","4","4","4","5","2","3","2","1","746397539082964994","孟","","","","match","","","","","","","","","","","","","","key","f","16.665816513761673","640","356","f","true","match","img/square.png","方形","方形","ALT1_2","prac_ALT1_2","","","","","","","","","",""
"null","<span style='color:GreenYellow; font-size: 70px;'>正确! </span>","null","html-keyboard-response","72","379835","0.0-7.0-1.0-1.0-0.0-1.31","2","3","3","2","1","2","1","2","2","3","3","2","1","2","2","2","2","2","3","3","2","3","4","4","4","4","4","1","4","1","0","1","1","0","0","1","1","0","1","-1","0","1","0","1","3","5","4","4","4","5","2","3","2","1","746397539082964994","孟","","","","","","","","","","","","","","","","","","","","","","","","","","","","","","feedback_test","","","","","","","","","",""
"865","","f","psychophysics","73","381701","0.0-7.0-1.0-1.0-0.0-0.32","2","3","3","2","1","2","1","2","2","3","3","2","1","2","2","2","2","2","3","3","2","3","4","4","4","4","4","1","4","1","0","1","1","0","0","1","1","0","1","-1","0","1","0","1","3","5","4","4","4","5","2","3","2","1","746397539082964994","孟","","","","match","","","","","","","","","","","","","","key","f","16.657409090909113","640","356","f","true","match","img/square.png","方形","方形","ALT1_2","prac_ALT1_2","","","","","","","","","",""
"null","<span style='color:GreenYellow; font-size: 70px;'>正确! </span>","null","html-keyboard-response","74","382202","0.0-7.0-1.0-1.0-0.0-1.32","2","3","3","2","1","2","1","2","2","3","3","2","1","2","2","2","2","2","3","3","2","3","4","4","4","4","4","1","4","1","0","1","1","0","0","1","1","0","1","-1","0","1","0","1","3","5","4","4","4","5","2","3","2","1","746397539082964994","孟","","","","","","","","","","","","","","","","","","","","","","","","","","","","","","feedback_test","","","","","","","","","",""
"600","","f","psychophysics","75","383803","0.0-7.0-1.0-1.0-0.0-0.33","2","3","3","2","1","2","1","2","2","3","3","2","1","2","2","2","2","2","3","3","2","3","4","4","4","4","4","1","4","1","0","1","1","0","0","1","1","0","1","-1","0","1","0","1","3","5","4","4","4","5","2","3","2","1","746397539082964994","孟","","","","match","","","","","","","","","","","","","","key","f","16.660510638298373","640","356","j","false","nonmatch","img/square.png","菱形","方形","ALT1_2","prac_ALT1_2","","","","","","","","","",""
"null","<span style='color:red; font-size: 70px;'>错误! </span>","null","html-keyboard-response","76","384304","0.0-7.0-1.0-1.0-0.0-1.33","2","3","3","2","1","2","1","2","2","3","3","2","1","2","2","2","2","2","3","3","2","3","4","4","4","4","4","1","4","1","0","1","1","0","0","1","1","0","1","-1","0","1","0","1","3","5","4","4","4","5","2","3","2","1","746397539082964994","孟","","","","","","","","","","","","","","","","","","","","","","","","","","","","","","feedback_test","","","","","","","","","",""
"845","","f","psychophysics","77","386150","0.0-7.0-1.0-1.0-0.0-0.34","2","3","3","2","1","2","1","2","2","3","3","2","1","2","2","2","2","2","3","3","2","3","4","4","4","4","4","1","4","1","0","1","1","0","0","1","1","0","1","-1","0","1","0","1","3","5","4","4","4","5","2","3","2","1","746397539082964994","孟","","","","match","","","","","","","","","","","","","","key","f","16.665972477064358","640","356","j","false","nonmatch","img/square.png","椭圆","方形","ALT1_2","prac_ALT1_2","","","","","","","","","",""
"null","<span style='color:red; font-size: 70px;'>错误! </span>","null","html-keyboard-response","78","386652","0.0-7.0-1.0-1.0-0.0-1.34","2","3","3","2","1","2","1","2","2","3","3","2","1","2","2","2","2","2","3","3","2","3","4","4","4","4","4","1","4","1","0","1","1","0","0","1","1","0","1","-1","0","1","0","1","3","5","4","4","4","5","2","3","2","1","746397539082964994","孟","","","","","","","","","","","","","","","","","","","","","","","","","","","","","","feedback_test","","","","","","","","","",""
"1065","","j","psychophysics","79","388719","0.0-7.0-1.0-1.0-0.0-0.35","2","3","3","2","1","2","1","2","2","3","3","2","1","2","2","2","2","2","3","3","2","3","4","4","4","4","4","1","4","1","0","1","1","0","0","1","1","0","1","-1","0","1","0","1","3","5","4","4","4","5","2","3","2","1","746397539082964994","孟","","","","nonmatch","","","","","","","","","","","","","","key","j","16.66531147540988","640","356","j","true","nonmatch","img/diamond.png","椭圆","菱形","ALT1_2","prac_ALT1_2","","","","","","","","","",""
"null","<span style='color:GreenYellow; font-size: 70px;'>正确! </span>","null","html-keyboard-response","80","389219","0.0-7.0-1.0-1.0-0.0-1.35","2","3","3","2","1","2","1","2","2","3","3","2","1","2","2","2","2","2","3","3","2","3","4","4","4","4","4","1","4","1","0","1","1","0","0","1","1","0","1","-1","0","1","0","1","3","5","4","4","4","5","2","3","2","1","746397539082964994","孟","","","","","","","","","","","","","","","","","","","","","","","","","","","","","","feedback_test","","","","","","","","","",""
"903","","f","psychophysics","81","391124","0.0-7.0-1.0-1.0-0.0-0.36","2","3","3","2","1","2","1","2","2","3","3","2","1","2","2","2","2","2","3","3","2","3","4","4","4","4","4","1","4","1","0","1","1","0","0","1","1","0","1","-1","0","1","0","1","3","5","4","4","4","5","2","3","2","1","746397539082964994","孟","","","","match","","","","","","","","","","","","","","key","f","16.66640707964605","640","356","f","true","match","img/square.png","方形","方形","ALT1_2","prac_ALT1_2","","","","","","","","","",""
"null","<span style='color:GreenYellow; font-size: 70px;'>正确! </span>","null","html-keyboard-response","82","391624","0.0-7.0-1.0-1.0-0.0-1.36","2","3","3","2","1","2","1","2","2","3","3","2","1","2","2","2","2","2","3","3","2","3","4","4","4","4","4","1","4","1","0","1","1","0","0","1","1","0","1","-1","0","1","0","1","3","5","4","4","4","5","2","3","2","1","746397539082964994","孟","","","","","","","","","","","","","","","","","","","","","","","","","","","","","","feedback_test","","","","","","","","","",""
"805","","f","psychophysics","83","393430","0.0-7.0-1.0-1.0-0.0-0.37","2","3","3","2","1","2","1","2","2","3","3","2","1","2","2","2","2","2","3","3","2","3","4","4","4","4","4","1","4","1","0","1","1","0","0","1","1","0","1","-1","0","1","0","1","3","5","4","4","4","5","2","3","2","1","746397539082964994","孟","","","","match","","","","","","","","","","","","","","key","f","16.666766355140027","640","356","j","false","nonmatch","img/hexagon.png","方形","六边","ALT1_2","prac_ALT1_2","","","","","","","","","",""
"null","<span style='color:red; font-size: 70px;'>错误! </span>","null","html-keyboard-response","84","393931","0.0-7.0-1.0-1.0-0.0-1.37","2","3","3","2","1","2","1","2","2","3","3","2","1","2","2","2","2","2","3","3","2","3","4","4","4","4","4","1","4","1","0","1","1","0","0","1","1","0","1","-1","0","1","0","1","3","5","4","4","4","5","2","3","2","1","746397539082964994","孟","","","","","","","","","","","","","","","","","","","","","","","","","","","","","","feedback_test","","","","","","","","","",""
"null","","null","psychophysics","85","396137","0.0-7.0-1.0-1.0-0.0-0.38","2","3","3","2","1","2","1","2","2","3","3","2","1","2","2","2","2","2","3","3","2","3","4","4","4","4","4","1","4","1","0","1","1","0","0","1","1","0","1","-1","0","1","0","1","3","5","4","4","4","5","2","3","2","1","746397539082964994","孟","","","","null","","","","","","","","","","","","","","key","null","16.66707633587777","640","356","f","false","match","img/diamond.png","菱形","菱形","ALT1_2","prac_ALT1_2","","","","","","","","","",""
"null","<span class='add_' style='color:yellow; font-size: 70px;'> 太慢! </span>","null","html-keyboard-response","86","396639","0.0-7.0-1.0-1.0-0.0-1.38","2","3","3","2","1","2","1","2","2","3","3","2","1","2","2","2","2","2","3","3","2","3","4","4","4","4","4","1","4","1","0","1","1","0","0","1","1","0","1","-1","0","1","0","1","3","5","4","4","4","5","2","3","2","1","746397539082964994","孟","","","","","","","","","","","","","","","","","","","","","","","","","","","","","","feedback_test","","","","","","","","","",""
"1194","","j","psychophysics","87","398835","0.0-7.0-1.0-1.0-0.0-0.39","2","3","3","2","1","2","1","2","2","3","3","2","1","2","2","2","2","2","3","3","2","3","4","4","4","4","4","1","4","1","0","1","1","0","0","1","1","0","1","-1","0","1","0","1","3","5","4","4","4","5","2","3","2","1","746397539082964994","孟","","","","nonmatch","","","","","","","","","","","","","","key","j","16.667615384615225","640","356","j","true","nonmatch","img/ellipse.png","方形","椭圆","ALT1_2","prac_ALT1_2","","","","","","","","","",""
"null","<span style='color:GreenYellow; font-size: 70px;'>正确! </span>","null","html-keyboard-response","88","399336","0.0-7.0-1.0-1.0-0.0-1.39","2","3","3","2","1","2","1","2","2","3","3","2","1","2","2","2","2","2","3","3","2","3","4","4","4","4","4","1","4","1","0","1","1","0","0","1","1","0","1","-1","0","1","0","1","3","5","4","4","4","5","2","3","2","1","746397539082964994","孟","","","","","","","","","","","","","","","","","","","","","","","","","","","","","","feedback_test","","","","","","","","","",""
"980","","f","psychophysics","89","401317","0.0-7.0-1.0-1.0-0.0-0.40","2","3","3","2","1","2","1","2","2","3","3","2","1","2","2","2","2","2","3","3","2","3","4","4","4","4","4","1","4","1","0","1","1","0","0","1","1","0","1","-1","0","1","0","1","3","5","4","4","4","5","2","3","2","1","746397539082964994","孟","","","","match","","","","","","","","","","","","","","key","f","16.665700854700752","640","356","f","true","match","img/ellipse.png","椭圆","椭圆","ALT1_2","prac_ALT1_2","","","","","","","","","",""
"null","<span style='color:GreenYellow; font-size: 70px;'>正确! </span>","null","html-keyboard-response","90","401818","0.0-7.0-1.0-1.0-0.0-1.40","2","3","3","2","1","2","1","2","2","3","3","2","1","2","2","2","2","2","3","3","2","3","4","4","4","4","4","1","4","1","0","1","1","0","0","1","1","0","1","-1","0","1","0","1","3","5","4","4","4","5","2","3","2","1","746397539082964994","孟","","","","","","","","","","","","","","","","","","","","","","","","","","","","","","feedback_test","","","","","","","","","",""
"null","","null","psychophysics","91","404022","0.0-7.0-1.0-1.0-0.0-0.41","2","3","3","2","1","2","1","2","2","3","3","2","1","2","2","2","2","2","3","3","2","3","4","4","4","4","4","1","4","1","0","1","1","0","0","1","1","0","1","-1","0","1","0","1","3","5","4","4","4","5","2","3","2","1","746397539082964994","孟","","","","null","","","","","","","","","","","","","","key","null","16.666648854961874","640","356","j","false","nonmatch","img/hexagon.png","菱形","六边","ALT1_2","prac_ALT1_2","","","","","","","","","",""
"null","<span class='add_' style='color:yellow; font-size: 70px;'> 太慢! </span>","null","html-keyboard-response","92","404523","0.0-7.0-1.0-1.0-0.0-1.41","2","3","3","2","1","2","1","2","2","3","3","2","1","2","2","2","2","2","3","3","2","3","4","4","4","4","4","1","4","1","0","1","1","0","0","1","1","0","1","-1","0","1","0","1","3","5","4","4","4","5","2","3","2","1","746397539082964994","孟","","","","","","","","","","","","","","","","","","","","","","","","","","","","","","feedback_test","","","","","","","","","",""
"null","","null","psychophysics","93","406725","0.0-7.0-1.0-1.0-0.0-0.42","2","3","3","2","1","2","1","2","2","3","3","2","1","2","2","2","2","2","3","3","2","3","4","4","4","4","4","1","4","1","0","1","1","0","0","1","1","0","1","-1","0","1","0","1","3","5","4","4","4","5","2","3","2","1","746397539082964994","孟","","","","null","","","","","","","","","","","","","","key","null","16.66763358778642","640","356","f","false","match","img/ellipse.png","椭圆","椭圆","ALT1_2","prac_ALT1_2","","","","","","","","","",""
"null","<span class='add_' style='color:yellow; font-size: 70px;'> 太慢! </span>","null","html-keyboard-response","94","407226","0.0-7.0-1.0-1.0-0.0-1.42","2","3","3","2","1","2","1","2","2","3","3","2","1","2","2","2","2","2","3","3","2","3","4","4","4","4","4","1","4","1","0","1","1","0","0","1","1","0","1","-1","0","1","0","1","3","5","4","4","4","5","2","3","2","1","746397539082964994","孟","","","","","","","","","","","","","","","","","","","","","","","","","","","","","","feedback_test","","","","","","","","","",""
"807","","j","psychophysics","95","409034","0.0-7.0-1.0-1.0-0.0-0.43","2","3","3","2","1","2","1","2","2","3","3","2","1","2","2","2","2","2","3","3","2","3","4","4","4","4","4","1","4","1","0","1","1","0","0","1","1","0","1","-1","0","1","0","1","3","5","4","4","4","5","2","3","2","1","746397539082964994","孟","","","","nonmatch","","","","","","","","","","","","","","key","j","16.666074766355315","640","356","j","true","nonmatch","img/ellipse.png","菱形","椭圆","ALT1_2","prac_ALT1_2","","","","","","","","","",""
"null","<span style='color:GreenYellow; font-size: 70px;'>正确! </span>","null","html-keyboard-response","96","409535","0.0-7.0-1.0-1.0-0.0-1.43","2","3","3","2","1","2","1","2","2","3","3","2","1","2","2","2","2","2","3","3","2","3","4","4","4","4","4","1","4","1","0","1","1","0","0","1","1","0","1","-1","0","1","0","1","3","5","4","4","4","5","2","3","2","1","746397539082964994","孟","","","","","","","","","","","","","","","","","","","","","","","","","","","","","","feedback_test","","","","","","","","","",""
"825","","f","psychophysics","97","411361","0.0-7.0-1.0-1.0-0.0-0.44","2","3","3","2","1","2","1","2","2","3","3","2","1","2","2","2","2","2","3","3","2","3","4","4","4","4","4","1","4","1","0","1","1","0","0","1","1","0","1","-1","0","1","0","1","3","5","4","4","4","5","2","3","2","1","746397539082964994","孟","","","","match","","","","","","","","","","","","","","key","f","16.665879629629437","640","356","j","false","nonmatch","img/square.png","六边","方形","ALT1_2","prac_ALT1_2","","","","","","","","","",""
"null","<span style='color:red; font-size: 70px;'>错误! </span>","null","html-keyboard-response","98","411861","0.0-7.0-1.0-1.0-0.0-1.44","2","3","3","2","1","2","1","2","2","3","3","2","1","2","2","2","2","2","3","3","2","3","4","4","4","4","4","1","4","1","0","1","1","0","0","1","1","0","1","-1","0","1","0","1","3","5","4","4","4","5","2","3","2","1","746397539082964994","孟","","","","","","","","","","","","","","","","","","","","","","","","","","","","","","feedback_test","","","","","","","","","",""
"1094","","j","psychophysics","99","413957","0.0-7.0-1.0-1.0-0.0-0.45","2","3","3","2","1","2","1","2","2","3","3","2","1","2","2","2","2","2","3","3","2","3","4","4","4","4","4","1","4","1","0","1","1","0","0","1","1","0","1","-1","0","1","0","1","3","5","4","4","4","5","2","3","2","1","746397539082964994","孟","","","","nonmatch","","","","","","","","","","","","","","key","j","16.666823999999558","640","356","j","true","nonmatch","img/ellipse.png","六边","椭圆","ALT1_2","prac_ALT1_2","","","","","","","","","",""
"null","<span style='color:GreenYellow; font-size: 70px;'>正确! </span>","null","html-keyboard-response","100","414459","0.0-7.0-1.0-1.0-0.0-1.45","2","3","3","2","1","2","1","2","2","3","3","2","1","2","2","2","2","2","3","3","2","3","4","4","4","4","4","1","4","1","0","1","1","0","0","1","1","0","1","-1","0","1","0","1","3","5","4","4","4","5","2","3","2","1","746397539082964994","孟","","","","","","","","","","","","","","","","","","","","","","","","","","","","","","feedback_test","","","","","","","","","",""
"932","","j","psychophysics","101","416392","0.0-7.0-1.0-1.0-0.0-0.46","2","3","3","2","1","2","1","2","2","3","3","2","1","2","2","2","2","2","3","3","2","3","4","4","4","4","4","1","4","1","0","1","1","0","0","1","1","0","1","-1","0","1","0","1","3","5","4","4","4","5","2","3","2","1","746397539082964994","孟","","","","nonmatch","","","","","","","","","","","","","","key","j","16.667713043478358","640","356","f","false","match","img/diamond.png","菱形","菱形","ALT1_2","prac_ALT1_2","","","","","","","","","",""
"null","<span style='color:red; font-size: 70px;'>错误! </span>","null","html-keyboard-response","102","416894","0.0-7.0-1.0-1.0-0.0-1.46","2","3","3","2","1","2","1","2","2","3","3","2","1","2","2","2","2","2","3","3","2","3","4","4","4","4","4","1","4","1","0","1","1","0","0","1","1","0","1","-1","0","1","0","1","3","5","4","4","4","5","2","3","2","1","746397539082964994","孟","","","","","","","","","","","","","","","","","","","","","","","","","","","","","","feedback_test","","","","","","","","","",""
"null","","null","psychophysics","103","419095","0.0-7.0-1.0-1.0-0.0-0.47","2","3","3","2","1","2","1","2","2","3","3","2","1","2","2","2","2","2","3","3","2","3","4","4","4","4","4","1","4","1","0","1","1","0","0","1","1","0","1","-1","0","1","0","1","3","5","4","4","4","5","2","3","2","1","746397539082964994","孟","","","","null","","","","","","","","","","","","","","key","null","16.664770992366574","640","356","f","false","match","img/ellipse.png","椭圆","椭圆","ALT1_2","prac_ALT1_2","","","","","","","","","",""
"null","<span class='add_' style='color:yellow; font-size: 70px;'> 太慢! </span>","null","html-keyboard-response","104","419598","0.0-7.0-1.0-1.0-0.0-1.47","2","3","3","2","1","2","1","2","2","3","3","2","1","2","2","2","2","2","3","3","2","3","4","4","4","4","4","1","4","1","0","1","1","0","0","1","1","0","1","-1","0","1","0","1","3","5","4","4","4","5","2","3","2","1","746397539082964994","孟","","","","","","","","","","","","","","","","","","","","","","","","","","","","","","feedback_test","","","","","","","","","",""
"27579","<style>.context{color:white; font-size: 35px; line-height:40px}</style>                          <div><p class='context'>您正确回答了44% 的试次。</p><p class='context'>您的平均反应时为856毫秒。</p><p class='context'>恭喜您完成练习。按空格键继续。</p></div>"," ","html-keyboard-response","105","447179","0.0-7.0-1.0-1.0-1.0-0.0","2","3","3","2","1","2","1","2","2","3","3","2","1","2","2","2","2","2","3","3","2","3","4","4","4","4","4","1","4","1","0","1","1","0","0","1","1","0","1","-1","0","1","0","1","3","5","4","4","4","5","2","3","2","1","746397539082964994","孟","","","","","","","","","","","","","","","","","","","","","","","","","","","","","","","","","","","","","","","",""
"11596","","","instructions","106","458776","0.0-7.0-1.0-1.0-1.0-1.0","2","3","3","2","1","2","1","2","2","3","3","2","1","2","2","2","2","2","3","3","2","3","4","4","4","4","4","1","4","1","0","1","1","0","0","1","1","0","1","-1","0","1","0","1","3","5","4","4","4","5","2","3","2","1","746397539082964994","孟","","","","","","","","","","","","","","","","","[{""page_index"":0,""viewing_time"":3463},{""page_index"":1,""viewing_time"":5042},{""page_index"":2,""viewing_time"":3090}]","","","","","","","","","","","","","","","","","","","","","","",""
"927","","j","psychophysics","107","460706","0.0-7.0-1.0-1.1-0.1-0.48","2","3","3","2","1","2","1","2","2","3","3","2","1","2","2","2","2","2","3","3","2","3","4","4","4","4","4","1","4","1","0","1","1","0","0","1","1","0","1","-1","0","1","0","1","3","5","4","4","4","5","2","3","2","1","746397539082964994","孟","","","","nonmatch","","","","","","","","","","","","","","key","j","16.666182608695436","640","356","f","false","match","img/diamond.png","菱形","菱形","ALT1_2","prac_ALT1_2","","","","","","","","","",""
"null","<span style='color:red; font-size: 70px;'>错误! </span>","null","html-keyboard-response","108","461208","0.0-7.0-1.0-1.1-0.1-1.48","2","3","3","2","1","2","1","2","2","3","3","2","1","2","2","2","2","2","3","3","2","3","4","4","4","4","4","1","4","1","0","1","1","0","0","1","1","0","1","-1","0","1","0","1","3","5","4","4","4","5","2","3","2","1","746397539082964994","孟","","","","","","","","","","","","","","","","","","","","","","","","","","","","","","feedback_test","","","","","","","","","",""
"613","","j","psychophysics","109","462821","0.0-7.0-1.0-1.1-0.1-0.49","2","3","3","2","1","2","1","2","2","3","3","2","1","2","2","2","2","2","3","3","2","3","4","4","4","4","4","1","4","1","0","1","1","0","0","1","1","0","1","-1","0","1","0","1","3","5","4","4","4","5","2","3","2","1","746397539082964994","孟","","","","nonmatch","","","","","","","","","","","","","","key","j","16.66757291666666","640","356","j","true","nonmatch","img/diamond.png","椭圆","菱形","ALT1_2","prac_ALT1_2","","","","","","","","","",""
"null","<span style='color:GreenYellow; font-size: 70px;'>正确! </span>","null","html-keyboard-response","110","463322","0.0-7.0-1.0-1.1-0.1-1.49","2","3","3","2","1","2","1","2","2","3","3","2","1","2","2","2","2","2","3","3","2","3","4","4","4","4","4","1","4","1","0","1","1","0","0","1","1","0","1","-1","0","1","0","1","3","5","4","4","4","5","2","3","2","1","746397539082964994","孟","","","","","","","","","","","","","","","","","","","","","","","","","","","","","","feedback_test","","","","","","","","","",""
"673","","f","psychophysics","111","464997","0.0-7.0-1.0-1.1-0.1-0.50","2","3","3","2","1","2","1","2","2","3","3","2","1","2","2","2","2","2","3","3","2","3","4","4","4","4","4","1","4","1","0","1","1","0","0","1","1","0","1","-1","0","1","0","1","3","5","4","4","4","5","2","3","2","1","746397539082964994","孟","","","","match","","","","","","","","","","","","","","key","f","16.66667676767666","640","356","f","true","match","img/ellipse.png","椭圆","椭圆","ALT1_2","prac_ALT1_2","","","","","","","","","",""
"null","<span style='color:GreenYellow; font-size: 70px;'>正确! </span>","null","html-keyboard-response","112","465498","0.0-7.0-1.0-1.1-0.1-1.50","2","3","3","2","1","2","1","2","2","3","3","2","1","2","2","2","2","2","3","3","2","3","4","4","4","4","4","1","4","1","0","1","1","0","0","1","1","0","1","-1","0","1","0","1","3","5","4","4","4","5","2","3","2","1","746397539082964994","孟","","","","","","","","","","","","","","","","","","","","","","","","","","","","","","feedback_test","","","","","","","","","",""
"504","","f","psychophysics","113","467004","0.0-7.0-1.0-1.1-0.1-0.51","2","3","3","2","1","2","1","2","2","3","3","2","1","2","2","2","2","2","3","3","2","3","4","4","4","4","4","1","4","1","0","1","1","0","0","1","1","0","1","-1","0","1","0","1","3","5","4","4","4","5","2","3","2","1","746397539082964994","孟","","","","match","","","","","","","","","","","","","","key","f","16.66691111111108","640","356","j","false","nonmatch","img/ellipse.png","方形","椭圆","ALT1_2","prac_ALT1_2","","","","","","","","","",""
"null","<span style='color:red; font-size: 70px;'>错误! </span>","null","html-keyboard-response","114","467505","0.0-7.0-1.0-1.1-0.1-1.51","2","3","3","2","1","2","1","2","2","3","3","2","1","2","2","2","2","2","3","3","2","3","4","4","4","4","4","1","4","1","0","1","1","0","0","1","1","0","1","-1","0","1","0","1","3","5","4","4","4","5","2","3","2","1","746397539082964994","孟","","","","","","","","","","","","","","","","","","","","","","","","","","","","","","feedback_test","","","","","","","","","",""
"903","","f","psychophysics","115","469410","0.0-7.0-1.0-1.1-0.1-0.52","2","3","3","2","1","2","1","2","2","3","3","2","1","2","2","2","2","2","3","3","2","3","4","4","4","4","4","1","4","1","0","1","1","0","0","1","1","0","1","-1","0","1","0","1","3","5","4","4","4","5","2","3","2","1","746397539082964994","孟","","","","match","","","","","","","","","","","","","","key","f","16.66648672566341","640","356","j","false","nonmatch","img/diamond.png","六边","菱形","ALT1_2","prac_ALT1_2","","","","","","","","","",""
"null","<span style='color:red; font-size: 70px;'>错误! </span>","null","html-keyboard-response","116","469911","0.0-7.0-1.0-1.1-0.1-1.52","2","3","3","2","1","2","1","2","2","3","3","2","1","2","2","2","2","2","3","3","2","3","4","4","4","4","4","1","4","1","0","1","1","0","0","1","1","0","1","-1","0","1","0","1","3","5","4","4","4","5","2","3","2","1","746397539082964994","孟","","","","","","","","","","","","","","","","","","","","","","","","","","","","","","feedback_test","","","","","","","","","",""
"622","","f","psychophysics","117","471534","0.0-7.0-1.0-1.1-0.1-0.53","2","3","3","2","1","2","1","2","2","3","3","2","1","2","2","2","2","2","3","3","2","3","4","4","4","4","4","1","4","1","0","1","1","0","0","1","1","0","1","-1","0","1","0","1","3","5","4","4","4","5","2","3","2","1","746397539082964994","孟","","","","match","","","","","","","","","","","","","","key","f","16.66530927835025","640","356","j","false","nonmatch","img/ellipse.png","菱形","椭圆","ALT1_2","prac_ALT1_2","","","","","","","","","",""
"null","<span style='color:red; font-size: 70px;'>错误! </span>","null","html-keyboard-response","118","472035","0.0-7.0-1.0-1.1-0.1-1.53","2","3","3","2","1","2","1","2","2","3","3","2","1","2","2","2","2","2","3","3","2","3","4","4","4","4","4","1","4","1","0","1","1","0","0","1","1","0","1","-1","0","1","0","1","3","5","4","4","4","5","2","3","2","1","746397539082964994","孟","","","","","","","","","","","","","","","","","","","","","","","","","","","","","","feedback_test","","","","","","","","","",""
"985","","j","psychophysics","119","474022","0.0-7.0-1.0-1.1-0.1-0.54","2","3","3","2","1","2","1","2","2","3","3","2","1","2","2","2","2","2","3","3","2","3","4","4","4","4","4","1","4","1","0","1","1","0","0","1","1","0","1","-1","0","1","0","1","3","5","4","4","4","5","2","3","2","1","746397539082964994","孟","","","","nonmatch","","","","","","","","","","","","","","key","j","16.665576271186445","640","356","j","true","nonmatch","img/diamond.png","方形","菱形","ALT1_2","prac_ALT1_2","","","","","","","","","",""
"null","<span style='color:GreenYellow; font-size: 70px;'>正确! </span>","null","html-keyboard-response","120","474524","0.0-7.0-1.0-1.1-0.1-1.54","2","3","3","2","1","2","1","2","2","3","3","2","1","2","2","2","2","2","3","3","2","3","4","4","4","4","4","1","4","1","0","1","1","0","0","1","1","0","1","-1","0","1","0","1","3","5","4","4","4","5","2","3","2","1","746397539082964994","孟","","","","","","","","","","","","","","","","","","","","","","","","","","","","","","feedback_test","","","","","","","","","",""
"null","","null","psychophysics","121","476726","0.0-7.0-1.0-1.1-0.1-0.55","2","3","3","2","1","2","1","2","2","3","3","2","1","2","2","2","2","2","3","3","2","3","4","4","4","4","4","1","4","1","0","1","1","0","0","1","1","0","1","-1","0","1","0","1","3","5","4","4","4","5","2","3","2","1","746397539082964994","孟","","","","null","","","","","","","","","","","","","","key","null","16.667022900763396","640","356","j","false","nonmatch","img/hexagon.png","菱形","六边","ALT1_2","prac_ALT1_2","","","","","","","","","",""
"null","<span class='add_' style='color:yellow; font-size: 70px;'> 太慢! </span>","null","html-keyboard-response","122","477227","0.0-7.0-1.0-1.1-0.1-1.55","2","3","3","2","1","2","1","2","2","3","3","2","1","2","2","2","2","2","3","3","2","3","4","4","4","4","4","1","4","1","0","1","1","0","0","1","1","0","1","-1","0","1","0","1","3","5","4","4","4","5","2","3","2","1","746397539082964994","孟","","","","","","","","","","","","","","","","","","","","","","","","","","","","","","feedback_test","","","","","","","","","",""
"993","","j","psychophysics","123","479221","0.0-7.0-1.0-1.1-0.1-0.56","2","3","3","2","1","2","1","2","2","3","3","2","1","2","2","2","2","2","3","3","2","3","4","4","4","4","4","1","4","1","0","1","1","0","0","1","1","0","1","-1","0","1","0","1","3","5","4","4","4","5","2","3","2","1","746397539082964994","孟","","","","nonmatch","","","","","","","","","","","","","","key","j","16.666336134453733","640","356","f","false","match","img/square.png","方形","方形","ALT1_2","prac_ALT1_2","","","","","","","","","",""
"null","<span style='color:red; font-size: 70px;'>错误! </span>","null","html-keyboard-response","124","479722","0.0-7.0-1.0-1.1-0.1-1.56","2","3","3","2","1","2","1","2","2","3","3","2","1","2","2","2","2","2","3","3","2","3","4","4","4","4","4","1","4","1","0","1","1","0","0","1","1","0","1","-1","0","1","0","1","3","5","4","4","4","5","2","3","2","1","746397539082964994","孟","","","","","","","","","","","","","","","","","","","","","","","","","","","","","","feedback_test","","","","","","","","","",""
"709","","f","psychophysics","125","481433","0.0-7.0-1.0-1.1-0.1-0.57","2","3","3","2","1","2","1","2","2","3","3","2","1","2","2","2","2","2","3","3","2","3","4","4","4","4","4","1","4","1","0","1","1","0","0","1","1","0","1","-1","0","1","0","1","3","5","4","4","4","5","2","3","2","1","746397539082964994","孟","","","","match","","","","","","","","","","","","","","key","f","16.66643137254926","640","356","j","false","nonmatch","img/ellipse.png","六边","椭圆","ALT1_2","prac_ALT1_2","","","","","","","","","",""
"null","<span style='color:red; font-size: 70px;'>错误! </span>","null","html-keyboard-response","126","481934","0.0-7.0-1.0-1.1-0.1-1.57","2","3","3","2","1","2","1","2","2","3","3","2","1","2","2","2","2","2","3","3","2","3","4","4","4","4","4","1","4","1","0","1","1","0","0","1","1","0","1","-1","0","1","0","1","3","5","4","4","4","5","2","3","2","1","746397539082964994","孟","","","","","","","","","","","","","","","","","","","","","","","","","","","","","","feedback_test","","","","","","","","","",""
"null","","null","psychophysics","127","484137","0.0-7.0-1.0-1.1-0.1-0.58","2","3","3","2","1","2","1","2","2","3","3","2","1","2","2","2","2","2","3","3","2","3","4","4","4","4","4","1","4","1","0","1","1","0","0","1","1","0","1","-1","0","1","0","1","3","5","4","4","4","5","2","3","2","1","746397539082964994","孟","","","","null","","","","","","","","","","","","","","key","null","16.66633587786288","640","356","j","false","nonmatch","img/square.png","菱形","方形","ALT1_2","prac_ALT1_2","","","","","","","","","",""
"null","<span class='add_' style='color:yellow; font-size: 70px;'> 太慢! </span>","null","html-keyboard-response","128","484638","0.0-7.0-1.0-1.1-0.1-1.58","2","3","3","2","1","2","1","2","2","3","3","2","1","2","2","2","2","2","3","3","2","3","4","4","4","4","4","1","4","1","0","1","1","0","0","1","1","0","1","-1","0","1","0","1","3","5","4","4","4","5","2","3","2","1","746397539082964994","孟","","","","","","","","","","","","","","","","","","","","","","","","","","","","","","feedback_test","","","","","","","","","",""
"936","","j","psychophysics","129","486575","0.0-7.0-1.0-1.1-0.1-0.59","2","3","3","2","1","2","1","2","2","3","3","2","1","2","2","2","2","2","3","3","2","3","4","4","4","4","4","1","4","1","0","1","1","0","0","1","1","0","1","-1","0","1","0","1","3","5","4","4","4","5","2","3","2","1","746397539082964994","孟","","","","nonmatch","","","","","","","","","","","","","","key","j","16.66582608695658","640","356","f","false","match","img/hexagon.png","六边","六边","ALT1_2","prac_ALT1_2","","","","","","","","","",""
"null","<span style='color:red; font-size: 70px;'>错误! </span>","null","html-keyboard-response","130","487078","0.0-7.0-1.0-1.1-0.1-1.59","2","3","3","2","1","2","1","2","2","3","3","2","1","2","2","2","2","2","3","3","2","3","4","4","4","4","4","1","4","1","0","1","1","0","0","1","1","0","1","-1","0","1","0","1","3","5","4","4","4","5","2","3","2","1","746397539082964994","孟","","","","","","","","","","","","","","","","","","","","","","","","","","","","","","feedback_test","","","","","","","","","",""
"945","","j","psychophysics","131","489024","0.0-7.0-1.0-1.1-0.1-0.60","2","3","3","2","1","2","1","2","2","3","3","2","1","2","2","2","2","2","3","3","2","3","4","4","4","4","4","1","4","1","0","1","1","0","0","1","1","0","1","-1","0","1","0","1","3","5","4","4","4","5","2","3","2","1","746397539082964994","孟","","","","nonmatch","","","","","","","","","","","","","","key","j","16.66600862069001","640","356","j","true","nonmatch","img/square.png","六边","方形","ALT1_2","prac_ALT1_2","","","","","","","","","",""
"null","<span style='color:GreenYellow; font-size: 70px;'>正确! </span>","null","html-keyboard-response","132","489526","0.0-7.0-1.0-1.1-0.1-1.60","2","3","3","2","1","2","1","2","2","3","3","2","1","2","2","2","2","2","3","3","2","3","4","4","4","4","4","1","4","1","0","1","1","0","0","1","1","0","1","-1","0","1","0","1","3","5","4","4","4","5","2","3","2","1","746397539082964994","孟","","","","","","","","","","","","","","","","","","","","","","","","","","","","","","feedback_test","","","","","","","","","",""
"992","","f","psychophysics","133","491520","0.0-7.0-1.0-1.1-0.1-0.61","2","3","3","2","1","2","1","2","2","3","3","2","1","2","2","2","2","2","3","3","2","3","4","4","4","4","4","1","4","1","0","1","1","0","0","1","1","0","1","-1","0","1","0","1","3","5","4","4","4","5","2","3","2","1","746397539082964994","孟","","","","match","","","","","","","","","","","","","","key","f","16.667218487395242","640","356","f","true","match","img/ellipse.png","椭圆","椭圆","ALT1_2","prac_ALT1_2","","","","","","","","","",""
"null","<span style='color:GreenYellow; font-size: 70px;'>正确! </span>","null","html-keyboard-response","134","492021","0.0-7.0-1.0-1.1-0.1-1.61","2","3","3","2","1","2","1","2","2","3","3","2","1","2","2","2","2","2","3","3","2","3","4","4","4","4","4","1","4","1","0","1","1","0","0","1","1","0","1","-1","0","1","0","1","3","5","4","4","4","5","2","3","2","1","746397539082964994","孟","","","","","","","","","","","","","","","","","","","","","","","","","","","","","","feedback_test","","","","","","","","","",""
"1123","","f","psychophysics","135","494145","0.0-7.0-1.0-1.1-0.1-0.62","2","3","3","2","1","2","1","2","2","3","3","2","1","2","2","2","2","2","3","3","2","3","4","4","4","4","4","1","4","1","0","1","1","0","0","1","1","0","1","-1","0","1","0","1","3","5","4","4","4","5","2","3","2","1","746397539082964994","孟","","","","match","","","","","","","","","","","","","","key","f","16.667523809523868","640","356","f","true","match","img/hexagon.png","六边","六边","ALT1_2","prac_ALT1_2","","","","","","","","","",""
"null","<span style='color:GreenYellow; font-size: 70px;'>正确! </span>","null","html-keyboard-response","136","494645","0.0-7.0-1.0-1.1-0.1-1.62","2","3","3","2","1","2","1","2","2","3","3","2","1","2","2","2","2","2","3","3","2","3","4","4","4","4","4","1","4","1","0","1","1","0","0","1","1","0","1","-1","0","1","0","1","3","5","4","4","4","5","2","3","2","1","746397539082964994","孟","","","","","","","","","","","","","","","","","","","","","","","","","","","","","","feedback_test","","","","","","","","","",""
"789","","j","psychophysics","137","496436","0.0-7.0-1.0-1.1-0.1-0.63","2","3","3","2","1","2","1","2","2","3","3","2","1","2","2","2","2","2","3","3","2","3","4","4","4","4","4","1","4","1","0","1","1","0","0","1","1","0","1","-1","0","1","0","1","3","5","4","4","4","5","2","3","2","1","746397539082964994","孟","","","","nonmatch","","","","","","","","","","","","","","key","j","16.667000000000055","640","356","j","true","nonmatch","img/square.png","椭圆","方形","ALT1_2","prac_ALT1_2","","","","","","","","","",""
"null","<span style='color:GreenYellow; font-size: 70px;'>正确! </span>","null","html-keyboard-response","138","496937","0.0-7.0-1.0-1.1-0.1-1.63","2","3","3","2","1","2","1","2","2","3","3","2","1","2","2","2","2","2","3","3","2","3","4","4","4","4","4","1","4","1","0","1","1","0","0","1","1","0","1","-1","0","1","0","1","3","5","4","4","4","5","2","3","2","1","746397539082964994","孟","","","","","","","","","","","","","","","","","","","","","","","","","","","","","","feedback_test","","","","","","","","","",""
"null","","null","psychophysics","139","499146","0.0-7.0-1.0-1.1-0.1-0.64","2","3","3","2","1","2","1","2","2","3","3","2","1","2","2","2","2","2","3","3","2","3","4","4","4","4","4","1","4","1","0","1","1","0","0","1","1","0","1","-1","0","1","0","1","3","5","4","4","4","5","2","3","2","1","746397539082964994","孟","","","","null","","","","","","","","","","","","","","key","null","16.66623664122139","640","356","j","false","nonmatch","img/hexagon.png","方形","六边","ALT1_2","prac_ALT1_2","","","","","","","","","",""
"null","<span class='add_' style='color:yellow; font-size: 70px;'> 太慢! </span>","null","html-keyboard-response","140","499646","0.0-7.0-1.0-1.1-0.1-1.64","2","3","3","2","1","2","1","2","2","3","3","2","1","2","2","2","2","2","3","3","2","3","4","4","4","4","4","1","4","1","0","1","1","0","0","1","1","0","1","-1","0","1","0","1","3","5","4","4","4","5","2","3","2","1","746397539082964994","孟","","","","","","","","","","","","","","","","","","","","","","","","","","","","","","feedback_test","","","","","","","","","",""
"935","","f","psychophysics","141","501584","0.0-7.0-1.0-1.1-0.1-0.65","2","3","3","2","1","2","1","2","2","3","3","2","1","2","2","2","2","2","3","3","2","3","4","4","4","4","4","1","4","1","0","1","1","0","0","1","1","0","1","-1","0","1","0","1","3","5","4","4","4","5","2","3","2","1","746397539082964994","孟","","","","match","","","","","","","","","","","","","","key","f","16.66531304347825","640","356","f","true","match","img/square.png","方形","方形","ALT1_2","prac_ALT1_2","","","","","","","","","",""
"null","<span style='color:GreenYellow; font-size: 70px;'>正确! </span>","null","html-keyboard-response","142","502086","0.0-7.0-1.0-1.1-0.1-1.65","2","3","3","2","1","2","1","2","2","3","3","2","1","2","2","2","2","2","3","3","2","3","4","4","4","4","4","1","4","1","0","1","1","0","0","1","1","0","1","-1","0","1","0","1","3","5","4","4","4","5","2","3","2","1","746397539082964994","孟","","","","","","","","","","","","","","","","","","","","","","","","","","","","","","feedback_test","","","","","","","","","",""
"1072","","j","psychophysics","143","504170","0.0-7.0-1.0-1.1-0.1-0.66","2","3","3","2","1","2","1","2","2","3","3","2","1","2","2","2","2","2","3","3","2","3","4","4","4","4","4","1","4","1","0","1","1","0","0","1","1","0","1","-1","0","1","0","1","3","5","4","4","4","5","2","3","2","1","746397539082964994","孟","","","","nonmatch","","","","","","","","","","","","","","key","j","16.666790322580887","640","356","f","false","match","img/diamond.png","菱形","菱形","ALT1_2","prac_ALT1_2","","","","","","","","","",""
"null","<span style='color:red; font-size: 70px;'>错误! </span>","null","html-keyboard-response","144","504671","0.0-7.0-1.0-1.1-0.1-1.66","2","3","3","2","1","2","1","2","2","3","3","2","1","2","2","2","2","2","3","3","2","3","4","4","4","4","4","1","4","1","0","1","1","0","0","1","1","0","1","-1","0","1","0","1","3","5","4","4","4","5","2","3","2","1","746397539082964994","孟","","","","","","","","","","","","","","","","","","","","","","","","","","","","","","feedback_test","","","","","","","","","",""
"1043","","f","psychophysics","145","506715","0.0-7.0-1.0-1.1-0.1-0.67","2","3","3","2","1","2","1","2","2","3","3","2","1","2","2","2","2","2","3","3","2","3","4","4","4","4","4","1","4","1","0","1","1","0","0","1","1","0","1","-1","0","1","0","1","3","5","4","4","4","5","2","3","2","1","746397539082964994","孟","","","","match","","","","","","","","","","","","","","key","f","16.666918032786896","640","356","f","true","match","img/square.png","方形","方形","ALT1_2","prac_ALT1_2","","","","","","","","","",""
"null","<span style='color:GreenYellow; font-size: 70px;'>正确! </span>","null","html-keyboard-response","146","507217","0.0-7.0-1.0-1.1-0.1-1.67","2","3","3","2","1","2","1","2","2","3","3","2","1","2","2","2","2","2","3","3","2","3","4","4","4","4","4","1","4","1","0","1","1","0","0","1","1","0","1","-1","0","1","0","1","3","5","4","4","4","5","2","3","2","1","746397539082964994","孟","","","","","","","","","","","","","","","","","","","","","","","","","","","","","","feedback_test","","","","","","","","","",""
"583","","j","psychophysics","147","508802","0.0-7.0-1.0-1.1-0.1-0.68","2","3","3","2","1","2","1","2","2","3","3","2","1","2","2","2","2","2","3","3","2","3","4","4","4","4","4","1","4","1","0","1","1","0","0","1","1","0","1","-1","0","1","0","1","3","5","4","4","4","5","2","3","2","1","746397539082964994","孟","","","","nonmatch","","","","","","","","","","","","","","key","j","16.667457446808296","640","356","f","false","match","img/hexagon.png","六边","六边","ALT1_2","prac_ALT1_2","","","","","","","","","",""
"null","<span style='color:red; font-size: 70px;'>错误! </span>","null","html-keyboard-response","148","509304","0.0-7.0-1.0-1.1-0.1-1.68","2","3","3","2","1","2","1","2","2","3","3","2","1","2","2","2","2","2","3","3","2","3","4","4","4","4","4","1","4","1","0","1","1","0","0","1","1","0","1","-1","0","1","0","1","3","5","4","4","4","5","2","3","2","1","746397539082964994","孟","","","","","","","","","","","","","","","","","","","","","","","","","","","","","","feedback_test","","","","","","","","","",""
"981","","j","psychophysics","149","511286","0.0-7.0-1.0-1.1-0.1-0.69","2","3","3","2","1","2","1","2","2","3","3","2","1","2","2","2","2","2","3","3","2","3","4","4","4","4","4","1","4","1","0","1","1","0","0","1","1","0","1","-1","0","1","0","1","3","5","4","4","4","5","2","3","2","1","746397539082964994","孟","","","","nonmatch","","","","","","","","","","","","","","key","j","16.666576271186585","640","356","j","true","nonmatch","img/hexagon.png","椭圆","六边","ALT1_2","prac_ALT1_2","","","","","","","","","",""
"null","<span style='color:GreenYellow; font-size: 70px;'>正确! </span>","null","html-keyboard-response","150","511788","0.0-7.0-1.0-1.1-0.1-1.69","2","3","3","2","1","2","1","2","2","3","3","2","1","2","2","2","2","2","3","3","2","3","4","4","4","4","4","1","4","1","0","1","1","0","0","1","1","0","1","-1","0","1","0","1","3","5","4","4","4","5","2","3","2","1","746397539082964994","孟","","","","","","","","","","","","","","","","","","","","","","","","","","","","","","feedback_test","","","","","","","","","",""
"1154","","j","psychophysics","151","513943","0.0-7.0-1.0-1.1-0.1-0.70","2","3","3","2","1","2","1","2","2","3","3","2","1","2","2","2","2","2","3","3","2","3","4","4","4","4","4","1","4","1","0","1","1","0","0","1","1","0","1","-1","0","1","0","1","3","5","4","4","4","5","2","3","2","1","746397539082964994","孟","","","","nonmatch","","","","","","","","","","","","","","key","j","16.667343749999873","640","356","f","false","match","img/diamond.png","菱形","菱形","ALT1_2","prac_ALT1_2","","","","","","","","","",""
"null","<span style='color:red; font-size: 70px;'>错误! </span>","null","html-keyboard-response","152","514444","0.0-7.0-1.0-1.1-0.1-1.70","2","3","3","2","1","2","1","2","2","3","3","2","1","2","2","2","2","2","3","3","2","3","4","4","4","4","4","1","4","1","0","1","1","0","0","1","1","0","1","-1","0","1","0","1","3","5","4","4","4","5","2","3","2","1","746397539082964994","孟","","","","","","","","","","","","","","","","","","","","","","","","","","","","","","feedback_test","","","","","","","","","",""
"660","","f","psychophysics","153","516105","0.0-7.0-1.0-1.1-0.1-0.71","2","3","3","2","1","2","1","2","2","3","3","2","1","2","2","2","2","2","3","3","2","3","4","4","4","4","4","1","4","1","0","1","1","0","0","1","1","0","1","-1","0","1","0","1","3","5","4","4","4","5","2","3","2","1","746397539082964994","孟","","","","match","","","","","","","","","","","","","","key","f","16.668434343434225","640","356","f","true","match","img/ellipse.png","椭圆","椭圆","ALT1_2","prac_ALT1_2","","","","","","","","","",""
"null","<span style='color:GreenYellow; font-size: 70px;'>正确! </span>","null","html-keyboard-response","154","516607","0.0-7.0-1.0-1.1-0.1-1.71","2","3","3","2","1","2","1","2","2","3","3","2","1","2","2","2","2","2","3","3","2","3","4","4","4","4","4","1","4","1","0","1","1","0","0","1","1","0","1","-1","0","1","0","1","3","5","4","4","4","5","2","3","2","1","746397539082964994","孟","","","","","","","","","","","","","","","","","","","","","","","","","","","","","","feedback_test","","","","","","","","","",""
"1073","","f","psychophysics","155","518682","0.0-7.0-1.0-1.1-0.1-0.72","2","3","3","2","1","2","1","2","2","3","3","2","1","2","2","2","2","2","3","3","2","3","4","4","4","4","4","1","4","1","0","1","1","0","0","1","1","0","1","-1","0","1","0","1","3","5","4","4","4","5","2","3","2","1","746397539082964994","孟","","","","match","","","","","","","","","","","","","","key","f","16.66586991869873","640","356","j","false","nonmatch","img/hexagon.png","菱形","六边","ALT1_2","prac_ALT1_2","","","","","","","","","",""
"null","<span style='color:red; font-size: 70px;'>错误! </span>","null","html-keyboard-response","156","519197","0.0-7.0-1.0-1.1-0.1-1.72","2","3","3","2","1","2","1","2","2","3","3","2","1","2","2","2","2","2","3","3","2","3","4","4","4","4","4","1","4","1","0","1","1","0","0","1","1","0","1","-1","0","1","0","1","3","5","4","4","4","5","2","3","2","1","746397539082964994","孟","","","","","","","","","","","","","","","","","","","","","","","","","","","","","","feedback_test","","","","","","","","","",""
"1162","","j","psychophysics","157","521362","0.0-7.0-1.0-1.1-0.1-0.73","2","3","3","2","1","2","1","2","2","3","3","2","1","2","2","2","2","2","3","3","2","3","4","4","4","4","4","1","4","1","0","1","1","0","0","1","1","0","1","-1","0","1","0","1","3","5","4","4","4","5","2","3","2","1","746397539082964994","孟","","","","nonmatch","","","","","","","","","","","","","","key","j","16.667085937499905","640","356","j","true","nonmatch","img/diamond.png","方形","菱形","ALT1_2","prac_ALT1_2","","","","","","","","","",""
"null","<span style='color:GreenYellow; font-size: 70px;'>正确! </span>","null","html-keyboard-response","158","521864","0.0-7.0-1.0-1.1-0.1-1.73","2","3","3","2","1","2","1","2","2","3","3","2","1","2","2","2","2","2","3","3","2","3","4","4","4","4","4","1","4","1","0","1","1","0","0","1","1","0","1","-1","0","1","0","1","3","5","4","4","4","5","2","3","2","1","746397539082964994","孟","","","","","","","","","","","","","","","","","","","","","","","","","","","","","","feedback_test","","","","","","","","","",""
"1006","","j","psychophysics","159","523871","0.0-7.0-1.0-1.1-0.1-0.74","2","3","3","2","1","2","1","2","2","3","3","2","1","2","2","2","2","2","3","3","2","3","4","4","4","4","4","1","4","1","0","1","1","0","0","1","1","0","1","-1","0","1","0","1","3","5","4","4","4","5","2","3","2","1","746397539082964994","孟","","","","nonmatch","","","","","","","","","","","","","","key","j","16.66601680672313","640","356","j","true","nonmatch","img/hexagon.png","方形","六边","ALT1_2","prac_ALT1_2","","","","","","","","","",""
"null","<span style='color:GreenYellow; font-size: 70px;'>正确! </span>","null","html-keyboard-response","160","524371","0.0-7.0-1.0-1.1-0.1-1.74","2","3","3","2","1","2","1","2","2","3","3","2","1","2","2","2","2","2","3","3","2","3","4","4","4","4","4","1","4","1","0","1","1","0","0","1","1","0","1","-1","0","1","0","1","3","5","4","4","4","5","2","3","2","1","746397539082964994","孟","","","","","","","","","","","","","","","","","","","","","","","","","","","","","","feedback_test","","","","","","","","","",""
"928","","j","psychophysics","161","526301","0.0-7.0-1.0-1.1-0.1-0.75","2","3","3","2","1","2","1","2","2","3","3","2","1","2","2","2","2","2","3","3","2","3","4","4","4","4","4","1","4","1","0","1","1","0","0","1","1","0","1","-1","0","1","0","1","3","5","4","4","4","5","2","3","2","1","746397539082964994","孟","","","","nonmatch","","","","","","","","","","","","","","key","j","16.666573913043123","640","356","j","true","nonmatch","img/square.png","椭圆","方形","ALT1_2","prac_ALT1_2","","","","","","","","","",""
"null","<span style='color:GreenYellow; font-size: 70px;'>正确! </span>","null","html-keyboard-response","162","526801","0.0-7.0-1.0-1.1-0.1-1.75","2","3","3","2","1","2","1","2","2","3","3","2","1","2","2","2","2","2","3","3","2","3","4","4","4","4","4","1","4","1","0","1","1","0","0","1","1","0","1","-1","0","1","0","1","3","5","4","4","4","5","2","3","2","1","746397539082964994","孟","","","","","","","","","","","","","","","","","","","","","","","","","","","","","","feedback_test","","","","","","","","","",""
"845","","f","psychophysics","163","528648","0.0-7.0-1.0-1.1-0.1-0.76","2","3","3","2","1","2","1","2","2","3","3","2","1","2","2","2","2","2","3","3","2","3","4","4","4","4","4","1","4","1","0","1","1","0","0","1","1","0","1","-1","0","1","0","1","3","5","4","4","4","5","2","3","2","1","746397539082964994","孟","","","","match","","","","","","","","","","","","","","key","f","16.667309090908912","640","356","j","false","nonmatch","img/diamond.png","六边","菱形","ALT1_2","prac_ALT1_2","","","","","","","","","",""
"null","<span style='color:red; font-size: 70px;'>错误! </span>","null","html-keyboard-response","164","529148","0.0-7.0-1.0-1.1-0.1-1.76","2","3","3","2","1","2","1","2","2","3","3","2","1","2","2","2","2","2","3","3","2","3","4","4","4","4","4","1","4","1","0","1","1","0","0","1","1","0","1","-1","0","1","0","1","3","5","4","4","4","5","2","3","2","1","746397539082964994","孟","","","","","","","","","","","","","","","","","","","","","","","","","","","","","","feedback_test","","","","","","","","","",""
"null","","null","psychophysics","165","531351","0.0-7.0-1.0-1.1-0.1-0.77","2","3","3","2","1","2","1","2","2","3","3","2","1","2","2","2","2","2","3","3","2","3","4","4","4","4","4","1","4","1","0","1","1","0","0","1","1","0","1","-1","0","1","0","1","3","5","4","4","4","5","2","3","2","1","746397539082964994","孟","","","","null","","","","","","","","","","","","","","key","null","16.666916030534644","640","356","f","false","match","img/diamond.png","菱形","菱形","ALT1_2","prac_ALT1_2","","","","","","","","","",""
"null","<span class='add_' style='color:yellow; font-size: 70px;'> 太慢! </span>","null","html-keyboard-response","166","531866","0.0-7.0-1.0-1.1-0.1-1.77","2","3","3","2","1","2","1","2","2","3","3","2","1","2","2","2","2","2","3","3","2","3","4","4","4","4","4","1","4","1","0","1","1","0","0","1","1","0","1","-1","0","1","0","1","3","5","4","4","4","5","2","3","2","1","746397539082964994","孟","","","","","","","","","","","","","","","","","","","","","","","","","","","","","","feedback_test","","","","","","","","","",""
"881","","f","psychophysics","167","533749","0.0-7.0-1.0-1.1-0.1-0.78","2","3","3","2","1","2","1","2","2","3","3","2","1","2","2","2","2","2","3","3","2","3","4","4","4","4","4","1","4","1","0","1","1","0","0","1","1","0","1","-1","0","1","0","1","3","5","4","4","4","5","2","3","2","1","746397539082964994","孟","","","","match","","","","","","","","","","","","","","key","f","16.66785714285756","640","356","f","true","match","img/square.png","方形","方形","ALT1_2","prac_ALT1_2","","","","","","","","","",""
"null","<span style='color:GreenYellow; font-size: 70px;'>正确! </span>","null","html-keyboard-response","168","534251","0.0-7.0-1.0-1.1-0.1-1.78","2","3","3","2","1","2","1","2","2","3","3","2","1","2","2","2","2","2","3","3","2","3","4","4","4","4","4","1","4","1","0","1","1","0","0","1","1","0","1","-1","0","1","0","1","3","5","4","4","4","5","2","3","2","1","746397539082964994","孟","","","","","","","","","","","","","","","","","","","","","","","","","","","","","","feedback_test","","","","","","","","","",""
"1003","","j","psychophysics","169","536255","0.0-7.0-1.0-1.1-0.1-0.79","2","3","3","2","1","2","1","2","2","3","3","2","1","2","2","2","2","2","3","3","2","3","4","4","4","4","4","1","4","1","0","1","1","0","0","1","1","0","1","-1","0","1","0","1","3","5","4","4","4","5","2","3","2","1","746397539082964994","孟","","","","nonmatch","","","","","","","","","","","","","","key","j","16.666352941176243","640","356","f","false","match","img/diamond.png","菱形","菱形","ALT1_2","prac_ALT1_2","","","","","","","","","",""
"null","<span style='color:red; font-size: 70px;'>错误! </span>","null","html-keyboard-response","170","536757","0.0-7.0-1.0-1.1-0.1-1.79","2","3","3","2","1","2","1","2","2","3","3","2","1","2","2","2","2","2","3","3","2","3","4","4","4","4","4","1","4","1","0","1","1","0","0","1","1","0","1","-1","0","1","0","1","3","5","4","4","4","5","2","3","2","1","746397539082964994","孟","","","","","","","","","","","","","","","","","","","","","","","","","","","","","","feedback_test","","","","","","","","","",""
"579","","f","psychophysics","171","538336","0.0-7.0-1.0-1.1-0.1-0.80","2","3","3","2","1","2","1","2","2","3","3","2","1","2","2","2","2","2","3","3","2","3","4","4","4","4","4","1","4","1","0","1","1","0","0","1","1","0","1","-1","0","1","0","1","3","5","4","4","4","5","2","3","2","1","746397539082964994","孟","","","","match","","","","","","","","","","","","","","key","f","16.66689361702091","640","356","f","true","match","img/ellipse.png","椭圆","椭圆","ALT1_2","prac_ALT1_2","","","","","","","","","",""
"null","<span style='color:GreenYellow; font-size: 70px;'>正确! </span>","null","html-keyboard-response","172","538837","0.0-7.0-1.0-1.1-0.1-1.80","2","3","3","2","1","2","1","2","2","3","3","2","1","2","2","2","2","2","3","3","2","3","4","4","4","4","4","1","4","1","0","1","1","0","0","1","1","0","1","-1","0","1","0","1","3","5","4","4","4","5","2","3","2","1","746397539082964994","孟","","","","","","","","","","","","","","","","","","","","","","","","","","","","","","feedback_test","","","","","","","","","",""
"669","","f","psychophysics","173","540507","0.0-7.0-1.0-1.1-0.1-0.81","2","3","3","2","1","2","1","2","2","3","3","2","1","2","2","2","2","2","3","3","2","3","4","4","4","4","4","1","4","1","0","1","1","0","0","1","1","0","1","-1","0","1","0","1","3","5","4","4","4","5","2","3","2","1","746397539082964994","孟","","","","match","","","","","","","","","","","","","","key","f","16.66688888888886","640","356","f","true","match","img/square.png","方形","方形","ALT1_2","prac_ALT1_2","","","","","","","","","",""
"null","<span style='color:GreenYellow; font-size: 70px;'>正确! </span>","null","html-keyboard-response","174","541008","0.0-7.0-1.0-1.1-0.1-1.81","2","3","3","2","1","2","1","2","2","3","3","2","1","2","2","2","2","2","3","3","2","3","4","4","4","4","4","1","4","1","0","1","1","0","0","1","1","0","1","-1","0","1","0","1","3","5","4","4","4","5","2","3","2","1","746397539082964994","孟","","","","","","","","","","","","","","","","","","","","","","","","","","","","","","feedback_test","","","","","","","","","",""
"924","","f","psychophysics","175","542933","0.0-7.0-1.0-1.1-0.1-0.82","2","3","3","2","1","2","1","2","2","3","3","2","1","2","2","2","2","2","3","3","2","3","4","4","4","4","4","1","4","1","0","1","1","0","0","1","1","0","1","-1","0","1","0","1","3","5","4","4","4","5","2","3","2","1","746397539082964994","孟","","","","match","","","","","","","","","","","","","","key","f","16.667434782608737","640","356","j","false","nonmatch","img/ellipse.png","菱形","椭圆","ALT1_2","prac_ALT1_2","","","","","","","","","",""
"null","<span style='color:red; font-size: 70px;'>错误! </span>","null","html-keyboard-response","176","543434","0.0-7.0-1.0-1.1-0.1-1.82","2","3","3","2","1","2","1","2","2","3","3","2","1","2","2","2","2","2","3","3","2","3","4","4","4","4","4","1","4","1","0","1","1","0","0","1","1","0","1","-1","0","1","0","1","3","5","4","4","4","5","2","3","2","1","746397539082964994","孟","","","","","","","","","","","","","","","","","","","","","","","","","","","","","","feedback_test","","","","","","","","","",""
"992","","f","psychophysics","177","545428","0.0-7.0-1.0-1.1-0.1-0.83","2","3","3","2","1","2","1","2","2","3","3","2","1","2","2","2","2","2","3","3","2","3","4","4","4","4","4","1","4","1","0","1","1","0","0","1","1","0","1","-1","0","1","0","1","3","5","4","4","4","5","2","3","2","1","746397539082964994","孟","","","","match","","","","","","","","","","","","","","key","f","16.666610169490816","640","356","f","true","match","img/hexagon.png","六边","六边","ALT1_2","prac_ALT1_2","","","","","","","","","",""
"null","<span style='color:GreenYellow; font-size: 70px;'>正确! </span>","null","html-keyboard-response","178","545928","0.0-7.0-1.0-1.1-0.1-1.83","2","3","3","2","1","2","1","2","2","3","3","2","1","2","2","2","2","2","3","3","2","3","4","4","4","4","4","1","4","1","0","1","1","0","0","1","1","0","1","-1","0","1","0","1","3","5","4","4","4","5","2","3","2","1","746397539082964994","孟","","","","","","","","","","","","","","","","","","","","","","","","","","","","","","feedback_test","","","","","","","","","",""
"792","","f","psychophysics","179","547721","0.0-7.0-1.0-1.1-0.1-0.84","2","3","3","2","1","2","1","2","2","3","3","2","1","2","2","2","2","2","3","3","2","3","4","4","4","4","4","1","4","1","0","1","1","0","0","1","1","0","1","-1","0","1","0","1","3","5","4","4","4","5","2","3","2","1","746397539082964994","孟","","","","match","","","","","","","","","","","","","","key","f","16.668424528301912","640","356","f","true","match","img/hexagon.png","六边","六边","ALT1_2","prac_ALT1_2","","","","","","","","","",""
"null","<span style='color:GreenYellow; font-size: 70px;'>正确! </span>","null","html-keyboard-response","180","548222","0.0-7.0-1.0-1.1-0.1-1.84","2","3","3","2","1","2","1","2","2","3","3","2","1","2","2","2","2","2","3","3","2","3","4","4","4","4","4","1","4","1","0","1","1","0","0","1","1","0","1","-1","0","1","0","1","3","5","4","4","4","5","2","3","2","1","746397539082964994","孟","","","","","","","","","","","","","","","","","","","","","","","","","","","","","","feedback_test","","","","","","","","","",""
"744","","f","psychophysics","181","549968","0.0-7.0-1.0-1.1-0.1-0.85","2","3","3","2","1","2","1","2","2","3","3","2","1","2","2","2","2","2","3","3","2","3","4","4","4","4","4","1","4","1","0","1","1","0","0","1","1","0","1","-1","0","1","0","1","3","5","4","4","4","5","2","3","2","1","746397539082964994","孟","","","","match","","","","","","","","","","","","","","key","f","16.666519230768944","640","356","f","true","match","img/hexagon.png","六边","六边","ALT1_2","prac_ALT1_2","","","","","","","","","",""
"null","<span style='color:GreenYellow; font-size: 70px;'>正确! </span>","null","html-keyboard-response","182","550468","0.0-7.0-1.0-1.1-0.1-1.85","2","3","3","2","1","2","1","2","2","3","3","2","1","2","2","2","2","2","3","3","2","3","4","4","4","4","4","1","4","1","0","1","1","0","0","1","1","0","1","-1","0","1","0","1","3","5","4","4","4","5","2","3","2","1","746397539082964994","孟","","","","","","","","","","","","","","","","","","","","","","","","","","","","","","feedback_test","","","","","","","","","",""
"777","","j","psychophysics","183","552247","0.0-7.0-1.0-1.1-0.1-0.86","2","3","3","2","1","2","1","2","2","3","3","2","1","2","2","2","2","2","3","3","2","3","4","4","4","4","4","1","4","1","0","1","1","0","0","1","1","0","1","-1","0","1","0","1","3","5","4","4","4","5","2","3","2","1","746397539082964994","孟","","","","nonmatch","","","","","","","","","","","","","","key","j","16.664528301887362","640","356","j","true","nonmatch","img/square.png","六边","方形","ALT1_2","prac_ALT1_2","","","","","","","","","",""
"null","<span style='color:GreenYellow; font-size: 70px;'>正确! </span>","null","html-keyboard-response","184","552748","0.0-7.0-1.0-1.1-0.1-1.86","2","3","3","2","1","2","1","2","2","3","3","2","1","2","2","2","2","2","3","3","2","3","4","4","4","4","4","1","4","1","0","1","1","0","0","1","1","0","1","-1","0","1","0","1","3","5","4","4","4","5","2","3","2","1","746397539082964994","孟","","","","","","","","","","","","","","","","","","","","","","","","","","","","","","feedback_test","","","","","","","","","",""
"1049","","f","psychophysics","185","554799","0.0-7.0-1.0-1.1-0.1-0.87","2","3","3","2","1","2","1","2","2","3","3","2","1","2","2","2","2","2","3","3","2","3","4","4","4","4","4","1","4","1","0","1","1","0","0","1","1","0","1","-1","0","1","0","1","3","5","4","4","4","5","2","3","2","1","746397539082964994","孟","","","","match","","","","","","","","","","","","","","key","f","16.667229508196737","640","356","f","true","match","img/diamond.png","菱形","菱形","ALT1_2","prac_ALT1_2","","","","","","","","","",""
"null","<span style='color:GreenYellow; font-size: 70px;'>正确! </span>","null","html-keyboard-response","186","555300","0.0-7.0-1.0-1.1-0.1-1.87","2","3","3","2","1","2","1","2","2","3","3","2","1","2","2","2","2","2","3","3","2","3","4","4","4","4","4","1","4","1","0","1","1","0","0","1","1","0","1","-1","0","1","0","1","3","5","4","4","4","5","2","3","2","1","746397539082964994","孟","","","","","","","","","","","","","","","","","","","","","","","","","","","","","","feedback_test","","","","","","","","","",""
