"rt","stimulus","response","trial_type","trial_index","time_elapsed","internal_node_id","ses_1","ses_2","ses_3","ses_4","ses_5","ses_6","ses_7","ses_8","ses_9","ses_10","coreself_1","coreself_2","coreself_3","coreself_4","coreself_5","coreself_6","coreself_7","coreself_8","coreself_9","coreself_10","SGPS_1","SGPS_2","SGPS_3","SGPS_4","SGPS_5","SGPS_6","SGPS_7","SGPS_8","SGPS_9","NPI1","NPI2","NPI3","NPI4","NPI5","NPI6","NPI7","NPI8","NPI9","NPI10","NPI11","NPI12","NPI13","NPI14","NPI15","hsns_1","hsns_2","hsns_3","hsns_4","hsns_5","hsns_6","hsns_7","hsns_8","hsns_9","hsns_10","subj_idx","friend_name","value","success","user_agent","responses","item_order","radio_event_ids","radio_event_times","key_event_times","mouse_event_times","straightlining","zigzagging","honeypot","timeout","failed_images","failed_audio","failed_video","version_attrib2","version_target2","correct","IAT","screen_id","task_id","RT","condition","word","varname","summary","version_attrib","version_target","time_stamp","view_history","response_type","key_press","avg_frame_time","center_x","center_y","correct_response","identity","Image","question_order"
"208347","
   <p><div style = ""color: white;font-size:25px;"">您好，欢迎参加本次实验。</div> </p>
   <p><div style = ""color: white;font-size:25px;"">为充分保障您的权利，请确保您已经知晓并同意《参与实验同意书》以及《数据公开知情同意书》。</div></p>
   <p><div style = ""color: white;font-size:25px;"">如果您未见过上述内容，请咨询实验员。</div></p>
   <p><div style = ""color: white;font-size:25px;"">如果您选择继续实验，则表示您已经清楚两份知情同意书的内容并同意。</div></p>
   <p> <div style = ""color: green;font-size:25px;""><按空格键至下页></div> </p>
   "," ","html-keyboard-response","0","208349","0.0-0.0","3","3","3","3","3","3","3","3","3","4","4","4","3","4","3","3","4","4","3","4","4","3","3","2","3","2","3","4","2","1","0","1","1","0","1","1","1","1","1","-1","0","0","0","1","5","4","3","2","3","2","3","3","3","2","732226150302224385","李","","","","","","","","","","","","","","","","","","","","","","","","","","","","","","","","","","","","","","","",""
"","","","call-function","1","208350","0.0-1.0-0.0","3","3","3","3","3","3","3","3","3","4","4","4","3","4","3","3","4","4","3","4","4","3","3","2","3","2","3","4","2","1","0","1","1","0","1","1","1","1","1","-1","0","0","0","1","5","4","3","2","3","2","3","3","3","2","732226150302224385","李","","","","","","","","","","","","","","","","","","","","","","","","","","","","","","","","","","","","","","","",""
"13592","","{""friend_name"":""李""}","survey-html-form","2","221942","0.0-1.0-1.0","3","3","3","3","3","3","3","3","3","4","4","4","3","4","3","3","4","4","3","4","4","3","3","2","3","2","3","4","2","1","0","1","1","0","1","1","1","1","1","-1","0","0","0","1","5","4","3","2","3","2","3","3","3","2","732226150302224385","李","","","","","","","","","","","","","","","","","","","","","","","","","","","","","","","","","","","","","","","",""
"","","","fullscreen","3","483097","0.0-2.0","3","3","3","3","3","3","3","3","3","4","4","4","3","4","3","3","4","4","3","4","4","3","3","2","3","2","3","4","2","1","0","1","1","0","1","1","1","1","1","-1","0","0","0","1","5","4","3","2","3","2","3","3","3","2","732226150302224385","李","","true","{}","","","","","","","","","","","","","","","","","","","","","","","","","","","","","","","","","","","","",""
"29335.399999999907","","{""Q01"":""3"",""Q02"":""3"",""Q03"":""3"",""Q04"":""3"",""Q05"":""3"",""Q06"":""3"",""Q07"":""3"",""Q08"":""3"",""Q09"":""3"",""Q10"":""4""}","survey-template","4","512434","0.0-3.0","3","3","3","3","3","3","3","3","3","4","4","4","3","4","3","3","4","4","3","4","4","3","3","2","3","2","3","4","2","1","0","1","1","0","1","1","1","1","1","-1","0","0","0","1","5","4","3","2","3","2","3","3","3","2","732226150302224385","李","","","","{""Q01"":""3"",""Q02"":""3"",""Q03"":""3"",""Q04"":""3"",""Q05"":""3"",""Q06"":""3"",""Q07"":""3"",""Q08"":""3"",""Q09"":""3"",""Q10"":""4""}","[0,1,2,3,4,5,6,7,8,9]","[""Q01"",""Q02"",""Q03"",""Q04"",""Q05"",""Q06"",""Q07"",""Q09"",""Q10"",""Q09"",""Q08""]","[3004.5999999996275,7763.399999999907,8419.399999999907,10007.299999999814,11167.399999999907,12186.19999999972,13286.599999999627,17129.799999999814,17737.19999999972,23427.299999999814,26895.19999999972]","[]","[2132.6999999997206,2432.2999999998137,3004.5999999996275,5336.5999999996275,7486.0999999996275,7763.399999999907,8419.399999999907,9758.5,10007.299999999814,11167.399999999907,12186.19999999972,13286.599999999627,14984.599999999627,16572.799999999814,17129.799999999814,17737.19999999972,23427.299999999814,24439.5,26895.19999999972,29334.799999999814]","0.5","0.6666666666666666","0","","","","","","","","","","","","","","","","","","","","","","","","","","","",""
"131074","","{""Q01"":""4"",""Q02"":""4"",""Q03"":""3"",""Q04"":""4"",""Q05"":""3"",""Q06"":""3"",""Q07"":""4"",""Q08"":""4"",""Q09"":""3"",""Q10"":""4""}","survey-template","5","643511","0.0-4.0","3","3","3","3","3","3","3","3","3","4","4","4","3","4","3","3","4","4","3","4","4","3","3","2","3","2","3","4","2","1","0","1","1","0","1","1","1","1","1","-1","0","0","0","1","5","4","3","2","3","2","3","3","3","2","732226150302224385","李","","","","{""Q01"":""4"",""Q02"":""4"",""Q03"":""3"",""Q04"":""4"",""Q05"":""3"",""Q06"":""3"",""Q07"":""4"",""Q08"":""4"",""Q09"":""3"",""Q10"":""4""}","[0,1,2,3,4,5,6,7,8,9]","[""Q01"",""Q03"",""Q02"",""Q04"",""Q05"",""Q06"",""Q07"",""Q08"",""Q10"",""Q09""]","[3646.600000000093,7005.5,7558.200000000186,68804.80000000028,120373.20000000019,121870.5,123302.80000000028,124366.20000000019,127935.20000000019,128881.20000000019]","[]","[3646.600000000093,5257.600000000093,7005.5,7558.200000000186,68141.1000000001,68804.80000000028,120373.20000000019,121870.5,123302.80000000028,124366.20000000019,126806.70000000019,127590,127935.20000000019,128881.20000000019,131073]","0.4","0.6666666666666666","0","","","","","","","","","","","","","","","","","","","","","","","","","","","",""
"","","","preload","6","643881","0.0-5.0","3","3","3","3","3","3","3","3","3","4","4","4","3","4","3","3","4","4","3","4","4","3","3","2","3","2","3","4","2","1","0","1","1","0","1","1","1","1","1","-1","0","0","0","1","5","4","3","2","3","2","3","3","3","2","732226150302224385","李","","true","","","","","","","","","","","false","[]","[]","[]","","","","","","","","","","","","","","","","","","","","","","","",""
"54666","
    <h3>词语分类任务</h3>
    <p>在接下来的任务中，你需要对一系列词语进行分类。<p/>
    请先熟悉这些词语，这有利于你完成接下来的任务。</p>
    <table align=""center"" border=1 cellpadding=3 cellspacing=0>
    <tr> <th>类别</th> <th>词语</th> </tr>
    <tr> <td>&emsp;积极&emsp;</td> <td>&emsp;高尚、诚信、善良、君子、廉正、正直&emsp;</td> </tr>
    <tr> <td>&emsp;消极&emsp;</td> <td>&emsp;缺德、卑鄙、不孝、不仁、小人、黑心&emsp;</td> </tr>
    <tr> <td>&emsp;自我&emsp;</td> <td>&emsp;我、我的、自己、自己的、本人、本人的&emsp;</td> </tr>
    <tr> <td>&emsp;他人&emsp;</td> <td>&emsp;他、他的、别人、别人的、他人、他人的&emsp;</td> </tr>
    </table><br/>","0","html-button-response","7","698548","0.0-6.0-1.0-0.0","3","3","3","3","3","3","3","3","3","4","4","4","3","4","3","3","4","4","3","4","4","3","3","2","3","2","3","4","2","1","0","1","1","0","1","1","1","1","1","-1","0","0","0","1","5","4","3","2","3","2","3","3","3","2","732226150302224385","李","","","","","","","","","","","","","","","","","1","2","","","","","","","","","","","","","","","","","","","","","",""
"11602","
    <div class=""tag-bottom""><p>
    ―― 任务1：对“他人”词和“自我”词分类 ――<p/>
    不同词语会出现在屏幕中央，类别标签将始终显示在屏幕上方<p/>   
    <span style=""color:#FFD866""><b>请根据上方标签的提示，尽可能正确并且快速地做出按键反应</b></span><p/>
    当按键错误时屏幕中会出现<span style=""color:red""> X </span>，需要按另一个键纠正才能继续<br/><p/>
    请把双手食指分别放在键盘的“E”键和“I”键上<p/>
    按<空格键>开始
    </p></div>"," ","html-keyboard-response","8","710151","0.0-6.0-1.0-1.0","3","3","3","3","3","3","3","3","3","4","4","4","3","4","3","3","4","4","3","4","4","3","3","2","3","2","3","4","2","1","0","1","1","0","1","1","1","1","1","-1","0","0","0","1","5","4","3","2","3","2","3","3","3","2","732226150302224385","李","","","","","","","","","","","","","","","","","","","","","","","","","","","","","","","","","","","","","","","",""
"null","","null","html-keyboard-response","9","710402","0.0-6.0-1.0-2.0-0.0","3","3","3","3","3","3","3","3","3","4","4","4","3","4","3","3","4","4","3","4","4","3","3","2","3","2","3","4","2","1","0","1","1","0","1","1","1","1","1","-1","0","0","0","1","5","4","3","2","3","2","3","3","3","2","732226150302224385","李","","","","","","","","","","","","","","","","","","","","","","","","","","","","","","","","","","","","","","","",""
"1900","<p style=""color:rgb(150, 250, 100); font-size: 35px;"">本人</p>","i","categorize-html","10","712308","0.0-6.0-1.0-2.0-1.0","3","3","3","3","3","3","3","3","3","4","4","4","3","4","3","3","4","4","3","4","4","3","3","2","3","2","3","4","2","1","0","1","1","0","1","1","1","1","1","-1","0","0","0","1","5","4","3","2","3","2","3","3","3","2","732226150302224385","李","","","","","","","","","","","","","","","","","","","true","11","1","moral","1900","self","本人","","","","","","","","","","","","","","",""
"null","","null","html-keyboard-response","11","712559","0.0-6.0-1.0-2.0-0.1","3","3","3","3","3","3","3","3","3","4","4","4","3","4","3","3","4","4","3","4","4","3","3","2","3","2","3","4","2","1","0","1","1","0","1","1","1","1","1","-1","0","0","0","1","5","4","3","2","3","2","3","3","3","2","732226150302224385","李","","","","","","","","","","","","","","","","","","","","","","","","","","","","","","","","","","","","","","","",""
"906","<p style=""color:rgb(150, 250, 100); font-size: 35px;"">本人的</p>","i","categorize-html","12","713467","0.0-6.0-1.0-2.0-1.1","3","3","3","3","3","3","3","3","3","4","4","4","3","4","3","3","4","4","3","4","4","3","3","2","3","2","3","4","2","1","0","1","1","0","1","1","1","1","1","-1","0","0","0","1","5","4","3","2","3","2","3","3","3","2","732226150302224385","李","","","","","","","","","","","","","","","","","","","true","11","1","moral","906","self","本人的","","","","","","","","","","","","","","",""
"null","","null","html-keyboard-response","13","713719","0.0-6.0-1.0-2.0-0.2","3","3","3","3","3","3","3","3","3","4","4","4","3","4","3","3","4","4","3","4","4","3","3","2","3","2","3","4","2","1","0","1","1","0","1","1","1","1","1","-1","0","0","0","1","5","4","3","2","3","2","3","3","3","2","732226150302224385","李","","","","","","","","","","","","","","","","","","","","","","","","","","","","","","","","","","","","","","","",""
"590","<p style=""color:rgb(150, 250, 100); font-size: 35px;"">他人的</p>","e","categorize-html","14","714311","0.0-6.0-1.0-2.0-1.2","3","3","3","3","3","3","3","3","3","4","4","4","3","4","3","3","4","4","3","4","4","3","3","2","3","2","3","4","2","1","0","1","1","0","1","1","1","1","1","-1","0","0","0","1","5","4","3","2","3","2","3","3","3","2","732226150302224385","李","","","","","","","","","","","","","","","","","","","true","11","1","moral","590","other","他人的","","","","","","","","","","","","","","",""
"null","","null","html-keyboard-response","15","714562","0.0-6.0-1.0-2.0-0.3","3","3","3","3","3","3","3","3","3","4","4","4","3","4","3","3","4","4","3","4","4","3","3","2","3","2","3","4","2","1","0","1","1","0","1","1","1","1","1","-1","0","0","0","1","5","4","3","2","3","2","3","3","3","2","732226150302224385","李","","","","","","","","","","","","","","","","","","","","","","","","","","","","","","","","","","","","","","","",""
"643","<p style=""color:rgb(150, 250, 100); font-size: 35px;"">自己</p>","i","categorize-html","16","715206","0.0-6.0-1.0-2.0-1.3","3","3","3","3","3","3","3","3","3","4","4","4","3","4","3","3","4","4","3","4","4","3","3","2","3","2","3","4","2","1","0","1","1","0","1","1","1","1","1","-1","0","0","0","1","5","4","3","2","3","2","3","3","3","2","732226150302224385","李","","","","","","","","","","","","","","","","","","","true","11","1","moral","643","self","自己","","","","","","","","","","","","","","",""
"null","","null","html-keyboard-response","17","715458","0.0-6.0-1.0-2.0-0.4","3","3","3","3","3","3","3","3","3","4","4","4","3","4","3","3","4","4","3","4","4","3","3","2","3","2","3","4","2","1","0","1","1","0","1","1","1","1","1","-1","0","0","0","1","5","4","3","2","3","2","3","3","3","2","732226150302224385","李","","","","","","","","","","","","","","","","","","","","","","","","","","","","","","","","","","","","","","","",""
"630","<p style=""color:rgb(150, 250, 100); font-size: 35px;"">我</p>","i","categorize-html","18","716090","0.0-6.0-1.0-2.0-1.4","3","3","3","3","3","3","3","3","3","4","4","4","3","4","3","3","4","4","3","4","4","3","3","2","3","2","3","4","2","1","0","1","1","0","1","1","1","1","1","-1","0","0","0","1","5","4","3","2","3","2","3","3","3","2","732226150302224385","李","","","","","","","","","","","","","","","","","","","true","11","1","moral","630","self","我","","","","","","","","","","","","","","",""
"null","","null","html-keyboard-response","19","716342","0.0-6.0-1.0-2.0-0.5","3","3","3","3","3","3","3","3","3","4","4","4","3","4","3","3","4","4","3","4","4","3","3","2","3","2","3","4","2","1","0","1","1","0","1","1","1","1","1","-1","0","0","0","1","5","4","3","2","3","2","3","3","3","2","732226150302224385","李","","","","","","","","","","","","","","","","","","","","","","","","","","","","","","","","","","","","","","","",""
"819","<p style=""color:rgb(150, 250, 100); font-size: 35px;"">自己的</p>","i","categorize-html","20","717163","0.0-6.0-1.0-2.0-1.5","3","3","3","3","3","3","3","3","3","4","4","4","3","4","3","3","4","4","3","4","4","3","3","2","3","2","3","4","2","1","0","1","1","0","1","1","1","1","1","-1","0","0","0","1","5","4","3","2","3","2","3","3","3","2","732226150302224385","李","","","","","","","","","","","","","","","","","","","true","11","1","moral","819","self","自己的","","","","","","","","","","","","","","",""
"null","","null","html-keyboard-response","21","717415","0.0-6.0-1.0-2.0-0.6","3","3","3","3","3","3","3","3","3","4","4","4","3","4","3","3","4","4","3","4","4","3","3","2","3","2","3","4","2","1","0","1","1","0","1","1","1","1","1","-1","0","0","0","1","5","4","3","2","3","2","3","3","3","2","732226150302224385","李","","","","","","","","","","","","","","","","","","","","","","","","","","","","","","","","","","","","","","","",""
"634","<p style=""color:rgb(150, 250, 100); font-size: 35px;"">他人</p>","e","categorize-html","22","718050","0.0-6.0-1.0-2.0-1.6","3","3","3","3","3","3","3","3","3","4","4","4","3","4","3","3","4","4","3","4","4","3","3","2","3","2","3","4","2","1","0","1","1","0","1","1","1","1","1","-1","0","0","0","1","5","4","3","2","3","2","3","3","3","2","732226150302224385","李","","","","","","","","","","","","","","","","","","","true","11","1","moral","634","other","他人","","","","","","","","","","","","","","",""
"null","","null","html-keyboard-response","23","718301","0.0-6.0-1.0-2.0-0.7","3","3","3","3","3","3","3","3","3","4","4","4","3","4","3","3","4","4","3","4","4","3","3","2","3","2","3","4","2","1","0","1","1","0","1","1","1","1","1","-1","0","0","0","1","5","4","3","2","3","2","3","3","3","2","732226150302224385","李","","","","","","","","","","","","","","","","","","","","","","","","","","","","","","","","","","","","","","","",""
"741","<p style=""color:rgb(150, 250, 100); font-size: 35px;"">他</p>","e","categorize-html","24","719045","0.0-6.0-1.0-2.0-1.7","3","3","3","3","3","3","3","3","3","4","4","4","3","4","3","3","4","4","3","4","4","3","3","2","3","2","3","4","2","1","0","1","1","0","1","1","1","1","1","-1","0","0","0","1","5","4","3","2","3","2","3","3","3","2","732226150302224385","李","","","","","","","","","","","","","","","","","","","true","11","1","moral","741","other","他","","","","","","","","","","","","","","",""
"null","","null","html-keyboard-response","25","719296","0.0-6.0-1.0-2.0-0.8","3","3","3","3","3","3","3","3","3","4","4","4","3","4","3","3","4","4","3","4","4","3","3","2","3","2","3","4","2","1","0","1","1","0","1","1","1","1","1","-1","0","0","0","1","5","4","3","2","3","2","3","3","3","2","732226150302224385","李","","","","","","","","","","","","","","","","","","","","","","","","","","","","","","","","","","","","","","","",""
"677","<p style=""color:rgb(150, 250, 100); font-size: 35px;"">别人的</p>","e","categorize-html","26","719975","0.0-6.0-1.0-2.0-1.8","3","3","3","3","3","3","3","3","3","4","4","4","3","4","3","3","4","4","3","4","4","3","3","2","3","2","3","4","2","1","0","1","1","0","1","1","1","1","1","-1","0","0","0","1","5","4","3","2","3","2","3","3","3","2","732226150302224385","李","","","","","","","","","","","","","","","","","","","true","11","1","moral","677","other","别人的","","","","","","","","","","","","","","",""
"null","","null","html-keyboard-response","27","720226","0.0-6.0-1.0-2.0-0.9","3","3","3","3","3","3","3","3","3","4","4","4","3","4","3","3","4","4","3","4","4","3","3","2","3","2","3","4","2","1","0","1","1","0","1","1","1","1","1","-1","0","0","0","1","5","4","3","2","3","2","3","3","3","2","732226150302224385","李","","","","","","","","","","","","","","","","","","","","","","","","","","","","","","","","","","","","","","","",""
"607","<p style=""color:rgb(150, 250, 100); font-size: 35px;"">我的</p>","i","categorize-html","28","720834","0.0-6.0-1.0-2.0-1.9","3","3","3","3","3","3","3","3","3","4","4","4","3","4","3","3","4","4","3","4","4","3","3","2","3","2","3","4","2","1","0","1","1","0","1","1","1","1","1","-1","0","0","0","1","5","4","3","2","3","2","3","3","3","2","732226150302224385","李","","","","","","","","","","","","","","","","","","","true","11","1","moral","607","self","我的","","","","","","","","","","","","","","",""
"null","","null","html-keyboard-response","29","721084","0.0-6.0-1.0-2.0-0.10","3","3","3","3","3","3","3","3","3","4","4","4","3","4","3","3","4","4","3","4","4","3","3","2","3","2","3","4","2","1","0","1","1","0","1","1","1","1","1","-1","0","0","0","1","5","4","3","2","3","2","3","3","3","2","732226150302224385","李","","","","","","","","","","","","","","","","","","","","","","","","","","","","","","","","","","","","","","","",""
"604","<p style=""color:rgb(150, 250, 100); font-size: 35px;"">他的</p>","e","categorize-html","30","721689","0.0-6.0-1.0-2.0-1.10","3","3","3","3","3","3","3","3","3","4","4","4","3","4","3","3","4","4","3","4","4","3","3","2","3","2","3","4","2","1","0","1","1","0","1","1","1","1","1","-1","0","0","0","1","5","4","3","2","3","2","3","3","3","2","732226150302224385","李","","","","","","","","","","","","","","","","","","","true","11","1","moral","604","other","他的","","","","","","","","","","","","","","",""
"null","","null","html-keyboard-response","31","721940","0.0-6.0-1.0-2.0-0.11","3","3","3","3","3","3","3","3","3","4","4","4","3","4","3","3","4","4","3","4","4","3","3","2","3","2","3","4","2","1","0","1","1","0","1","1","1","1","1","-1","0","0","0","1","5","4","3","2","3","2","3","3","3","2","732226150302224385","李","","","","","","","","","","","","","","","","","","","","","","","","","","","","","","","","","","","","","","","",""
"1490","<p style=""color:rgb(150, 250, 100); font-size: 35px;"">别人</p>","e","categorize-html","32","723431","0.0-6.0-1.0-2.0-1.11","3","3","3","3","3","3","3","3","3","4","4","4","3","4","3","3","4","4","3","4","4","3","3","2","3","2","3","4","2","1","0","1","1","0","1","1","1","1","1","-1","0","0","0","1","5","4","3","2","3","2","3","3","3","2","732226150302224385","李","","","","","","","","","","","","","","","","","","","true","11","1","moral","1490","other","别人","","","","","","","","","","","","","","",""
"11434","
    <div class=""tag-bottom""><p>
    ―― 任务2：对“积极”词和“消极”词分类 ――<p/>   
    <span style=""color:#78DCE8""><b>注意上方，类别标签和需要分类的词语都已经改变</b></span><p/>
    <span style=""color:#FFD866""><b>请根据上方标签的提示，尽可能正确并且快速地做出按键反应</b></span><p/>
    当按键错误时屏幕中会出现<span style=""color:red""> X </span>，需要按另一个键纠正才能继续<br/><p/>
    请把双手食指分别放在键盘的“E”键和“I”键上<p/>
    按<空格键>开始
    </p></div>"," ","html-keyboard-response","33","734866","0.0-6.0-1.0-3.0","3","3","3","3","3","3","3","3","3","4","4","4","3","4","3","3","4","4","3","4","4","3","3","2","3","2","3","4","2","1","0","1","1","0","1","1","1","1","1","-1","0","0","0","1","5","4","3","2","3","2","3","3","3","2","732226150302224385","李","","","","","","","","","","","","","","","","","","","","","","","","","","","","","","","","","","","","","","","",""
"null","","null","html-keyboard-response","34","735117","0.0-6.0-1.0-4.0-0.0","3","3","3","3","3","3","3","3","3","4","4","4","3","4","3","3","4","4","3","4","4","3","3","2","3","2","3","4","2","1","0","1","1","0","1","1","1","1","1","-1","0","0","0","1","5","4","3","2","3","2","3","3","3","2","732226150302224385","李","","","","","","","","","","","","","","","","","","","","","","","","","","","","","","","","","","","","","","","",""
"1528","<p style=""color:white; font-size: 35px;"">小人</p>","i","categorize-html","35","736646","0.0-6.0-1.0-4.0-1.0","3","3","3","3","3","3","3","3","3","4","4","4","3","4","3","3","4","4","3","4","4","3","3","2","3","2","3","4","2","1","0","1","1","0","1","1","1","1","1","-1","0","0","0","1","5","4","3","2","3","2","3","3","3","2","732226150302224385","李","","","","","","","","","","","","","","","","","","","true","12","2","moral","1528","negative","小人","","","","","","","","","","","","","","",""
"null","","null","html-keyboard-response","36","736898","0.0-6.0-1.0-4.0-0.1","3","3","3","3","3","3","3","3","3","4","4","4","3","4","3","3","4","4","3","4","4","3","3","2","3","2","3","4","2","1","0","1","1","0","1","1","1","1","1","-1","0","0","0","1","5","4","3","2","3","2","3","3","3","2","732226150302224385","李","","","","","","","","","","","","","","","","","","","","","","","","","","","","","","","","","","","","","","","",""
"580","<p style=""color:white; font-size: 35px;"">善良</p>","e","categorize-html","37","737481","0.0-6.0-1.0-4.0-1.1","3","3","3","3","3","3","3","3","3","4","4","4","3","4","3","3","4","4","3","4","4","3","3","2","3","2","3","4","2","1","0","1","1","0","1","1","1","1","1","-1","0","0","0","1","5","4","3","2","3","2","3","3","3","2","732226150302224385","李","","","","","","","","","","","","","","","","","","","true","12","2","moral","580","positive","善良","","","","","","","","","","","","","","",""
"null","","null","html-keyboard-response","38","737732","0.0-6.0-1.0-4.0-0.2","3","3","3","3","3","3","3","3","3","4","4","4","3","4","3","3","4","4","3","4","4","3","3","2","3","2","3","4","2","1","0","1","1","0","1","1","1","1","1","-1","0","0","0","1","5","4","3","2","3","2","3","3","3","2","732226150302224385","李","","","","","","","","","","","","","","","","","","","","","","","","","","","","","","","","","","","","","","","",""
"504","<p style=""color:white; font-size: 35px;"">诚信</p>","e","categorize-html","39","738237","0.0-6.0-1.0-4.0-1.2","3","3","3","3","3","3","3","3","3","4","4","4","3","4","3","3","4","4","3","4","4","3","3","2","3","2","3","4","2","1","0","1","1","0","1","1","1","1","1","-1","0","0","0","1","5","4","3","2","3","2","3","3","3","2","732226150302224385","李","","","","","","","","","","","","","","","","","","","true","12","2","moral","504","positive","诚信","","","","","","","","","","","","","","",""
"null","","null","html-keyboard-response","40","738488","0.0-6.0-1.0-4.0-0.3","3","3","3","3","3","3","3","3","3","4","4","4","3","4","3","3","4","4","3","4","4","3","3","2","3","2","3","4","2","1","0","1","1","0","1","1","1","1","1","-1","0","0","0","1","5","4","3","2","3","2","3","3","3","2","732226150302224385","李","","","","","","","","","","","","","","","","","","","","","","","","","","","","","","","","","","","","","","","",""
"522","<p style=""color:white; font-size: 35px;"">不仁</p>","i","categorize-html","41","739011","0.0-6.0-1.0-4.0-1.3","3","3","3","3","3","3","3","3","3","4","4","4","3","4","3","3","4","4","3","4","4","3","3","2","3","2","3","4","2","1","0","1","1","0","1","1","1","1","1","-1","0","0","0","1","5","4","3","2","3","2","3","3","3","2","732226150302224385","李","","","","","","","","","","","","","","","","","","","true","12","2","moral","522","negative","不仁","","","","","","","","","","","","","","",""
"null","","null","html-keyboard-response","42","739263","0.0-6.0-1.0-4.0-0.4","3","3","3","3","3","3","3","3","3","4","4","4","3","4","3","3","4","4","3","4","4","3","3","2","3","2","3","4","2","1","0","1","1","0","1","1","1","1","1","-1","0","0","0","1","5","4","3","2","3","2","3","3","3","2","732226150302224385","李","","","","","","","","","","","","","","","","","","","","","","","","","","","","","","","","","","","","","","","",""
"608","<p style=""color:white; font-size: 35px;"">缺德</p>","i","categorize-html","43","739873","0.0-6.0-1.0-4.0-1.4","3","3","3","3","3","3","3","3","3","4","4","4","3","4","3","3","4","4","3","4","4","3","3","2","3","2","3","4","2","1","0","1","1","0","1","1","1","1","1","-1","0","0","0","1","5","4","3","2","3","2","3","3","3","2","732226150302224385","李","","","","","","","","","","","","","","","","","","","true","12","2","moral","608","negative","缺德","","","","","","","","","","","","","","",""
"null","","null","html-keyboard-response","44","740124","0.0-6.0-1.0-4.0-0.5","3","3","3","3","3","3","3","3","3","4","4","4","3","4","3","3","4","4","3","4","4","3","3","2","3","2","3","4","2","1","0","1","1","0","1","1","1","1","1","-1","0","0","0","1","5","4","3","2","3","2","3","3","3","2","732226150302224385","李","","","","","","","","","","","","","","","","","","","","","","","","","","","","","","","","","","","","","","","",""
"499","<p style=""color:white; font-size: 35px;"">君子</p>","e","categorize-html","45","740625","0.0-6.0-1.0-4.0-1.5","3","3","3","3","3","3","3","3","3","4","4","4","3","4","3","3","4","4","3","4","4","3","3","2","3","2","3","4","2","1","0","1","1","0","1","1","1","1","1","-1","0","0","0","1","5","4","3","2","3","2","3","3","3","2","732226150302224385","李","","","","","","","","","","","","","","","","","","","true","12","2","moral","499","positive","君子","","","","","","","","","","","","","","",""
"null","","null","html-keyboard-response","46","740875","0.0-6.0-1.0-4.0-0.6","3","3","3","3","3","3","3","3","3","4","4","4","3","4","3","3","4","4","3","4","4","3","3","2","3","2","3","4","2","1","0","1","1","0","1","1","1","1","1","-1","0","0","0","1","5","4","3","2","3","2","3","3","3","2","732226150302224385","李","","","","","","","","","","","","","","","","","","","","","","","","","","","","","","","","","","","","","","","",""
"543","<p style=""color:white; font-size: 35px;"">高尚</p>","e","categorize-html","47","741421","0.0-6.0-1.0-4.0-1.6","3","3","3","3","3","3","3","3","3","4","4","4","3","4","3","3","4","4","3","4","4","3","3","2","3","2","3","4","2","1","0","1","1","0","1","1","1","1","1","-1","0","0","0","1","5","4","3","2","3","2","3","3","3","2","732226150302224385","李","","","","","","","","","","","","","","","","","","","true","12","2","moral","543","positive","高尚","","","","","","","","","","","","","","",""
"null","","null","html-keyboard-response","48","741672","0.0-6.0-1.0-4.0-0.7","3","3","3","3","3","3","3","3","3","4","4","4","3","4","3","3","4","4","3","4","4","3","3","2","3","2","3","4","2","1","0","1","1","0","1","1","1","1","1","-1","0","0","0","1","5","4","3","2","3","2","3","3","3","2","732226150302224385","李","","","","","","","","","","","","","","","","","","","","","","","","","","","","","","","","","","","","","","","",""
"733","<p style=""color:white; font-size: 35px;"">正直</p>","e","categorize-html","49","742407","0.0-6.0-1.0-4.0-1.7","3","3","3","3","3","3","3","3","3","4","4","4","3","4","3","3","4","4","3","4","4","3","3","2","3","2","3","4","2","1","0","1","1","0","1","1","1","1","1","-1","0","0","0","1","5","4","3","2","3","2","3","3","3","2","732226150302224385","李","","","","","","","","","","","","","","","","","","","true","12","2","moral","733","positive","正直","","","","","","","","","","","","","","",""
"null","","null","html-keyboard-response","50","742658","0.0-6.0-1.0-4.0-0.8","3","3","3","3","3","3","3","3","3","4","4","4","3","4","3","3","4","4","3","4","4","3","3","2","3","2","3","4","2","1","0","1","1","0","1","1","1","1","1","-1","0","0","0","1","5","4","3","2","3","2","3","3","3","2","732226150302224385","李","","","","","","","","","","","","","","","","","","","","","","","","","","","","","","","","","","","","","","","",""
"519","<p style=""color:white; font-size: 35px;"">不孝</p>","i","categorize-html","51","743178","0.0-6.0-1.0-4.0-1.8","3","3","3","3","3","3","3","3","3","4","4","4","3","4","3","3","4","4","3","4","4","3","3","2","3","2","3","4","2","1","0","1","1","0","1","1","1","1","1","-1","0","0","0","1","5","4","3","2","3","2","3","3","3","2","732226150302224385","李","","","","","","","","","","","","","","","","","","","true","12","2","moral","519","negative","不孝","","","","","","","","","","","","","","",""
"null","","null","html-keyboard-response","52","743429","0.0-6.0-1.0-4.0-0.9","3","3","3","3","3","3","3","3","3","4","4","4","3","4","3","3","4","4","3","4","4","3","3","2","3","2","3","4","2","1","0","1","1","0","1","1","1","1","1","-1","0","0","0","1","5","4","3","2","3","2","3","3","3","2","732226150302224385","李","","","","","","","","","","","","","","","","","","","","","","","","","","","","","","","","","","","","","","","",""
"757","<p style=""color:white; font-size: 35px;"">黑心</p>","i","categorize-html","53","744187","0.0-6.0-1.0-4.0-1.9","3","3","3","3","3","3","3","3","3","4","4","4","3","4","3","3","4","4","3","4","4","3","3","2","3","2","3","4","2","1","0","1","1","0","1","1","1","1","1","-1","0","0","0","1","5","4","3","2","3","2","3","3","3","2","732226150302224385","李","","","","","","","","","","","","","","","","","","","true","12","2","moral","757","negative","黑心","","","","","","","","","","","","","","",""
"null","","null","html-keyboard-response","54","744440","0.0-6.0-1.0-4.0-0.10","3","3","3","3","3","3","3","3","3","4","4","4","3","4","3","3","4","4","3","4","4","3","3","2","3","2","3","4","2","1","0","1","1","0","1","1","1","1","1","-1","0","0","0","1","5","4","3","2","3","2","3","3","3","2","732226150302224385","李","","","","","","","","","","","","","","","","","","","","","","","","","","","","","","","","","","","","","","","",""
"565","<p style=""color:white; font-size: 35px;"">卑鄙</p>","i","categorize-html","55","745008","0.0-6.0-1.0-4.0-1.10","3","3","3","3","3","3","3","3","3","4","4","4","3","4","3","3","4","4","3","4","4","3","3","2","3","2","3","4","2","1","0","1","1","0","1","1","1","1","1","-1","0","0","0","1","5","4","3","2","3","2","3","3","3","2","732226150302224385","李","","","","","","","","","","","","","","","","","","","true","12","2","moral","565","negative","卑鄙","","","","","","","","","","","","","","",""
"null","","null","html-keyboard-response","56","745259","0.0-6.0-1.0-4.0-0.11","3","3","3","3","3","3","3","3","3","4","4","4","3","4","3","3","4","4","3","4","4","3","3","2","3","2","3","4","2","1","0","1","1","0","1","1","1","1","1","-1","0","0","0","1","5","4","3","2","3","2","3","3","3","2","732226150302224385","李","","","","","","","","","","","","","","","","","","","","","","","","","","","","","","","","","","","","","","","",""
"643","<p style=""color:white; font-size: 35px;"">廉正</p>","e","categorize-html","57","745903","0.0-6.0-1.0-4.0-1.11","3","3","3","3","3","3","3","3","3","4","4","4","3","4","3","3","4","4","3","4","4","3","3","2","3","2","3","4","2","1","0","1","1","0","1","1","1","1","1","-1","0","0","0","1","5","4","3","2","3","2","3","3","3","2","732226150302224385","李","","","","","","","","","","","","","","","","","","","true","12","2","moral","643","positive","廉正","","","","","","","","","","","","","","",""
"109310","
    <div class=""tag-bottom""><p>
    ―― 任务3：对“他人/积极”词和“自我/消极”词分类 ――<p/>
    <span style=""color:#78DCE8""><b>注意上方，之前的四类词语将混合在一起交替呈现</b></span><p/>
    <span style=""color:#FFD866""><b>请根据上方标签的提示，尽可能正确并且快速地做出按键反应</b></span><p/>
    当按键错误时屏幕中会出现<span style=""color:red""> X </span>，需要按另一个键纠正才能继续<br/><p/>
    请把双手食指分别放在键盘的“E”键和“I”键上<p/>
    按<空格键>开始
    </p></div>"," ","html-keyboard-response","58","855213","0.0-6.0-1.0-5.0","3","3","3","3","3","3","3","3","3","4","4","4","3","4","3","3","4","4","3","4","4","3","3","2","3","2","3","4","2","1","0","1","1","0","1","1","1","1","1","-1","0","0","0","1","5","4","3","2","3","2","3","3","3","2","732226150302224385","李","","","","","","","","","","","","","","","","","","","","","","","","","","","","","","","","","","","","","","","",""
"null","","null","html-keyboard-response","59","855465","0.0-6.0-1.0-6.0-0.0","3","3","3","3","3","3","3","3","3","4","4","4","3","4","3","3","4","4","3","4","4","3","3","2","3","2","3","4","2","1","0","1","1","0","1","1","1","1","1","-1","0","0","0","1","5","4","3","2","3","2","3","3","3","2","732226150302224385","李","","","","","","","","","","","","","","","","","","","","","","","","","","","","","","","","","","","","","","","",""
"3458","<p style=""color:rgb(150, 250, 100); font-size: 35px;"">我的</p>","i","categorize-html","60","858925","0.0-6.0-1.0-6.0-1.0","3","3","3","3","3","3","3","3","3","4","4","4","3","4","3","3","4","4","3","4","4","3","3","2","3","2","3","4","2","1","0","1","1","0","1","1","1","1","1","-1","0","0","0","1","5","4","3","2","3","2","3","3","3","2","732226150302224385","李","","","","","","","","","","","","","","","","","","","true","13","3","moral","3458","self","我的","","","","","","","","","","","","","","",""
"null","","null","html-keyboard-response","61","859176","0.0-6.0-1.0-6.0-0.1","3","3","3","3","3","3","3","3","3","4","4","4","3","4","3","3","4","4","3","4","4","3","3","2","3","2","3","4","2","1","0","1","1","0","1","1","1","1","1","-1","0","0","0","1","5","4","3","2","3","2","3","3","3","2","732226150302224385","李","","","","","","","","","","","","","","","","","","","","","","","","","","","","","","","","","","","","","","","",""
"2754","<p style=""color:white; font-size: 35px;"">不仁</p>","i","categorize-html","62","861933","0.0-6.0-1.0-6.0-1.1","3","3","3","3","3","3","3","3","3","4","4","4","3","4","3","3","4","4","3","4","4","3","3","2","3","2","3","4","2","1","0","1","1","0","1","1","1","1","1","-1","0","0","0","1","5","4","3","2","3","2","3","3","3","2","732226150302224385","李","","","","","","","","","","","","","","","","","","","true","13","3","moral","2754","negative","不仁","","","","","","","","","","","","","","",""
"null","","null","html-keyboard-response","63","862184","0.0-6.0-1.0-6.0-0.2","3","3","3","3","3","3","3","3","3","4","4","4","3","4","3","3","4","4","3","4","4","3","3","2","3","2","3","4","2","1","0","1","1","0","1","1","1","1","1","-1","0","0","0","1","5","4","3","2","3","2","3","3","3","2","732226150302224385","李","","","","","","","","","","","","","","","","","","","","","","","","","","","","","","","","","","","","","","","",""
"763","<p style=""color:rgb(150, 250, 100); font-size: 35px;"">别人的</p>","e","categorize-html","64","862950","0.0-6.0-1.0-6.0-1.2","3","3","3","3","3","3","3","3","3","4","4","4","3","4","3","3","4","4","3","4","4","3","3","2","3","2","3","4","2","1","0","1","1","0","1","1","1","1","1","-1","0","0","0","1","5","4","3","2","3","2","3","3","3","2","732226150302224385","李","","","","","","","","","","","","","","","","","","","true","13","3","moral","763","other","别人的","","","","","","","","","","","","","","",""
"null","","null","html-keyboard-response","65","863201","0.0-6.0-1.0-6.0-0.3","3","3","3","3","3","3","3","3","3","4","4","4","3","4","3","3","4","4","3","4","4","3","3","2","3","2","3","4","2","1","0","1","1","0","1","1","1","1","1","-1","0","0","0","1","5","4","3","2","3","2","3","3","3","2","732226150302224385","李","","","","","","","","","","","","","","","","","","","","","","","","","","","","","","","","","","","","","","","",""
"609","<p style=""color:white; font-size: 35px;"">诚信</p>","e","categorize-html","66","863813","0.0-6.0-1.0-6.0-1.3","3","3","3","3","3","3","3","3","3","4","4","4","3","4","3","3","4","4","3","4","4","3","3","2","3","2","3","4","2","1","0","1","1","0","1","1","1","1","1","-1","0","0","0","1","5","4","3","2","3","2","3","3","3","2","732226150302224385","李","","","","","","","","","","","","","","","","","","","true","13","3","moral","609","positive","诚信","","","","","","","","","","","","","","",""
"null","","null","html-keyboard-response","67","864063","0.0-6.0-1.0-6.0-0.4","3","3","3","3","3","3","3","3","3","4","4","4","3","4","3","3","4","4","3","4","4","3","3","2","3","2","3","4","2","1","0","1","1","0","1","1","1","1","1","-1","0","0","0","1","5","4","3","2","3","2","3","3","3","2","732226150302224385","李","","","","","","","","","","","","","","","","","","","","","","","","","","","","","","","","","","","","","","","",""
"1994","<p style=""color:rgb(150, 250, 100); font-size: 35px;"">本人</p>","i","categorize-html","68","866060","0.0-6.0-1.0-6.0-1.4","3","3","3","3","3","3","3","3","3","4","4","4","3","4","3","3","4","4","3","4","4","3","3","2","3","2","3","4","2","1","0","1","1","0","1","1","1","1","1","-1","0","0","0","1","5","4","3","2","3","2","3","3","3","2","732226150302224385","李","","","","","","","","","","","","","","","","","","","true","13","3","moral","1994","self","本人","","","","","","","","","","","","","","",""
"null","","null","html-keyboard-response","69","866311","0.0-6.0-1.0-6.0-0.5","3","3","3","3","3","3","3","3","3","4","4","4","3","4","3","3","4","4","3","4","4","3","3","2","3","2","3","4","2","1","0","1","1","0","1","1","1","1","1","-1","0","0","0","1","5","4","3","2","3","2","3","3","3","2","732226150302224385","李","","","","","","","","","","","","","","","","","","","","","","","","","","","","","","","","","","","","","","","",""
"1044","<p style=""color:white; font-size: 35px;"">君子</p>","e","categorize-html","70","867356","0.0-6.0-1.0-6.0-1.5","3","3","3","3","3","3","3","3","3","4","4","4","3","4","3","3","4","4","3","4","4","3","3","2","3","2","3","4","2","1","0","1","1","0","1","1","1","1","1","-1","0","0","0","1","5","4","3","2","3","2","3","3","3","2","732226150302224385","李","","","","","","","","","","","","","","","","","","","true","13","3","moral","1044","positive","君子","","","","","","","","","","","","","","",""
"null","","null","html-keyboard-response","71","867607","0.0-6.0-1.0-6.0-0.6","3","3","3","3","3","3","3","3","3","4","4","4","3","4","3","3","4","4","3","4","4","3","3","2","3","2","3","4","2","1","0","1","1","0","1","1","1","1","1","-1","0","0","0","1","5","4","3","2","3","2","3","3","3","2","732226150302224385","李","","","","","","","","","","","","","","","","","","","","","","","","","","","","","","","","","","","","","","","",""
"1895","<p style=""color:rgb(150, 250, 100); font-size: 35px;"">他人的</p>","e","categorize-html","72","869503","0.0-6.0-1.0-6.0-1.6","3","3","3","3","3","3","3","3","3","4","4","4","3","4","3","3","4","4","3","4","4","3","3","2","3","2","3","4","2","1","0","1","1","0","1","1","1","1","1","-1","0","0","0","1","5","4","3","2","3","2","3","3","3","2","732226150302224385","李","","","","","","","","","","","","","","","","","","","true","13","3","moral","1895","other","他人的","","","","","","","","","","","","","","",""
"null","","null","html-keyboard-response","73","869754","0.0-6.0-1.0-6.0-0.7","3","3","3","3","3","3","3","3","3","4","4","4","3","4","3","3","4","4","3","4","4","3","3","2","3","2","3","4","2","1","0","1","1","0","1","1","1","1","1","-1","0","0","0","1","5","4","3","2","3","2","3","3","3","2","732226150302224385","李","","","","","","","","","","","","","","","","","","","","","","","","","","","","","","","","","","","","","","","",""
"990","<p style=""color:white; font-size: 35px;"">黑心</p>","i","categorize-html","74","870747","0.0-6.0-1.0-6.0-1.7","3","3","3","3","3","3","3","3","3","4","4","4","3","4","3","3","4","4","3","4","4","3","3","2","3","2","3","4","2","1","0","1","1","0","1","1","1","1","1","-1","0","0","0","1","5","4","3","2","3","2","3","3","3","2","732226150302224385","李","","","","","","","","","","","","","","","","","","","true","13","3","moral","990","negative","黑心","","","","","","","","","","","","","","",""
"null","","null","html-keyboard-response","75","870999","0.0-6.0-1.0-6.0-0.8","3","3","3","3","3","3","3","3","3","4","4","4","3","4","3","3","4","4","3","4","4","3","3","2","3","2","3","4","2","1","0","1","1","0","1","1","1","1","1","-1","0","0","0","1","5","4","3","2","3","2","3","3","3","2","732226150302224385","李","","","","","","","","","","","","","","","","","","","","","","","","","","","","","","","","","","","","","","","",""
"906","<p style=""color:rgb(150, 250, 100); font-size: 35px;"">自己的</p>","i","categorize-html","76","871906","0.0-6.0-1.0-6.0-1.8","3","3","3","3","3","3","3","3","3","4","4","4","3","4","3","3","4","4","3","4","4","3","3","2","3","2","3","4","2","1","0","1","1","0","1","1","1","1","1","-1","0","0","0","1","5","4","3","2","3","2","3","3","3","2","732226150302224385","李","","","","","","","","","","","","","","","","","","","true","13","3","moral","906","self","自己的","","","","","","","","","","","","","","",""
"null","","null","html-keyboard-response","77","872157","0.0-6.0-1.0-6.0-0.9","3","3","3","3","3","3","3","3","3","4","4","4","3","4","3","3","4","4","3","4","4","3","3","2","3","2","3","4","2","1","0","1","1","0","1","1","1","1","1","-1","0","0","0","1","5","4","3","2","3","2","3","3","3","2","732226150302224385","李","","","","","","","","","","","","","","","","","","","","","","","","","","","","","","","","","","","","","","","",""
"1072","<p style=""color:white; font-size: 35px;"">缺德</p>","i","categorize-html","78","873232","0.0-6.0-1.0-6.0-1.9","3","3","3","3","3","3","3","3","3","4","4","4","3","4","3","3","4","4","3","4","4","3","3","2","3","2","3","4","2","1","0","1","1","0","1","1","1","1","1","-1","0","0","0","1","5","4","3","2","3","2","3","3","3","2","732226150302224385","李","","","","","","","","","","","","","","","","","","","true","13","3","moral","1072","negative","缺德","","","","","","","","","","","","","","",""
"null","","null","html-keyboard-response","79","873484","0.0-6.0-1.0-6.0-0.10","3","3","3","3","3","3","3","3","3","4","4","4","3","4","3","3","4","4","3","4","4","3","3","2","3","2","3","4","2","1","0","1","1","0","1","1","1","1","1","-1","0","0","0","1","5","4","3","2","3","2","3","3","3","2","732226150302224385","李","","","","","","","","","","","","","","","","","","","","","","","","","","","","","","","","","","","","","","","",""
"1556","<p style=""color:rgb(150, 250, 100); font-size: 35px;"">他</p>","e","categorize-html","80","875042","0.0-6.0-1.0-6.0-1.10","3","3","3","3","3","3","3","3","3","4","4","4","3","4","3","3","4","4","3","4","4","3","3","2","3","2","3","4","2","1","0","1","1","0","1","1","1","1","1","-1","0","0","0","1","5","4","3","2","3","2","3","3","3","2","732226150302224385","李","","","","","","","","","","","","","","","","","","","true","13","3","moral","1556","other","他","","","","","","","","","","","","","","",""
"null","","null","html-keyboard-response","81","875294","0.0-6.0-1.0-6.0-0.11","3","3","3","3","3","3","3","3","3","4","4","4","3","4","3","3","4","4","3","4","4","3","3","2","3","2","3","4","2","1","0","1","1","0","1","1","1","1","1","-1","0","0","0","1","5","4","3","2","3","2","3","3","3","2","732226150302224385","李","","","","","","","","","","","","","","","","","","","","","","","","","","","","","","","","","","","","","","","",""
"2011","<p style=""color:white; font-size: 35px;"">正直</p>","e","categorize-html","82","877305","0.0-6.0-1.0-6.0-1.11","3","3","3","3","3","3","3","3","3","4","4","4","3","4","3","3","4","4","3","4","4","3","3","2","3","2","3","4","2","1","0","1","1","0","1","1","1","1","1","-1","0","0","0","1","5","4","3","2","3","2","3","3","3","2","732226150302224385","李","","","","","","","","","","","","","","","","","","","true","13","3","moral","2011","positive","正直","","","","","","","","","","","","","","",""
"null","","null","html-keyboard-response","83","877556","0.0-6.0-1.0-6.0-0.12","3","3","3","3","3","3","3","3","3","4","4","4","3","4","3","3","4","4","3","4","4","3","3","2","3","2","3","4","2","1","0","1","1","0","1","1","1","1","1","-1","0","0","0","1","5","4","3","2","3","2","3","3","3","2","732226150302224385","李","","","","","","","","","","","","","","","","","","","","","","","","","","","","","","","","","","","","","","","",""
"751","<p style=""color:rgb(150, 250, 100); font-size: 35px;"">我</p>","i","categorize-html","84","878308","0.0-6.0-1.0-6.0-1.12","3","3","3","3","3","3","3","3","3","4","4","4","3","4","3","3","4","4","3","4","4","3","3","2","3","2","3","4","2","1","0","1","1","0","1","1","1","1","1","-1","0","0","0","1","5","4","3","2","3","2","3","3","3","2","732226150302224385","李","","","","","","","","","","","","","","","","","","","true","13","3","moral","751","self","我","","","","","","","","","","","","","","",""
"null","","null","html-keyboard-response","85","878560","0.0-6.0-1.0-6.0-0.13","3","3","3","3","3","3","3","3","3","4","4","4","3","4","3","3","4","4","3","4","4","3","3","2","3","2","3","4","2","1","0","1","1","0","1","1","1","1","1","-1","0","0","0","1","5","4","3","2","3","2","3","3","3","2","732226150302224385","李","","","","","","","","","","","","","","","","","","","","","","","","","","","","","","","","","","","","","","","",""
"4961","<p style=""color:white; font-size: 35px;"">善良</p>","e","categorize-html","86","883523","0.0-6.0-1.0-6.0-1.13","3","3","3","3","3","3","3","3","3","4","4","4","3","4","3","3","4","4","3","4","4","3","3","2","3","2","3","4","2","1","0","1","1","0","1","1","1","1","1","-1","0","0","0","1","5","4","3","2","3","2","3","3","3","2","732226150302224385","李","","","","","","","","","","","","","","","","","","","true","13","3","moral","4961","positive","善良","","","","","","","","","","","","","","",""
"null","","null","html-keyboard-response","87","883775","0.0-6.0-1.0-6.0-0.14","3","3","3","3","3","3","3","3","3","4","4","4","3","4","3","3","4","4","3","4","4","3","3","2","3","2","3","4","2","1","0","1","1","0","1","1","1","1","1","-1","0","0","0","1","5","4","3","2","3","2","3","3","3","2","732226150302224385","李","","","","","","","","","","","","","","","","","","","","","","","","","","","","","","","","","","","","","","","",""
"15203","<p style=""color:rgb(150, 250, 100); font-size: 35px;"">别人</p>","e","categorize-html","88","898980","0.0-6.0-1.0-6.0-1.14","3","3","3","3","3","3","3","3","3","4","4","4","3","4","3","3","4","4","3","4","4","3","3","2","3","2","3","4","2","1","0","1","1","0","1","1","1","1","1","-1","0","0","0","1","5","4","3","2","3","2","3","3","3","2","732226150302224385","李","","","","","","","","","","","","","","","","","","","true","13","3","moral","15203","other","别人","","","","","","","","","","","","","","",""
"null","","null","html-keyboard-response","89","899232","0.0-6.0-1.0-6.0-0.15","3","3","3","3","3","3","3","3","3","4","4","4","3","4","3","3","4","4","3","4","4","3","3","2","3","2","3","4","2","1","0","1","1","0","1","1","1","1","1","-1","0","0","0","1","5","4","3","2","3","2","3","3","3","2","732226150302224385","李","","","","","","","","","","","","","","","","","","","","","","","","","","","","","","","","","","","","","","","",""
"965","<p style=""color:white; font-size: 35px;"">小人</p>","i","categorize-html","90","900199","0.0-6.0-1.0-6.0-1.15","3","3","3","3","3","3","3","3","3","4","4","4","3","4","3","3","4","4","3","4","4","3","3","2","3","2","3","4","2","1","0","1","1","0","1","1","1","1","1","-1","0","0","0","1","5","4","3","2","3","2","3","3","3","2","732226150302224385","李","","","","","","","","","","","","","","","","","","","true","13","3","moral","965","negative","小人","","","","","","","","","","","","","","",""
"null","","null","html-keyboard-response","91","900450","0.0-6.0-1.0-6.0-0.16","3","3","3","3","3","3","3","3","3","4","4","4","3","4","3","3","4","4","3","4","4","3","3","2","3","2","3","4","2","1","0","1","1","0","1","1","1","1","1","-1","0","0","0","1","5","4","3","2","3","2","3","3","3","2","732226150302224385","李","","","","","","","","","","","","","","","","","","","","","","","","","","","","","","","","","","","","","","","",""
"2719","<p style=""color:rgb(150, 250, 100); font-size: 35px;"">他的</p>","e","categorize-html","92","903172","0.0-6.0-1.0-6.0-1.16","3","3","3","3","3","3","3","3","3","4","4","4","3","4","3","3","4","4","3","4","4","3","3","2","3","2","3","4","2","1","0","1","1","0","1","1","1","1","1","-1","0","0","0","1","5","4","3","2","3","2","3","3","3","2","732226150302224385","李","","","","","","","","","","","","","","","","","","","true","13","3","moral","2719","other","他的","","","","","","","","","","","","","","",""
"null","","null","html-keyboard-response","93","903423","0.0-6.0-1.0-6.0-0.17","3","3","3","3","3","3","3","3","3","4","4","4","3","4","3","3","4","4","3","4","4","3","3","2","3","2","3","4","2","1","0","1","1","0","1","1","1","1","1","-1","0","0","0","1","5","4","3","2","3","2","3","3","3","2","732226150302224385","李","","","","","","","","","","","","","","","","","","","","","","","","","","","","","","","","","","","","","","","",""
"1155","<p style=""color:white; font-size: 35px;"">高尚</p>","e","categorize-html","94","904580","0.0-6.0-1.0-6.0-1.17","3","3","3","3","3","3","3","3","3","4","4","4","3","4","3","3","4","4","3","4","4","3","3","2","3","2","3","4","2","1","0","1","1","0","1","1","1","1","1","-1","0","0","0","1","5","4","3","2","3","2","3","3","3","2","732226150302224385","李","","","","","","","","","","","","","","","","","","","true","13","3","moral","1155","positive","高尚","","","","","","","","","","","","","","",""
"null","","null","html-keyboard-response","95","904831","0.0-6.0-1.0-6.0-0.18","3","3","3","3","3","3","3","3","3","4","4","4","3","4","3","3","4","4","3","4","4","3","3","2","3","2","3","4","2","1","0","1","1","0","1","1","1","1","1","-1","0","0","0","1","5","4","3","2","3","2","3","3","3","2","732226150302224385","李","","","","","","","","","","","","","","","","","","","","","","","","","","","","","","","","","","","","","","","",""
"1062","<p style=""color:rgb(150, 250, 100); font-size: 35px;"">本人的</p>","i","categorize-html","96","905897","0.0-6.0-1.0-6.0-1.18","3","3","3","3","3","3","3","3","3","4","4","4","3","4","3","3","4","4","3","4","4","3","3","2","3","2","3","4","2","1","0","1","1","0","1","1","1","1","1","-1","0","0","0","1","5","4","3","2","3","2","3","3","3","2","732226150302224385","李","","","","","","","","","","","","","","","","","","","true","13","3","moral","1062","self","本人的","","","","","","","","","","","","","","",""
"null","","null","html-keyboard-response","97","906148","0.0-6.0-1.0-6.0-0.19","3","3","3","3","3","3","3","3","3","4","4","4","3","4","3","3","4","4","3","4","4","3","3","2","3","2","3","4","2","1","0","1","1","0","1","1","1","1","1","-1","0","0","0","1","5","4","3","2","3","2","3","3","3","2","732226150302224385","李","","","","","","","","","","","","","","","","","","","","","","","","","","","","","","","","","","","","","","","",""
"2802","<p style=""color:white; font-size: 35px;"">卑鄙</p>","i","categorize-html","98","908951","0.0-6.0-1.0-6.0-1.19","3","3","3","3","3","3","3","3","3","4","4","4","3","4","3","3","4","4","3","4","4","3","3","2","3","2","3","4","2","1","0","1","1","0","1","1","1","1","1","-1","0","0","0","1","5","4","3","2","3","2","3","3","3","2","732226150302224385","李","","","","","","","","","","","","","","","","","","","true","13","3","moral","2802","negative","卑鄙","","","","","","","","","","","","","","",""
"null","","null","html-keyboard-response","99","909202","0.0-6.0-1.0-6.0-0.20","3","3","3","3","3","3","3","3","3","4","4","4","3","4","3","3","4","4","3","4","4","3","3","2","3","2","3","4","2","1","0","1","1","0","1","1","1","1","1","-1","0","0","0","1","5","4","3","2","3","2","3","3","3","2","732226150302224385","李","","","","","","","","","","","","","","","","","","","","","","","","","","","","","","","","","","","","","","","",""
"1069","<p style=""color:rgb(150, 250, 100); font-size: 35px;"">他人</p>","e","categorize-html","100","910273","0.0-6.0-1.0-6.0-1.20","3","3","3","3","3","3","3","3","3","4","4","4","3","4","3","3","4","4","3","4","4","3","3","2","3","2","3","4","2","1","0","1","1","0","1","1","1","1","1","-1","0","0","0","1","5","4","3","2","3","2","3","3","3","2","732226150302224385","李","","","","","","","","","","","","","","","","","","","true","13","3","moral","1069","other","他人","","","","","","","","","","","","","","",""
"null","","null","html-keyboard-response","101","910525","0.0-6.0-1.0-6.0-0.21","3","3","3","3","3","3","3","3","3","4","4","4","3","4","3","3","4","4","3","4","4","3","3","2","3","2","3","4","2","1","0","1","1","0","1","1","1","1","1","-1","0","0","0","1","5","4","3","2","3","2","3","3","3","2","732226150302224385","李","","","","","","","","","","","","","","","","","","","","","","","","","","","","","","","","","","","","","","","",""
"1167","<p style=""color:white; font-size: 35px;"">廉正</p>","e","categorize-html","102","911693","0.0-6.0-1.0-6.0-1.21","3","3","3","3","3","3","3","3","3","4","4","4","3","4","3","3","4","4","3","4","4","3","3","2","3","2","3","4","2","1","0","1","1","0","1","1","1","1","1","-1","0","0","0","1","5","4","3","2","3","2","3","3","3","2","732226150302224385","李","","","","","","","","","","","","","","","","","","","true","13","3","moral","1167","positive","廉正","","","","","","","","","","","","","","",""
"null","","null","html-keyboard-response","103","911944","0.0-6.0-1.0-6.0-0.22","3","3","3","3","3","3","3","3","3","4","4","4","3","4","3","3","4","4","3","4","4","3","3","2","3","2","3","4","2","1","0","1","1","0","1","1","1","1","1","-1","0","0","0","1","5","4","3","2","3","2","3","3","3","2","732226150302224385","李","","","","","","","","","","","","","","","","","","","","","","","","","","","","","","","","","","","","","","","",""
"829","<p style=""color:rgb(150, 250, 100); font-size: 35px;"">自己</p>","i","categorize-html","104","912775","0.0-6.0-1.0-6.0-1.22","3","3","3","3","3","3","3","3","3","4","4","4","3","4","3","3","4","4","3","4","4","3","3","2","3","2","3","4","2","1","0","1","1","0","1","1","1","1","1","-1","0","0","0","1","5","4","3","2","3","2","3","3","3","2","732226150302224385","李","","","","","","","","","","","","","","","","","","","true","13","3","moral","829","self","自己","","","","","","","","","","","","","","",""
"null","","null","html-keyboard-response","105","913026","0.0-6.0-1.0-6.0-0.23","3","3","3","3","3","3","3","3","3","4","4","4","3","4","3","3","4","4","3","4","4","3","3","2","3","2","3","4","2","1","0","1","1","0","1","1","1","1","1","-1","0","0","0","1","5","4","3","2","3","2","3","3","3","2","732226150302224385","李","","","","","","","","","","","","","","","","","","","","","","","","","","","","","","","","","","","","","","","",""
"2839","<p style=""color:white; font-size: 35px;"">不孝</p>","i","categorize-html","106","915867","0.0-6.0-1.0-6.0-1.23","3","3","3","3","3","3","3","3","3","4","4","4","3","4","3","3","4","4","3","4","4","3","3","2","3","2","3","4","2","1","0","1","1","0","1","1","1","1","1","-1","0","0","0","1","5","4","3","2","3","2","3","3","3","2","732226150302224385","李","","","","","","","","","","","","","","","","","","","true","13","3","moral","2839","negative","不孝","","","","","","","","","","","","","","",""
"8417","
    <div class=""tag-bottom""><p>
    ―― 任务4：对“他人/积极”词和“自我/消极”词分类 ――<p/>
    <span style=""color:#78DCE8""><b>与刚才的任务完全相同，请再次对这四类词语分类</b></span><p/>
    <span style=""color:#FFD866""><b>请根据上方标签的提示，尽可能正确并且快速地做出按键反应</b></span><p/>
    当按键错误时屏幕中会出现<span style=""color:red""> X </span>，需要按另一个键纠正才能继续<br/><p/>
    请把双手食指分别放在键盘的“E”键和“I”键上<p/>
    按<空格键>开始
    </p></div>"," ","html-keyboard-response","107","924284","0.0-6.0-1.0-7.0","3","3","3","3","3","3","3","3","3","4","4","4","3","4","3","3","4","4","3","4","4","3","3","2","3","2","3","4","2","1","0","1","1","0","1","1","1","1","1","-1","0","0","0","1","5","4","3","2","3","2","3","3","3","2","732226150302224385","李","","","","","","","","","","","","","","","","","","","","","","","","","","","","","","","","","","","","","","","",""
"null","","null","html-keyboard-response","108","924536","0.0-6.0-1.0-8.0-0.0","3","3","3","3","3","3","3","3","3","4","4","4","3","4","3","3","4","4","3","4","4","3","3","2","3","2","3","4","2","1","0","1","1","0","1","1","1","1","1","-1","0","0","0","1","5","4","3","2","3","2","3","3","3","2","732226150302224385","李","","","","","","","","","","","","","","","","","","","","","","","","","","","","","","","","","","","","","","","",""
"955","<p style=""color:rgb(150, 250, 100); font-size: 35px;"">自己</p>","i","categorize-html","109","925492","0.0-6.0-1.0-8.0-1.0","3","3","3","3","3","3","3","3","3","4","4","4","3","4","3","3","4","4","3","4","4","3","3","2","3","2","3","4","2","1","0","1","1","0","1","1","1","1","1","-1","0","0","0","1","5","4","3","2","3","2","3","3","3","2","732226150302224385","李","","","","","","","","","","","","","","","","","","","true","14","4","moral","955","self","自己","","","","","","","","","","","","","","",""
"null","","null","html-keyboard-response","110","925744","0.0-6.0-1.0-8.0-0.1","3","3","3","3","3","3","3","3","3","4","4","4","3","4","3","3","4","4","3","4","4","3","3","2","3","2","3","4","2","1","0","1","1","0","1","1","1","1","1","-1","0","0","0","1","5","4","3","2","3","2","3","3","3","2","732226150302224385","李","","","","","","","","","","","","","","","","","","","","","","","","","","","","","","","","","","","","","","","",""
"991","<p style=""color:white; font-size: 35px;"">不仁</p>","i","categorize-html","111","926736","0.0-6.0-1.0-8.0-1.1","3","3","3","3","3","3","3","3","3","4","4","4","3","4","3","3","4","4","3","4","4","3","3","2","3","2","3","4","2","1","0","1","1","0","1","1","1","1","1","-1","0","0","0","1","5","4","3","2","3","2","3","3","3","2","732226150302224385","李","","","","","","","","","","","","","","","","","","","true","14","4","moral","991","negative","不仁","","","","","","","","","","","","","","",""
"null","","null","html-keyboard-response","112","926987","0.0-6.0-1.0-8.0-0.2","3","3","3","3","3","3","3","3","3","4","4","4","3","4","3","3","4","4","3","4","4","3","3","2","3","2","3","4","2","1","0","1","1","0","1","1","1","1","1","-1","0","0","0","1","5","4","3","2","3","2","3","3","3","2","732226150302224385","李","","","","","","","","","","","","","","","","","","","","","","","","","","","","","","","","","","","","","","","",""
"739","<p style=""color:rgb(150, 250, 100); font-size: 35px;"">别人</p>","e","categorize-html","113","927727","0.0-6.0-1.0-8.0-1.2","3","3","3","3","3","3","3","3","3","4","4","4","3","4","3","3","4","4","3","4","4","3","3","2","3","2","3","4","2","1","0","1","1","0","1","1","1","1","1","-1","0","0","0","1","5","4","3","2","3","2","3","3","3","2","732226150302224385","李","","","","","","","","","","","","","","","","","","","true","14","4","moral","739","other","别人","","","","","","","","","","","","","","",""
"null","","null","html-keyboard-response","114","927979","0.0-6.0-1.0-8.0-0.3","3","3","3","3","3","3","3","3","3","4","4","4","3","4","3","3","4","4","3","4","4","3","3","2","3","2","3","4","2","1","0","1","1","0","1","1","1","1","1","-1","0","0","0","1","5","4","3","2","3","2","3","3","3","2","732226150302224385","李","","","","","","","","","","","","","","","","","","","","","","","","","","","","","","","","","","","","","","","",""
"1139","<p style=""color:white; font-size: 35px;"">善良</p>","e","categorize-html","115","929120","0.0-6.0-1.0-8.0-1.3","3","3","3","3","3","3","3","3","3","4","4","4","3","4","3","3","4","4","3","4","4","3","3","2","3","2","3","4","2","1","0","1","1","0","1","1","1","1","1","-1","0","0","0","1","5","4","3","2","3","2","3","3","3","2","732226150302224385","李","","","","","","","","","","","","","","","","","","","true","14","4","moral","1139","positive","善良","","","","","","","","","","","","","","",""
"null","","null","html-keyboard-response","116","929372","0.0-6.0-1.0-8.0-0.4","3","3","3","3","3","3","3","3","3","4","4","4","3","4","3","3","4","4","3","4","4","3","3","2","3","2","3","4","2","1","0","1","1","0","1","1","1","1","1","-1","0","0","0","1","5","4","3","2","3","2","3","3","3","2","732226150302224385","李","","","","","","","","","","","","","","","","","","","","","","","","","","","","","","","","","","","","","","","",""
"1908","<p style=""color:rgb(150, 250, 100); font-size: 35px;"">本人的</p>","i","categorize-html","117","931282","0.0-6.0-1.0-8.0-1.4","3","3","3","3","3","3","3","3","3","4","4","4","3","4","3","3","4","4","3","4","4","3","3","2","3","2","3","4","2","1","0","1","1","0","1","1","1","1","1","-1","0","0","0","1","5","4","3","2","3","2","3","3","3","2","732226150302224385","李","","","","","","","","","","","","","","","","","","","true","14","4","moral","1908","self","本人的","","","","","","","","","","","","","","",""
"null","","null","html-keyboard-response","118","931533","0.0-6.0-1.0-8.0-0.5","3","3","3","3","3","3","3","3","3","4","4","4","3","4","3","3","4","4","3","4","4","3","3","2","3","2","3","4","2","1","0","1","1","0","1","1","1","1","1","-1","0","0","0","1","5","4","3","2","3","2","3","3","3","2","732226150302224385","李","","","","","","","","","","","","","","","","","","","","","","","","","","","","","","","","","","","","","","","",""
"2587","<p style=""color:white; font-size: 35px;"">诚信</p>","e","categorize-html","119","934123","0.0-6.0-1.0-8.0-1.5","3","3","3","3","3","3","3","3","3","4","4","4","3","4","3","3","4","4","3","4","4","3","3","2","3","2","3","4","2","1","0","1","1","0","1","1","1","1","1","-1","0","0","0","1","5","4","3","2","3","2","3","3","3","2","732226150302224385","李","","","","","","","","","","","","","","","","","","","true","14","4","moral","2587","positive","诚信","","","","","","","","","","","","","","",""
"null","","null","html-keyboard-response","120","934373","0.0-6.0-1.0-8.0-0.6","3","3","3","3","3","3","3","3","3","4","4","4","3","4","3","3","4","4","3","4","4","3","3","2","3","2","3","4","2","1","0","1","1","0","1","1","1","1","1","-1","0","0","0","1","5","4","3","2","3","2","3","3","3","2","732226150302224385","李","","","","","","","","","","","","","","","","","","","","","","","","","","","","","","","","","","","","","","","",""
"3101","<p style=""color:rgb(150, 250, 100); font-size: 35px;"">他</p>","e","categorize-html","121","937476","0.0-6.0-1.0-8.0-1.6","3","3","3","3","3","3","3","3","3","4","4","4","3","4","3","3","4","4","3","4","4","3","3","2","3","2","3","4","2","1","0","1","1","0","1","1","1","1","1","-1","0","0","0","1","5","4","3","2","3","2","3","3","3","2","732226150302224385","李","","","","","","","","","","","","","","","","","","","true","14","4","moral","3101","other","他","","","","","","","","","","","","","","",""
"null","","null","html-keyboard-response","122","937727","0.0-6.0-1.0-8.0-0.7","3","3","3","3","3","3","3","3","3","4","4","4","3","4","3","3","4","4","3","4","4","3","3","2","3","2","3","4","2","1","0","1","1","0","1","1","1","1","1","-1","0","0","0","1","5","4","3","2","3","2","3","3","3","2","732226150302224385","李","","","","","","","","","","","","","","","","","","","","","","","","","","","","","","","","","","","","","","","",""
"1738","<p style=""color:white; font-size: 35px;"">不孝</p>","i","categorize-html","123","939467","0.0-6.0-1.0-8.0-1.7","3","3","3","3","3","3","3","3","3","4","4","4","3","4","3","3","4","4","3","4","4","3","3","2","3","2","3","4","2","1","0","1","1","0","1","1","1","1","1","-1","0","0","0","1","5","4","3","2","3","2","3","3","3","2","732226150302224385","李","","","","","","","","","","","","","","","","","","","true","14","4","moral","1738","negative","不孝","","","","","","","","","","","","","","",""
"null","","null","html-keyboard-response","124","939718","0.0-6.0-1.0-8.0-0.8","3","3","3","3","3","3","3","3","3","4","4","4","3","4","3","3","4","4","3","4","4","3","3","2","3","2","3","4","2","1","0","1","1","0","1","1","1","1","1","-1","0","0","0","1","5","4","3","2","3","2","3","3","3","2","732226150302224385","李","","","","","","","","","","","","","","","","","","","","","","","","","","","","","","","","","","","","","","","",""
"677","<p style=""color:rgb(150, 250, 100); font-size: 35px;"">我的</p>","i","categorize-html","125","940397","0.0-6.0-1.0-8.0-1.8","3","3","3","3","3","3","3","3","3","4","4","4","3","4","3","3","4","4","3","4","4","3","3","2","3","2","3","4","2","1","0","1","1","0","1","1","1","1","1","-1","0","0","0","1","5","4","3","2","3","2","3","3","3","2","732226150302224385","李","","","","","","","","","","","","","","","","","","","true","14","4","moral","677","self","我的","","","","","","","","","","","","","","",""
"null","","null","html-keyboard-response","126","940648","0.0-6.0-1.0-8.0-0.9","3","3","3","3","3","3","3","3","3","4","4","4","3","4","3","3","4","4","3","4","4","3","3","2","3","2","3","4","2","1","0","1","1","0","1","1","1","1","1","-1","0","0","0","1","5","4","3","2","3","2","3","3","3","2","732226150302224385","李","","","","","","","","","","","","","","","","","","","","","","","","","","","","","","","","","","","","","","","",""
"2495","<p style=""color:white; font-size: 35px;"">黑心</p>","i","categorize-html","127","943144","0.0-6.0-1.0-8.0-1.9","3","3","3","3","3","3","3","3","3","4","4","4","3","4","3","3","4","4","3","4","4","3","3","2","3","2","3","4","2","1","0","1","1","0","1","1","1","1","1","-1","0","0","0","1","5","4","3","2","3","2","3","3","3","2","732226150302224385","李","","","","","","","","","","","","","","","","","","","true","14","4","moral","2495","negative","黑心","","","","","","","","","","","","","","",""
"null","","null","html-keyboard-response","128","943395","0.0-6.0-1.0-8.0-0.10","3","3","3","3","3","3","3","3","3","4","4","4","3","4","3","3","4","4","3","4","4","3","3","2","3","2","3","4","2","1","0","1","1","0","1","1","1","1","1","-1","0","0","0","1","5","4","3","2","3","2","3","3","3","2","732226150302224385","李","","","","","","","","","","","","","","","","","","","","","","","","","","","","","","","","","","","","","","","",""
"2357","<p style=""color:rgb(150, 250, 100); font-size: 35px;"">别人的</p>","e","categorize-html","129","945754","0.0-6.0-1.0-8.0-1.10","3","3","3","3","3","3","3","3","3","4","4","4","3","4","3","3","4","4","3","4","4","3","3","2","3","2","3","4","2","1","0","1","1","0","1","1","1","1","1","-1","0","0","0","1","5","4","3","2","3","2","3","3","3","2","732226150302224385","李","","","","","","","","","","","","","","","","","","","true","14","4","moral","2357","other","别人的","","","","","","","","","","","","","","",""
"null","","null","html-keyboard-response","130","946005","0.0-6.0-1.0-8.0-0.11","3","3","3","3","3","3","3","3","3","4","4","4","3","4","3","3","4","4","3","4","4","3","3","2","3","2","3","4","2","1","0","1","1","0","1","1","1","1","1","-1","0","0","0","1","5","4","3","2","3","2","3","3","3","2","732226150302224385","李","","","","","","","","","","","","","","","","","","","","","","","","","","","","","","","","","","","","","","","",""
"4186","<p style=""color:white; font-size: 35px;"">君子</p>","e","categorize-html","131","950193","0.0-6.0-1.0-8.0-1.11","3","3","3","3","3","3","3","3","3","4","4","4","3","4","3","3","4","4","3","4","4","3","3","2","3","2","3","4","2","1","0","1","1","0","1","1","1","1","1","-1","0","0","0","1","5","4","3","2","3","2","3","3","3","2","732226150302224385","李","","","","","","","","","","","","","","","","","","","true","14","4","moral","4186","positive","君子","","","","","","","","","","","","","","",""
"null","","null","html-keyboard-response","132","950445","0.0-6.0-1.0-8.0-0.12","3","3","3","3","3","3","3","3","3","4","4","4","3","4","3","3","4","4","3","4","4","3","3","2","3","2","3","4","2","1","0","1","1","0","1","1","1","1","1","-1","0","0","0","1","5","4","3","2","3","2","3","3","3","2","732226150302224385","李","","","","","","","","","","","","","","","","","","","","","","","","","","","","","","","","","","","","","","","",""
"642","<p style=""color:rgb(150, 250, 100); font-size: 35px;"">我的</p>","i","categorize-html","133","951088","0.0-6.0-1.0-8.0-1.12","3","3","3","3","3","3","3","3","3","4","4","4","3","4","3","3","4","4","3","4","4","3","3","2","3","2","3","4","2","1","0","1","1","0","1","1","1","1","1","-1","0","0","0","1","5","4","3","2","3","2","3","3","3","2","732226150302224385","李","","","","","","","","","","","","","","","","","","","true","14","4","moral","642","self","我的","","","","","","","","","","","","","","",""
"null","","null","html-keyboard-response","134","951340","0.0-6.0-1.0-8.0-0.13","3","3","3","3","3","3","3","3","3","4","4","4","3","4","3","3","4","4","3","4","4","3","3","2","3","2","3","4","2","1","0","1","1","0","1","1","1","1","1","-1","0","0","0","1","5","4","3","2","3","2","3","3","3","2","732226150302224385","李","","","","","","","","","","","","","","","","","","","","","","","","","","","","","","","","","","","","","","","",""
"817","<p style=""color:white; font-size: 35px;"">卑鄙</p>","i","categorize-html","135","952159","0.0-6.0-1.0-8.0-1.13","3","3","3","3","3","3","3","3","3","4","4","4","3","4","3","3","4","4","3","4","4","3","3","2","3","2","3","4","2","1","0","1","1","0","1","1","1","1","1","-1","0","0","0","1","5","4","3","2","3","2","3","3","3","2","732226150302224385","李","","","","","","","","","","","","","","","","","","","true","14","4","moral","817","negative","卑鄙","","","","","","","","","","","","","","",""
"null","","null","html-keyboard-response","136","952410","0.0-6.0-1.0-8.0-0.14","3","3","3","3","3","3","3","3","3","4","4","4","3","4","3","3","4","4","3","4","4","3","3","2","3","2","3","4","2","1","0","1","1","0","1","1","1","1","1","-1","0","0","0","1","5","4","3","2","3","2","3","3","3","2","732226150302224385","李","","","","","","","","","","","","","","","","","","","","","","","","","","","","","","","","","","","","","","","",""
"732","<p style=""color:rgb(150, 250, 100); font-size: 35px;"">他</p>","e","categorize-html","137","953144","0.0-6.0-1.0-8.0-1.14","3","3","3","3","3","3","3","3","3","4","4","4","3","4","3","3","4","4","3","4","4","3","3","2","3","2","3","4","2","1","0","1","1","0","1","1","1","1","1","-1","0","0","0","1","5","4","3","2","3","2","3","3","3","2","732226150302224385","李","","","","","","","","","","","","","","","","","","","true","14","4","moral","732","other","他","","","","","","","","","","","","","","",""
"null","","null","html-keyboard-response","138","953395","0.0-6.0-1.0-8.0-0.15","3","3","3","3","3","3","3","3","3","4","4","4","3","4","3","3","4","4","3","4","4","3","3","2","3","2","3","4","2","1","0","1","1","0","1","1","1","1","1","-1","0","0","0","1","5","4","3","2","3","2","3","3","3","2","732226150302224385","李","","","","","","","","","","","","","","","","","","","","","","","","","","","","","","","","","","","","","","","",""
"995","<p style=""color:white; font-size: 35px;"">正直</p>","e","categorize-html","139","954393","0.0-6.0-1.0-8.0-1.15","3","3","3","3","3","3","3","3","3","4","4","4","3","4","3","3","4","4","3","4","4","3","3","2","3","2","3","4","2","1","0","1","1","0","1","1","1","1","1","-1","0","0","0","1","5","4","3","2","3","2","3","3","3","2","732226150302224385","李","","","","","","","","","","","","","","","","","","","true","14","4","moral","995","positive","正直","","","","","","","","","","","","","","",""
"null","","null","html-keyboard-response","140","954644","0.0-6.0-1.0-8.0-0.16","3","3","3","3","3","3","3","3","3","4","4","4","3","4","3","3","4","4","3","4","4","3","3","2","3","2","3","4","2","1","0","1","1","0","1","1","1","1","1","-1","0","0","0","1","5","4","3","2","3","2","3","3","3","2","732226150302224385","李","","","","","","","","","","","","","","","","","","","","","","","","","","","","","","","","","","","","","","","",""
"488","<p style=""color:rgb(150, 250, 100); font-size: 35px;"">自己的</p>","i","categorize-html","141","955133","0.0-6.0-1.0-8.0-1.16","3","3","3","3","3","3","3","3","3","4","4","4","3","4","3","3","4","4","3","4","4","3","3","2","3","2","3","4","2","1","0","1","1","0","1","1","1","1","1","-1","0","0","0","1","5","4","3","2","3","2","3","3","3","2","732226150302224385","李","","","","","","","","","","","","","","","","","","","true","14","4","moral","488","self","自己的","","","","","","","","","","","","","","",""
"null","","null","html-keyboard-response","142","955384","0.0-6.0-1.0-8.0-0.17","3","3","3","3","3","3","3","3","3","4","4","4","3","4","3","3","4","4","3","4","4","3","3","2","3","2","3","4","2","1","0","1","1","0","1","1","1","1","1","-1","0","0","0","1","5","4","3","2","3","2","3","3","3","2","732226150302224385","李","","","","","","","","","","","","","","","","","","","","","","","","","","","","","","","","","","","","","","","",""
"507","<p style=""color:white; font-size: 35px;"">正直</p>","e","categorize-html","143","955895","0.0-6.0-1.0-8.0-1.17","3","3","3","3","3","3","3","3","3","4","4","4","3","4","3","3","4","4","3","4","4","3","3","2","3","2","3","4","2","1","0","1","1","0","1","1","1","1","1","-1","0","0","0","1","5","4","3","2","3","2","3","3","3","2","732226150302224385","李","","","","","","","","","","","","","","","","","","","true","14","4","moral","507","positive","正直","","","","","","","","","","","","","","",""
"null","","null","html-keyboard-response","144","956146","0.0-6.0-1.0-8.0-0.18","3","3","3","3","3","3","3","3","3","4","4","4","3","4","3","3","4","4","3","4","4","3","3","2","3","2","3","4","2","1","0","1","1","0","1","1","1","1","1","-1","0","0","0","1","5","4","3","2","3","2","3","3","3","2","732226150302224385","李","","","","","","","","","","","","","","","","","","","","","","","","","","","","","","","","","","","","","","","",""
"418","<p style=""color:rgb(150, 250, 100); font-size: 35px;"">他人的</p>","i","categorize-html","145","957031","0.0-6.0-1.0-8.0-1.18","3","3","3","3","3","3","3","3","3","4","4","4","3","4","3","3","4","4","3","4","4","3","3","2","3","2","3","4","2","1","0","1","1","0","1","1","1","1","1","-1","0","0","0","1","5","4","3","2","3","2","3","3","3","2","732226150302224385","李","","","","","","","","","","","","","","","","","","","false","14","4","moral","1820.6739130434783","other","他人的","","","","","","","","","","","","","","",""
"null","","null","html-keyboard-response","146","957284","0.0-6.0-1.0-8.0-0.19","3","3","3","3","3","3","3","3","3","4","4","4","3","4","3","3","4","4","3","4","4","3","3","2","3","2","3","4","2","1","0","1","1","0","1","1","1","1","1","-1","0","0","0","1","5","4","3","2","3","2","3","3","3","2","732226150302224385","李","","","","","","","","","","","","","","","","","","","","","","","","","","","","","","","","","","","","","","","",""
"2975","<p style=""color:white; font-size: 35px;"">小人</p>","i","categorize-html","147","960259","0.0-6.0-1.0-8.0-1.19","3","3","3","3","3","3","3","3","3","4","4","4","3","4","3","3","4","4","3","4","4","3","3","2","3","2","3","4","2","1","0","1","1","0","1","1","1","1","1","-1","0","0","0","1","5","4","3","2","3","2","3","3","3","2","732226150302224385","李","","","","","","","","","","","","","","","","","","","true","14","4","moral","2975","negative","小人","","","","","","","","","","","","","","",""
"null","","null","html-keyboard-response","148","960511","0.0-6.0-1.0-8.0-0.20","3","3","3","3","3","3","3","3","3","4","4","4","3","4","3","3","4","4","3","4","4","3","3","2","3","2","3","4","2","1","0","1","1","0","1","1","1","1","1","-1","0","0","0","1","5","4","3","2","3","2","3","3","3","2","732226150302224385","李","","","","","","","","","","","","","","","","","","","","","","","","","","","","","","","","","","","","","","","",""
"575","<p style=""color:rgb(150, 250, 100); font-size: 35px;"">我</p>","i","categorize-html","149","961087","0.0-6.0-1.0-8.0-1.20","3","3","3","3","3","3","3","3","3","4","4","4","3","4","3","3","4","4","3","4","4","3","3","2","3","2","3","4","2","1","0","1","1","0","1","1","1","1","1","-1","0","0","0","1","5","4","3","2","3","2","3","3","3","2","732226150302224385","李","","","","","","","","","","","","","","","","","","","true","14","4","moral","575","self","我","","","","","","","","","","","","","","",""
"null","","null","html-keyboard-response","150","961338","0.0-6.0-1.0-8.0-0.21","3","3","3","3","3","3","3","3","3","4","4","4","3","4","3","3","4","4","3","4","4","3","3","2","3","2","3","4","2","1","0","1","1","0","1","1","1","1","1","-1","0","0","0","1","5","4","3","2","3","2","3","3","3","2","732226150302224385","李","","","","","","","","","","","","","","","","","","","","","","","","","","","","","","","","","","","","","","","",""
"638","<p style=""color:white; font-size: 35px;"">卑鄙</p>","i","categorize-html","151","961977","0.0-6.0-1.0-8.0-1.21","3","3","3","3","3","3","3","3","3","4","4","4","3","4","3","3","4","4","3","4","4","3","3","2","3","2","3","4","2","1","0","1","1","0","1","1","1","1","1","-1","0","0","0","1","5","4","3","2","3","2","3","3","3","2","732226150302224385","李","","","","","","","","","","","","","","","","","","","true","14","4","moral","638","negative","卑鄙","","","","","","","","","","","","","","",""
"null","","null","html-keyboard-response","152","962228","0.0-6.0-1.0-8.0-0.22","3","3","3","3","3","3","3","3","3","4","4","4","3","4","3","3","4","4","3","4","4","3","3","2","3","2","3","4","2","1","0","1","1","0","1","1","1","1","1","-1","0","0","0","1","5","4","3","2","3","2","3","3","3","2","732226150302224385","李","","","","","","","","","","","","","","","","","","","","","","","","","","","","","","","","","","","","","","","",""
"580","<p style=""color:rgb(150, 250, 100); font-size: 35px;"">他的</p>","e","categorize-html","153","962809","0.0-6.0-1.0-8.0-1.22","3","3","3","3","3","3","3","3","3","4","4","4","3","4","3","3","4","4","3","4","4","3","3","2","3","2","3","4","2","1","0","1","1","0","1","1","1","1","1","-1","0","0","0","1","5","4","3","2","3","2","3","3","3","2","732226150302224385","李","","","","","","","","","","","","","","","","","","","true","14","4","moral","580","other","他的","","","","","","","","","","","","","","",""
"null","","null","html-keyboard-response","154","963061","0.0-6.0-1.0-8.0-0.23","3","3","3","3","3","3","3","3","3","4","4","4","3","4","3","3","4","4","3","4","4","3","3","2","3","2","3","4","2","1","0","1","1","0","1","1","1","1","1","-1","0","0","0","1","5","4","3","2","3","2","3","3","3","2","732226150302224385","李","","","","","","","","","","","","","","","","","","","","","","","","","","","","","","","","","","","","","","","",""
"510","<p style=""color:white; font-size: 35px;"">君子</p>","e","categorize-html","155","963573","0.0-6.0-1.0-8.0-1.23","3","3","3","3","3","3","3","3","3","4","4","4","3","4","3","3","4","4","3","4","4","3","3","2","3","2","3","4","2","1","0","1","1","0","1","1","1","1","1","-1","0","0","0","1","5","4","3","2","3","2","3","3","3","2","732226150302224385","李","","","","","","","","","","","","","","","","","","","true","14","4","moral","510","positive","君子","","","","","","","","","","","","","","",""
"null","","null","html-keyboard-response","156","963824","0.0-6.0-1.0-8.0-0.24","3","3","3","3","3","3","3","3","3","4","4","4","3","4","3","3","4","4","3","4","4","3","3","2","3","2","3","4","2","1","0","1","1","0","1","1","1","1","1","-1","0","0","0","1","5","4","3","2","3","2","3","3","3","2","732226150302224385","李","","","","","","","","","","","","","","","","","","","","","","","","","","","","","","","","","","","","","","","",""
"528","<p style=""color:rgb(150, 250, 100); font-size: 35px;"">自己的</p>","i","categorize-html","157","964354","0.0-6.0-1.0-8.0-1.24","3","3","3","3","3","3","3","3","3","4","4","4","3","4","3","3","4","4","3","4","4","3","3","2","3","2","3","4","2","1","0","1","1","0","1","1","1","1","1","-1","0","0","0","1","5","4","3","2","3","2","3","3","3","2","732226150302224385","李","","","","","","","","","","","","","","","","","","","true","14","4","moral","528","self","自己的","","","","","","","","","","","","","","",""
"null","","null","html-keyboard-response","158","964606","0.0-6.0-1.0-8.0-0.25","3","3","3","3","3","3","3","3","3","4","4","4","3","4","3","3","4","4","3","4","4","3","3","2","3","2","3","4","2","1","0","1","1","0","1","1","1","1","1","-1","0","0","0","1","5","4","3","2","3","2","3","3","3","2","732226150302224385","李","","","","","","","","","","","","","","","","","","","","","","","","","","","","","","","","","","","","","","","",""
"646","<p style=""color:white; font-size: 35px;"">高尚</p>","e","categorize-html","159","965253","0.0-6.0-1.0-8.0-1.25","3","3","3","3","3","3","3","3","3","4","4","4","3","4","3","3","4","4","3","4","4","3","3","2","3","2","3","4","2","1","0","1","1","0","1","1","1","1","1","-1","0","0","0","1","5","4","3","2","3","2","3","3","3","2","732226150302224385","李","","","","","","","","","","","","","","","","","","","true","14","4","moral","646","positive","高尚","","","","","","","","","","","","","","",""
"null","","null","html-keyboard-response","160","965504","0.0-6.0-1.0-8.0-0.26","3","3","3","3","3","3","3","3","3","4","4","4","3","4","3","3","4","4","3","4","4","3","3","2","3","2","3","4","2","1","0","1","1","0","1","1","1","1","1","-1","0","0","0","1","5","4","3","2","3","2","3","3","3","2","732226150302224385","李","","","","","","","","","","","","","","","","","","","","","","","","","","","","","","","","","","","","","","","",""
"1542","<p style=""color:rgb(150, 250, 100); font-size: 35px;"">别人</p>","e","categorize-html","161","967049","0.0-6.0-1.0-8.0-1.26","3","3","3","3","3","3","3","3","3","4","4","4","3","4","3","3","4","4","3","4","4","3","3","2","3","2","3","4","2","1","0","1","1","0","1","1","1","1","1","-1","0","0","0","1","5","4","3","2","3","2","3","3","3","2","732226150302224385","李","","","","","","","","","","","","","","","","","","","true","14","4","moral","1542","other","别人","","","","","","","","","","","","","","",""
"null","","null","html-keyboard-response","162","967299","0.0-6.0-1.0-8.0-0.27","3","3","3","3","3","3","3","3","3","4","4","4","3","4","3","3","4","4","3","4","4","3","3","2","3","2","3","4","2","1","0","1","1","0","1","1","1","1","1","-1","0","0","0","1","5","4","3","2","3","2","3","3","3","2","732226150302224385","李","","","","","","","","","","","","","","","","","","","","","","","","","","","","","","","","","","","","","","","",""
"1043","<p style=""color:white; font-size: 35px;"">缺德</p>","i","categorize-html","163","968345","0.0-6.0-1.0-8.0-1.27","3","3","3","3","3","3","3","3","3","4","4","4","3","4","3","3","4","4","3","4","4","3","3","2","3","2","3","4","2","1","0","1","1","0","1","1","1","1","1","-1","0","0","0","1","5","4","3","2","3","2","3","3","3","2","732226150302224385","李","","","","","","","","","","","","","","","","","","","true","14","4","moral","1043","negative","缺德","","","","","","","","","","","","","","",""
"null","","null","html-keyboard-response","164","968596","0.0-6.0-1.0-8.0-0.28","3","3","3","3","3","3","3","3","3","4","4","4","3","4","3","3","4","4","3","4","4","3","3","2","3","2","3","4","2","1","0","1","1","0","1","1","1","1","1","-1","0","0","0","1","5","4","3","2","3","2","3","3","3","2","732226150302224385","李","","","","","","","","","","","","","","","","","","","","","","","","","","","","","","","","","","","","","","","",""
"637","<p style=""color:rgb(150, 250, 100); font-size: 35px;"">他人</p>","e","categorize-html","165","969235","0.0-6.0-1.0-8.0-1.28","3","3","3","3","3","3","3","3","3","4","4","4","3","4","3","3","4","4","3","4","4","3","3","2","3","2","3","4","2","1","0","1","1","0","1","1","1","1","1","-1","0","0","0","1","5","4","3","2","3","2","3","3","3","2","732226150302224385","李","","","","","","","","","","","","","","","","","","","true","14","4","moral","637","other","他人","","","","","","","","","","","","","","",""
"null","","null","html-keyboard-response","166","969487","0.0-6.0-1.0-8.0-0.29","3","3","3","3","3","3","3","3","3","4","4","4","3","4","3","3","4","4","3","4","4","3","3","2","3","2","3","4","2","1","0","1","1","0","1","1","1","1","1","-1","0","0","0","1","5","4","3","2","3","2","3","3","3","2","732226150302224385","李","","","","","","","","","","","","","","","","","","","","","","","","","","","","","","","","","","","","","","","",""
"506","<p style=""color:white; font-size: 35px;"">缺德</p>","i","categorize-html","167","969994","0.0-6.0-1.0-8.0-1.29","3","3","3","3","3","3","3","3","3","4","4","4","3","4","3","3","4","4","3","4","4","3","3","2","3","2","3","4","2","1","0","1","1","0","1","1","1","1","1","-1","0","0","0","1","5","4","3","2","3","2","3","3","3","2","732226150302224385","李","","","","","","","","","","","","","","","","","","","true","14","4","moral","506","negative","缺德","","","","","","","","","","","","","","",""
"null","","null","html-keyboard-response","168","970245","0.0-6.0-1.0-8.0-0.30","3","3","3","3","3","3","3","3","3","4","4","4","3","4","3","3","4","4","3","4","4","3","3","2","3","2","3","4","2","1","0","1","1","0","1","1","1","1","1","-1","0","0","0","1","5","4","3","2","3","2","3","3","3","2","732226150302224385","李","","","","","","","","","","","","","","","","","","","","","","","","","","","","","","","","","","","","","","","",""
"590","<p style=""color:rgb(150, 250, 100); font-size: 35px;"">本人</p>","i","categorize-html","169","970836","0.0-6.0-1.0-8.0-1.30","3","3","3","3","3","3","3","3","3","4","4","4","3","4","3","3","4","4","3","4","4","3","3","2","3","2","3","4","2","1","0","1","1","0","1","1","1","1","1","-1","0","0","0","1","5","4","3","2","3","2","3","3","3","2","732226150302224385","李","","","","","","","","","","","","","","","","","","","true","14","4","moral","590","self","本人","","","","","","","","","","","","","","",""
"null","","null","html-keyboard-response","170","971087","0.0-6.0-1.0-8.0-0.31","3","3","3","3","3","3","3","3","3","4","4","4","3","4","3","3","4","4","3","4","4","3","3","2","3","2","3","4","2","1","0","1","1","0","1","1","1","1","1","-1","0","0","0","1","5","4","3","2","3","2","3","3","3","2","732226150302224385","李","","","","","","","","","","","","","","","","","","","","","","","","","","","","","","","","","","","","","","","",""
"547","<p style=""color:white; font-size: 35px;"">廉正</p>","e","categorize-html","171","971636","0.0-6.0-1.0-8.0-1.31","3","3","3","3","3","3","3","3","3","4","4","4","3","4","3","3","4","4","3","4","4","3","3","2","3","2","3","4","2","1","0","1","1","0","1","1","1","1","1","-1","0","0","0","1","5","4","3","2","3","2","3","3","3","2","732226150302224385","李","","","","","","","","","","","","","","","","","","","true","14","4","moral","547","positive","廉正","","","","","","","","","","","","","","",""
"null","","null","html-keyboard-response","172","971888","0.0-6.0-1.0-8.0-0.32","3","3","3","3","3","3","3","3","3","4","4","4","3","4","3","3","4","4","3","4","4","3","3","2","3","2","3","4","2","1","0","1","1","0","1","1","1","1","1","-1","0","0","0","1","5","4","3","2","3","2","3","3","3","2","732226150302224385","李","","","","","","","","","","","","","","","","","","","","","","","","","","","","","","","","","","","","","","","",""
"850","<p style=""color:rgb(150, 250, 100); font-size: 35px;"">他的</p>","e","categorize-html","173","972739","0.0-6.0-1.0-8.0-1.32","3","3","3","3","3","3","3","3","3","4","4","4","3","4","3","3","4","4","3","4","4","3","3","2","3","2","3","4","2","1","0","1","1","0","1","1","1","1","1","-1","0","0","0","1","5","4","3","2","3","2","3","3","3","2","732226150302224385","李","","","","","","","","","","","","","","","","","","","true","14","4","moral","850","other","他的","","","","","","","","","","","","","","",""
"null","","null","html-keyboard-response","174","972990","0.0-6.0-1.0-8.0-0.33","3","3","3","3","3","3","3","3","3","4","4","4","3","4","3","3","4","4","3","4","4","3","3","2","3","2","3","4","2","1","0","1","1","0","1","1","1","1","1","-1","0","0","0","1","5","4","3","2","3","2","3","3","3","2","732226150302224385","李","","","","","","","","","","","","","","","","","","","","","","","","","","","","","","","","","","","","","","","",""
"501","<p style=""color:white; font-size: 35px;"">黑心</p>","i","categorize-html","175","973492","0.0-6.0-1.0-8.0-1.33","3","3","3","3","3","3","3","3","3","4","4","4","3","4","3","3","4","4","3","4","4","3","3","2","3","2","3","4","2","1","0","1","1","0","1","1","1","1","1","-1","0","0","0","1","5","4","3","2","3","2","3","3","3","2","732226150302224385","李","","","","","","","","","","","","","","","","","","","true","14","4","moral","501","negative","黑心","","","","","","","","","","","","","","",""
"null","","null","html-keyboard-response","176","973742","0.0-6.0-1.0-8.0-0.34","3","3","3","3","3","3","3","3","3","4","4","4","3","4","3","3","4","4","3","4","4","3","3","2","3","2","3","4","2","1","0","1","1","0","1","1","1","1","1","-1","0","0","0","1","5","4","3","2","3","2","3","3","3","2","732226150302224385","李","","","","","","","","","","","","","","","","","","","","","","","","","","","","","","","","","","","","","","","",""
"740","<p style=""color:rgb(150, 250, 100); font-size: 35px;"">本人的</p>","i","categorize-html","177","974483","0.0-6.0-1.0-8.0-1.34","3","3","3","3","3","3","3","3","3","4","4","4","3","4","3","3","4","4","3","4","4","3","3","2","3","2","3","4","2","1","0","1","1","0","1","1","1","1","1","-1","0","0","0","1","5","4","3","2","3","2","3","3","3","2","732226150302224385","李","","","","","","","","","","","","","","","","","","","true","14","4","moral","740","self","本人的","","","","","","","","","","","","","","",""
"null","","null","html-keyboard-response","178","974735","0.0-6.0-1.0-8.0-0.35","3","3","3","3","3","3","3","3","3","4","4","4","3","4","3","3","4","4","3","4","4","3","3","2","3","2","3","4","2","1","0","1","1","0","1","1","1","1","1","-1","0","0","0","1","5","4","3","2","3","2","3","3","3","2","732226150302224385","李","","","","","","","","","","","","","","","","","","","","","","","","","","","","","","","","","","","","","","","",""
"1264","<p style=""color:white; font-size: 35px;"">廉正</p>","e","categorize-html","179","976000","0.0-6.0-1.0-8.0-1.35","3","3","3","3","3","3","3","3","3","4","4","4","3","4","3","3","4","4","3","4","4","3","3","2","3","2","3","4","2","1","0","1","1","0","1","1","1","1","1","-1","0","0","0","1","5","4","3","2","3","2","3","3","3","2","732226150302224385","李","","","","","","","","","","","","","","","","","","","true","14","4","moral","1264","positive","廉正","","","","","","","","","","","","","","",""
"null","","null","html-keyboard-response","180","976251","0.0-6.0-1.0-8.0-0.36","3","3","3","3","3","3","3","3","3","4","4","4","3","4","3","3","4","4","3","4","4","3","3","2","3","2","3","4","2","1","0","1","1","0","1","1","1","1","1","-1","0","0","0","1","5","4","3","2","3","2","3","3","3","2","732226150302224385","李","","","","","","","","","","","","","","","","","","","","","","","","","","","","","","","","","","","","","","","",""
"663","<p style=""color:rgb(150, 250, 100); font-size: 35px;"">他人的</p>","e","categorize-html","181","976916","0.0-6.0-1.0-8.0-1.36","3","3","3","3","3","3","3","3","3","4","4","4","3","4","3","3","4","4","3","4","4","3","3","2","3","2","3","4","2","1","0","1","1","0","1","1","1","1","1","-1","0","0","0","1","5","4","3","2","3","2","3","3","3","2","732226150302224385","李","","","","","","","","","","","","","","","","","","","true","14","4","moral","663","other","他人的","","","","","","","","","","","","","","",""
"null","","null","html-keyboard-response","182","977166","0.0-6.0-1.0-8.0-0.37","3","3","3","3","3","3","3","3","3","4","4","4","3","4","3","3","4","4","3","4","4","3","3","2","3","2","3","4","2","1","0","1","1","0","1","1","1","1","1","-1","0","0","0","1","5","4","3","2","3","2","3","3","3","2","732226150302224385","李","","","","","","","","","","","","","","","","","","","","","","","","","","","","","","","","","","","","","","","",""
"4406","<p style=""color:white; font-size: 35px;"">小人</p>","i","categorize-html","183","981575","0.0-6.0-1.0-8.0-1.37","3","3","3","3","3","3","3","3","3","4","4","4","3","4","3","3","4","4","3","4","4","3","3","2","3","2","3","4","2","1","0","1","1","0","1","1","1","1","1","-1","0","0","0","1","5","4","3","2","3","2","3","3","3","2","732226150302224385","李","","","","","","","","","","","","","","","","","","","true","14","4","moral","4406","negative","小人","","","","","","","","","","","","","","",""
"null","","null","html-keyboard-response","184","981826","0.0-6.0-1.0-8.0-0.38","3","3","3","3","3","3","3","3","3","4","4","4","3","4","3","3","4","4","3","4","4","3","3","2","3","2","3","4","2","1","0","1","1","0","1","1","1","1","1","-1","0","0","0","1","5","4","3","2","3","2","3","3","3","2","732226150302224385","李","","","","","","","","","","","","","","","","","","","","","","","","","","","","","","","","","","","","","","","",""
"677","<p style=""color:rgb(150, 250, 100); font-size: 35px;"">本人</p>","i","categorize-html","185","982506","0.0-6.0-1.0-8.0-1.38","3","3","3","3","3","3","3","3","3","4","4","4","3","4","3","3","4","4","3","4","4","3","3","2","3","2","3","4","2","1","0","1","1","0","1","1","1","1","1","-1","0","0","0","1","5","4","3","2","3","2","3","3","3","2","732226150302224385","李","","","","","","","","","","","","","","","","","","","true","14","4","moral","677","self","本人","","","","","","","","","","","","","","",""
"null","","null","html-keyboard-response","186","982757","0.0-6.0-1.0-8.0-0.39","3","3","3","3","3","3","3","3","3","4","4","4","3","4","3","3","4","4","3","4","4","3","3","2","3","2","3","4","2","1","0","1","1","0","1","1","1","1","1","-1","0","0","0","1","5","4","3","2","3","2","3","3","3","2","732226150302224385","李","","","","","","","","","","","","","","","","","","","","","","","","","","","","","","","","","","","","","","","",""
"1333","<p style=""color:white; font-size: 35px;"">诚信</p>","e","categorize-html","187","984091","0.0-6.0-1.0-8.0-1.39","3","3","3","3","3","3","3","3","3","4","4","4","3","4","3","3","4","4","3","4","4","3","3","2","3","2","3","4","2","1","0","1","1","0","1","1","1","1","1","-1","0","0","0","1","5","4","3","2","3","2","3","3","3","2","732226150302224385","李","","","","","","","","","","","","","","","","","","","true","14","4","moral","1333","positive","诚信","","","","","","","","","","","","","","",""
"null","","null","html-keyboard-response","188","984343","0.0-6.0-1.0-8.0-0.40","3","3","3","3","3","3","3","3","3","4","4","4","3","4","3","3","4","4","3","4","4","3","3","2","3","2","3","4","2","1","0","1","1","0","1","1","1","1","1","-1","0","0","0","1","5","4","3","2","3","2","3","3","3","2","732226150302224385","李","","","","","","","","","","","","","","","","","","","","","","","","","","","","","","","","","","","","","","","",""
"1193","<p style=""color:rgb(150, 250, 100); font-size: 35px;"">别人的</p>","e","categorize-html","189","985538","0.0-6.0-1.0-8.0-1.40","3","3","3","3","3","3","3","3","3","4","4","4","3","4","3","3","4","4","3","4","4","3","3","2","3","2","3","4","2","1","0","1","1","0","1","1","1","1","1","-1","0","0","0","1","5","4","3","2","3","2","3","3","3","2","732226150302224385","李","","","","","","","","","","","","","","","","","","","true","14","4","moral","1193","other","别人的","","","","","","","","","","","","","","",""
"null","","null","html-keyboard-response","190","985789","0.0-6.0-1.0-8.0-0.41","3","3","3","3","3","3","3","3","3","4","4","4","3","4","3","3","4","4","3","4","4","3","3","2","3","2","3","4","2","1","0","1","1","0","1","1","1","1","1","-1","0","0","0","1","5","4","3","2","3","2","3","3","3","2","732226150302224385","李","","","","","","","","","","","","","","","","","","","","","","","","","","","","","","","","","","","","","","","",""
"670","<p style=""color:white; font-size: 35px;"">不孝</p>","i","categorize-html","191","986460","0.0-6.0-1.0-8.0-1.41","3","3","3","3","3","3","3","3","3","4","4","4","3","4","3","3","4","4","3","4","4","3","3","2","3","2","3","4","2","1","0","1","1","0","1","1","1","1","1","-1","0","0","0","1","5","4","3","2","3","2","3","3","3","2","732226150302224385","李","","","","","","","","","","","","","","","","","","","true","14","4","moral","670","negative","不孝","","","","","","","","","","","","","","",""
"null","","null","html-keyboard-response","192","986711","0.0-6.0-1.0-8.0-0.42","3","3","3","3","3","3","3","3","3","4","4","4","3","4","3","3","4","4","3","4","4","3","3","2","3","2","3","4","2","1","0","1","1","0","1","1","1","1","1","-1","0","0","0","1","5","4","3","2","3","2","3","3","3","2","732226150302224385","李","","","","","","","","","","","","","","","","","","","","","","","","","","","","","","","","","","","","","","","",""
"588","<p style=""color:rgb(150, 250, 100); font-size: 35px;"">自己</p>","i","categorize-html","193","987302","0.0-6.0-1.0-8.0-1.42","3","3","3","3","3","3","3","3","3","4","4","4","3","4","3","3","4","4","3","4","4","3","3","2","3","2","3","4","2","1","0","1","1","0","1","1","1","1","1","-1","0","0","0","1","5","4","3","2","3","2","3","3","3","2","732226150302224385","李","","","","","","","","","","","","","","","","","","","true","14","4","moral","588","self","自己","","","","","","","","","","","","","","",""
"null","","null","html-keyboard-response","194","987554","0.0-6.0-1.0-8.0-0.43","3","3","3","3","3","3","3","3","3","4","4","4","3","4","3","3","4","4","3","4","4","3","3","2","3","2","3","4","2","1","0","1","1","0","1","1","1","1","1","-1","0","0","0","1","5","4","3","2","3","2","3","3","3","2","732226150302224385","李","","","","","","","","","","","","","","","","","","","","","","","","","","","","","","","","","","","","","","","",""
"543","<p style=""color:white; font-size: 35px;"">高尚</p>","e","categorize-html","195","988099","0.0-6.0-1.0-8.0-1.43","3","3","3","3","3","3","3","3","3","4","4","4","3","4","3","3","4","4","3","4","4","3","3","2","3","2","3","4","2","1","0","1","1","0","1","1","1","1","1","-1","0","0","0","1","5","4","3","2","3","2","3","3","3","2","732226150302224385","李","","","","","","","","","","","","","","","","","","","true","14","4","moral","543","positive","高尚","","","","","","","","","","","","","","",""
"null","","null","html-keyboard-response","196","988350","0.0-6.0-1.0-8.0-0.44","3","3","3","3","3","3","3","3","3","4","4","4","3","4","3","3","4","4","3","4","4","3","3","2","3","2","3","4","2","1","0","1","1","0","1","1","1","1","1","-1","0","0","0","1","5","4","3","2","3","2","3","3","3","2","732226150302224385","李","","","","","","","","","","","","","","","","","","","","","","","","","","","","","","","","","","","","","","","",""
"616","<p style=""color:rgb(150, 250, 100); font-size: 35px;"">我</p>","i","categorize-html","197","988968","0.0-6.0-1.0-8.0-1.44","3","3","3","3","3","3","3","3","3","4","4","4","3","4","3","3","4","4","3","4","4","3","3","2","3","2","3","4","2","1","0","1","1","0","1","1","1","1","1","-1","0","0","0","1","5","4","3","2","3","2","3","3","3","2","732226150302224385","李","","","","","","","","","","","","","","","","","","","true","14","4","moral","616","self","我","","","","","","","","","","","","","","",""
"null","","null","html-keyboard-response","198","989220","0.0-6.0-1.0-8.0-0.45","3","3","3","3","3","3","3","3","3","4","4","4","3","4","3","3","4","4","3","4","4","3","3","2","3","2","3","4","2","1","0","1","1","0","1","1","1","1","1","-1","0","0","0","1","5","4","3","2","3","2","3","3","3","2","732226150302224385","李","","","","","","","","","","","","","","","","","","","","","","","","","","","","","","","","","","","","","","","",""
