"rt","stimulus","response","trial_type","trial_index","time_elapsed","internal_node_id","ses_1","ses_2","ses_3","ses_4","ses_5","ses_6","ses_7","ses_8","ses_9","ses_10","coreself_1","coreself_2","coreself_3","coreself_4","coreself_5","coreself_6","coreself_7","coreself_8","coreself_9","coreself_10","SGPS_1","SGPS_2","SGPS_3","SGPS_4","SGPS_5","SGPS_6","SGPS_7","SGPS_8","SGPS_9","NPI1","NPI2","NPI3","NPI4","NPI5","NPI6","NPI7","NPI8","NPI9","NPI10","NPI11","NPI12","NPI13","NPI14","NPI15","hsns_1","hsns_2","hsns_3","hsns_4","hsns_5","hsns_6","hsns_7","hsns_8","hsns_9","hsns_10","subj_idx","friend_name","value","success","user_agent","responses","item_order","radio_event_ids","radio_event_times","key_event_times","mouse_event_times","straightlining","zigzagging","honeypot","timeout","failed_images","failed_audio","failed_video","view_history","response_type","key_press","avg_frame_time","center_x","center_y","correct_response","correct","identity","Image","word","condition","task_id","screen_id","time_stamp","version_attrib2","version_target2","IAT","RT","varname","summary","version_attrib","version_target","question_order"
"3570","
   <p><div style = ""color: white;font-size:25px;"">您好，欢迎参加本次实验。</div> </p>
   <p><div style = ""color: white;font-size:25px;"">为充分保障您的权利，请确保您已经知晓并同意《参与实验同意书》以及《数据公开知情同意书》。</div></p>
   <p><div style = ""color: white;font-size:25px;"">如果您未见过上述内容，请咨询实验员。</div></p>
   <p><div style = ""color: white;font-size:25px;"">如果您选择继续实验，则表示您已经清楚两份知情同意书的内容并同意。</div></p>
   <p> <div style = ""color: green;font-size:25px;""><按空格键至下页></div> </p>
   "," ","html-keyboard-response","0","3573","0.0-0.0","3","3","3","3","2","3","2","3","3","3","3","2","3","3","3","3","3","3","4","4","3","2","2","3","2","2","1","4","2","1","0","1","0","0","1","0","1","1","1","-1","0","1","0","1","4","2","3","3","4","3","3","3","2","3","718754642447564800","贾","","","","","","","","","","","","","","","","","","","","","","","","","","","","","","","","","","","","","","","",""
"","","","call-function","1","3575","0.0-1.0-0.0","3","3","3","3","2","3","2","3","3","3","3","2","3","3","3","3","3","3","4","4","3","2","2","3","2","2","1","4","2","1","0","1","0","0","1","0","1","1","1","-1","0","1","0","1","4","2","3","3","4","3","3","3","2","3","718754642447564800","贾","","","","","","","","","","","","","","","","","","","","","","","","","","","","","","","","","","","","","","","",""
"22028","","{""friend_name"":""贾""}","survey-html-form","2","25604","0.0-1.0-1.0","3","3","3","3","2","3","2","3","3","3","3","2","3","3","3","3","3","3","4","4","3","2","2","3","2","2","1","4","2","1","0","1","0","0","1","0","1","1","1","-1","0","1","0","1","4","2","3","3","4","3","3","3","2","3","718754642447564800","贾","","","","","","","","","","","","","","","","","","","","","","","","","","","","","","","","","","","","","","","",""
"","","","fullscreen","3","35569","0.0-2.0","3","3","3","3","2","3","2","3","3","3","3","2","3","3","3","3","3","3","4","4","3","2","2","3","2","2","1","4","2","1","0","1","0","0","1","0","1","1","1","-1","0","1","0","1","4","2","3","3","4","3","3","3","2","3","718754642447564800","贾","","true","{}","","","","","","","","","","","","","","","","","","","","","","","","","","","","","","","","","","","","",""
"34392.59999999963","","{""Q01"":""3"",""Q02"":""3"",""Q03"":""3"",""Q04"":""3"",""Q05"":""2"",""Q06"":""3"",""Q07"":""2"",""Q08"":""3"",""Q09"":""3"",""Q10"":""3""}","survey-template","4","69965","0.0-3.0","3","3","3","3","2","3","2","3","3","3","3","2","3","3","3","3","3","3","4","4","3","2","2","3","2","2","1","4","2","1","0","1","0","0","1","0","1","1","1","-1","0","1","0","1","4","2","3","3","4","3","3","3","2","3","718754642447564800","贾","","","","{""Q01"":""3"",""Q02"":""3"",""Q03"":""3"",""Q04"":""3"",""Q05"":""2"",""Q06"":""3"",""Q07"":""2"",""Q08"":""3"",""Q09"":""3"",""Q10"":""3""}","[0,1,2,3,4,5,6,7,8,9]","[""Q01"",""Q02"",""Q03"",""Q04"",""Q05"",""Q06"",""Q07"",""Q08"",""Q09"",""Q10""]","[10143.599999999627,12631.599999999627,17255.299999999814,18967.099999999627,21903,23966.89999999944,26206.699999999255,28342.699999999255,30583.699999999255,32022.799999999814]","[]","[10143.599999999627,12631.599999999627,17255.299999999814,18967.099999999627,21903,23966.89999999944,26206.699999999255,28342.699999999255,30583.699999999255,32022.799999999814,34390.699999999255]","0.5","0.3333333333333333","0","","","","","","","","","","","","","","","","","","","","","","","","","","","",""
"31470.599999999627","","{""Q01"":""3"",""Q02"":""2"",""Q03"":""3"",""Q04"":""3"",""Q05"":""3"",""Q06"":""3"",""Q07"":""3"",""Q08"":""3"",""Q09"":""4"",""Q10"":""4""}","survey-template","5","101444","0.0-4.0","3","3","3","3","2","3","2","3","3","3","3","2","3","3","3","3","3","3","4","4","3","2","2","3","2","2","1","4","2","1","0","1","0","0","1","0","1","1","1","-1","0","1","0","1","4","2","3","3","4","3","3","3","2","3","718754642447564800","贾","","","","{""Q01"":""3"",""Q02"":""2"",""Q03"":""3"",""Q04"":""3"",""Q05"":""3"",""Q06"":""3"",""Q07"":""3"",""Q08"":""3"",""Q09"":""4"",""Q10"":""4""}","[0,1,2,3,4,5,6,7,8,9]","[""Q01"",""Q02"",""Q03"",""Q04"",""Q05"",""Q06"",""Q07"",""Q08"",""Q09"",""Q10""]","[7125.299999999814,10573.099999999627,16901,18469,20260.799999999814,21420.599999999627,24476.700000000186,25261,26901.200000000186,28836.5]","[]","[7125.299999999814,10573.099999999627,16901,18469,20260.799999999814,21420.599999999627,24476.700000000186,25261,26901.200000000186,28836.5,31468.200000000186]","0.7","0.3333333333333333","0","","","","","","","","","","","","","","","","","","","","","","","","","","","",""
"","","","preload","6","101765","0.0-5.0","3","3","3","3","2","3","2","3","3","3","3","2","3","3","3","3","3","3","4","4","3","2","2","3","2","2","1","4","2","1","0","1","0","0","1","0","1","1","1","-1","0","1","0","1","4","2","3","3","4","3","3","3","2","3","718754642447564800","贾","","true","","","","","","","","","","","false","[]","[]","[]","","","","","","","","","","","","","","","","","","","","","","","",""
"13067","","","instructions","7","114833","0.0-6.0","3","3","3","3","2","3","2","3","3","3","3","2","3","3","3","3","3","3","4","4","3","2","2","3","2","2","1","4","2","1","0","1","0","0","1","0","1","1","1","-1","0","1","0","1","4","2","3","3","4","3","3","3","2","3","718754642447564800","贾","","","","","","","","","","","","","","","","","[{""page_index"":0,""viewing_time"":13067}]","","","","","","","","","","","","","","","","","","","","","","",""
"27278","","","instructions","8","142113","0.0-7.0-1.0-0.0","3","3","3","3","2","3","2","3","3","3","3","2","3","3","3","3","3","3","4","4","3","2","2","3","2","2","1","4","2","1","0","1","0","0","1","0","1","1","1","-1","0","1","0","1","4","2","3","3","4","3","3","3","2","3","718754642447564800","贾","","","","","","","","","","","","","","","","","[{""page_index"":0,""viewing_time"":22037},{""page_index"":1,""viewing_time"":3336},{""page_index"":2,""viewing_time"":1905}]","","","","","","","","","","","","","","","","","","","","","","",""
"null","","null","psychophysics","9","144327","0.0-7.0-1.0-1.0-0.0-0.0","3","3","3","3","2","3","2","3","3","3","3","2","3","3","3","3","3","3","4","4","3","2","2","3","2","2","1","4","2","1","0","1","0","0","1","0","1","1","1","-1","0","1","0","1","4","2","3","3","4","3","3","3","2","3","718754642447564800","贾","","","","null","","","","","","","","","","","","","","key","null","25.000232558139412","960","536","j","false","nonmatch","img/pentagon.png","椭圆","五边","ALT1_2","prac_ALT1_2","","","","","","","","","",""
"null","<span class='add_' style='color:yellow; font-size: 70px;'> 太慢! </span>","null","html-keyboard-response","10","144829","0.0-7.0-1.0-1.0-0.0-1.0","3","3","3","3","2","3","2","3","3","3","3","2","3","3","3","3","3","3","4","4","3","2","2","3","2","2","1","4","2","1","0","1","0","0","1","0","1","1","1","-1","0","1","0","1","4","2","3","3","4","3","3","3","2","3","718754642447564800","贾","","","","","","","","","","","","","","","","","","","","","","","","","","","","","","feedback_test","","","","","","","","","",""
"605","","f","psychophysics","11","146443","0.0-7.0-1.0-1.0-0.0-0.1","3","3","3","3","2","3","2","3","3","3","3","2","3","3","3","3","3","3","4","4","3","2","2","3","2","2","1","4","2","1","0","1","0","0","1","0","1","1","1","-1","0","1","0","1","4","2","3","3","4","3","3","3","2","3","718754642447564800","贾","","","","match","","","","","","","","","","","","","","key","f","24.737890624999636","960","536","f","true","match","img/square.png","方形","方形","ALT1_2","prac_ALT1_2","","","","","","","","","",""
"null","<span style='color:GreenYellow; font-size: 70px;'>正确! </span>","null","html-keyboard-response","12","146944","0.0-7.0-1.0-1.0-0.0-1.1","3","3","3","3","2","3","2","3","3","3","3","2","3","3","3","3","3","3","4","4","3","2","2","3","2","2","1","4","2","1","0","1","0","0","1","0","1","1","1","-1","0","1","0","1","4","2","3","3","4","3","3","3","2","3","718754642447564800","贾","","","","","","","","","","","","","","","","","","","","","","","","","","","","","","feedback_test","","","","","","","","","",""
"949","","f","psychophysics","13","148899","0.0-7.0-1.0-1.0-0.0-0.2","3","3","3","3","2","3","2","3","3","3","3","2","3","3","3","3","3","3","4","4","3","2","2","3","2","2","1","4","2","1","0","1","0","0","1","0","1","1","1","-1","0","1","0","1","4","2","3","3","4","3","3","3","2","3","718754642447564800","贾","","","","match","","","","","","","","","","","","","","key","f","25.553960000000274","960","536","f","true","match","img/ellipse.png","椭圆","椭圆","ALT1_2","prac_ALT1_2","","","","","","","","","",""
"null","<span style='color:GreenYellow; font-size: 70px;'>正确! </span>","null","html-keyboard-response","14","149401","0.0-7.0-1.0-1.0-0.0-1.2","3","3","3","3","2","3","2","3","3","3","3","2","3","3","3","3","3","3","4","4","3","2","2","3","2","2","1","4","2","1","0","1","0","0","1","0","1","1","1","-1","0","1","0","1","4","2","3","3","4","3","3","3","2","3","718754642447564800","贾","","","","","","","","","","","","","","","","","","","","","","","","","","","","","","feedback_test","","","","","","","","","",""
"819","","f","psychophysics","15","151223","0.0-7.0-1.0-1.0-0.0-0.3","3","3","3","3","2","3","2","3","3","3","3","2","3","3","3","3","3","3","4","4","3","2","2","3","2","2","1","4","2","1","0","1","0","0","1","0","1","1","1","-1","0","1","0","1","4","2","3","3","4","3","3","3","2","3","718754642447564800","贾","","","","match","","","","","","","","","","","","","","key","f","24.998930555555287","960","536","f","true","match","img/pentagon.png","五边","五边","ALT1_2","prac_ALT1_2","","","","","","","","","",""
"null","<span style='color:GreenYellow; font-size: 70px;'>正确! </span>","null","html-keyboard-response","16","151726","0.0-7.0-1.0-1.0-0.0-1.3","3","3","3","3","2","3","2","3","3","3","3","2","3","3","3","3","3","3","4","4","3","2","2","3","2","2","1","4","2","1","0","1","0","0","1","0","1","1","1","-1","0","1","0","1","4","2","3","3","4","3","3","3","2","3","718754642447564800","贾","","","","","","","","","","","","","","","","","","","","","","","","","","","","","","feedback_test","","","","","","","","","",""
"790","","f","psychophysics","17","153530","0.0-7.0-1.0-1.0-0.0-0.4","3","3","3","3","2","3","2","3","3","3","3","2","3","3","3","3","3","3","4","4","3","2","2","3","2","2","1","4","2","1","0","1","0","0","1","0","1","1","1","-1","0","1","0","1","4","2","3","3","4","3","3","3","2","3","718754642447564800","贾","","","","match","","","","","","","","","","","","","","key","f","25.60368115942043","960","536","j","false","nonmatch","img/ellipse.png","菱形","椭圆","ALT1_2","prac_ALT1_2","","","","","","","","","",""
"null","<span style='color:red; font-size: 70px;'>错误! </span>","null","html-keyboard-response","18","154032","0.0-7.0-1.0-1.0-0.0-1.4","3","3","3","3","2","3","2","3","3","3","3","2","3","3","3","3","3","3","4","4","3","2","2","3","2","2","1","4","2","1","0","1","0","0","1","0","1","1","1","-1","0","1","0","1","4","2","3","3","4","3","3","3","2","3","718754642447564800","贾","","","","","","","","","","","","","","","","","","","","","","","","","","","","","","feedback_test","","","","","","","","","",""
"759","","f","psychophysics","19","155794","0.0-7.0-1.0-1.0-0.0-0.5","3","3","3","3","2","3","2","3","3","3","3","2","3","3","3","3","3","3","4","4","3","2","2","3","2","2","1","4","2","1","0","1","0","0","1","0","1","1","1","-1","0","1","0","1","4","2","3","3","4","3","3","3","2","3","718754642447564800","贾","","","","match","","","","","","","","","","","","","","key","f","25.24417647058812","960","536","j","false","nonmatch","img/pentagon.png","菱形","五边","ALT1_2","prac_ALT1_2","","","","","","","","","",""
"null","<span style='color:red; font-size: 70px;'>错误! </span>","null","html-keyboard-response","20","156296","0.0-7.0-1.0-1.0-0.0-1.5","3","3","3","3","2","3","2","3","3","3","3","2","3","3","3","3","3","3","4","4","3","2","2","3","2","2","1","4","2","1","0","1","0","0","1","0","1","1","1","-1","0","1","0","1","4","2","3","3","4","3","3","3","2","3","718754642447564800","贾","","","","","","","","","","","","","","","","","","","","","","","","","","","","","","feedback_test","","","","","","","","","",""
"736","","f","psychophysics","21","158034","0.0-7.0-1.0-1.0-0.0-0.6","3","3","3","3","2","3","2","3","3","3","3","2","3","3","3","3","3","3","4","4","3","2","2","3","2","2","1","4","2","1","0","1","0","0","1","0","1","1","1","-1","0","1","0","1","4","2","3","3","4","3","3","3","2","3","718754642447564800","贾","","","","match","","","","","","","","","","","","","","key","f","24.998764705882316","960","536","f","true","match","img/diamond.png","菱形","菱形","ALT1_2","prac_ALT1_2","","","","","","","","","",""
"null","<span style='color:GreenYellow; font-size: 70px;'>正确! </span>","null","html-keyboard-response","22","158535","0.0-7.0-1.0-1.0-0.0-1.6","3","3","3","3","2","3","2","3","3","3","3","2","3","3","3","3","3","3","4","4","3","2","2","3","2","2","1","4","2","1","0","1","0","0","1","0","1","1","1","-1","0","1","0","1","4","2","3","3","4","3","3","3","2","3","718754642447564800","贾","","","","","","","","","","","","","","","","","","","","","","","","","","","","","","feedback_test","","","","","","","","","",""
"867","","f","psychophysics","23","160418","0.0-7.0-1.0-1.0-0.0-0.7","3","3","3","3","2","3","2","3","3","3","3","2","3","3","3","3","3","3","4","4","3","2","2","3","2","2","1","4","2","1","0","1","0","0","1","0","1","1","1","-1","0","1","0","1","4","2","3","3","4","3","3","3","2","3","718754642447564800","贾","","","","match","","","","","","","","","","","","","","key","f","25.341246575342367","960","536","f","true","match","img/diamond.png","菱形","菱形","ALT1_2","prac_ALT1_2","","","","","","","","","",""
"null","<span style='color:GreenYellow; font-size: 70px;'>正确! </span>","null","html-keyboard-response","24","160920","0.0-7.0-1.0-1.0-0.0-1.7","3","3","3","3","2","3","2","3","3","3","3","2","3","3","3","3","3","3","4","4","3","2","2","3","2","2","1","4","2","1","0","1","0","0","1","0","1","1","1","-1","0","1","0","1","4","2","3","3","4","3","3","3","2","3","718754642447564800","贾","","","","","","","","","","","","","","","","","","","","","","","","","","","","","","feedback_test","","","","","","","","","",""
"976","","j","psychophysics","25","162899","0.0-7.0-1.0-1.0-0.0-0.8","3","3","3","3","2","3","2","3","3","3","3","2","3","3","3","3","3","3","4","4","3","2","2","3","2","2","1","4","2","1","0","1","0","0","1","0","1","1","1","-1","0","1","0","1","4","2","3","3","4","3","3","3","2","3","718754642447564800","贾","","","","nonmatch","","","","","","","","","","","","","","key","j","25.107870129870278","960","536","j","true","nonmatch","img/ellipse.png","方形","椭圆","ALT1_2","prac_ALT1_2","","","","","","","","","",""
"null","<span style='color:GreenYellow; font-size: 70px;'>正确! </span>","null","html-keyboard-response","26","163401","0.0-7.0-1.0-1.0-0.0-1.8","3","3","3","3","2","3","2","3","3","3","3","2","3","3","3","3","3","3","4","4","3","2","2","3","2","2","1","4","2","1","0","1","0","0","1","0","1","1","1","-1","0","1","0","1","4","2","3","3","4","3","3","3","2","3","718754642447564800","贾","","","","","","","","","","","","","","","","","","","","","","","","","","","","","","feedback_test","","","","","","","","","",""
"903","","f","psychophysics","27","165305","0.0-7.0-1.0-1.0-0.0-0.9","3","3","3","3","2","3","2","3","3","3","3","2","3","3","3","3","3","3","4","4","3","2","2","3","2","2","1","4","2","1","0","1","0","0","1","0","1","1","1","-1","0","1","0","1","4","2","3","3","4","3","3","3","2","3","718754642447564800","贾","","","","match","","","","","","","","","","","","","","key","f","25.571493150684695","960","536","j","false","nonmatch","img/diamond.png","五边","菱形","ALT1_2","prac_ALT1_2","","","","","","","","","",""
"null","<span style='color:red; font-size: 70px;'>错误! </span>","null","html-keyboard-response","28","165808","0.0-7.0-1.0-1.0-0.0-1.9","3","3","3","3","2","3","2","3","3","3","3","2","3","3","3","3","3","3","4","4","3","2","2","3","2","2","1","4","2","1","0","1","0","0","1","0","1","1","1","-1","0","1","0","1","4","2","3","3","4","3","3","3","2","3","718754642447564800","贾","","","","","","","","","","","","","","","","","","","","","","","","","","","","","","feedback_test","","","","","","","","","",""
"1158","","j","psychophysics","29","167968","0.0-7.0-1.0-1.0-0.0-0.10","3","3","3","3","2","3","2","3","3","3","3","2","3","3","3","3","3","3","4","4","3","2","2","3","2","2","1","4","2","1","0","1","0","0","1","0","1","1","1","-1","0","1","0","1","4","2","3","3","4","3","3","3","2","3","718754642447564800","贾","","","","nonmatch","","","","","","","","","","","","","","key","j","25.50168674698777","960","536","j","true","nonmatch","img/pentagon.png","方形","五边","ALT1_2","prac_ALT1_2","","","","","","","","","",""
"null","<span style='color:GreenYellow; font-size: 70px;'>正确! </span>","null","html-keyboard-response","30","168471","0.0-7.0-1.0-1.0-0.0-1.10","3","3","3","3","2","3","2","3","3","3","3","2","3","3","3","3","3","3","4","4","3","2","2","3","2","2","1","4","2","1","0","1","0","0","1","0","1","1","1","-1","0","1","0","1","4","2","3","3","4","3","3","3","2","3","718754642447564800","贾","","","","","","","","","","","","","","","","","","","","","","","","","","","","","","feedback_test","","","","","","","","","",""
"1066","","j","psychophysics","31","170539","0.0-7.0-1.0-1.0-0.0-0.11","3","3","3","3","2","3","2","3","3","3","3","2","3","3","3","3","3","3","4","4","3","2","2","3","2","2","1","4","2","1","0","1","0","0","1","0","1","1","1","-1","0","1","0","1","4","2","3","3","4","3","3","3","2","3","718754642447564800","贾","","","","nonmatch","","","","","","","","","","","","","","key","j","25.2096749999997","960","536","j","true","nonmatch","img/square.png","五边","方形","ALT1_2","prac_ALT1_2","","","","","","","","","",""
"null","<span style='color:GreenYellow; font-size: 70px;'>正确! </span>","null","html-keyboard-response","32","171041","0.0-7.0-1.0-1.0-0.0-1.11","3","3","3","3","2","3","2","3","3","3","3","2","3","3","3","3","3","3","4","4","3","2","2","3","2","2","1","4","2","1","0","1","0","0","1","0","1","1","1","-1","0","1","0","1","4","2","3","3","4","3","3","3","2","3","718754642447564800","贾","","","","","","","","","","","","","","","","","","","","","","","","","","","","","","feedback_test","","","","","","","","","",""
"1058","","j","psychophysics","33","173102","0.0-7.0-1.0-1.0-0.0-0.12","3","3","3","3","2","3","2","3","3","3","3","2","3","3","3","3","3","3","4","4","3","2","2","3","2","2","1","4","2","1","0","1","0","0","1","0","1","1","1","-1","0","1","0","1","4","2","3","3","4","3","3","3","2","3","718754642447564800","贾","","","","nonmatch","","","","","","","","","","","","","","key","j","24.59364634146346","960","536","j","true","nonmatch","img/square.png","菱形","方形","ALT1_2","prac_ALT1_2","","","","","","","","","",""
"null","<span style='color:GreenYellow; font-size: 70px;'>正确! </span>","null","html-keyboard-response","34","173605","0.0-7.0-1.0-1.0-0.0-1.12","3","3","3","3","2","3","2","3","3","3","3","2","3","3","3","3","3","3","4","4","3","2","2","3","2","2","1","4","2","1","0","1","0","0","1","0","1","1","1","-1","0","1","0","1","4","2","3","3","4","3","3","3","2","3","718754642447564800","贾","","","","","","","","","","","","","","","","","","","","","","","","","","","","","","feedback_test","","","","","","","","","",""
"null","","null","psychophysics","35","175838","0.0-7.0-1.0-1.0-0.0-0.13","3","3","3","3","2","3","2","3","3","3","3","2","3","3","3","3","3","3","4","4","3","2","2","3","2","2","1","4","2","1","0","1","0","0","1","0","1","1","1","-1","0","1","0","1","4","2","3","3","4","3","3","3","2","3","718754642447564800","贾","","","","null","","","","","","","","","","","","","","key","null","24.809772727272502","960","536","f","false","match","img/diamond.png","菱形","菱形","ALT1_2","prac_ALT1_2","","","","","","","","","",""
"null","<span class='add_' style='color:yellow; font-size: 70px;'> 太慢! </span>","null","html-keyboard-response","36","176341","0.0-7.0-1.0-1.0-0.0-1.13","3","3","3","3","2","3","2","3","3","3","3","2","3","3","3","3","3","3","4","4","3","2","2","3","2","2","1","4","2","1","0","1","0","0","1","0","1","1","1","-1","0","1","0","1","4","2","3","3","4","3","3","3","2","3","718754642447564800","贾","","","","","","","","","","","","","","","","","","","","","","","","","","","","","","feedback_test","","","","","","","","","",""
"876","","f","psychophysics","37","178221","0.0-7.0-1.0-1.0-0.0-0.14","3","3","3","3","2","3","2","3","3","3","3","2","3","3","3","3","3","3","4","4","3","2","2","3","2","2","1","4","2","1","0","1","0","0","1","0","1","1","1","-1","0","1","0","1","4","2","3","3","4","3","3","3","2","3","718754642447564800","贾","","","","match","","","","","","","","","","","","","","key","f","25.112547945205684","960","536","f","true","match","img/pentagon.png","五边","五边","ALT1_2","prac_ALT1_2","","","","","","","","","",""
"null","<span style='color:GreenYellow; font-size: 70px;'>正确! </span>","null","html-keyboard-response","38","178723","0.0-7.0-1.0-1.0-0.0-1.14","3","3","3","3","2","3","2","3","3","3","3","2","3","3","3","3","3","3","4","4","3","2","2","3","2","2","1","4","2","1","0","1","0","0","1","0","1","1","1","-1","0","1","0","1","4","2","3","3","4","3","3","3","2","3","718754642447564800","贾","","","","","","","","","","","","","","","","","","","","","","","","","","","","","","feedback_test","","","","","","","","","",""
"1036","","j","psychophysics","39","180768","0.0-7.0-1.0-1.0-0.0-0.15","3","3","3","3","2","3","2","3","3","3","3","2","3","3","3","3","3","3","4","4","3","2","2","3","2","2","1","4","2","1","0","1","0","0","1","0","1","1","1","-1","0","1","0","1","4","2","3","3","4","3","3","3","2","3","718754642447564800","贾","","","","nonmatch","","","","","","","","","","","","","","key","j","25.315531645569937","960","536","j","true","nonmatch","img/diamond.png","椭圆","菱形","ALT1_2","prac_ALT1_2","","","","","","","","","",""
"null","<span style='color:GreenYellow; font-size: 70px;'>正确! </span>","null","html-keyboard-response","40","181270","0.0-7.0-1.0-1.0-0.0-1.15","3","3","3","3","2","3","2","3","3","3","3","2","3","3","3","3","3","3","4","4","3","2","2","3","2","2","1","4","2","1","0","1","0","0","1","0","1","1","1","-1","0","1","0","1","4","2","3","3","4","3","3","3","2","3","718754642447564800","贾","","","","","","","","","","","","","","","","","","","","","","","","","","","","","","feedback_test","","","","","","","","","",""
"785","","j","psychophysics","41","183056","0.0-7.0-1.0-1.0-0.0-0.16","3","3","3","3","2","3","2","3","3","3","3","2","3","3","3","3","3","3","4","4","3","2","2","3","2","2","1","4","2","1","0","1","0","0","1","0","1","1","1","-1","0","1","0","1","4","2","3","3","4","3","3","3","2","3","718754642447564800","贾","","","","nonmatch","","","","","","","","","","","","","","key","j","25.36223188405806","960","536","j","true","nonmatch","img/square.png","椭圆","方形","ALT1_2","prac_ALT1_2","","","","","","","","","",""
"null","<span style='color:GreenYellow; font-size: 70px;'>正确! </span>","null","html-keyboard-response","42","183558","0.0-7.0-1.0-1.0-0.0-1.16","3","3","3","3","2","3","2","3","3","3","3","2","3","3","3","3","3","3","4","4","3","2","2","3","2","2","1","4","2","1","0","1","0","0","1","0","1","1","1","-1","0","1","0","1","4","2","3","3","4","3","3","3","2","3","718754642447564800","贾","","","","","","","","","","","","","","","","","","","","","","","","","","","","","","feedback_test","","","","","","","","","",""
"745","","f","psychophysics","43","185310","0.0-7.0-1.0-1.0-0.0-0.17","3","3","3","3","2","3","2","3","3","3","3","2","3","3","3","3","3","3","4","4","3","2","2","3","2","2","1","4","2","1","0","1","0","0","1","0","1","1","1","-1","0","1","0","1","4","2","3","3","4","3","3","3","2","3","718754642447564800","贾","","","","match","","","","","","","","","","","","","","key","f","25.000352941176544","960","536","j","false","nonmatch","img/diamond.png","方形","菱形","ALT1_2","prac_ALT1_2","","","","","","","","","",""
"null","<span style='color:red; font-size: 70px;'>错误! </span>","null","html-keyboard-response","44","185813","0.0-7.0-1.0-1.0-0.0-1.17","3","3","3","3","2","3","2","3","3","3","3","2","3","3","3","3","3","3","4","4","3","2","2","3","2","2","1","4","2","1","0","1","0","0","1","0","1","1","1","-1","0","1","0","1","4","2","3","3","4","3","3","3","2","3","718754642447564800","贾","","","","","","","","","","","","","","","","","","","","","","","","","","","","","","feedback_test","","","","","","","","","",""
"769","","f","psychophysics","45","187593","0.0-7.0-1.0-1.0-0.0-0.18","3","3","3","3","2","3","2","3","3","3","3","2","3","3","3","3","3","3","4","4","3","2","2","3","2","2","1","4","2","1","0","1","0","0","1","0","1","1","1","-1","0","1","0","1","4","2","3","3","4","3","3","3","2","3","718754642447564800","贾","","","","match","","","","","","","","","","","","","","key","f","24.305333333333287","960","536","f","true","match","img/square.png","方形","方形","ALT1_2","prac_ALT1_2","","","","","","","","","",""
"null","<span style='color:GreenYellow; font-size: 70px;'>正确! </span>","null","html-keyboard-response","46","188095","0.0-7.0-1.0-1.0-0.0-1.18","3","3","3","3","2","3","2","3","3","3","3","2","3","3","3","3","3","3","4","4","3","2","2","3","2","2","1","4","2","1","0","1","0","0","1","0","1","1","1","-1","0","1","0","1","4","2","3","3","4","3","3","3","2","3","718754642447564800","贾","","","","","","","","","","","","","","","","","","","","","","","","","","","","","","feedback_test","","","","","","","","","",""
"829","","j","psychophysics","47","189926","0.0-7.0-1.0-1.0-0.0-0.19","3","3","3","3","2","3","2","3","3","3","3","2","3","3","3","3","3","3","4","4","3","2","2","3","2","2","1","4","2","1","0","1","0","0","1","0","1","1","1","-1","0","1","0","1","4","2","3","3","4","3","3","3","2","3","718754642447564800","贾","","","","nonmatch","","","","","","","","","","","","","","key","j","25.35195774647889","960","536","f","false","match","img/pentagon.png","五边","五边","ALT1_2","prac_ALT1_2","","","","","","","","","",""
"null","<span style='color:red; font-size: 70px;'>错误! </span>","null","html-keyboard-response","48","190428","0.0-7.0-1.0-1.0-0.0-1.19","3","3","3","3","2","3","2","3","3","3","3","2","3","3","3","3","3","3","4","4","3","2","2","3","2","2","1","4","2","1","0","1","0","0","1","0","1","1","1","-1","0","1","0","1","4","2","3","3","4","3","3","3","2","3","718754642447564800","贾","","","","","","","","","","","","","","","","","","","","","","","","","","","","","","feedback_test","","","","","","","","","",""
"746","","f","psychophysics","49","192180","0.0-7.0-1.0-1.0-0.0-0.20","3","3","3","3","2","3","2","3","3","3","3","2","3","3","3","3","3","3","4","4","3","2","2","3","2","2","1","4","2","1","0","1","0","0","1","0","1","1","1","-1","0","1","0","1","4","2","3","3","4","3","3","3","2","3","718754642447564800","贾","","","","match","","","","","","","","","","","","","","key","f","25.24386764705859","960","536","f","true","match","img/ellipse.png","椭圆","椭圆","ALT1_2","prac_ALT1_2","","","","","","","","","",""
"null","<span style='color:GreenYellow; font-size: 70px;'>正确! </span>","null","html-keyboard-response","50","192682","0.0-7.0-1.0-1.0-0.0-1.20","3","3","3","3","2","3","2","3","3","3","3","2","3","3","3","3","3","3","4","4","3","2","2","3","2","2","1","4","2","1","0","1","0","0","1","0","1","1","1","-1","0","1","0","1","4","2","3","3","4","3","3","3","2","3","718754642447564800","贾","","","","","","","","","","","","","","","","","","","","","","","","","","","","","","feedback_test","","","","","","","","","",""
"857","","j","psychophysics","51","194549","0.0-7.0-1.0-1.0-0.0-0.21","3","3","3","3","2","3","2","3","3","3","3","2","3","3","3","3","3","3","4","4","3","2","2","3","2","2","1","4","2","1","0","1","0","0","1","0","1","1","1","-1","0","1","0","1","4","2","3","3","4","3","3","3","2","3","718754642447564800","贾","","","","nonmatch","","","","","","","","","","","","","","key","j","25.112958904109778","960","536","j","true","nonmatch","img/ellipse.png","五边","椭圆","ALT1_2","prac_ALT1_2","","","","","","","","","",""
"null","<span style='color:GreenYellow; font-size: 70px;'>正确! </span>","null","html-keyboard-response","52","195050","0.0-7.0-1.0-1.0-0.0-1.21","3","3","3","3","2","3","2","3","3","3","3","2","3","3","3","3","3","3","4","4","3","2","2","3","2","2","1","4","2","1","0","1","0","0","1","0","1","1","1","-1","0","1","0","1","4","2","3","3","4","3","3","3","2","3","718754642447564800","贾","","","","","","","","","","","","","","","","","","","","","","","","","","","","","","feedback_test","","","","","","","","","",""
"764","","f","psychophysics","53","196824","0.0-7.0-1.0-1.0-0.0-0.22","3","3","3","3","2","3","2","3","3","3","3","2","3","3","3","3","3","3","4","4","3","2","2","3","2","2","1","4","2","1","0","1","0","0","1","0","1","1","1","-1","0","1","0","1","4","2","3","3","4","3","3","3","2","3","718754642447564800","贾","","","","match","","","","","","","","","","","","","","key","f","25.361869565217564","960","536","f","true","match","img/square.png","方形","方形","ALT1_2","prac_ALT1_2","","","","","","","","","",""
"null","<span style='color:GreenYellow; font-size: 70px;'>正确! </span>","null","html-keyboard-response","54","197326","0.0-7.0-1.0-1.0-0.0-1.22","3","3","3","3","2","3","2","3","3","3","3","2","3","3","3","3","3","3","4","4","3","2","2","3","2","2","1","4","2","1","0","1","0","0","1","0","1","1","1","-1","0","1","0","1","4","2","3","3","4","3","3","3","2","3","718754642447564800","贾","","","","","","","","","","","","","","","","","","","","","","","","","","","","","","feedback_test","","","","","","","","","",""
"680","","f","psychophysics","55","199008","0.0-7.0-1.0-1.0-0.0-0.23","3","3","3","3","2","3","2","3","3","3","3","2","3","3","3","3","3","3","4","4","3","2","2","3","2","2","1","4","2","1","0","1","0","0","1","0","1","1","1","-1","0","1","0","1","4","2","3","3","4","3","3","3","2","3","718754642447564800","贾","","","","match","","","","","","","","","","","","","","key","f","24.62568656716421","960","536","f","true","match","img/ellipse.png","椭圆","椭圆","ALT1_2","prac_ALT1_2","","","","","","","","","",""
"null","<span style='color:GreenYellow; font-size: 70px;'>正确! </span>","null","html-keyboard-response","56","199509","0.0-7.0-1.0-1.0-0.0-1.23","3","3","3","3","2","3","2","3","3","3","3","2","3","3","3","3","3","3","4","4","3","2","2","3","2","2","1","4","2","1","0","1","0","0","1","0","1","1","1","-1","0","1","0","1","4","2","3","3","4","3","3","3","2","3","718754642447564800","贾","","","","","","","","","","","","","","","","","","","","","","","","","","","","","","feedback_test","","","","","","","","","",""
"750","","f","psychophysics","57","201268","0.0-7.0-1.0-1.0-0.0-0.24","3","3","3","3","2","3","2","3","3","3","3","2","3","3","3","3","3","3","4","4","3","2","2","3","2","2","1","4","2","1","0","1","0","0","1","0","1","1","1","-1","0","1","0","1","4","2","3","3","4","3","3","3","2","3","718754642447564800","贾","","","","match","","","","","","","","","","","","","","key","f","25.245029411764442","960","536","j","false","nonmatch","img/pentagon.png","菱形","五边","ALT1_2","prac_ALT1_2","","","","","","","","","",""
"null","<span style='color:red; font-size: 70px;'>错误! </span>","null","html-keyboard-response","58","201770","0.0-7.0-1.0-1.0-0.0-1.24","3","3","3","3","2","3","2","3","3","3","3","2","3","3","3","3","3","3","4","4","3","2","2","3","2","2","1","4","2","1","0","1","0","0","1","0","1","1","1","-1","0","1","0","1","4","2","3","3","4","3","3","3","2","3","718754642447564800","贾","","","","","","","","","","","","","","","","","","","","","","","","","","","","","","feedback_test","","","","","","","","","",""
"929","","f","psychophysics","59","203701","0.0-7.0-1.0-1.0-0.0-0.25","3","3","3","3","2","3","2","3","3","3","3","2","3","3","3","3","3","3","4","4","3","2","2","3","2","2","1","4","2","1","0","1","0","0","1","0","1","1","1","-1","0","1","0","1","4","2","3","3","4","3","3","3","2","3","718754642447564800","贾","","","","match","","","","","","","","","","","","","","key","f","25.110293333333296","960","536","f","true","match","img/pentagon.png","五边","五边","ALT1_2","prac_ALT1_2","","","","","","","","","",""
"null","<span style='color:GreenYellow; font-size: 70px;'>正确! </span>","null","html-keyboard-response","60","204202","0.0-7.0-1.0-1.0-0.0-1.25","3","3","3","3","2","3","2","3","3","3","3","2","3","3","3","3","3","3","4","4","3","2","2","3","2","2","1","4","2","1","0","1","0","0","1","0","1","1","1","-1","0","1","0","1","4","2","3","3","4","3","3","3","2","3","718754642447564800","贾","","","","","","","","","","","","","","","","","","","","","","","","","","","","","","feedback_test","","","","","","","","","",""
"852","","j","psychophysics","61","206058","0.0-7.0-1.0-1.0-0.0-0.26","3","3","3","3","2","3","2","3","3","3","3","2","3","3","3","3","3","3","4","4","3","2","2","3","2","2","1","4","2","1","0","1","0","0","1","0","1","1","1","-1","0","1","0","1","4","2","3","3","4","3","3","3","2","3","718754642447564800","贾","","","","nonmatch","","","","","","","","","","","","","","key","j","25.38148611111117","960","536","j","true","nonmatch","img/ellipse.png","五边","椭圆","ALT1_2","prac_ALT1_2","","","","","","","","","",""
"null","<span style='color:GreenYellow; font-size: 70px;'>正确! </span>","null","html-keyboard-response","62","206572","0.0-7.0-1.0-1.0-0.0-1.26","3","3","3","3","2","3","2","3","3","3","3","2","3","3","3","3","3","3","4","4","3","2","2","3","2","2","1","4","2","1","0","1","0","0","1","0","1","1","1","-1","0","1","0","1","4","2","3","3","4","3","3","3","2","3","718754642447564800","贾","","","","","","","","","","","","","","","","","","","","","","","","","","","","","","feedback_test","","","","","","","","","",""
"876","","j","psychophysics","63","208463","0.0-7.0-1.0-1.0-0.0-0.27","3","3","3","3","2","3","2","3","3","3","3","2","3","3","3","3","3","3","4","4","3","2","2","3","2","2","1","4","2","1","0","1","0","0","1","0","1","1","1","-1","0","1","0","1","4","2","3","3","4","3","3","3","2","3","718754642447564800","贾","","","","nonmatch","","","","","","","","","","","","","","key","j","24.666173333333184","960","536","j","true","nonmatch","img/pentagon.png","方形","五边","ALT1_2","prac_ALT1_2","","","","","","","","","",""
"null","<span style='color:GreenYellow; font-size: 70px;'>正确! </span>","null","html-keyboard-response","64","208965","0.0-7.0-1.0-1.0-0.0-1.27","3","3","3","3","2","3","2","3","3","3","3","2","3","3","3","3","3","3","4","4","3","2","2","3","2","2","1","4","2","1","0","1","0","0","1","0","1","1","1","-1","0","1","0","1","4","2","3","3","4","3","3","3","2","3","718754642447564800","贾","","","","","","","","","","","","","","","","","","","","","","","","","","","","","","feedback_test","","","","","","","","","",""
"891","","j","psychophysics","65","210870","0.0-7.0-1.0-1.0-0.0-0.28","3","3","3","3","2","3","2","3","3","3","3","2","3","3","3","3","3","3","4","4","3","2","2","3","2","2","1","4","2","1","0","1","0","0","1","0","1","1","1","-1","0","1","0","1","4","2","3","3","4","3","3","3","2","3","718754642447564800","贾","","","","nonmatch","","","","","","","","","","","","","","key","j","25.34221917808244","960","536","j","true","nonmatch","img/diamond.png","五边","菱形","ALT1_2","prac_ALT1_2","","","","","","","","","",""
"null","<span style='color:GreenYellow; font-size: 70px;'>正确! </span>","null","html-keyboard-response","66","211374","0.0-7.0-1.0-1.0-0.0-1.28","3","3","3","3","2","3","2","3","3","3","3","2","3","3","3","3","3","3","4","4","3","2","2","3","2","2","1","4","2","1","0","1","0","0","1","0","1","1","1","-1","0","1","0","1","4","2","3","3","4","3","3","3","2","3","718754642447564800","贾","","","","","","","","","","","","","","","","","","","","","","","","","","","","","","feedback_test","","","","","","","","","",""
"718","","f","psychophysics","67","213103","0.0-7.0-1.0-1.0-0.0-0.29","3","3","3","3","2","3","2","3","3","3","3","2","3","3","3","3","3","3","4","4","3","2","2","3","2","2","1","4","2","1","0","1","0","0","1","0","1","1","1","-1","0","1","0","1","4","2","3","3","4","3","3","3","2","3","718754642447564800","贾","","","","match","","","","","","","","","","","","","","key","f","25.74662121212124","960","536","f","true","match","img/square.png","方形","方形","ALT1_2","prac_ALT1_2","","","","","","","","","",""
"null","<span style='color:GreenYellow; font-size: 70px;'>正确! </span>","null","html-keyboard-response","68","213607","0.0-7.0-1.0-1.0-0.0-1.29","3","3","3","3","2","3","2","3","3","3","3","2","3","3","3","3","3","3","4","4","3","2","2","3","2","2","1","4","2","1","0","1","0","0","1","0","1","1","1","-1","0","1","0","1","4","2","3","3","4","3","3","3","2","3","718754642447564800","贾","","","","","","","","","","","","","","","","","","","","","","","","","","","","","","feedback_test","","","","","","","","","",""
"793","","j","psychophysics","69","215401","0.0-7.0-1.0-1.0-0.0-0.30","3","3","3","3","2","3","2","3","3","3","3","2","3","3","3","3","3","3","4","4","3","2","2","3","2","2","1","4","2","1","0","1","0","0","1","0","1","1","1","-1","0","1","0","1","4","2","3","3","4","3","3","3","2","3","718754642447564800","贾","","","","nonmatch","","","","","","","","","","","","","","key","j","25.734558823529156","960","536","j","true","nonmatch","img/square.png","菱形","方形","ALT1_2","prac_ALT1_2","","","","","","","","","",""
"null","<span style='color:GreenYellow; font-size: 70px;'>正确! </span>","null","html-keyboard-response","70","215904","0.0-7.0-1.0-1.0-0.0-1.30","3","3","3","3","2","3","2","3","3","3","3","2","3","3","3","3","3","3","4","4","3","2","2","3","2","2","1","4","2","1","0","1","0","0","1","0","1","1","1","-1","0","1","0","1","4","2","3","3","4","3","3","3","2","3","718754642447564800","贾","","","","","","","","","","","","","","","","","","","","","","","","","","","","","","feedback_test","","","","","","","","","",""
"814","","f","psychophysics","71","217720","0.0-7.0-1.0-1.0-0.0-0.31","3","3","3","3","2","3","2","3","3","3","3","2","3","3","3","3","3","3","4","4","3","2","2","3","2","2","1","4","2","1","0","1","0","0","1","0","1","1","1","-1","0","1","0","1","4","2","3","3","4","3","3","3","2","3","718754642447564800","贾","","","","match","","","","","","","","","","","","","","key","f","25.2372428571427","960","536","f","true","match","img/ellipse.png","椭圆","椭圆","ALT1_2","prac_ALT1_2","","","","","","","","","",""
"null","<span style='color:GreenYellow; font-size: 70px;'>正确! </span>","null","html-keyboard-response","72","218222","0.0-7.0-1.0-1.0-0.0-1.31","3","3","3","3","2","3","2","3","3","3","3","2","3","3","3","3","3","3","4","4","3","2","2","3","2","2","1","4","2","1","0","1","0","0","1","0","1","1","1","-1","0","1","0","1","4","2","3","3","4","3","3","3","2","3","718754642447564800","贾","","","","","","","","","","","","","","","","","","","","","","","","","","","","","","feedback_test","","","","","","","","","",""
"718","","f","psychophysics","73","219956","0.0-7.0-1.0-1.0-0.0-0.32","3","3","3","3","2","3","2","3","3","3","3","2","3","3","3","3","3","3","4","4","3","2","2","3","2","2","1","4","2","1","0","1","0","0","1","0","1","1","1","-1","0","1","0","1","4","2","3","3","4","3","3","3","2","3","718754642447564800","贾","","","","match","","","","","","","","","","","","","","key","f","25.896938461538564","960","536","j","false","nonmatch","img/diamond.png","方形","菱形","ALT1_2","prac_ALT1_2","","","","","","","","","",""
"null","<span style='color:red; font-size: 70px;'>错误! </span>","null","html-keyboard-response","74","220457","0.0-7.0-1.0-1.0-0.0-1.32","3","3","3","3","2","3","2","3","3","3","3","2","3","3","3","3","3","3","4","4","3","2","2","3","2","2","1","4","2","1","0","1","0","0","1","0","1","1","1","-1","0","1","0","1","4","2","3","3","4","3","3","3","2","3","718754642447564800","贾","","","","","","","","","","","","","","","","","","","","","","","","","","","","","","feedback_test","","","","","","","","","",""
"967","","j","psychophysics","75","222437","0.0-7.0-1.0-1.0-0.0-0.33","3","3","3","3","2","3","2","3","3","3","3","2","3","3","3","3","3","3","4","4","3","2","2","3","2","2","1","4","2","1","0","1","0","0","1","0","1","1","1","-1","0","1","0","1","4","2","3","3","4","3","3","3","2","3","718754642447564800","贾","","","","nonmatch","","","","","","","","","","","","","","key","j","25.324051948052198","960","536","f","false","match","img/diamond.png","菱形","菱形","ALT1_2","prac_ALT1_2","","","","","","","","","",""
"null","<span style='color:red; font-size: 70px;'>错误! </span>","null","html-keyboard-response","76","222940","0.0-7.0-1.0-1.0-0.0-1.33","3","3","3","3","2","3","2","3","3","3","3","2","3","3","3","3","3","3","4","4","3","2","2","3","2","2","1","4","2","1","0","1","0","0","1","0","1","1","1","-1","0","1","0","1","4","2","3","3","4","3","3","3","2","3","718754642447564800","贾","","","","","","","","","","","","","","","","","","","","","","","","","","","","","","feedback_test","","","","","","","","","",""
"839","","j","psychophysics","77","224781","0.0-7.0-1.0-1.0-0.0-0.34","3","3","3","3","2","3","2","3","3","3","3","2","3","3","3","3","3","3","4","4","3","2","2","3","2","2","1","4","2","1","0","1","0","0","1","0","1","1","1","-1","0","1","0","1","4","2","3","3","4","3","3","3","2","3","718754642447564800","贾","","","","nonmatch","","","","","","","","","","","","","","key","j","25.35171830985887","960","536","f","false","match","img/diamond.png","菱形","菱形","ALT1_2","prac_ALT1_2","","","","","","","","","",""
"null","<span style='color:red; font-size: 70px;'>错误! </span>","null","html-keyboard-response","78","225284","0.0-7.0-1.0-1.0-0.0-1.34","3","3","3","3","2","3","2","3","3","3","3","2","3","3","3","3","3","3","4","4","3","2","2","3","2","2","1","4","2","1","0","1","0","0","1","0","1","1","1","-1","0","1","0","1","4","2","3","3","4","3","3","3","2","3","718754642447564800","贾","","","","","","","","","","","","","","","","","","","","","","","","","","","","","","feedback_test","","","","","","","","","",""
"714","","f","psychophysics","79","227015","0.0-7.0-1.0-1.0-0.0-0.35","3","3","3","3","2","3","2","3","3","3","3","2","3","3","3","3","3","3","4","4","3","2","2","3","2","2","1","4","2","1","0","1","0","0","1","0","1","1","1","-1","0","1","0","1","4","2","3","3","4","3","3","3","2","3","718754642447564800","贾","","","","match","","","","","","","","","","","","","","key","f","24.639014492753684","960","536","f","true","match","img/square.png","方形","方形","ALT1_2","prac_ALT1_2","","","","","","","","","",""
"null","<span style='color:GreenYellow; font-size: 70px;'>正确! </span>","null","html-keyboard-response","80","227516","0.0-7.0-1.0-1.0-0.0-1.35","3","3","3","3","2","3","2","3","3","3","3","2","3","3","3","3","3","3","4","4","3","2","2","3","2","2","1","4","2","1","0","1","0","0","1","0","1","1","1","-1","0","1","0","1","4","2","3","3","4","3","3","3","2","3","718754642447564800","贾","","","","","","","","","","","","","","","","","","","","","","","","","","","","","","feedback_test","","","","","","","","","",""
"838","","f","psychophysics","81","229356","0.0-7.0-1.0-1.0-0.0-0.36","3","3","3","3","2","3","2","3","3","3","3","2","3","3","3","3","3","3","4","4","3","2","2","3","2","2","1","4","2","1","0","1","0","0","1","0","1","1","1","-1","0","1","0","1","4","2","3","3","4","3","3","3","2","3","718754642447564800","贾","","","","match","","","","","","","","","","","","","","key","f","24.65447945205482","960","536","f","true","match","img/diamond.png","菱形","菱形","ALT1_2","prac_ALT1_2","","","","","","","","","",""
"null","<span style='color:GreenYellow; font-size: 70px;'>正确! </span>","null","html-keyboard-response","82","229859","0.0-7.0-1.0-1.0-0.0-1.36","3","3","3","3","2","3","2","3","3","3","3","2","3","3","3","3","3","3","4","4","3","2","2","3","2","2","1","4","2","1","0","1","0","0","1","0","1","1","1","-1","0","1","0","1","4","2","3","3","4","3","3","3","2","3","718754642447564800","贾","","","","","","","","","","","","","","","","","","","","","","","","","","","","","","feedback_test","","","","","","","","","",""
"614","","f","psychophysics","83","231481","0.0-7.0-1.0-1.0-0.0-0.37","3","3","3","3","2","3","2","3","3","3","3","2","3","3","3","3","3","3","4","4","3","2","2","3","2","2","1","4","2","1","0","1","0","0","1","0","1","1","1","-1","0","1","0","1","4","2","3","3","4","3","3","3","2","3","718754642447564800","贾","","","","match","","","","","","","","","","","","","","key","f","25.536887096773903","960","536","f","true","match","img/ellipse.png","椭圆","椭圆","ALT1_2","prac_ALT1_2","","","","","","","","","",""
"null","<span style='color:GreenYellow; font-size: 70px;'>正确! </span>","null","html-keyboard-response","84","231985","0.0-7.0-1.0-1.0-0.0-1.37","3","3","3","3","2","3","2","3","3","3","3","2","3","3","3","3","3","3","4","4","3","2","2","3","2","2","1","4","2","1","0","1","0","0","1","0","1","1","1","-1","0","1","0","1","4","2","3","3","4","3","3","3","2","3","718754642447564800","贾","","","","","","","","","","","","","","","","","","","","","","","","","","","","","","feedback_test","","","","","","","","","",""
"659","","f","psychophysics","85","233646","0.0-7.0-1.0-1.0-0.0-0.38","3","3","3","3","2","3","2","3","3","3","3","2","3","3","3","3","3","3","4","4","3","2","2","3","2","2","1","4","2","1","0","1","0","0","1","0","1","1","1","-1","0","1","0","1","4","2","3","3","4","3","3","3","2","3","718754642447564800","贾","","","","match","","","","","","","","","","","","","","key","f","26.074306451613197","960","536","f","true","match","img/square.png","方形","方形","ALT1_2","prac_ALT1_2","","","","","","","","","",""
"null","<span style='color:GreenYellow; font-size: 70px;'>正确! </span>","null","html-keyboard-response","86","234149","0.0-7.0-1.0-1.0-0.0-1.38","3","3","3","3","2","3","2","3","3","3","3","2","3","3","3","3","3","3","4","4","3","2","2","3","2","2","1","4","2","1","0","1","0","0","1","0","1","1","1","-1","0","1","0","1","4","2","3","3","4","3","3","3","2","3","718754642447564800","贾","","","","","","","","","","","","","","","","","","","","","","","","","","","","","","feedback_test","","","","","","","","","",""
"857","","j","psychophysics","87","236008","0.0-7.0-1.0-1.0-0.0-0.39","3","3","3","3","2","3","2","3","3","3","3","2","3","3","3","3","3","3","4","4","3","2","2","3","2","2","1","4","2","1","0","1","0","0","1","0","1","1","1","-1","0","1","0","1","4","2","3","3","4","3","3","3","2","3","718754642447564800","贾","","","","nonmatch","","","","","","","","","","","","","","key","j","25.231597222222465","960","536","f","false","match","img/pentagon.png","五边","五边","ALT1_2","prac_ALT1_2","","","","","","","","","",""
"null","<span style='color:red; font-size: 70px;'>错误! </span>","null","html-keyboard-response","88","236523","0.0-7.0-1.0-1.0-0.0-1.39","3","3","3","3","2","3","2","3","3","3","3","2","3","3","3","3","3","3","4","4","3","2","2","3","2","2","1","4","2","1","0","1","0","0","1","0","1","1","1","-1","0","1","0","1","4","2","3","3","4","3","3","3","2","3","718754642447564800","贾","","","","","","","","","","","","","","","","","","","","","","","","","","","","","","feedback_test","","","","","","","","","",""
"783","","j","psychophysics","89","238320","0.0-7.0-1.0-1.0-0.0-0.40","3","3","3","3","2","3","2","3","3","3","3","2","3","3","3","3","3","3","4","4","3","2","2","3","2","2","1","4","2","1","0","1","0","0","1","0","1","1","1","-1","0","1","0","1","4","2","3","3","4","3","3","3","2","3","718754642447564800","贾","","","","nonmatch","","","","","","","","","","","","","","key","j","25.60259420289852","960","536","j","true","nonmatch","img/pentagon.png","椭圆","五边","ALT1_2","prac_ALT1_2","","","","","","","","","",""
"null","<span style='color:GreenYellow; font-size: 70px;'>正确! </span>","null","html-keyboard-response","90","238822","0.0-7.0-1.0-1.0-0.0-1.40","3","3","3","3","2","3","2","3","3","3","3","2","3","3","3","3","3","3","4","4","3","2","2","3","2","2","1","4","2","1","0","1","0","0","1","0","1","1","1","-1","0","1","0","1","4","2","3","3","4","3","3","3","2","3","718754642447564800","贾","","","","","","","","","","","","","","","","","","","","","","","","","","","","","","feedback_test","","","","","","","","","",""
"697","","f","psychophysics","91","240525","0.0-7.0-1.0-1.0-0.0-0.41","3","3","3","3","2","3","2","3","3","3","3","2","3","3","3","3","3","3","4","4","3","2","2","3","2","2","1","4","2","1","0","1","0","0","1","0","1","1","1","-1","0","1","0","1","4","2","3","3","4","3","3","3","2","3","718754642447564800","贾","","","","match","","","","","","","","","","","","","","key","f","24.999303030302997","960","536","f","true","match","img/ellipse.png","椭圆","椭圆","ALT1_2","prac_ALT1_2","","","","","","","","","",""
"null","<span style='color:GreenYellow; font-size: 70px;'>正确! </span>","null","html-keyboard-response","92","241026","0.0-7.0-1.0-1.0-0.0-1.41","3","3","3","3","2","3","2","3","3","3","3","2","3","3","3","3","3","3","4","4","3","2","2","3","2","2","1","4","2","1","0","1","0","0","1","0","1","1","1","-1","0","1","0","1","4","2","3","3","4","3","3","3","2","3","718754642447564800","贾","","","","","","","","","","","","","","","","","","","","","","","","","","","","","","feedback_test","","","","","","","","","",""
"820","","j","psychophysics","93","242848","0.0-7.0-1.0-1.0-0.0-0.42","3","3","3","3","2","3","2","3","3","3","3","2","3","3","3","3","3","3","4","4","3","2","2","3","2","2","1","4","2","1","0","1","0","0","1","0","1","1","1","-1","0","1","0","1","4","2","3","3","4","3","3","3","2","3","718754642447564800","贾","","","","nonmatch","","","","","","","","","","","","","","key","j","24.999805555555618","960","536","j","true","nonmatch","img/square.png","椭圆","方形","ALT1_2","prac_ALT1_2","","","","","","","","","",""
"null","<span style='color:GreenYellow; font-size: 70px;'>正确! </span>","null","html-keyboard-response","94","243350","0.0-7.0-1.0-1.0-0.0-1.42","3","3","3","3","2","3","2","3","3","3","3","2","3","3","3","3","3","3","4","4","3","2","2","3","2","2","1","4","2","1","0","1","0","0","1","0","1","1","1","-1","0","1","0","1","4","2","3","3","4","3","3","3","2","3","718754642447564800","贾","","","","","","","","","","","","","","","","","","","","","","","","","","","","","","feedback_test","","","","","","","","","",""
"835","","f","psychophysics","95","245187","0.0-7.0-1.0-1.0-0.0-0.43","3","3","3","3","2","3","2","3","3","3","3","2","3","3","3","3","3","3","4","4","3","2","2","3","2","2","1","4","2","1","0","1","0","0","1","0","1","1","1","-1","0","1","0","1","4","2","3","3","4","3","3","3","2","3","718754642447564800","贾","","","","match","","","","","","","","","","","","","","key","f","25.23173611111108","960","536","j","false","nonmatch","img/square.png","五边","方形","ALT1_2","prac_ALT1_2","","","","","","","","","",""
"null","<span style='color:red; font-size: 70px;'>错误! </span>","null","html-keyboard-response","96","245692","0.0-7.0-1.0-1.0-0.0-1.43","3","3","3","3","2","3","2","3","3","3","3","2","3","3","3","3","3","3","4","4","3","2","2","3","2","2","1","4","2","1","0","1","0","0","1","0","1","1","1","-1","0","1","0","1","4","2","3","3","4","3","3","3","2","3","718754642447564800","贾","","","","","","","","","","","","","","","","","","","","","","","","","","","","","","feedback_test","","","","","","","","","",""
"798","","f","psychophysics","97","247492","0.0-7.0-1.0-1.0-0.0-0.44","3","3","3","3","2","3","2","3","3","3","3","2","3","3","3","3","3","3","4","4","3","2","2","3","2","2","1","4","2","1","0","1","0","0","1","0","1","1","1","-1","0","1","0","1","4","2","3","3","4","3","3","3","2","3","718754642447564800","贾","","","","match","","","","","","","","","","","","","","key","f","24.536819444444617","960","536","f","true","match","img/pentagon.png","五边","五边","ALT1_2","prac_ALT1_2","","","","","","","","","",""
"null","<span style='color:GreenYellow; font-size: 70px;'>正确! </span>","null","html-keyboard-response","98","247994","0.0-7.0-1.0-1.0-0.0-1.44","3","3","3","3","2","3","2","3","3","3","3","2","3","3","3","3","3","3","4","4","3","2","2","3","2","2","1","4","2","1","0","1","0","0","1","0","1","1","1","-1","0","1","0","1","4","2","3","3","4","3","3","3","2","3","718754642447564800","贾","","","","","","","","","","","","","","","","","","","","","","","","","","","","","","feedback_test","","","","","","","","","",""
"750","","f","psychophysics","99","249746","0.0-7.0-1.0-1.0-0.0-0.45","3","3","3","3","2","3","2","3","3","3","3","2","3","3","3","3","3","3","4","4","3","2","2","3","2","2","1","4","2","1","0","1","0","0","1","0","1","1","1","-1","0","1","0","1","4","2","3","3","4","3","3","3","2","3","718754642447564800","贾","","","","match","","","","","","","","","","","","","","key","f","24.177774647887368","960","536","j","false","nonmatch","img/ellipse.png","菱形","椭圆","ALT1_2","prac_ALT1_2","","","","","","","","","",""
"null","<span style='color:red; font-size: 70px;'>错误! </span>","null","html-keyboard-response","100","250247","0.0-7.0-1.0-1.0-0.0-1.45","3","3","3","3","2","3","2","3","3","3","3","2","3","3","3","3","3","3","4","4","3","2","2","3","2","2","1","4","2","1","0","1","0","0","1","0","1","1","1","-1","0","1","0","1","4","2","3","3","4","3","3","3","2","3","718754642447564800","贾","","","","","","","","","","","","","","","","","","","","","","","","","","","","","","feedback_test","","","","","","","","","",""
"844","","j","psychophysics","101","252094","0.0-7.0-1.0-1.0-0.0-0.46","3","3","3","3","2","3","2","3","3","3","3","2","3","3","3","3","3","3","4","4","3","2","2","3","2","2","1","4","2","1","0","1","0","0","1","0","1","1","1","-1","0","1","0","1","4","2","3","3","4","3","3","3","2","3","718754642447564800","贾","","","","nonmatch","","","","","","","","","","","","","","key","j","25.146722222222","960","536","j","true","nonmatch","img/ellipse.png","方形","椭圆","ALT1_2","prac_ALT1_2","","","","","","","","","",""
"null","<span style='color:GreenYellow; font-size: 70px;'>正确! </span>","null","html-keyboard-response","102","252597","0.0-7.0-1.0-1.0-0.0-1.46","3","3","3","3","2","3","2","3","3","3","3","2","3","3","3","3","3","3","4","4","3","2","2","3","2","2","1","4","2","1","0","1","0","0","1","0","1","1","1","-1","0","1","0","1","4","2","3","3","4","3","3","3","2","3","718754642447564800","贾","","","","","","","","","","","","","","","","","","","","","","","","","","","","","","feedback_test","","","","","","","","","",""
"745","","f","psychophysics","103","254348","0.0-7.0-1.0-1.0-0.0-0.47","3","3","3","3","2","3","2","3","3","3","3","2","3","3","3","3","3","3","4","4","3","2","2","3","2","2","1","4","2","1","0","1","0","0","1","0","1","1","1","-1","0","1","0","1","4","2","3","3","4","3","3","3","2","3","718754642447564800","贾","","","","match","","","","","","","","","","","","","","key","f","26.009318181818482","960","536","j","false","nonmatch","img/diamond.png","椭圆","菱形","ALT1_2","prac_ALT1_2","","","","","","","","","",""
"null","<span style='color:red; font-size: 70px;'>错误! </span>","null","html-keyboard-response","104","254853","0.0-7.0-1.0-1.0-0.0-1.47","3","3","3","3","2","3","2","3","3","3","3","2","3","3","3","3","3","3","4","4","3","2","2","3","2","2","1","4","2","1","0","1","0","0","1","0","1","1","1","-1","0","1","0","1","4","2","3","3","4","3","3","3","2","3","718754642447564800","贾","","","","","","","","","","","","","","","","","","","","","","","","","","","","","","feedback_test","","","","","","","","","",""
"5445","<style>.context{color:white; font-size: 35px; line-height:40px}</style>                          <div><p class='context'>您正确回答了69% 的试次。</p><p class='context'>您的平均反应时为830毫秒。</p><p class='context'>恭喜您完成练习。按空格键进入正式实验。</p><p class='footer' style='font-size: 35px; line-height:40px;'>请在进入正式实验实验之前将您的<span style='color: lightgreen;'>食指</span>放在电脑键盘的相应键位上进行按键。</p>"," ","html-keyboard-response","105","260300","0.0-7.0-1.0-2.0","3","3","3","3","2","3","2","3","3","3","3","2","3","3","3","3","3","3","4","4","3","2","2","3","2","2","1","4","2","1","0","1","0","0","1","0","1","1","1","-1","0","1","0","1","4","2","3","3","4","3","3","3","2","3","718754642447564800","贾","","","","","","","","","","","","","","","","","","","","","","","","","","","","","","","","","","","","","","","",""
"1440","
  <p>请您将手指放在按键上，准备进入正式的匹配任务。</p>
  <p> <div style = ""color: green""><按空格键进入下一阶段的匹配任务></div></p>
  "," ","html-keyboard-response","106","261745","0.0-7.0-1.0-3.0","3","3","3","3","2","3","2","3","3","3","3","2","3","3","3","3","3","3","4","4","3","2","2","3","2","2","1","4","2","1","0","1","0","0","1","0","1","1","1","-1","0","1","0","1","4","2","3","3","4","3","3","3","2","3","718754642447564800","贾","","","","","","","","","","","","","","","","","","","","","","","","","","","","","","","","","","","","","","","",""
"807","","j","psychophysics","107","263561","0.0-7.0-1.0-4.0-0.0-0.0","3","3","3","3","2","3","2","3","3","3","3","2","3","3","3","3","3","3","4","4","3","2","2","3","2","2","1","4","2","1","0","1","0","0","1","0","1","1","1","-1","0","1","0","1","4","2","3","3","4","3","3","3","2","3","718754642447564800","贾","","","","nonmatch","","","","","","","","","","","","","","key","j","25.844115942029074","960","536","j","true","nonmatch","img/ellipse.png","五边","椭圆","ALT1","formal_ALT1_2","","","","","","","","","",""
"null","<span style='color:GreenYellow; font-size: 70px;'>正确! </span>","null","html-keyboard-response","108","264063","0.0-7.0-1.0-4.0-0.0-1.0","3","3","3","3","2","3","2","3","3","3","3","2","3","3","3","3","3","3","4","4","3","2","2","3","2","2","1","4","2","1","0","1","0","0","1","0","1","1","1","-1","0","1","0","1","4","2","3","3","4","3","3","3","2","3","718754642447564800","贾","","","","","","","","","","","","","","","","","","","","","","","","","","","","","","feedback_test","","","","","","","","","",""
"759","","f","psychophysics","109","265825","0.0-7.0-1.0-4.0-0.0-0.1","3","3","3","3","2","3","2","3","3","3","3","2","3","3","3","3","3","3","4","4","3","2","2","3","2","2","1","4","2","1","0","1","0","0","1","0","1","1","1","-1","0","1","0","1","4","2","3","3","4","3","3","3","2","3","718754642447564800","贾","","","","match","","","","","","","","","","","","","","key","f","24.878318840579595","960","536","f","true","match","img/diamond.png","菱形","菱形","ALT1","formal_ALT1_2","","","","","","","","","",""
"null","<span style='color:GreenYellow; font-size: 70px;'>正确! </span>","null","html-keyboard-response","110","266326","0.0-7.0-1.0-4.0-0.0-1.1","3","3","3","3","2","3","2","3","3","3","3","2","3","3","3","3","3","3","4","4","3","2","2","3","2","2","1","4","2","1","0","1","0","0","1","0","1","1","1","-1","0","1","0","1","4","2","3","3","4","3","3","3","2","3","718754642447564800","贾","","","","","","","","","","","","","","","","","","","","","","","","","","","","","","feedback_test","","","","","","","","","",""
"922","","f","psychophysics","111","268258","0.0-7.0-1.0-4.0-0.0-0.2","3","3","3","3","2","3","2","3","3","3","3","2","3","3","3","3","3","3","4","4","3","2","2","3","2","2","1","4","2","1","0","1","0","0","1","0","1","1","1","-1","0","1","0","1","4","2","3","3","4","3","3","3","2","3","718754642447564800","贾","","","","match","","","","","","","","","","","","","","key","f","25.10955999999928","960","536","f","true","match","img/pentagon.png","五边","五边","ALT1","formal_ALT1_2","","","","","","","","","",""
"null","<span style='color:GreenYellow; font-size: 70px;'>正确! </span>","null","html-keyboard-response","112","268761","0.0-7.0-1.0-4.0-0.0-1.2","3","3","3","3","2","3","2","3","3","3","3","2","3","3","3","3","3","3","4","4","3","2","2","3","2","2","1","4","2","1","0","1","0","0","1","0","1","1","1","-1","0","1","0","1","4","2","3","3","4","3","3","3","2","3","718754642447564800","贾","","","","","","","","","","","","","","","","","","","","","","","","","","","","","","feedback_test","","","","","","","","","",""
"749","","f","psychophysics","113","270516","0.0-7.0-1.0-4.0-0.0-0.3","3","3","3","3","2","3","2","3","3","3","3","2","3","3","3","3","3","3","4","4","3","2","2","3","2","2","1","4","2","1","0","1","0","0","1","0","1","1","1","-1","0","1","0","1","4","2","3","3","4","3","3","3","2","3","718754642447564800","贾","","","","match","","","","","","","","","","","","","","key","f","24.524500000000366","960","536","f","true","match","img/pentagon.png","五边","五边","ALT1","formal_ALT1_2","","","","","","","","","",""
"null","<span style='color:GreenYellow; font-size: 70px;'>正确! </span>","null","html-keyboard-response","114","271018","0.0-7.0-1.0-4.0-0.0-1.3","3","3","3","3","2","3","2","3","3","3","3","2","3","3","3","3","3","3","4","4","3","2","2","3","2","2","1","4","2","1","0","1","0","0","1","0","1","1","1","-1","0","1","0","1","4","2","3","3","4","3","3","3","2","3","718754642447564800","贾","","","","","","","","","","","","","","","","","","","","","","","","","","","","","","feedback_test","","","","","","","","","",""
"673","","f","psychophysics","115","272693","0.0-7.0-1.0-4.0-0.0-0.4","3","3","3","3","2","3","2","3","3","3","3","2","3","3","3","3","3","3","4","4","3","2","2","3","2","2","1","4","2","1","0","1","0","0","1","0","1","1","1","-1","0","1","0","1","4","2","3","3","4","3","3","3","2","3","718754642447564800","贾","","","","match","","","","","","","","","","","","","","key","f","25.126076923076134","960","536","j","false","nonmatch","img/pentagon.png","菱形","五边","ALT1","formal_ALT1_2","","","","","","","","","",""
"null","<span style='color:red; font-size: 70px;'>错误! </span>","null","html-keyboard-response","116","273195","0.0-7.0-1.0-4.0-0.0-1.4","3","3","3","3","2","3","2","3","3","3","3","2","3","3","3","3","3","3","4","4","3","2","2","3","2","2","1","4","2","1","0","1","0","0","1","0","1","1","1","-1","0","1","0","1","4","2","3","3","4","3","3","3","2","3","718754642447564800","贾","","","","","","","","","","","","","","","","","","","","","","","","","","","","","","feedback_test","","","","","","","","","",""
"655","","f","psychophysics","117","274853","0.0-7.0-1.0-4.0-0.0-0.5","3","3","3","3","2","3","2","3","3","3","3","2","3","3","3","3","3","3","4","4","3","2","2","3","2","2","1","4","2","1","0","1","0","0","1","0","1","1","1","-1","0","1","0","1","4","2","3","3","4","3","3","3","2","3","718754642447564800","贾","","","","match","","","","","","","","","","","","","","key","f","25.124969230769562","960","536","f","true","match","img/ellipse.png","椭圆","椭圆","ALT1","formal_ALT1_2","","","","","","","","","",""
"null","<span style='color:GreenYellow; font-size: 70px;'>正确! </span>","null","html-keyboard-response","118","275358","0.0-7.0-1.0-4.0-0.0-1.5","3","3","3","3","2","3","2","3","3","3","3","2","3","3","3","3","3","3","4","4","3","2","2","3","2","2","1","4","2","1","0","1","0","0","1","0","1","1","1","-1","0","1","0","1","4","2","3","3","4","3","3","3","2","3","718754642447564800","贾","","","","","","","","","","","","","","","","","","","","","","","","","","","","","","feedback_test","","","","","","","","","",""
"959","","j","psychophysics","119","277319","0.0-7.0-1.0-4.0-0.0-0.6","3","3","3","3","2","3","2","3","3","3","3","2","3","3","3","3","3","3","4","4","3","2","2","3","2","2","1","4","2","1","0","1","0","0","1","0","1","1","1","-1","0","1","0","1","4","2","3","3","4","3","3","3","2","3","718754642447564800","贾","","","","nonmatch","","","","","","","","","","","","","","key","j","24.784205128205194","960","536","j","true","nonmatch","img/pentagon.png","方形","五边","ALT1","formal_ALT1_2","","","","","","","","","",""
"null","<span style='color:GreenYellow; font-size: 70px;'>正确! </span>","null","html-keyboard-response","120","277820","0.0-7.0-1.0-4.0-0.0-1.6","3","3","3","3","2","3","2","3","3","3","3","2","3","3","3","3","3","3","4","4","3","2","2","3","2","2","1","4","2","1","0","1","0","0","1","0","1","1","1","-1","0","1","0","1","4","2","3","3","4","3","3","3","2","3","718754642447564800","贾","","","","","","","","","","","","","","","","","","","","","","","","","","","","","","feedback_test","","","","","","","","","",""
"763","","f","psychophysics","121","279592","0.0-7.0-1.0-4.0-0.0-0.7","3","3","3","3","2","3","2","3","3","3","3","2","3","3","3","3","3","3","4","4","3","2","2","3","2","2","1","4","2","1","0","1","0","0","1","0","1","1","1","-1","0","1","0","1","4","2","3","3","4","3","3","3","2","3","718754642447564800","贾","","","","match","","","","","","","","","","","","","","key","f","25.48685294117604","960","536","f","true","match","img/diamond.png","菱形","菱形","ALT1","formal_ALT1_2","","","","","","","","","",""
"null","<span style='color:GreenYellow; font-size: 70px;'>正确! </span>","null","html-keyboard-response","122","280093","0.0-7.0-1.0-4.0-0.0-1.7","3","3","3","3","2","3","2","3","3","3","3","2","3","3","3","3","3","3","4","4","3","2","2","3","2","2","1","4","2","1","0","1","0","0","1","0","1","1","1","-1","0","1","0","1","4","2","3","3","4","3","3","3","2","3","718754642447564800","贾","","","","","","","","","","","","","","","","","","","","","","","","","","","","","","feedback_test","","","","","","","","","",""
"709","","f","psychophysics","123","281805","0.0-7.0-1.0-4.0-0.0-0.8","3","3","3","3","2","3","2","3","3","3","3","2","3","3","3","3","3","3","4","4","3","2","2","3","2","2","1","4","2","1","0","1","0","0","1","0","1","1","1","-1","0","1","0","1","4","2","3","3","4","3","3","3","2","3","718754642447564800","贾","","","","match","","","","","","","","","","","","","","key","f","25.6393230769237","960","536","f","true","match","img/square.png","方形","方形","ALT1","formal_ALT1_2","","","","","","","","","",""
"null","<span style='color:GreenYellow; font-size: 70px;'>正确! </span>","null","html-keyboard-response","124","282308","0.0-7.0-1.0-4.0-0.0-1.8","3","3","3","3","2","3","2","3","3","3","3","2","3","3","3","3","3","3","4","4","3","2","2","3","2","2","1","4","2","1","0","1","0","0","1","0","1","1","1","-1","0","1","0","1","4","2","3","3","4","3","3","3","2","3","718754642447564800","贾","","","","","","","","","","","","","","","","","","","","","","","","","","","","","","feedback_test","","","","","","","","","",""
"886","","j","psychophysics","125","284196","0.0-7.0-1.0-4.0-0.0-0.9","3","3","3","3","2","3","2","3","3","3","3","2","3","3","3","3","3","3","4","4","3","2","2","3","2","2","1","4","2","1","0","1","0","0","1","0","1","1","1","-1","0","1","0","1","4","2","3","3","4","3","3","3","2","3","718754642447564800","贾","","","","nonmatch","","","","","","","","","","","","","","key","j","25.22394594594575","960","536","j","true","nonmatch","img/diamond.png","五边","菱形","ALT1","formal_ALT1_2","","","","","","","","","",""
"null","<span style='color:GreenYellow; font-size: 70px;'>正确! </span>","null","html-keyboard-response","126","284698","0.0-7.0-1.0-4.0-0.0-1.9","3","3","3","3","2","3","2","3","3","3","3","2","3","3","3","3","3","3","4","4","3","2","2","3","2","2","1","4","2","1","0","1","0","0","1","0","1","1","1","-1","0","1","0","1","4","2","3","3","4","3","3","3","2","3","718754642447564800","贾","","","","","","","","","","","","","","","","","","","","","","","","","","","","","","feedback_test","","","","","","","","","",""
"617","","f","psychophysics","127","286318","0.0-7.0-1.0-4.0-0.0-0.10","3","3","3","3","2","3","2","3","3","3","3","2","3","3","3","3","3","3","4","4","3","2","2","3","2","2","1","4","2","1","0","1","0","0","1","0","1","1","1","-1","0","1","0","1","4","2","3","3","4","3","3","3","2","3","718754642447564800","贾","","","","match","","","","","","","","","","","","","","key","f","25.683524590164048","960","536","f","true","match","img/square.png","方形","方形","ALT1","formal_ALT1_2","","","","","","","","","",""
"null","<span style='color:GreenYellow; font-size: 70px;'>正确! </span>","null","html-keyboard-response","128","286820","0.0-7.0-1.0-4.0-0.0-1.10","3","3","3","3","2","3","2","3","3","3","3","2","3","3","3","3","3","3","4","4","3","2","2","3","2","2","1","4","2","1","0","1","0","0","1","0","1","1","1","-1","0","1","0","1","4","2","3","3","4","3","3","3","2","3","718754642447564800","贾","","","","","","","","","","","","","","","","","","","","","","","","","","","","","","feedback_test","","","","","","","","","",""
"662","","f","psychophysics","129","288485","0.0-7.0-1.0-4.0-0.0-0.11","3","3","3","3","2","3","2","3","3","3","3","2","3","3","3","3","3","3","4","4","3","2","2","3","2","2","1","4","2","1","0","1","0","0","1","0","1","1","1","-1","0","1","0","1","4","2","3","3","4","3","3","3","2","3","718754642447564800","贾","","","","match","","","","","","","","","","","","","","key","f","24.496045454545477","960","536","j","false","nonmatch","img/diamond.png","方形","菱形","ALT1","formal_ALT1_2","","","","","","","","","",""
"null","<span style='color:red; font-size: 70px;'>错误! </span>","null","html-keyboard-response","130","288986","0.0-7.0-1.0-4.0-0.0-1.11","3","3","3","3","2","3","2","3","3","3","3","2","3","3","3","3","3","3","4","4","3","2","2","3","2","2","1","4","2","1","0","1","0","0","1","0","1","1","1","-1","0","1","0","1","4","2","3","3","4","3","3","3","2","3","718754642447564800","贾","","","","","","","","","","","","","","","","","","","","","","","","","","","","","","feedback_test","","","","","","","","","",""
"700","","f","psychophysics","131","290689","0.0-7.0-1.0-4.0-0.0-0.12","3","3","3","3","2","3","2","3","3","3","3","2","3","3","3","3","3","3","4","4","3","2","2","3","2","2","1","4","2","1","0","1","0","0","1","0","1","1","1","-1","0","1","0","1","4","2","3","3","4","3","3","3","2","3","718754642447564800","贾","","","","match","","","","","","","","","","","","","","key","f","24.509367647058646","960","536","f","true","match","img/ellipse.png","椭圆","椭圆","ALT1","formal_ALT1_2","","","","","","","","","",""
"null","<span style='color:GreenYellow; font-size: 70px;'>正确! </span>","null","html-keyboard-response","132","291190","0.0-7.0-1.0-4.0-0.0-1.12","3","3","3","3","2","3","2","3","3","3","3","2","3","3","3","3","3","3","4","4","3","2","2","3","2","2","1","4","2","1","0","1","0","0","1","0","1","1","1","-1","0","1","0","1","4","2","3","3","4","3","3","3","2","3","718754642447564800","贾","","","","","","","","","","","","","","","","","","","","","","","","","","","","","","feedback_test","","","","","","","","","",""
"709","","f","psychophysics","133","292901","0.0-7.0-1.0-4.0-0.0-0.13","3","3","3","3","2","3","2","3","3","3","3","2","3","3","3","3","3","3","4","4","3","2","2","3","2","2","1","4","2","1","0","1","0","0","1","0","1","1","1","-1","0","1","0","1","4","2","3","3","4","3","3","3","2","3","718754642447564800","贾","","","","match","","","","","","","","","","","","","","key","f","25.25193939393891","960","536","f","true","match","img/square.png","方形","方形","ALT1","formal_ALT1_2","","","","","","","","","",""
"null","<span style='color:GreenYellow; font-size: 70px;'>正确! </span>","null","html-keyboard-response","134","293403","0.0-7.0-1.0-4.0-0.0-1.13","3","3","3","3","2","3","2","3","3","3","3","2","3","3","3","3","3","3","4","4","3","2","2","3","2","2","1","4","2","1","0","1","0","0","1","0","1","1","1","-1","0","1","0","1","4","2","3","3","4","3","3","3","2","3","718754642447564800","贾","","","","","","","","","","","","","","","","","","","","","","","","","","","","","","feedback_test","","","","","","","","","",""
"861","","j","psychophysics","135","295279","0.0-7.0-1.0-4.0-0.0-0.14","3","3","3","3","2","3","2","3","3","3","3","2","3","3","3","3","3","3","4","4","3","2","2","3","2","2","1","4","2","1","0","1","0","0","1","0","1","1","1","-1","0","1","0","1","4","2","3","3","4","3","3","3","2","3","718754642447564800","贾","","","","nonmatch","","","","","","","","","","","","","","key","j","25.46230555555505","960","536","j","true","nonmatch","img/square.png","五边","方形","ALT1","formal_ALT1_2","","","","","","","","","",""
"null","<span style='color:GreenYellow; font-size: 70px;'>正确! </span>","null","html-keyboard-response","136","295782","0.0-7.0-1.0-4.0-0.0-1.14","3","3","3","3","2","3","2","3","3","3","3","2","3","3","3","3","3","3","4","4","3","2","2","3","2","2","1","4","2","1","0","1","0","0","1","0","1","1","1","-1","0","1","0","1","4","2","3","3","4","3","3","3","2","3","718754642447564800","贾","","","","","","","","","","","","","","","","","","","","","","","","","","","","","","feedback_test","","","","","","","","","",""
"650","","f","psychophysics","137","297443","0.0-7.0-1.0-4.0-0.0-0.15","3","3","3","3","2","3","2","3","3","3","3","2","3","3","3","3","3","3","4","4","3","2","2","3","2","2","1","4","2","1","0","1","0","0","1","0","1","1","1","-1","0","1","0","1","4","2","3","3","4","3","3","3","2","3","718754642447564800","贾","","","","match","","","","","","","","","","","","","","key","f","25.6613650793655","960","536","f","true","match","img/ellipse.png","椭圆","椭圆","ALT1","formal_ALT1_2","","","","","","","","","",""
"null","<span style='color:GreenYellow; font-size: 70px;'>正确! </span>","null","html-keyboard-response","138","297945","0.0-7.0-1.0-4.0-0.0-1.15","3","3","3","3","2","3","2","3","3","3","3","2","3","3","3","3","3","3","4","4","3","2","2","3","2","2","1","4","2","1","0","1","0","0","1","0","1","1","1","-1","0","1","0","1","4","2","3","3","4","3","3","3","2","3","718754642447564800","贾","","","","","","","","","","","","","","","","","","","","","","","","","","","","","","feedback_test","","","","","","","","","",""
"778","","j","psychophysics","139","299726","0.0-7.0-1.0-4.0-0.0-0.16","3","3","3","3","2","3","2","3","3","3","3","2","3","3","3","3","3","3","4","4","3","2","2","3","2","2","1","4","2","1","0","1","0","0","1","0","1","1","1","-1","0","1","0","1","4","2","3","3","4","3","3","3","2","3","718754642447564800","贾","","","","nonmatch","","","","","","","","","","","","","","key","j","25.00218571428642","960","536","j","true","nonmatch","img/diamond.png","椭圆","菱形","ALT1","formal_ALT1_2","","","","","","","","","",""
"null","<span style='color:GreenYellow; font-size: 70px;'>正确! </span>","null","html-keyboard-response","140","300229","0.0-7.0-1.0-4.0-0.0-1.16","3","3","3","3","2","3","2","3","3","3","3","2","3","3","3","3","3","3","4","4","3","2","2","3","2","2","1","4","2","1","0","1","0","0","1","0","1","1","1","-1","0","1","0","1","4","2","3","3","4","3","3","3","2","3","718754642447564800","贾","","","","","","","","","","","","","","","","","","","","","","","","","","","","","","feedback_test","","","","","","","","","",""
"882","","j","psychophysics","141","302113","0.0-7.0-1.0-4.0-0.0-0.17","3","3","3","3","2","3","2","3","3","3","3","2","3","3","3","3","3","3","4","4","3","2","2","3","2","2","1","4","2","1","0","1","0","0","1","0","1","1","1","-1","0","1","0","1","4","2","3","3","4","3","3","3","2","3","718754642447564800","贾","","","","nonmatch","","","","","","","","","","","","","","key","j","24.443359999999714","960","536","j","true","nonmatch","img/ellipse.png","菱形","椭圆","ALT1","formal_ALT1_2","","","","","","","","","",""
"null","<span style='color:GreenYellow; font-size: 70px;'>正确! </span>","null","html-keyboard-response","142","302615","0.0-7.0-1.0-4.0-0.0-1.17","3","3","3","3","2","3","2","3","3","3","3","2","3","3","3","3","3","3","4","4","3","2","2","3","2","2","1","4","2","1","0","1","0","0","1","0","1","1","1","-1","0","1","0","1","4","2","3","3","4","3","3","3","2","3","718754642447564800","贾","","","","","","","","","","","","","","","","","","","","","","","","","","","","","","feedback_test","","","","","","","","","",""
"742","","f","psychophysics","143","304359","0.0-7.0-1.0-4.0-0.0-0.18","3","3","3","3","2","3","2","3","3","3","3","2","3","3","3","3","3","3","4","4","3","2","2","3","2","2","1","4","2","1","0","1","0","0","1","0","1","1","1","-1","0","1","0","1","4","2","3","3","4","3","3","3","2","3","718754642447564800","贾","","","","match","","","","","","","","","","","","","","key","f","24.63766666666682","960","536","f","true","match","img/pentagon.png","五边","五边","ALT1","formal_ALT1_2","","","","","","","","","",""
"null","<span style='color:GreenYellow; font-size: 70px;'>正确! </span>","null","html-keyboard-response","144","304861","0.0-7.0-1.0-4.0-0.0-1.18","3","3","3","3","2","3","2","3","3","3","3","2","3","3","3","3","3","3","4","4","3","2","2","3","2","2","1","4","2","1","0","1","0","0","1","0","1","1","1","-1","0","1","0","1","4","2","3","3","4","3","3","3","2","3","718754642447564800","贾","","","","","","","","","","","","","","","","","","","","","","","","","","","","","","feedback_test","","","","","","","","","",""
"790","","j","psychophysics","145","306670","0.0-7.0-1.0-4.0-0.0-0.19","3","3","3","3","2","3","2","3","3","3","3","2","3","3","3","3","3","3","4","4","3","2","2","3","2","2","1","4","2","1","0","1","0","0","1","0","1","1","1","-1","0","1","0","1","4","2","3","3","4","3","3","3","2","3","718754642447564800","贾","","","","nonmatch","","","","","","","","","","","","","","key","j","24.768111111111164","960","536","j","true","nonmatch","img/square.png","菱形","方形","ALT1","formal_ALT1_2","","","","","","","","","",""
"null","<span style='color:GreenYellow; font-size: 70px;'>正确! </span>","null","html-keyboard-response","146","307172","0.0-7.0-1.0-4.0-0.0-1.19","3","3","3","3","2","3","2","3","3","3","3","2","3","3","3","3","3","3","4","4","3","2","2","3","2","2","1","4","2","1","0","1","0","0","1","0","1","1","1","-1","0","1","0","1","4","2","3","3","4","3","3","3","2","3","718754642447564800","贾","","","","","","","","","","","","","","","","","","","","","","","","","","","","","","feedback_test","","","","","","","","","",""
"824","","j","psychophysics","147","308997","0.0-7.0-1.0-4.0-0.0-0.20","3","3","3","3","2","3","2","3","3","3","3","2","3","3","3","3","3","3","4","4","3","2","2","3","2","2","1","4","2","1","0","1","0","0","1","0","1","1","1","-1","0","1","0","1","4","2","3","3","4","3","3","3","2","3","718754642447564800","贾","","","","nonmatch","","","","","","","","","","","","","","key","j","24.65702739726012","960","536","j","true","nonmatch","img/pentagon.png","椭圆","五边","ALT1","formal_ALT1_2","","","","","","","","","",""
"null","<span style='color:GreenYellow; font-size: 70px;'>正确! </span>","null","html-keyboard-response","148","309500","0.0-7.0-1.0-4.0-0.0-1.20","3","3","3","3","2","3","2","3","3","3","3","2","3","3","3","3","3","3","4","4","3","2","2","3","2","2","1","4","2","1","0","1","0","0","1","0","1","1","1","-1","0","1","0","1","4","2","3","3","4","3","3","3","2","3","718754642447564800","贾","","","","","","","","","","","","","","","","","","","","","","","","","","","","","","feedback_test","","","","","","","","","",""
"890","","j","psychophysics","149","311392","0.0-7.0-1.0-4.0-0.0-0.21","3","3","3","3","2","3","2","3","3","3","3","2","3","3","3","3","3","3","4","4","3","2","2","3","2","2","1","4","2","1","0","1","0","0","1","0","1","1","1","-1","0","1","0","1","4","2","3","3","4","3","3","3","2","3","718754642447564800","贾","","","","nonmatch","","","","","","","","","","","","","","key","j","25.34175342465719","960","536","j","true","nonmatch","img/square.png","椭圆","方形","ALT1","formal_ALT1_2","","","","","","","","","",""
"null","<span style='color:GreenYellow; font-size: 70px;'>正确! </span>","null","html-keyboard-response","150","311894","0.0-7.0-1.0-4.0-0.0-1.21","3","3","3","3","2","3","2","3","3","3","3","2","3","3","3","3","3","3","4","4","3","2","2","3","2","2","1","4","2","1","0","1","0","0","1","0","1","1","1","-1","0","1","0","1","4","2","3","3","4","3","3","3","2","3","718754642447564800","贾","","","","","","","","","","","","","","","","","","","","","","","","","","","","","","feedback_test","","","","","","","","","",""
"840","","f","psychophysics","151","313742","0.0-7.0-1.0-4.0-0.0-0.22","3","3","3","3","2","3","2","3","3","3","3","2","3","3","3","3","3","3","4","4","3","2","2","3","2","2","1","4","2","1","0","1","0","0","1","0","1","1","1","-1","0","1","0","1","4","2","3","3","4","3","3","3","2","3","718754642447564800","贾","","","","match","","","","","","","","","","","","","","key","f","24.8858630136987","960","536","f","true","match","img/diamond.png","菱形","菱形","ALT1","formal_ALT1_2","","","","","","","","","",""
"null","<span style='color:GreenYellow; font-size: 70px;'>正确! </span>","null","html-keyboard-response","152","314246","0.0-7.0-1.0-4.0-0.0-1.22","3","3","3","3","2","3","2","3","3","3","3","2","3","3","3","3","3","3","4","4","3","2","2","3","2","2","1","4","2","1","0","1","0","0","1","0","1","1","1","-1","0","1","0","1","4","2","3","3","4","3","3","3","2","3","718754642447564800","贾","","","","","","","","","","","","","","","","","","","","","","","","","","","","","","feedback_test","","","","","","","","","",""
"731","","j","psychophysics","153","315980","0.0-7.0-1.0-4.0-0.0-0.23","3","3","3","3","2","3","2","3","3","3","3","2","3","3","3","3","3","3","4","4","3","2","2","3","2","2","1","4","2","1","0","1","0","0","1","0","1","1","1","-1","0","1","0","1","4","2","3","3","4","3","3","3","2","3","718754642447564800","贾","","","","nonmatch","","","","","","","","","","","","","","key","j","25.506242424242593","960","536","j","true","nonmatch","img/ellipse.png","方形","椭圆","ALT1","formal_ALT1_2","","","","","","","","","",""
"null","<span style='color:GreenYellow; font-size: 70px;'>正确! </span>","null","html-keyboard-response","154","316483","0.0-7.0-1.0-4.0-0.0-1.23","3","3","3","3","2","3","2","3","3","3","3","2","3","3","3","3","3","3","4","4","3","2","2","3","2","2","1","4","2","1","0","1","0","0","1","0","1","1","1","-1","0","1","0","1","4","2","3","3","4","3","3","3","2","3","718754642447564800","贾","","","","","","","","","","","","","","","","","","","","","","","","","","","","","","feedback_test","","","","","","","","","",""
"734","","f","psychophysics","155","318221","0.0-7.0-1.0-4.0-0.0-0.24","3","3","3","3","2","3","2","3","3","3","3","2","3","3","3","3","3","3","4","4","3","2","2","3","2","2","1","4","2","1","0","1","0","0","1","0","1","1","1","-1","0","1","0","1","4","2","3","3","4","3","3","3","2","3","718754642447564800","贾","","","","match","","","","","","","","","","","","","","key","f","25.374074626866026","960","536","j","false","nonmatch","img/pentagon.png","菱形","五边","ALT1","formal_ALT1_2","","","","","","","","","",""
"null","<span style='color:red; font-size: 70px;'>错误! </span>","null","html-keyboard-response","156","318724","0.0-7.0-1.0-4.0-0.0-1.24","3","3","3","3","2","3","2","3","3","3","3","2","3","3","3","3","3","3","4","4","3","2","2","3","2","2","1","4","2","1","0","1","0","0","1","0","1","1","1","-1","0","1","0","1","4","2","3","3","4","3","3","3","2","3","718754642447564800","贾","","","","","","","","","","","","","","","","","","","","","","","","","","","","","","feedback_test","","","","","","","","","",""
"663","","f","psychophysics","157","320389","0.0-7.0-1.0-4.0-0.0-0.25","3","3","3","3","2","3","2","3","3","3","3","2","3","3","3","3","3","3","4","4","3","2","2","3","2","2","1","4","2","1","0","1","0","0","1","0","1","1","1","-1","0","1","0","1","4","2","3","3","4","3","3","3","2","3","718754642447564800","贾","","","","match","","","","","","","","","","","","","","key","f","25.128123076922762","960","536","f","true","match","img/ellipse.png","椭圆","椭圆","ALT1","formal_ALT1_2","","","","","","","","","",""
"null","<span style='color:GreenYellow; font-size: 70px;'>正确! </span>","null","html-keyboard-response","158","320891","0.0-7.0-1.0-4.0-0.0-1.25","3","3","3","3","2","3","2","3","3","3","3","2","3","3","3","3","3","3","4","4","3","2","2","3","2","2","1","4","2","1","0","1","0","0","1","0","1","1","1","-1","0","1","0","1","4","2","3","3","4","3","3","3","2","3","718754642447564800","贾","","","","","","","","","","","","","","","","","","","","","","","","","","","","","","feedback_test","","","","","","","","","",""
"730","","f","psychophysics","159","322628","0.0-7.0-1.0-4.0-0.0-0.26","3","3","3","3","2","3","2","3","3","3","3","2","3","3","3","3","3","3","4","4","3","2","2","3","2","2","1","4","2","1","0","1","0","0","1","0","1","1","1","-1","0","1","0","1","4","2","3","3","4","3","3","3","2","3","718754642447564800","贾","","","","match","","","","","","","","","","","","","","key","f","25.373238805969898","960","536","j","false","nonmatch","img/pentagon.png","方形","五边","ALT1","formal_ALT1_2","","","","","","","","","",""
"null","<span style='color:red; font-size: 70px;'>错误! </span>","null","html-keyboard-response","160","323130","0.0-7.0-1.0-4.0-0.0-1.26","3","3","3","3","2","3","2","3","3","3","3","2","3","3","3","3","3","3","4","4","3","2","2","3","2","2","1","4","2","1","0","1","0","0","1","0","1","1","1","-1","0","1","0","1","4","2","3","3","4","3","3","3","2","3","718754642447564800","贾","","","","","","","","","","","","","","","","","","","","","","","","","","","","","","feedback_test","","","","","","","","","",""
"643","","f","psychophysics","161","324783","0.0-7.0-1.0-4.0-0.0-0.27","3","3","3","3","2","3","2","3","3","3","3","2","3","3","3","3","3","3","4","4","3","2","2","3","2","2","1","4","2","1","0","1","0","0","1","0","1","1","1","-1","0","1","0","1","4","2","3","3","4","3","3","3","2","3","718754642447564800","贾","","","","match","","","","","","","","","","","","","","key","f","24.868476923076937","960","536","f","true","match","img/ellipse.png","椭圆","椭圆","ALT1","formal_ALT1_2","","","","","","","","","",""
"null","<span style='color:GreenYellow; font-size: 70px;'>正确! </span>","null","html-keyboard-response","162","325285","0.0-7.0-1.0-4.0-0.0-1.27","3","3","3","3","2","3","2","3","3","3","3","2","3","3","3","3","3","3","4","4","3","2","2","3","2","2","1","4","2","1","0","1","0","0","1","0","1","1","1","-1","0","1","0","1","4","2","3","3","4","3","3","3","2","3","718754642447564800","贾","","","","","","","","","","","","","","","","","","","","","","","","","","","","","","feedback_test","","","","","","","","","",""
"708","","j","psychophysics","163","327000","0.0-7.0-1.0-4.0-0.0-0.28","3","3","3","3","2","3","2","3","3","3","3","2","3","3","3","3","3","3","4","4","3","2","2","3","2","2","1","4","2","1","0","1","0","0","1","0","1","1","1","-1","0","1","0","1","4","2","3","3","4","3","3","3","2","3","718754642447564800","贾","","","","nonmatch","","","","","","","","","","","","","","key","j","25.505000000000248","960","536","j","true","nonmatch","img/diamond.png","椭圆","菱形","ALT1","formal_ALT1_2","","","","","","","","","",""
"null","<span style='color:GreenYellow; font-size: 70px;'>正确! </span>","null","html-keyboard-response","164","327502","0.0-7.0-1.0-4.0-0.0-1.28","3","3","3","3","2","3","2","3","3","3","3","2","3","3","3","3","3","3","4","4","3","2","2","3","2","2","1","4","2","1","0","1","0","0","1","0","1","1","1","-1","0","1","0","1","4","2","3","3","4","3","3","3","2","3","718754642447564800","贾","","","","","","","","","","","","","","","","","","","","","","","","","","","","","","feedback_test","","","","","","","","","",""
"760","","j","psychophysics","165","329266","0.0-7.0-1.0-4.0-0.0-0.29","3","3","3","3","2","3","2","3","3","3","3","2","3","3","3","3","3","3","4","4","3","2","2","3","2","2","1","4","2","1","0","1","0","0","1","0","1","1","1","-1","0","1","0","1","4","2","3","3","4","3","3","3","2","3","718754642447564800","贾","","","","nonmatch","","","","","","","","","","","","","","key","j","25.245323529412204","960","536","j","true","nonmatch","img/pentagon.png","椭圆","五边","ALT1","formal_ALT1_2","","","","","","","","","",""
"null","<span style='color:GreenYellow; font-size: 70px;'>正确! </span>","null","html-keyboard-response","166","329768","0.0-7.0-1.0-4.0-0.0-1.29","3","3","3","3","2","3","2","3","3","3","3","2","3","3","3","3","3","3","4","4","3","2","2","3","2","2","1","4","2","1","0","1","0","0","1","0","1","1","1","-1","0","1","0","1","4","2","3","3","4","3","3","3","2","3","718754642447564800","贾","","","","","","","","","","","","","","","","","","","","","","","","","","","","","","feedback_test","","","","","","","","","",""
"671","","f","psychophysics","167","331441","0.0-7.0-1.0-4.0-0.0-0.30","3","3","3","3","2","3","2","3","3","3","3","2","3","3","3","3","3","3","4","4","3","2","2","3","2","2","1","4","2","1","0","1","0","0","1","0","1","1","1","-1","0","1","0","1","4","2","3","3","4","3","3","3","2","3","718754642447564800","贾","","","","match","","","","","","","","","","","","","","key","f","25.25939062499947","960","536","f","true","match","img/ellipse.png","椭圆","椭圆","ALT1","formal_ALT1_2","","","","","","","","","",""
"null","<span style='color:GreenYellow; font-size: 70px;'>正确! </span>","null","html-keyboard-response","168","331944","0.0-7.0-1.0-4.0-0.0-1.30","3","3","3","3","2","3","2","3","3","3","3","2","3","3","3","3","3","3","4","4","3","2","2","3","2","2","1","4","2","1","0","1","0","0","1","0","1","1","1","-1","0","1","0","1","4","2","3","3","4","3","3","3","2","3","718754642447564800","贾","","","","","","","","","","","","","","","","","","","","","","","","","","","","","","feedback_test","","","","","","","","","",""
"636","","f","psychophysics","169","333582","0.0-7.0-1.0-4.0-0.0-0.31","3","3","3","3","2","3","2","3","3","3","3","2","3","3","3","3","3","3","4","4","3","2","2","3","2","2","1","4","2","1","0","1","0","0","1","0","1","1","1","-1","0","1","0","1","4","2","3","3","4","3","3","3","2","3","718754642447564800","贾","","","","match","","","","","","","","","","","","","","key","f","24.86926153846121","960","536","f","true","match","img/square.png","方形","方形","ALT1","formal_ALT1_2","","","","","","","","","",""
"null","<span style='color:GreenYellow; font-size: 70px;'>正确! </span>","null","html-keyboard-response","170","334084","0.0-7.0-1.0-4.0-0.0-1.31","3","3","3","3","2","3","2","3","3","3","3","2","3","3","3","3","3","3","4","4","3","2","2","3","2","2","1","4","2","1","0","1","0","0","1","0","1","1","1","-1","0","1","0","1","4","2","3","3","4","3","3","3","2","3","718754642447564800","贾","","","","","","","","","","","","","","","","","","","","","","","","","","","","","","feedback_test","","","","","","","","","",""
"873","","j","psychophysics","171","335968","0.0-7.0-1.0-4.0-0.0-0.32","3","3","3","3","2","3","2","3","3","3","3","2","3","3","3","3","3","3","4","4","3","2","2","3","2","2","1","4","2","1","0","1","0","0","1","0","1","1","1","-1","0","1","0","1","4","2","3","3","4","3","3","3","2","3","718754642447564800","贾","","","","nonmatch","","","","","","","","","","","","","","key","j","24.9987567567567","960","536","j","true","nonmatch","img/diamond.png","五边","菱形","ALT1","formal_ALT1_2","","","","","","","","","",""
"null","<span style='color:GreenYellow; font-size: 70px;'>正确! </span>","null","html-keyboard-response","172","336482","0.0-7.0-1.0-4.0-0.0-1.32","3","3","3","3","2","3","2","3","3","3","3","2","3","3","3","3","3","3","4","4","3","2","2","3","2","2","1","4","2","1","0","1","0","0","1","0","1","1","1","-1","0","1","0","1","4","2","3","3","4","3","3","3","2","3","718754642447564800","贾","","","","","","","","","","","","","","","","","","","","","","","","","","","","","","feedback_test","","","","","","","","","",""
"927","","f","psychophysics","173","338417","0.0-7.0-1.0-4.0-0.0-0.33","3","3","3","3","2","3","2","3","3","3","3","2","3","3","3","3","3","3","4","4","3","2","2","3","2","2","1","4","2","1","0","1","0","0","1","0","1","1","1","-1","0","1","0","1","4","2","3","3","4","3","3","3","2","3","718754642447564800","贾","","","","match","","","","","","","","","","","","","","key","f","24.779499999999597","960","536","f","true","match","img/diamond.png","菱形","菱形","ALT1","formal_ALT1_2","","","","","","","","","",""
"null","<span style='color:GreenYellow; font-size: 70px;'>正确! </span>","null","html-keyboard-response","174","338918","0.0-7.0-1.0-4.0-0.0-1.33","3","3","3","3","2","3","2","3","3","3","3","2","3","3","3","3","3","3","4","4","3","2","2","3","2","2","1","4","2","1","0","1","0","0","1","0","1","1","1","-1","0","1","0","1","4","2","3","3","4","3","3","3","2","3","718754642447564800","贾","","","","","","","","","","","","","","","","","","","","","","","","","","","","","","feedback_test","","","","","","","","","",""
"710","","f","psychophysics","175","340630","0.0-7.0-1.0-4.0-0.0-0.34","3","3","3","3","2","3","2","3","3","3","3","2","3","3","3","3","3","3","4","4","3","2","2","3","2","2","1","4","2","1","0","1","0","0","1","0","1","1","1","-1","0","1","0","1","4","2","3","3","4","3","3","3","2","3","718754642447564800","贾","","","","match","","","","","","","","","","","","","","key","f","24.874552238805553","960","536","j","false","nonmatch","img/diamond.png","方形","菱形","ALT1","formal_ALT1_2","","","","","","","","","",""
"null","<span style='color:red; font-size: 70px;'>错误! </span>","null","html-keyboard-response","176","341134","0.0-7.0-1.0-4.0-0.0-1.34","3","3","3","3","2","3","2","3","3","3","3","2","3","3","3","3","3","3","4","4","3","2","2","3","2","2","1","4","2","1","0","1","0","0","1","0","1","1","1","-1","0","1","0","1","4","2","3","3","4","3","3","3","2","3","718754642447564800","贾","","","","","","","","","","","","","","","","","","","","","","","","","","","","","","feedback_test","","","","","","","","","",""
"913","","j","psychophysics","177","343057","0.0-7.0-1.0-4.0-0.0-0.35","3","3","3","3","2","3","2","3","3","3","3","2","3","3","3","3","3","3","4","4","3","2","2","3","2","2","1","4","2","1","0","1","0","0","1","0","1","1","1","-1","0","1","0","1","4","2","3","3","4","3","3","3","2","3","718754642447564800","贾","","","","nonmatch","","","","","","","","","","","","","","key","j","24.78015789473705","960","536","j","true","nonmatch","img/ellipse.png","五边","椭圆","ALT1","formal_ALT1_2","","","","","","","","","",""
"null","<span style='color:GreenYellow; font-size: 70px;'>正确! </span>","null","html-keyboard-response","178","343561","0.0-7.0-1.0-4.0-0.0-1.35","3","3","3","3","2","3","2","3","3","3","3","2","3","3","3","3","3","3","4","4","3","2","2","3","2","2","1","4","2","1","0","1","0","0","1","0","1","1","1","-1","0","1","0","1","4","2","3","3","4","3","3","3","2","3","718754642447564800","贾","","","","","","","","","","","","","","","","","","","","","","","","","","","","","","feedback_test","","","","","","","","","",""
"751","","f","psychophysics","179","345315","0.0-7.0-1.0-4.0-0.0-0.36","3","3","3","3","2","3","2","3","3","3","3","2","3","3","3","3","3","3","4","4","3","2","2","3","2","2","1","4","2","1","0","1","0","0","1","0","1","1","1","-1","0","1","0","1","4","2","3","3","4","3","3","3","2","3","718754642447564800","贾","","","","match","","","","","","","","","","","","","","key","f","25.758393939393997","960","536","f","true","match","img/square.png","方形","方形","ALT1","formal_ALT1_2","","","","","","","","","",""
"null","<span style='color:GreenYellow; font-size: 70px;'>正确! </span>","null","html-keyboard-response","180","345817","0.0-7.0-1.0-4.0-0.0-1.36","3","3","3","3","2","3","2","3","3","3","3","2","3","3","3","3","3","3","4","4","3","2","2","3","2","2","1","4","2","1","0","1","0","0","1","0","1","1","1","-1","0","1","0","1","4","2","3","3","4","3","3","3","2","3","718754642447564800","贾","","","","","","","","","","","","","","","","","","","","","","","","","","","","","","feedback_test","","","","","","","","","",""
"690","","f","psychophysics","181","347513","0.0-7.0-1.0-4.0-0.0-0.37","3","3","3","3","2","3","2","3","3","3","3","2","3","3","3","3","3","3","4","4","3","2","2","3","2","2","1","4","2","1","0","1","0","0","1","0","1","1","1","-1","0","1","0","1","4","2","3","3","4","3","3","3","2","3","718754642447564800","贾","","","","match","","","","","","","","","","","","","","key","f","24.62546268656742","960","536","j","false","nonmatch","img/square.png","五边","方形","ALT1","formal_ALT1_2","","","","","","","","","",""
"null","<span style='color:red; font-size: 70px;'>错误! </span>","null","html-keyboard-response","182","348015","0.0-7.0-1.0-4.0-0.0-1.37","3","3","3","3","2","3","2","3","3","3","3","2","3","3","3","3","3","3","4","4","3","2","2","3","2","2","1","4","2","1","0","1","0","0","1","0","1","1","1","-1","0","1","0","1","4","2","3","3","4","3","3","3","2","3","718754642447564800","贾","","","","","","","","","","","","","","","","","","","","","","","","","","","","","","feedback_test","","","","","","","","","",""
"816","","f","psychophysics","183","349839","0.0-7.0-1.0-4.0-0.0-0.38","3","3","3","3","2","3","2","3","3","3","3","2","3","3","3","3","3","3","4","4","3","2","2","3","2","2","1","4","2","1","0","1","0","0","1","0","1","1","1","-1","0","1","0","1","4","2","3","3","4","3","3","3","2","3","718754642447564800","贾","","","","match","","","","","","","","","","","","","","key","f","24.427986301370094","960","536","f","true","match","img/pentagon.png","五边","五边","ALT1","formal_ALT1_2","","","","","","","","","",""
"null","<span style='color:GreenYellow; font-size: 70px;'>正确! </span>","null","html-keyboard-response","184","350343","0.0-7.0-1.0-4.0-0.0-1.38","3","3","3","3","2","3","2","3","3","3","3","2","3","3","3","3","3","3","4","4","3","2","2","3","2","2","1","4","2","1","0","1","0","0","1","0","1","1","1","-1","0","1","0","1","4","2","3","3","4","3","3","3","2","3","718754642447564800","贾","","","","","","","","","","","","","","","","","","","","","","","","","","","","","","feedback_test","","","","","","","","","",""
"992","","j","psychophysics","185","352337","0.0-7.0-1.0-4.0-0.0-0.39","3","3","3","3","2","3","2","3","3","3","3","2","3","3","3","3","3","3","4","4","3","2","2","3","2","2","1","4","2","1","0","1","0","0","1","0","1","1","1","-1","0","1","0","1","4","2","3","3","4","3","3","3","2","3","718754642447564800","贾","","","","nonmatch","","","","","","","","","","","","","","key","j","24.58362500000003","960","536","f","false","match","img/diamond.png","菱形","菱形","ALT1","formal_ALT1_2","","","","","","","","","",""
"null","<span style='color:red; font-size: 70px;'>错误! </span>","null","html-keyboard-response","186","352838","0.0-7.0-1.0-4.0-0.0-1.39","3","3","3","3","2","3","2","3","3","3","3","2","3","3","3","3","3","3","4","4","3","2","2","3","2","2","1","4","2","1","0","1","0","0","1","0","1","1","1","-1","0","1","0","1","4","2","3","3","4","3","3","3","2","3","718754642447564800","贾","","","","","","","","","","","","","","","","","","","","","","","","","","","","","","feedback_test","","","","","","","","","",""
