"rt","stimulus","response","trial_type","trial_index","time_elapsed","internal_node_id","ses_1","ses_2","ses_3","ses_4","ses_5","ses_6","ses_7","ses_8","ses_9","ses_10","coreself_1","coreself_2","coreself_3","coreself_4","coreself_5","coreself_6","coreself_7","coreself_8","coreself_9","coreself_10","SGPS_1","SGPS_2","SGPS_3","SGPS_4","SGPS_5","SGPS_6","SGPS_7","SGPS_8","SGPS_9","NPI1","NPI2","NPI3","NPI4","NPI5","NPI6","NPI7","NPI8","NPI9","NPI10","NPI11","NPI12","NPI13","NPI14","NPI15","hsns_1","hsns_2","hsns_3","hsns_4","hsns_5","hsns_6","hsns_7","hsns_8","hsns_9","hsns_10","subj_idx","friend_name","value","success","user_agent","responses","item_order","radio_event_ids","radio_event_times","key_event_times","mouse_event_times","straightlining","zigzagging","honeypot","timeout","failed_images","failed_audio","failed_video","view_history","response_type","key_press","avg_frame_time","center_x","center_y","correct_response","correct","identity","Image","word","condition","task_id","screen_id","time_stamp","version_attrib2","version_target2","IAT","RT","varname","summary","version_attrib","version_target","question_order"
"4055","
   <p><div style = ""color: white;font-size:25px;"">您好，欢迎参加本次实验。</div> </p>
   <p><div style = ""color: white;font-size:25px;"">为充分保障您的权利，请确保您已经知晓并同意《参与实验同意书》以及《数据公开知情同意书》。</div></p>
   <p><div style = ""color: white;font-size:25px;"">如果您未见过上述内容，请咨询实验员。</div></p>
   <p><div style = ""color: white;font-size:25px;"">如果您选择继续实验，则表示您已经清楚两份知情同意书的内容并同意。</div></p>
   <p> <div style = ""color: green;font-size:25px;""><按空格键至下页></div> </p>
   "," ","html-keyboard-response","0","4057","0.0-0.0","4","4","4","4","4","4","4","4","4","4","5","5","5","5","5","5","5","5","5","5","1","1","2","1","1","1","1","4","1","0","1","0","0","1","0","0","0","1","0","0","1","0","1","0","5","1","3","1","1","5","4","3","4","2","656853379439394816","张","","","","","","","","","","","","","","","","","","","","","","","","","","","","","","","","","","","","","","","",""
"","","","call-function","1","4059","0.0-1.0-0.0","4","4","4","4","4","4","4","4","4","4","5","5","5","5","5","5","5","5","5","5","1","1","2","1","1","1","1","4","1","0","1","0","0","1","0","0","0","1","0","0","1","0","1","0","5","1","3","1","1","5","4","3","4","2","656853379439394816","张","","","","","","","","","","","","","","","","","","","","","","","","","","","","","","","","","","","","","","","",""
"13531","","{""friend_name"":""张""}","survey-html-form","2","17590","0.0-1.0-1.0","4","4","4","4","4","4","4","4","4","4","5","5","5","5","5","5","5","5","5","5","1","1","2","1","1","1","1","4","1","0","1","0","0","1","0","0","0","1","0","0","1","0","1","0","5","1","3","1","1","5","4","3","4","2","656853379439394816","张","","","","","","","","","","","","","","","","","","","","","","","","","","","","","","","","","","","","","","","",""
"","","","fullscreen","3","34286","0.0-2.0","4","4","4","4","4","4","4","4","4","4","5","5","5","5","5","5","5","5","5","5","1","1","2","1","1","1","1","4","1","0","1","0","0","1","0","0","0","1","0","0","1","0","1","0","5","1","3","1","1","5","4","3","4","2","656853379439394816","张","","true","{}","","","","","","","","","","","","","","","","","","","","","","","","","","","","","","","","","","","","",""
"31073","","{""Q01"":""4"",""Q02"":""4"",""Q03"":""4"",""Q04"":""4"",""Q05"":""4"",""Q06"":""4"",""Q07"":""4"",""Q08"":""4"",""Q09"":""4"",""Q10"":""4""}","survey-template","4","65362","0.0-3.0","4","4","4","4","4","4","4","4","4","4","5","5","5","5","5","5","5","5","5","5","1","1","2","1","1","1","1","4","1","0","1","0","0","1","0","0","0","1","0","0","1","0","1","0","5","1","3","1","1","5","4","3","4","2","656853379439394816","张","","","","{""Q01"":""4"",""Q02"":""4"",""Q03"":""4"",""Q04"":""4"",""Q05"":""4"",""Q06"":""4"",""Q07"":""4"",""Q08"":""4"",""Q09"":""4"",""Q10"":""4""}","[0,1,2,3,4,5,6,7,8,9]","[""Q01"",""Q02"",""Q03"",""Q04"",""Q05"",""Q06"",""Q07"",""Q08"",""Q09"",""Q10""]","[2162.5999999940395,3662.5999999940395,4721.399999991059,6441.0999999940395,7709.5,8900.29999999702,9772.39999999106,16014.39999999106,17506,18589.79999999702]","[]","[2162.5999999940395,3662.5999999940395,4721.399999991059,6441.0999999940395,7709.5,8900.29999999702,9772.39999999106,16014.39999999106,17506,18106.09999999404,18589.79999999702,31070.69999998808]","0.5","0.5555555555555556","0","","","","","","","","","","","","","","","","","","","","","","","","","","","",""
"15344.70000000298","","{""Q01"":""5"",""Q02"":""5"",""Q03"":""5"",""Q04"":""5"",""Q05"":""5"",""Q06"":""5"",""Q07"":""5"",""Q08"":""5"",""Q09"":""5"",""Q10"":""5""}","survey-template","5","80718","0.0-4.0","4","4","4","4","4","4","4","4","4","4","5","5","5","5","5","5","5","5","5","5","1","1","2","1","1","1","1","4","1","0","1","0","0","1","0","0","0","1","0","0","1","0","1","0","5","1","3","1","1","5","4","3","4","2","656853379439394816","张","","","","{""Q01"":""5"",""Q02"":""5"",""Q03"":""5"",""Q04"":""5"",""Q05"":""5"",""Q06"":""5"",""Q07"":""5"",""Q08"":""5"",""Q09"":""5"",""Q10"":""5""}","[0,1,2,3,4,5,6,7,8,9]","[""Q01"",""Q02"",""Q03"",""Q04"",""Q05"",""Q06"",""Q07"",""Q08"",""Q09"",""Q10""]","[2205.0999999940395,3732.9000000059605,4965.29999999702,5903.9000000059605,7480.0999999940395,9044,9966.70000000298,11346.70000000298,12570.70000000298,13793.79999999702]","[]","[2205.0999999940395,3732.9000000059605,4965.29999999702,5903.9000000059605,7480.0999999940395,9044,9966.70000000298,11346.70000000298,12570.70000000298,13793.79999999702,15342.40000000596]","0.6","0.7777777777777778","0","","","","","","","","","","","","","","","","","","","","","","","","","","","",""
"","","","preload","6","81380","0.0-5.0","4","4","4","4","4","4","4","4","4","4","5","5","5","5","5","5","5","5","5","5","1","1","2","1","1","1","1","4","1","0","1","0","0","1","0","0","0","1","0","0","1","0","1","0","5","1","3","1","1","5","4","3","4","2","656853379439394816","张","","true","","","","","","","","","","","false","[]","[]","[]","","","","","","","","","","","","","","","","","","","","","","","",""
"24628","","","instructions","7","106009","0.0-6.0","4","4","4","4","4","4","4","4","4","4","5","5","5","5","5","5","5","5","5","5","1","1","2","1","1","1","1","4","1","0","1","0","0","1","0","0","0","1","0","0","1","0","1","0","5","1","3","1","1","5","4","3","4","2","656853379439394816","张","","","","","","","","","","","","","","","","","[{""page_index"":0,""viewing_time"":24627}]","","","","","","","","","","","","","","","","","","","","","","",""
"35839","","","instructions","8","141850","0.0-7.0-1.0-0.0","4","4","4","4","4","4","4","4","4","4","5","5","5","5","5","5","5","5","5","5","1","1","2","1","1","1","1","4","1","0","1","0","0","1","0","0","0","1","0","0","1","0","1","0","5","1","3","1","1","5","4","3","4","2","656853379439394816","张","","","","","","","","","","","","","","","","","[{""page_index"":0,""viewing_time"":21621},{""page_index"":1,""viewing_time"":11810},{""page_index"":2,""viewing_time"":2408}]","","","","","","","","","","","","","","","","","","","","","","",""
"null","","null","psychophysics","9","144059","0.0-7.0-1.0-1.0-0.0-0.0","4","4","4","4","4","4","4","4","4","4","5","5","5","5","5","5","5","5","5","5","1","1","2","1","1","1","1","4","1","0","1","0","0","1","0","0","0","1","0","0","1","0","1","0","5","1","3","1","1","5","4","3","4","2","656853379439394816","张","","","","null","","","","","","","","","","","","","","key","null","16.91256589147302","640","356","j","false","nonmatch","img/triangle.png","五边","三角","ALT1_2","prac_ALT1_2","","","","","","","","","",""
"null","<span class='add_' style='color:yellow; font-size: 70px;'> 太慢! </span>","null","html-keyboard-response","10","144562","0.0-7.0-1.0-1.0-0.0-1.0","4","4","4","4","4","4","4","4","4","4","5","5","5","5","5","5","5","5","5","5","1","1","2","1","1","1","1","4","1","0","1","0","0","1","0","0","0","1","0","0","1","0","1","0","5","1","3","1","1","5","4","3","4","2","656853379439394816","张","","","","","","","","","","","","","","","","","","","","","","","","","","","","","","feedback_test","","","","","","","","","",""
"1063","","f","psychophysics","11","146630","0.0-7.0-1.0-1.0-0.0-0.1","4","4","4","4","4","4","4","4","4","4","5","5","5","5","5","5","5","5","5","5","1","1","2","1","1","1","1","4","1","0","1","0","0","1","0","0","0","1","0","0","1","0","1","0","5","1","3","1","1","5","4","3","4","2","656853379439394816","张","","","","match","","","","","","","","","","","","","","key","f","16.655967479674864","640","356","f","true","match","img/square.png","方形","方形","ALT1_2","prac_ALT1_2","","","","","","","","","",""
"null","<span style='color:GreenYellow; font-size: 70px;'>正确! </span>","null","html-keyboard-response","12","147132","0.0-7.0-1.0-1.0-0.0-1.1","4","4","4","4","4","4","4","4","4","4","5","5","5","5","5","5","5","5","5","5","1","1","2","1","1","1","1","4","1","0","1","0","0","1","0","0","0","1","0","0","1","0","1","0","5","1","3","1","1","5","4","3","4","2","656853379439394816","张","","","","","","","","","","","","","","","","","","","","","","","","","","","","","","feedback_test","","","","","","","","","",""
"782","","j","psychophysics","13","148918","0.0-7.0-1.0-1.0-0.0-0.2","4","4","4","4","4","4","4","4","4","4","5","5","5","5","5","5","5","5","5","5","1","1","2","1","1","1","1","4","1","0","1","0","0","1","0","0","0","1","0","0","1","0","1","0","5","1","3","1","1","5","4","3","4","2","656853379439394816","张","","","","nonmatch","","","","","","","","","","","","","","key","j","16.656537735848996","640","356","j","true","nonmatch","img/square.png","五边","方形","ALT1_2","prac_ALT1_2","","","","","","","","","",""
"null","<span style='color:GreenYellow; font-size: 70px;'>正确! </span>","null","html-keyboard-response","14","149430","0.0-7.0-1.0-1.0-0.0-1.2","4","4","4","4","4","4","4","4","4","4","5","5","5","5","5","5","5","5","5","5","1","1","2","1","1","1","1","4","1","0","1","0","0","1","0","0","0","1","0","0","1","0","1","0","5","1","3","1","1","5","4","3","4","2","656853379439394816","张","","","","","","","","","","","","","","","","","","","","","","","","","","","","","","feedback_test","","","","","","","","","",""
"840","","f","psychophysics","15","151273","0.0-7.0-1.0-1.0-0.0-0.3","4","4","4","4","4","4","4","4","4","4","5","5","5","5","5","5","5","5","5","5","1","1","2","1","1","1","1","4","1","0","1","0","0","1","0","0","0","1","0","0","1","0","1","0","5","1","3","1","1","5","4","3","4","2","656853379439394816","张","","","","match","","","","","","","","","","","","","","key","f","16.654190909091003","640","356","f","true","match","img/pentagon.png","五边","五边","ALT1_2","prac_ALT1_2","","","","","","","","","",""
"null","<span style='color:GreenYellow; font-size: 70px;'>正确! </span>","null","html-keyboard-response","16","151775","0.0-7.0-1.0-1.0-0.0-1.3","4","4","4","4","4","4","4","4","4","4","5","5","5","5","5","5","5","5","5","5","1","1","2","1","1","1","1","4","1","0","1","0","0","1","0","0","0","1","0","0","1","0","1","0","5","1","3","1","1","5","4","3","4","2","656853379439394816","张","","","","","","","","","","","","","","","","","","","","","","","","","","","","","","feedback_test","","","","","","","","","",""
"879","","j","psychophysics","17","153659","0.0-7.0-1.0-1.0-0.0-0.4","4","4","4","4","4","4","4","4","4","4","5","5","5","5","5","5","5","5","5","5","1","1","2","1","1","1","1","4","1","0","1","0","0","1","0","0","0","1","0","0","1","0","1","0","5","1","3","1","1","5","4","3","4","2","656853379439394816","张","","","","nonmatch","","","","","","","","","","","","","","key","j","16.657062499999874","640","356","j","true","nonmatch","img/ellipse.png","三角","椭圆","ALT1_2","prac_ALT1_2","","","","","","","","","",""
"null","<span style='color:GreenYellow; font-size: 70px;'>正确! </span>","null","html-keyboard-response","18","154162","0.0-7.0-1.0-1.0-0.0-1.4","4","4","4","4","4","4","4","4","4","4","5","5","5","5","5","5","5","5","5","5","1","1","2","1","1","1","1","4","1","0","1","0","0","1","0","0","0","1","0","0","1","0","1","0","5","1","3","1","1","5","4","3","4","2","656853379439394816","张","","","","","","","","","","","","","","","","","","","","","","","","","","","","","","feedback_test","","","","","","","","","",""
"881","","f","psychophysics","19","156047","0.0-7.0-1.0-1.0-0.0-0.5","4","4","4","4","4","4","4","4","4","4","5","5","5","5","5","5","5","5","5","5","1","1","2","1","1","1","1","4","1","0","1","0","0","1","0","0","0","1","0","0","1","0","1","0","5","1","3","1","1","5","4","3","4","2","656853379439394816","张","","","","match","","","","","","","","","","","","","","key","f","16.653428571428385","640","356","f","true","match","img/triangle.png","三角","三角","ALT1_2","prac_ALT1_2","","","","","","","","","",""
"null","<span style='color:GreenYellow; font-size: 70px;'>正确! </span>","null","html-keyboard-response","20","156551","0.0-7.0-1.0-1.0-0.0-1.5","4","4","4","4","4","4","4","4","4","4","5","5","5","5","5","5","5","5","5","5","1","1","2","1","1","1","1","4","1","0","1","0","0","1","0","0","0","1","0","0","1","0","1","0","5","1","3","1","1","5","4","3","4","2","656853379439394816","张","","","","","","","","","","","","","","","","","","","","","","","","","","","","","","feedback_test","","","","","","","","","",""
"850","","j","psychophysics","21","158403","0.0-7.0-1.0-1.0-0.0-0.6","4","4","4","4","4","4","4","4","4","4","5","5","5","5","5","5","5","5","5","5","1","1","2","1","1","1","1","4","1","0","1","0","0","1","0","0","0","1","0","0","1","0","1","0","5","1","3","1","1","5","4","3","4","2","656853379439394816","张","","","","nonmatch","","","","","","","","","","","","","","key","j","16.65156363636356","640","356","j","true","nonmatch","img/ellipse.png","五边","椭圆","ALT1_2","prac_ALT1_2","","","","","","","","","",""
"null","<span style='color:GreenYellow; font-size: 70px;'>正确! </span>","null","html-keyboard-response","22","158908","0.0-7.0-1.0-1.0-0.0-1.6","4","4","4","4","4","4","4","4","4","4","5","5","5","5","5","5","5","5","5","5","1","1","2","1","1","1","1","4","1","0","1","0","0","1","0","0","0","1","0","0","1","0","1","0","5","1","3","1","1","5","4","3","4","2","656853379439394816","张","","","","","","","","","","","","","","","","","","","","","","","","","","","","","","feedback_test","","","","","","","","","",""
"847","","f","psychophysics","23","160758","0.0-7.0-1.0-1.0-0.0-0.7","4","4","4","4","4","4","4","4","4","4","5","5","5","5","5","5","5","5","5","5","1","1","2","1","1","1","1","4","1","0","1","0","0","1","0","0","0","1","0","0","1","0","1","0","5","1","3","1","1","5","4","3","4","2","656853379439394816","张","","","","match","","","","","","","","","","","","","","key","f","16.653697247706393","640","356","f","true","match","img/triangle.png","三角","三角","ALT1_2","prac_ALT1_2","","","","","","","","","",""
"null","<span style='color:GreenYellow; font-size: 70px;'>正确! </span>","null","html-keyboard-response","24","161261","0.0-7.0-1.0-1.0-0.0-1.7","4","4","4","4","4","4","4","4","4","4","5","5","5","5","5","5","5","5","5","5","1","1","2","1","1","1","1","4","1","0","1","0","0","1","0","0","0","1","0","0","1","0","1","0","5","1","3","1","1","5","4","3","4","2","656853379439394816","张","","","","","","","","","","","","","","","","","","","","","","","","","","","","","","feedback_test","","","","","","","","","",""
"818","","j","psychophysics","25","163082","0.0-7.0-1.0-1.0-0.0-0.8","4","4","4","4","4","4","4","4","4","4","5","5","5","5","5","5","5","5","5","5","1","1","2","1","1","1","1","4","1","0","1","0","0","1","0","0","0","1","0","0","1","0","1","0","5","1","3","1","1","5","4","3","4","2","656853379439394816","张","","","","nonmatch","","","","","","","","","","","","","","key","j","16.652888888889045","640","356","j","true","nonmatch","img/triangle.png","方形","三角","ALT1_2","prac_ALT1_2","","","","","","","","","",""
"null","<span style='color:GreenYellow; font-size: 70px;'>正确! </span>","null","html-keyboard-response","26","163584","0.0-7.0-1.0-1.0-0.0-1.8","4","4","4","4","4","4","4","4","4","4","5","5","5","5","5","5","5","5","5","5","1","1","2","1","1","1","1","4","1","0","1","0","0","1","0","0","0","1","0","0","1","0","1","0","5","1","3","1","1","5","4","3","4","2","656853379439394816","张","","","","","","","","","","","","","","","","","","","","","","","","","","","","","","feedback_test","","","","","","","","","",""
"974","","f","psychophysics","27","165562","0.0-7.0-1.0-1.0-0.0-0.9","4","4","4","4","4","4","4","4","4","4","5","5","5","5","5","5","5","5","5","5","1","1","2","1","1","1","1","4","1","0","1","0","0","1","0","0","0","1","0","0","1","0","1","0","5","1","3","1","1","5","4","3","4","2","656853379439394816","张","","","","match","","","","","","","","","","","","","","key","f","16.655144067796616","640","356","f","true","match","img/ellipse.png","椭圆","椭圆","ALT1_2","prac_ALT1_2","","","","","","","","","",""
"null","<span style='color:GreenYellow; font-size: 70px;'>正确! </span>","null","html-keyboard-response","28","166064","0.0-7.0-1.0-1.0-0.0-1.9","4","4","4","4","4","4","4","4","4","4","5","5","5","5","5","5","5","5","5","5","1","1","2","1","1","1","1","4","1","0","1","0","0","1","0","0","0","1","0","0","1","0","1","0","5","1","3","1","1","5","4","3","4","2","656853379439394816","张","","","","","","","","","","","","","","","","","","","","","","","","","","","","","","feedback_test","","","","","","","","","",""
"1025","","f","psychophysics","29","168091","0.0-7.0-1.0-1.0-0.0-0.10","4","4","4","4","4","4","4","4","4","4","5","5","5","5","5","5","5","5","5","5","1","1","2","1","1","1","1","4","1","0","1","0","0","1","0","0","0","1","0","0","1","0","1","0","5","1","3","1","1","5","4","3","4","2","656853379439394816","张","","","","match","","","","","","","","","","","","","","key","f","16.65628925619829","640","356","f","true","match","img/ellipse.png","椭圆","椭圆","ALT1_2","prac_ALT1_2","","","","","","","","","",""
"null","<span style='color:GreenYellow; font-size: 70px;'>正确! </span>","null","html-keyboard-response","30","168594","0.0-7.0-1.0-1.0-0.0-1.10","4","4","4","4","4","4","4","4","4","4","5","5","5","5","5","5","5","5","5","5","1","1","2","1","1","1","1","4","1","0","1","0","0","1","0","0","0","1","0","0","1","0","1","0","5","1","3","1","1","5","4","3","4","2","656853379439394816","张","","","","","","","","","","","","","","","","","","","","","","","","","","","","","","feedback_test","","","","","","","","","",""
"718","","j","psychophysics","31","170319","0.0-7.0-1.0-1.0-0.0-0.11","4","4","4","4","4","4","4","4","4","4","5","5","5","5","5","5","5","5","5","5","1","1","2","1","1","1","1","4","1","0","1","0","0","1","0","0","0","1","0","0","1","0","1","0","5","1","3","1","1","5","4","3","4","2","656853379439394816","张","","","","nonmatch","","","","","","","","","","","","","","key","j","16.650873786407846","640","356","j","true","nonmatch","img/ellipse.png","方形","椭圆","ALT1_2","prac_ALT1_2","","","","","","","","","",""
"null","<span style='color:GreenYellow; font-size: 70px;'>正确! </span>","null","html-keyboard-response","32","170821","0.0-7.0-1.0-1.0-0.0-1.11","4","4","4","4","4","4","4","4","4","4","5","5","5","5","5","5","5","5","5","5","1","1","2","1","1","1","1","4","1","0","1","0","0","1","0","0","0","1","0","0","1","0","1","0","5","1","3","1","1","5","4","3","4","2","656853379439394816","张","","","","","","","","","","","","","","","","","","","","","","","","","","","","","","feedback_test","","","","","","","","","",""
"995","","f","psychophysics","33","172819","0.0-7.0-1.0-1.0-0.0-0.12","4","4","4","4","4","4","4","4","4","4","5","5","5","5","5","5","5","5","5","5","1","1","2","1","1","1","1","4","1","0","1","0","0","1","0","0","0","1","0","0","1","0","1","0","5","1","3","1","1","5","4","3","4","2","656853379439394816","张","","","","match","","","","","","","","","","","","","","key","f","16.652823529411656","640","356","f","true","match","img/square.png","方形","方形","ALT1_2","prac_ALT1_2","","","","","","","","","",""
"null","<span style='color:GreenYellow; font-size: 70px;'>正确! </span>","null","html-keyboard-response","34","173320","0.0-7.0-1.0-1.0-0.0-1.12","4","4","4","4","4","4","4","4","4","4","5","5","5","5","5","5","5","5","5","5","1","1","2","1","1","1","1","4","1","0","1","0","0","1","0","0","0","1","0","0","1","0","1","0","5","1","3","1","1","5","4","3","4","2","656853379439394816","张","","","","","","","","","","","","","","","","","","","","","","","","","","","","","","feedback_test","","","","","","","","","",""
"723","","j","psychophysics","35","175046","0.0-7.0-1.0-1.0-0.0-0.13","4","4","4","4","4","4","4","4","4","4","5","5","5","5","5","5","5","5","5","5","1","1","2","1","1","1","1","4","1","0","1","0","0","1","0","0","0","1","0","0","1","0","1","0","5","1","3","1","1","5","4","3","4","2","656853379439394816","张","","","","nonmatch","","","","","","","","","","","","","","key","j","16.654911764705947","640","356","j","true","nonmatch","img/triangle.png","椭圆","三角","ALT1_2","prac_ALT1_2","","","","","","","","","",""
"null","<span style='color:GreenYellow; font-size: 70px;'>正确! </span>","null","html-keyboard-response","36","175550","0.0-7.0-1.0-1.0-0.0-1.13","4","4","4","4","4","4","4","4","4","4","5","5","5","5","5","5","5","5","5","5","1","1","2","1","1","1","1","4","1","0","1","0","0","1","0","0","0","1","0","0","1","0","1","0","5","1","3","1","1","5","4","3","4","2","656853379439394816","张","","","","","","","","","","","","","","","","","","","","","","","","","","","","","","feedback_test","","","","","","","","","",""
"760","","j","psychophysics","37","177314","0.0-7.0-1.0-1.0-0.0-0.14","4","4","4","4","4","4","4","4","4","4","5","5","5","5","5","5","5","5","5","5","1","1","2","1","1","1","1","4","1","0","1","0","0","1","0","0","0","1","0","0","1","0","1","0","5","1","3","1","1","5","4","3","4","2","656853379439394816","张","","","","nonmatch","","","","","","","","","","","","","","key","j","16.65074285714294","640","356","f","false","match","img/pentagon.png","五边","五边","ALT1_2","prac_ALT1_2","","","","","","","","","",""
"null","<span style='color:red; font-size: 70px;'>错误! </span>","null","html-keyboard-response","38","177816","0.0-7.0-1.0-1.0-0.0-1.14","4","4","4","4","4","4","4","4","4","4","5","5","5","5","5","5","5","5","5","5","1","1","2","1","1","1","1","4","1","0","1","0","0","1","0","0","0","1","0","0","1","0","1","0","5","1","3","1","1","5","4","3","4","2","656853379439394816","张","","","","","","","","","","","","","","","","","","","","","","","","","","","","","","feedback_test","","","","","","","","","",""
"732","","j","psychophysics","39","179550","0.0-7.0-1.0-1.0-0.0-0.15","4","4","4","4","4","4","4","4","4","4","5","5","5","5","5","5","5","5","5","5","1","1","2","1","1","1","1","4","1","0","1","0","0","1","0","0","0","1","0","0","1","0","1","0","5","1","3","1","1","5","4","3","4","2","656853379439394816","张","","","","nonmatch","","","","","","","","","","","","","","key","j","16.654038834951546","640","356","j","true","nonmatch","img/square.png","椭圆","方形","ALT1_2","prac_ALT1_2","","","","","","","","","",""
"null","<span style='color:GreenYellow; font-size: 70px;'>正确! </span>","null","html-keyboard-response","40","180053","0.0-7.0-1.0-1.0-0.0-1.15","4","4","4","4","4","4","4","4","4","4","5","5","5","5","5","5","5","5","5","5","1","1","2","1","1","1","1","4","1","0","1","0","0","1","0","0","0","1","0","0","1","0","1","0","5","1","3","1","1","5","4","3","4","2","656853379439394816","张","","","","","","","","","","","","","","","","","","","","","","","","","","","","","","feedback_test","","","","","","","","","",""
"790","","j","psychophysics","41","181846","0.0-7.0-1.0-1.0-0.0-0.16","4","4","4","4","4","4","4","4","4","4","5","5","5","5","5","5","5","5","5","5","1","1","2","1","1","1","1","4","1","0","1","0","0","1","0","0","0","1","0","0","1","0","1","0","5","1","3","1","1","5","4","3","4","2","656853379439394816","张","","","","nonmatch","","","","","","","","","","","","","","key","j","16.654897196261892","640","356","j","true","nonmatch","img/pentagon.png","三角","五边","ALT1_2","prac_ALT1_2","","","","","","","","","",""
"null","<span style='color:GreenYellow; font-size: 70px;'>正确! </span>","null","html-keyboard-response","42","182351","0.0-7.0-1.0-1.0-0.0-1.16","4","4","4","4","4","4","4","4","4","4","5","5","5","5","5","5","5","5","5","5","1","1","2","1","1","1","1","4","1","0","1","0","0","1","0","0","0","1","0","0","1","0","1","0","5","1","3","1","1","5","4","3","4","2","656853379439394816","张","","","","","","","","","","","","","","","","","","","","","","","","","","","","","","feedback_test","","","","","","","","","",""
"920","","j","psychophysics","43","184274","0.0-7.0-1.0-1.0-0.0-0.17","4","4","4","4","4","4","4","4","4","4","5","5","5","5","5","5","5","5","5","5","1","1","2","1","1","1","1","4","1","0","1","0","0","1","0","0","0","1","0","0","1","0","1","0","5","1","3","1","1","5","4","3","4","2","656853379439394816","张","","","","nonmatch","","","","","","","","","","","","","","key","j","16.65505217391284","640","356","j","true","nonmatch","img/pentagon.png","方形","五边","ALT1_2","prac_ALT1_2","","","","","","","","","",""
"null","<span style='color:GreenYellow; font-size: 70px;'>正确! </span>","null","html-keyboard-response","44","184786","0.0-7.0-1.0-1.0-0.0-1.17","4","4","4","4","4","4","4","4","4","4","5","5","5","5","5","5","5","5","5","5","1","1","2","1","1","1","1","4","1","0","1","0","0","1","0","0","0","1","0","0","1","0","1","0","5","1","3","1","1","5","4","3","4","2","656853379439394816","张","","","","","","","","","","","","","","","","","","","","","","","","","","","","","","feedback_test","","","","","","","","","",""
"795","","f","psychophysics","45","186584","0.0-7.0-1.0-1.0-0.0-0.18","4","4","4","4","4","4","4","4","4","4","5","5","5","5","5","5","5","5","5","5","1","1","2","1","1","1","1","4","1","0","1","0","0","1","0","0","0","1","0","0","1","0","1","0","5","1","3","1","1","5","4","3","4","2","656853379439394816","张","","","","match","","","","","","","","","","","","","","key","f","16.64453773584902","640","356","f","true","match","img/ellipse.png","椭圆","椭圆","ALT1_2","prac_ALT1_2","","","","","","","","","",""
"null","<span style='color:GreenYellow; font-size: 70px;'>正确! </span>","null","html-keyboard-response","46","187086","0.0-7.0-1.0-1.0-0.0-1.18","4","4","4","4","4","4","4","4","4","4","5","5","5","5","5","5","5","5","5","5","1","1","2","1","1","1","1","4","1","0","1","0","0","1","0","0","0","1","0","0","1","0","1","0","5","1","3","1","1","5","4","3","4","2","656853379439394816","张","","","","","","","","","","","","","","","","","","","","","","","","","","","","","","feedback_test","","","","","","","","","",""
"921","","f","psychophysics","47","189010","0.0-7.0-1.0-1.0-0.0-0.19","4","4","4","4","4","4","4","4","4","4","5","5","5","5","5","5","5","5","5","5","1","1","2","1","1","1","1","4","1","0","1","0","0","1","0","0","0","1","0","0","1","0","1","0","5","1","3","1","1","5","4","3","4","2","656853379439394816","张","","","","match","","","","","","","","","","","","","","key","f","16.65714035087736","640","356","f","true","match","img/square.png","方形","方形","ALT1_2","prac_ALT1_2","","","","","","","","","",""
"null","<span style='color:GreenYellow; font-size: 70px;'>正确! </span>","null","html-keyboard-response","48","189513","0.0-7.0-1.0-1.0-0.0-1.19","4","4","4","4","4","4","4","4","4","4","5","5","5","5","5","5","5","5","5","5","1","1","2","1","1","1","1","4","1","0","1","0","0","1","0","0","0","1","0","0","1","0","1","0","5","1","3","1","1","5","4","3","4","2","656853379439394816","张","","","","","","","","","","","","","","","","","","","","","","","","","","","","","","feedback_test","","","","","","","","","",""
"712","","j","psychophysics","49","191228","0.0-7.0-1.0-1.0-0.0-0.20","4","4","4","4","4","4","4","4","4","4","5","5","5","5","5","5","5","5","5","5","1","1","2","1","1","1","1","4","1","0","1","0","0","1","0","0","0","1","0","0","1","0","1","0","5","1","3","1","1","5","4","3","4","2","656853379439394816","张","","","","nonmatch","","","","","","","","","","","","","","key","j","16.658088235294116","640","356","j","true","nonmatch","img/square.png","三角","方形","ALT1_2","prac_ALT1_2","","","","","","","","","",""
"null","<span style='color:GreenYellow; font-size: 70px;'>正确! </span>","null","html-keyboard-response","50","191731","0.0-7.0-1.0-1.0-0.0-1.20","4","4","4","4","4","4","4","4","4","4","5","5","5","5","5","5","5","5","5","5","1","1","2","1","1","1","1","4","1","0","1","0","0","1","0","0","0","1","0","0","1","0","1","0","5","1","3","1","1","5","4","3","4","2","656853379439394816","张","","","","","","","","","","","","","","","","","","","","","","","","","","","","","","feedback_test","","","","","","","","","",""
"668","","f","psychophysics","51","193401","0.0-7.0-1.0-1.0-0.0-0.21","4","4","4","4","4","4","4","4","4","4","5","5","5","5","5","5","5","5","5","5","1","1","2","1","1","1","1","4","1","0","1","0","0","1","0","0","0","1","0","0","1","0","1","0","5","1","3","1","1","5","4","3","4","2","656853379439394816","张","","","","match","","","","","","","","","","","","","","key","f","16.654797979798097","640","356","f","true","match","img/pentagon.png","五边","五边","ALT1_2","prac_ALT1_2","","","","","","","","","",""
"null","<span style='color:GreenYellow; font-size: 70px;'>正确! </span>","null","html-keyboard-response","52","193904","0.0-7.0-1.0-1.0-0.0-1.21","4","4","4","4","4","4","4","4","4","4","5","5","5","5","5","5","5","5","5","5","1","1","2","1","1","1","1","4","1","0","1","0","0","1","0","0","0","1","0","0","1","0","1","0","5","1","3","1","1","5","4","3","4","2","656853379439394816","张","","","","","","","","","","","","","","","","","","","","","","","","","","","","","","feedback_test","","","","","","","","","",""
"689","","f","psychophysics","53","195596","0.0-7.0-1.0-1.0-0.0-0.22","4","4","4","4","4","4","4","4","4","4","5","5","5","5","5","5","5","5","5","5","1","1","2","1","1","1","1","4","1","0","1","0","0","1","0","0","0","1","0","0","1","0","1","0","5","1","3","1","1","5","4","3","4","2","656853379439394816","张","","","","match","","","","","","","","","","","","","","key","f","16.656630000000003","640","356","f","true","match","img/triangle.png","三角","三角","ALT1_2","prac_ALT1_2","","","","","","","","","",""
"null","<span style='color:GreenYellow; font-size: 70px;'>正确! </span>","null","html-keyboard-response","54","196100","0.0-7.0-1.0-1.0-0.0-1.22","4","4","4","4","4","4","4","4","4","4","5","5","5","5","5","5","5","5","5","5","1","1","2","1","1","1","1","4","1","0","1","0","0","1","0","0","0","1","0","0","1","0","1","0","5","1","3","1","1","5","4","3","4","2","656853379439394816","张","","","","","","","","","","","","","","","","","","","","","","","","","","","","","","feedback_test","","","","","","","","","",""
"848","","j","psychophysics","55","197952","0.0-7.0-1.0-1.0-0.0-0.23","4","4","4","4","4","4","4","4","4","4","5","5","5","5","5","5","5","5","5","5","1","1","2","1","1","1","1","4","1","0","1","0","0","1","0","0","0","1","0","0","1","0","1","0","5","1","3","1","1","5","4","3","4","2","656853379439394816","张","","","","nonmatch","","","","","","","","","","","","","","key","j","16.65610000000002","640","356","j","true","nonmatch","img/pentagon.png","椭圆","五边","ALT1_2","prac_ALT1_2","","","","","","","","","",""
"null","<span style='color:GreenYellow; font-size: 70px;'>正确! </span>","null","html-keyboard-response","56","198453","0.0-7.0-1.0-1.0-0.0-1.23","4","4","4","4","4","4","4","4","4","4","5","5","5","5","5","5","5","5","5","5","1","1","2","1","1","1","1","4","1","0","1","0","0","1","0","0","0","1","0","0","1","0","1","0","5","1","3","1","1","5","4","3","4","2","656853379439394816","张","","","","","","","","","","","","","","","","","","","","","","","","","","","","","","feedback_test","","","","","","","","","",""
"801","","j","psychophysics","57","200261","0.0-7.0-1.0-1.0-0.0-0.24","4","4","4","4","4","4","4","4","4","4","5","5","5","5","5","5","5","5","5","5","1","1","2","1","1","1","1","4","1","0","1","0","0","1","0","0","0","1","0","0","1","0","1","0","5","1","3","1","1","5","4","3","4","2","656853379439394816","张","","","","nonmatch","","","","","","","","","","","","","","key","j","16.653212962962883","640","356","j","true","nonmatch","img/triangle.png","五边","三角","ALT1_2","prac_ALT1_2","","","","","","","","","",""
"null","<span style='color:GreenYellow; font-size: 70px;'>正确! </span>","null","html-keyboard-response","58","200763","0.0-7.0-1.0-1.0-0.0-1.24","4","4","4","4","4","4","4","4","4","4","5","5","5","5","5","5","5","5","5","5","1","1","2","1","1","1","1","4","1","0","1","0","0","1","0","0","0","1","0","0","1","0","1","0","5","1","3","1","1","5","4","3","4","2","656853379439394816","张","","","","","","","","","","","","","","","","","","","","","","","","","","","","","","feedback_test","","","","","","","","","",""
"740","","j","psychophysics","59","202508","0.0-7.0-1.0-1.0-0.0-0.25","4","4","4","4","4","4","4","4","4","4","5","5","5","5","5","5","5","5","5","5","1","1","2","1","1","1","1","4","1","0","1","0","0","1","0","0","0","1","0","0","1","0","1","0","5","1","3","1","1","5","4","3","4","2","656853379439394816","张","","","","nonmatch","","","","","","","","","","","","","","key","j","16.65118446601956","640","356","j","true","nonmatch","img/square.png","三角","方形","ALT1_2","prac_ALT1_2","","","","","","","","","",""
"null","<span style='color:GreenYellow; font-size: 70px;'>正确! </span>","null","html-keyboard-response","60","203010","0.0-7.0-1.0-1.0-0.0-1.25","4","4","4","4","4","4","4","4","4","4","5","5","5","5","5","5","5","5","5","5","1","1","2","1","1","1","1","4","1","0","1","0","0","1","0","0","0","1","0","0","1","0","1","0","5","1","3","1","1","5","4","3","4","2","656853379439394816","张","","","","","","","","","","","","","","","","","","","","","","","","","","","","","","feedback_test","","","","","","","","","",""
"628","","j","psychophysics","61","204641","0.0-7.0-1.0-1.0-0.0-0.26","4","4","4","4","4","4","4","4","4","4","5","5","5","5","5","5","5","5","5","5","1","1","2","1","1","1","1","4","1","0","1","0","0","1","0","0","0","1","0","0","1","0","1","0","5","1","3","1","1","5","4","3","4","2","656853379439394816","张","","","","nonmatch","","","","","","","","","","","","","","key","j","16.65470103092777","640","356","j","true","nonmatch","img/pentagon.png","椭圆","五边","ALT1_2","prac_ALT1_2","","","","","","","","","",""
"null","<span style='color:GreenYellow; font-size: 70px;'>正确! </span>","null","html-keyboard-response","62","205142","0.0-7.0-1.0-1.0-0.0-1.26","4","4","4","4","4","4","4","4","4","4","5","5","5","5","5","5","5","5","5","5","1","1","2","1","1","1","1","4","1","0","1","0","0","1","0","0","0","1","0","0","1","0","1","0","5","1","3","1","1","5","4","3","4","2","656853379439394816","张","","","","","","","","","","","","","","","","","","","","","","","","","","","","","","feedback_test","","","","","","","","","",""
"650","","j","psychophysics","63","206795","0.0-7.0-1.0-1.0-0.0-0.27","4","4","4","4","4","4","4","4","4","4","5","5","5","5","5","5","5","5","5","5","1","1","2","1","1","1","1","4","1","0","1","0","0","1","0","0","0","1","0","0","1","0","1","0","5","1","3","1","1","5","4","3","4","2","656853379439394816","张","","","","nonmatch","","","","","","","","","","","","","","key","j","16.657173469387665","640","356","j","true","nonmatch","img/pentagon.png","三角","五边","ALT1_2","prac_ALT1_2","","","","","","","","","",""
"null","<span style='color:GreenYellow; font-size: 70px;'>正确! </span>","null","html-keyboard-response","64","207298","0.0-7.0-1.0-1.0-0.0-1.27","4","4","4","4","4","4","4","4","4","4","5","5","5","5","5","5","5","5","5","5","1","1","2","1","1","1","1","4","1","0","1","0","0","1","0","0","0","1","0","0","1","0","1","0","5","1","3","1","1","5","4","3","4","2","656853379439394816","张","","","","","","","","","","","","","","","","","","","","","","","","","","","","","","feedback_test","","","","","","","","","",""
"987","","j","psychophysics","65","209288","0.0-7.0-1.0-1.0-0.0-0.28","4","4","4","4","4","4","4","4","4","4","5","5","5","5","5","5","5","5","5","5","1","1","2","1","1","1","1","4","1","0","1","0","0","1","0","0","0","1","0","0","1","0","1","0","5","1","3","1","1","5","4","3","4","2","656853379439394816","张","","","","nonmatch","","","","","","","","","","","","","","key","j","16.655882352941077","640","356","j","true","nonmatch","img/square.png","五边","方形","ALT1_2","prac_ALT1_2","","","","","","","","","",""
"null","<span style='color:GreenYellow; font-size: 70px;'>正确! </span>","null","html-keyboard-response","66","209792","0.0-7.0-1.0-1.0-0.0-1.28","4","4","4","4","4","4","4","4","4","4","5","5","5","5","5","5","5","5","5","5","1","1","2","1","1","1","1","4","1","0","1","0","0","1","0","0","0","1","0","0","1","0","1","0","5","1","3","1","1","5","4","3","4","2","656853379439394816","张","","","","","","","","","","","","","","","","","","","","","","","","","","","","","","feedback_test","","","","","","","","","",""
"716","","j","psychophysics","67","211510","0.0-7.0-1.0-1.0-0.0-0.29","4","4","4","4","4","4","4","4","4","4","5","5","5","5","5","5","5","5","5","5","1","1","2","1","1","1","1","4","1","0","1","0","0","1","0","0","0","1","0","0","1","0","1","0","5","1","3","1","1","5","4","3","4","2","656853379439394816","张","","","","nonmatch","","","","","","","","","","","","","","key","j","16.65363725490198","640","356","j","true","nonmatch","img/square.png","椭圆","方形","ALT1_2","prac_ALT1_2","","","","","","","","","",""
"null","<span style='color:GreenYellow; font-size: 70px;'>正确! </span>","null","html-keyboard-response","68","212012","0.0-7.0-1.0-1.0-0.0-1.29","4","4","4","4","4","4","4","4","4","4","5","5","5","5","5","5","5","5","5","5","1","1","2","1","1","1","1","4","1","0","1","0","0","1","0","0","0","1","0","0","1","0","1","0","5","1","3","1","1","5","4","3","4","2","656853379439394816","张","","","","","","","","","","","","","","","","","","","","","","","","","","","","","","feedback_test","","","","","","","","","",""
"675","","f","psychophysics","69","213692","0.0-7.0-1.0-1.0-0.0-0.30","4","4","4","4","4","4","4","4","4","4","5","5","5","5","5","5","5","5","5","5","1","1","2","1","1","1","1","4","1","0","1","0","0","1","0","0","0","1","0","0","1","0","1","0","5","1","3","1","1","5","4","3","4","2","656853379439394816","张","","","","match","","","","","","","","","","","","","","key","f","16.65353999999992","640","356","f","true","match","img/pentagon.png","五边","五边","ALT1_2","prac_ALT1_2","","","","","","","","","",""
"null","<span style='color:GreenYellow; font-size: 70px;'>正确! </span>","null","html-keyboard-response","70","214194","0.0-7.0-1.0-1.0-0.0-1.30","4","4","4","4","4","4","4","4","4","4","5","5","5","5","5","5","5","5","5","5","1","1","2","1","1","1","1","4","1","0","1","0","0","1","0","0","0","1","0","0","1","0","1","0","5","1","3","1","1","5","4","3","4","2","656853379439394816","张","","","","","","","","","","","","","","","","","","","","","","","","","","","","","","feedback_test","","","","","","","","","",""
"659","","f","psychophysics","71","215857","0.0-7.0-1.0-1.0-0.0-0.31","4","4","4","4","4","4","4","4","4","4","5","5","5","5","5","5","5","5","5","5","1","1","2","1","1","1","1","4","1","0","1","0","0","1","0","0","0","1","0","0","1","0","1","0","5","1","3","1","1","5","4","3","4","2","656853379439394816","张","","","","match","","","","","","","","","","","","","","key","f","16.65516161616166","640","356","f","true","match","img/pentagon.png","五边","五边","ALT1_2","prac_ALT1_2","","","","","","","","","",""
"null","<span style='color:GreenYellow; font-size: 70px;'>正确! </span>","null","html-keyboard-response","72","216358","0.0-7.0-1.0-1.0-0.0-1.31","4","4","4","4","4","4","4","4","4","4","5","5","5","5","5","5","5","5","5","5","1","1","2","1","1","1","1","4","1","0","1","0","0","1","0","0","0","1","0","0","1","0","1","0","5","1","3","1","1","5","4","3","4","2","656853379439394816","张","","","","","","","","","","","","","","","","","","","","","","","","","","","","","","feedback_test","","","","","","","","","",""
"540","","f","psychophysics","73","217898","0.0-7.0-1.0-1.0-0.0-0.32","4","4","4","4","4","4","4","4","4","4","5","5","5","5","5","5","5","5","5","5","1","1","2","1","1","1","1","4","1","0","1","0","0","1","0","0","0","1","0","0","1","0","1","0","5","1","3","1","1","5","4","3","4","2","656853379439394816","张","","","","match","","","","","","","","","","","","","","key","f","16.65471739130463","640","356","f","true","match","img/pentagon.png","五边","五边","ALT1_2","prac_ALT1_2","","","","","","","","","",""
"null","<span style='color:GreenYellow; font-size: 70px;'>正确! </span>","null","html-keyboard-response","74","218414","0.0-7.0-1.0-1.0-0.0-1.32","4","4","4","4","4","4","4","4","4","4","5","5","5","5","5","5","5","5","5","5","1","1","2","1","1","1","1","4","1","0","1","0","0","1","0","0","0","1","0","0","1","0","1","0","5","1","3","1","1","5","4","3","4","2","656853379439394816","张","","","","","","","","","","","","","","","","","","","","","","","","","","","","","","feedback_test","","","","","","","","","",""
"805","","f","psychophysics","75","220223","0.0-7.0-1.0-1.0-0.0-0.33","4","4","4","4","4","4","4","4","4","4","5","5","5","5","5","5","5","5","5","5","1","1","2","1","1","1","1","4","1","0","1","0","0","1","0","0","0","1","0","0","1","0","1","0","5","1","3","1","1","5","4","3","4","2","656853379439394816","张","","","","match","","","","","","","","","","","","","","key","f","16.651747663551344","640","356","f","true","match","img/square.png","方形","方形","ALT1_2","prac_ALT1_2","","","","","","","","","",""
"null","<span style='color:GreenYellow; font-size: 70px;'>正确! </span>","null","html-keyboard-response","76","220725","0.0-7.0-1.0-1.0-0.0-1.33","4","4","4","4","4","4","4","4","4","4","5","5","5","5","5","5","5","5","5","5","1","1","2","1","1","1","1","4","1","0","1","0","0","1","0","0","0","1","0","0","1","0","1","0","5","1","3","1","1","5","4","3","4","2","656853379439394816","张","","","","","","","","","","","","","","","","","","","","","","","","","","","","","","feedback_test","","","","","","","","","",""
"943","","f","psychophysics","77","222672","0.0-7.0-1.0-1.0-0.0-0.34","4","4","4","4","4","4","4","4","4","4","5","5","5","5","5","5","5","5","5","5","1","1","2","1","1","1","1","4","1","0","1","0","0","1","0","0","0","1","0","0","1","0","1","0","5","1","3","1","1","5","4","3","4","2","656853379439394816","张","","","","match","","","","","","","","","","","","","","key","f","16.651982608695423","640","356","f","true","match","img/square.png","方形","方形","ALT1_2","prac_ALT1_2","","","","","","","","","",""
"null","<span style='color:GreenYellow; font-size: 70px;'>正确! </span>","null","html-keyboard-response","78","223175","0.0-7.0-1.0-1.0-0.0-1.34","4","4","4","4","4","4","4","4","4","4","5","5","5","5","5","5","5","5","5","5","1","1","2","1","1","1","1","4","1","0","1","0","0","1","0","0","0","1","0","0","1","0","1","0","5","1","3","1","1","5","4","3","4","2","656853379439394816","张","","","","","","","","","","","","","","","","","","","","","","","","","","","","","","feedback_test","","","","","","","","","",""
"629","","f","psychophysics","79","224806","0.0-7.0-1.0-1.0-0.0-0.35","4","4","4","4","4","4","4","4","4","4","5","5","5","5","5","5","5","5","5","5","1","1","2","1","1","1","1","4","1","0","1","0","0","1","0","0","0","1","0","0","1","0","1","0","5","1","3","1","1","5","4","3","4","2","656853379439394816","张","","","","match","","","","","","","","","","","","","","key","f","16.65451546391765","640","356","f","true","match","img/triangle.png","三角","三角","ALT1_2","prac_ALT1_2","","","","","","","","","",""
"null","<span style='color:GreenYellow; font-size: 70px;'>正确! </span>","null","html-keyboard-response","80","225309","0.0-7.0-1.0-1.0-0.0-1.35","4","4","4","4","4","4","4","4","4","4","5","5","5","5","5","5","5","5","5","5","1","1","2","1","1","1","1","4","1","0","1","0","0","1","0","0","0","1","0","0","1","0","1","0","5","1","3","1","1","5","4","3","4","2","656853379439394816","张","","","","","","","","","","","","","","","","","","","","","","","","","","","","","","feedback_test","","","","","","","","","",""
"772","","f","psychophysics","81","227083","0.0-7.0-1.0-1.0-0.0-0.36","4","4","4","4","4","4","4","4","4","4","5","5","5","5","5","5","5","5","5","5","1","1","2","1","1","1","1","4","1","0","1","0","0","1","0","0","0","1","0","0","1","0","1","0","5","1","3","1","1","5","4","3","4","2","656853379439394816","张","","","","match","","","","","","","","","","","","","","key","f","16.65693333333336","640","356","f","true","match","img/ellipse.png","椭圆","椭圆","ALT1_2","prac_ALT1_2","","","","","","","","","",""
"null","<span style='color:GreenYellow; font-size: 70px;'>正确! </span>","null","html-keyboard-response","82","227585","0.0-7.0-1.0-1.0-0.0-1.36","4","4","4","4","4","4","4","4","4","4","5","5","5","5","5","5","5","5","5","5","1","1","2","1","1","1","1","4","1","0","1","0","0","1","0","0","0","1","0","0","1","0","1","0","5","1","3","1","1","5","4","3","4","2","656853379439394816","张","","","","","","","","","","","","","","","","","","","","","","","","","","","","","","feedback_test","","","","","","","","","",""
"630","","f","psychophysics","83","229221","0.0-7.0-1.0-1.0-0.0-0.37","4","4","4","4","4","4","4","4","4","4","5","5","5","5","5","5","5","5","5","5","1","1","2","1","1","1","1","4","1","0","1","0","0","1","0","0","0","1","0","0","1","0","1","0","5","1","3","1","1","5","4","3","4","2","656853379439394816","张","","","","match","","","","","","","","","","","","","","key","f","16.656721649484435","640","356","f","true","match","img/ellipse.png","椭圆","椭圆","ALT1_2","prac_ALT1_2","","","","","","","","","",""
"null","<span style='color:GreenYellow; font-size: 70px;'>正确! </span>","null","html-keyboard-response","84","229726","0.0-7.0-1.0-1.0-0.0-1.37","4","4","4","4","4","4","4","4","4","4","5","5","5","5","5","5","5","5","5","5","1","1","2","1","1","1","1","4","1","0","1","0","0","1","0","0","0","1","0","0","1","0","1","0","5","1","3","1","1","5","4","3","4","2","656853379439394816","张","","","","","","","","","","","","","","","","","","","","","","","","","","","","","","feedback_test","","","","","","","","","",""
"595","","f","psychophysics","85","231324","0.0-7.0-1.0-1.0-0.0-0.38","4","4","4","4","4","4","4","4","4","4","5","5","5","5","5","5","5","5","5","5","1","1","2","1","1","1","1","4","1","0","1","0","0","1","0","0","0","1","0","0","1","0","1","0","5","1","3","1","1","5","4","3","4","2","656853379439394816","张","","","","match","","","","","","","","","","","","","","key","f","16.65598947368409","640","356","f","true","match","img/triangle.png","三角","三角","ALT1_2","prac_ALT1_2","","","","","","","","","",""
"null","<span style='color:GreenYellow; font-size: 70px;'>正确! </span>","null","html-keyboard-response","86","231825","0.0-7.0-1.0-1.0-0.0-1.38","4","4","4","4","4","4","4","4","4","4","5","5","5","5","5","5","5","5","5","5","1","1","2","1","1","1","1","4","1","0","1","0","0","1","0","0","0","1","0","0","1","0","1","0","5","1","3","1","1","5","4","3","4","2","656853379439394816","张","","","","","","","","","","","","","","","","","","","","","","","","","","","","","","feedback_test","","","","","","","","","",""
"658","","j","psychophysics","87","233486","0.0-7.0-1.0-1.0-0.0-0.39","4","4","4","4","4","4","4","4","4","4","5","5","5","5","5","5","5","5","5","5","1","1","2","1","1","1","1","4","1","0","1","0","0","1","0","0","0","1","0","0","1","0","1","0","5","1","3","1","1","5","4","3","4","2","656853379439394816","张","","","","nonmatch","","","","","","","","","","","","","","key","j","16.652737373737512","640","356","j","true","nonmatch","img/ellipse.png","三角","椭圆","ALT1_2","prac_ALT1_2","","","","","","","","","",""
"null","<span style='color:GreenYellow; font-size: 70px;'>正确! </span>","null","html-keyboard-response","88","233989","0.0-7.0-1.0-1.0-0.0-1.39","4","4","4","4","4","4","4","4","4","4","5","5","5","5","5","5","5","5","5","5","1","1","2","1","1","1","1","4","1","0","1","0","0","1","0","0","0","1","0","0","1","0","1","0","5","1","3","1","1","5","4","3","4","2","656853379439394816","张","","","","","","","","","","","","","","","","","","","","","","","","","","","","","","feedback_test","","","","","","","","","",""
"869","","f","psychophysics","89","235860","0.0-7.0-1.0-1.0-0.0-0.40","4","4","4","4","4","4","4","4","4","4","5","5","5","5","5","5","5","5","5","5","1","1","2","1","1","1","1","4","1","0","1","0","0","1","0","0","0","1","0","0","1","0","1","0","5","1","3","1","1","5","4","3","4","2","656853379439394816","张","","","","match","","","","","","","","","","","","","","key","f","16.64933333333334","640","356","f","true","match","img/triangle.png","三角","三角","ALT1_2","prac_ALT1_2","","","","","","","","","",""
"null","<span style='color:GreenYellow; font-size: 70px;'>正确! </span>","null","html-keyboard-response","90","236363","0.0-7.0-1.0-1.0-0.0-1.40","4","4","4","4","4","4","4","4","4","4","5","5","5","5","5","5","5","5","5","5","1","1","2","1","1","1","1","4","1","0","1","0","0","1","0","0","0","1","0","0","1","0","1","0","5","1","3","1","1","5","4","3","4","2","656853379439394816","张","","","","","","","","","","","","","","","","","","","","","","","","","","","","","","feedback_test","","","","","","","","","",""
"799","","j","psychophysics","91","238162","0.0-7.0-1.0-1.0-0.0-0.41","4","4","4","4","4","4","4","4","4","4","5","5","5","5","5","5","5","5","5","5","1","1","2","1","1","1","1","4","1","0","1","0","0","1","0","0","0","1","0","0","1","0","1","0","5","1","3","1","1","5","4","3","4","2","656853379439394816","张","","","","nonmatch","","","","","","","","","","","","","","key","j","16.654168224299195","640","356","j","true","nonmatch","img/ellipse.png","五边","椭圆","ALT1_2","prac_ALT1_2","","","","","","","","","",""
"null","<span style='color:GreenYellow; font-size: 70px;'>正确! </span>","null","html-keyboard-response","92","238665","0.0-7.0-1.0-1.0-0.0-1.41","4","4","4","4","4","4","4","4","4","4","5","5","5","5","5","5","5","5","5","5","1","1","2","1","1","1","1","4","1","0","1","0","0","1","0","0","0","1","0","0","1","0","1","0","5","1","3","1","1","5","4","3","4","2","656853379439394816","张","","","","","","","","","","","","","","","","","","","","","","","","","","","","","","feedback_test","","","","","","","","","",""
"529","","f","psychophysics","93","240198","0.0-7.0-1.0-1.0-0.0-0.42","4","4","4","4","4","4","4","4","4","4","5","5","5","5","5","5","5","5","5","5","1","1","2","1","1","1","1","4","1","0","1","0","0","1","0","0","0","1","0","0","1","0","1","0","5","1","3","1","1","5","4","3","4","2","656853379439394816","张","","","","match","","","","","","","","","","","","","","key","f","16.65159340659355","640","356","f","true","match","img/ellipse.png","椭圆","椭圆","ALT1_2","prac_ALT1_2","","","","","","","","","",""
"null","<span style='color:GreenYellow; font-size: 70px;'>正确! </span>","null","html-keyboard-response","94","240699","0.0-7.0-1.0-1.0-0.0-1.42","4","4","4","4","4","4","4","4","4","4","5","5","5","5","5","5","5","5","5","5","1","1","2","1","1","1","1","4","1","0","1","0","0","1","0","0","0","1","0","0","1","0","1","0","5","1","3","1","1","5","4","3","4","2","656853379439394816","张","","","","","","","","","","","","","","","","","","","","","","","","","","","","","","feedback_test","","","","","","","","","",""
"664","","f","psychophysics","95","242367","0.0-7.0-1.0-1.0-0.0-0.43","4","4","4","4","4","4","4","4","4","4","5","5","5","5","5","5","5","5","5","5","1","1","2","1","1","1","1","4","1","0","1","0","0","1","0","0","0","1","0","0","1","0","1","0","5","1","3","1","1","5","4","3","4","2","656853379439394816","张","","","","match","","","","","","","","","","","","","","key","f","16.654626262626163","640","356","j","false","nonmatch","img/triangle.png","方形","三角","ALT1_2","prac_ALT1_2","","","","","","","","","",""
"null","<span style='color:red; font-size: 70px;'>错误! </span>","null","html-keyboard-response","96","242870","0.0-7.0-1.0-1.0-0.0-1.43","4","4","4","4","4","4","4","4","4","4","5","5","5","5","5","5","5","5","5","5","1","1","2","1","1","1","1","4","1","0","1","0","0","1","0","0","0","1","0","0","1","0","1","0","5","1","3","1","1","5","4","3","4","2","656853379439394816","张","","","","","","","","","","","","","","","","","","","","","","","","","","","","","","feedback_test","","","","","","","","","",""
"853","","j","psychophysics","97","244725","0.0-7.0-1.0-1.0-0.0-0.44","4","4","4","4","4","4","4","4","4","4","5","5","5","5","5","5","5","5","5","5","1","1","2","1","1","1","1","4","1","0","1","0","0","1","0","0","0","1","0","0","1","0","1","0","5","1","3","1","1","5","4","3","4","2","656853379439394816","张","","","","nonmatch","","","","","","","","","","","","","","key","j","16.65449549549554","640","356","j","true","nonmatch","img/pentagon.png","方形","五边","ALT1_2","prac_ALT1_2","","","","","","","","","",""
"null","<span style='color:GreenYellow; font-size: 70px;'>正确! </span>","null","html-keyboard-response","98","245229","0.0-7.0-1.0-1.0-0.0-1.44","4","4","4","4","4","4","4","4","4","4","5","5","5","5","5","5","5","5","5","5","1","1","2","1","1","1","1","4","1","0","1","0","0","1","0","0","0","1","0","0","1","0","1","0","5","1","3","1","1","5","4","3","4","2","656853379439394816","张","","","","","","","","","","","","","","","","","","","","","","","","","","","","","","feedback_test","","","","","","","","","",""
"742","","j","psychophysics","99","246974","0.0-7.0-1.0-1.0-0.0-0.45","4","4","4","4","4","4","4","4","4","4","5","5","5","5","5","5","5","5","5","5","1","1","2","1","1","1","1","4","1","0","1","0","0","1","0","0","0","1","0","0","1","0","1","0","5","1","3","1","1","5","4","3","4","2","656853379439394816","张","","","","nonmatch","","","","","","","","","","","","","","key","j","16.653432692307923","640","356","j","true","nonmatch","img/triangle.png","椭圆","三角","ALT1_2","prac_ALT1_2","","","","","","","","","",""
"null","<span style='color:GreenYellow; font-size: 70px;'>正确! </span>","null","html-keyboard-response","100","247478","0.0-7.0-1.0-1.0-0.0-1.45","4","4","4","4","4","4","4","4","4","4","5","5","5","5","5","5","5","5","5","5","1","1","2","1","1","1","1","4","1","0","1","0","0","1","0","0","0","1","0","0","1","0","1","0","5","1","3","1","1","5","4","3","4","2","656853379439394816","张","","","","","","","","","","","","","","","","","","","","","","","","","","","","","","feedback_test","","","","","","","","","",""
"710","","j","psychophysics","101","249190","0.0-7.0-1.0-1.0-0.0-0.46","4","4","4","4","4","4","4","4","4","4","5","5","5","5","5","5","5","5","5","5","1","1","2","1","1","1","1","4","1","0","1","0","0","1","0","0","0","1","0","0","1","0","1","0","5","1","3","1","1","5","4","3","4","2","656853379439394816","张","","","","nonmatch","","","","","","","","","","","","","","key","j","16.655313725490238","640","356","j","true","nonmatch","img/ellipse.png","方形","椭圆","ALT1_2","prac_ALT1_2","","","","","","","","","",""
"null","<span style='color:GreenYellow; font-size: 70px;'>正确! </span>","null","html-keyboard-response","102","249691","0.0-7.0-1.0-1.0-0.0-1.46","4","4","4","4","4","4","4","4","4","4","5","5","5","5","5","5","5","5","5","5","1","1","2","1","1","1","1","4","1","0","1","0","0","1","0","0","0","1","0","0","1","0","1","0","5","1","3","1","1","5","4","3","4","2","656853379439394816","张","","","","","","","","","","","","","","","","","","","","","","","","","","","","","","feedback_test","","","","","","","","","",""
"684","","f","psychophysics","103","251378","0.0-7.0-1.0-1.0-0.0-0.47","4","4","4","4","4","4","4","4","4","4","5","5","5","5","5","5","5","5","5","5","1","1","2","1","1","1","1","4","1","0","1","0","0","1","0","0","0","1","0","0","1","0","1","0","5","1","3","1","1","5","4","3","4","2","656853379439394816","张","","","","match","","","","","","","","","","","","","","key","f","16.6555799999999","640","356","f","true","match","img/square.png","方形","方形","ALT1_2","prac_ALT1_2","","","","","","","","","",""
"null","<span style='color:GreenYellow; font-size: 70px;'>正确! </span>","null","html-keyboard-response","104","251880","0.0-7.0-1.0-1.0-0.0-1.47","4","4","4","4","4","4","4","4","4","4","5","5","5","5","5","5","5","5","5","5","1","1","2","1","1","1","1","4","1","0","1","0","0","1","0","0","0","1","0","0","1","0","1","0","5","1","3","1","1","5","4","3","4","2","656853379439394816","张","","","","","","","","","","","","","","","","","","","","","","","","","","","","","","feedback_test","","","","","","","","","",""
"51197","<style>.context{color:white; font-size: 35px; line-height:40px}</style>                          <div><p class='context'>您正确回答了94% 的试次。</p><p class='context'>您的平均反应时为780毫秒。</p><p class='context'>恭喜您完成练习。按空格键进入正式实验。</p><p class='footer' style='font-size: 35px; line-height:40px;'>请在进入正式实验实验之前将您的<span style='color: lightgreen;'>食指</span>放在电脑键盘的相应键位上进行按键。</p>"," ","html-keyboard-response","105","303080","0.0-7.0-1.0-2.0","4","4","4","4","4","4","4","4","4","4","5","5","5","5","5","5","5","5","5","5","1","1","2","1","1","1","1","4","1","0","1","0","0","1","0","0","0","1","0","0","1","0","1","0","5","1","3","1","1","5","4","3","4","2","656853379439394816","张","","","","","","","","","","","","","","","","","","","","","","","","","","","","","","","","","","","","","","","",""
"3165","
  <p>请您将手指放在按键上，准备进入正式的匹配任务。</p>
  <p> <div style = ""color: green""><按空格键进入下一阶段的匹配任务></div></p>
  "," ","html-keyboard-response","106","306251","0.0-7.0-1.0-3.0","4","4","4","4","4","4","4","4","4","4","5","5","5","5","5","5","5","5","5","5","1","1","2","1","1","1","1","4","1","0","1","0","0","1","0","0","0","1","0","0","1","0","1","0","5","1","3","1","1","5","4","3","4","2","656853379439394816","张","","","","","","","","","","","","","","","","","","","","","","","","","","","","","","","","","","","","","","","",""
"733","","f","psychophysics","107","307986","0.0-7.0-1.0-4.0-0.0-0.0","4","4","4","4","4","4","4","4","4","4","5","5","5","5","5","5","5","5","5","5","1","1","2","1","1","1","1","4","1","0","1","0","0","1","0","0","0","1","0","0","1","0","1","0","5","1","3","1","1","5","4","3","4","2","656853379439394816","张","","","","match","","","","","","","","","","","","","","key","f","16.6575728155338","640","356","f","true","match","img/ellipse.png","椭圆","椭圆","ALT1","formal_ALT1_2","","","","","","","","","",""
"null","<span style='color:GreenYellow; font-size: 70px;'>正确! </span>","null","html-keyboard-response","108","308490","0.0-7.0-1.0-4.0-0.0-1.0","4","4","4","4","4","4","4","4","4","4","5","5","5","5","5","5","5","5","5","5","1","1","2","1","1","1","1","4","1","0","1","0","0","1","0","0","0","1","0","0","1","0","1","0","5","1","3","1","1","5","4","3","4","2","656853379439394816","张","","","","","","","","","","","","","","","","","","","","","","","","","","","","","","feedback_test","","","","","","","","","",""
"825","","j","psychophysics","109","310319","0.0-7.0-1.0-4.0-0.0-0.1","4","4","4","4","4","4","4","4","4","4","5","5","5","5","5","5","5","5","5","5","1","1","2","1","1","1","1","4","1","0","1","0","0","1","0","0","0","1","0","0","1","0","1","0","5","1","3","1","1","5","4","3","4","2","656853379439394816","张","","","","nonmatch","","","","","","","","","","","","","","key","j","16.653101851851616","640","356","j","true","nonmatch","img/triangle.png","五边","三角","ALT1","formal_ALT1_2","","","","","","","","","",""
"null","<span style='color:GreenYellow; font-size: 70px;'>正确! </span>","null","html-keyboard-response","110","310822","0.0-7.0-1.0-4.0-0.0-1.1","4","4","4","4","4","4","4","4","4","4","5","5","5","5","5","5","5","5","5","5","1","1","2","1","1","1","1","4","1","0","1","0","0","1","0","0","0","1","0","0","1","0","1","0","5","1","3","1","1","5","4","3","4","2","656853379439394816","张","","","","","","","","","","","","","","","","","","","","","","","","","","","","","","feedback_test","","","","","","","","","",""
"603","","f","psychophysics","111","312429","0.0-7.0-1.0-4.0-0.0-0.2","4","4","4","4","4","4","4","4","4","4","5","5","5","5","5","5","5","5","5","5","1","1","2","1","1","1","1","4","1","0","1","0","0","1","0","0","0","1","0","0","1","0","1","0","5","1","3","1","1","5","4","3","4","2","656853379439394816","张","","","","match","","","","","","","","","","","","","","key","f","16.656221052631736","640","356","f","true","match","img/triangle.png","三角","三角","ALT1","formal_ALT1_2","","","","","","","","","",""
"null","<span style='color:GreenYellow; font-size: 70px;'>正确! </span>","null","html-keyboard-response","112","312930","0.0-7.0-1.0-4.0-0.0-1.2","4","4","4","4","4","4","4","4","4","4","5","5","5","5","5","5","5","5","5","5","1","1","2","1","1","1","1","4","1","0","1","0","0","1","0","0","0","1","0","0","1","0","1","0","5","1","3","1","1","5","4","3","4","2","656853379439394816","张","","","","","","","","","","","","","","","","","","","","","","","","","","","","","","feedback_test","","","","","","","","","",""
"531","","f","psychophysics","113","314463","0.0-7.0-1.0-4.0-0.0-0.3","4","4","4","4","4","4","4","4","4","4","5","5","5","5","5","5","5","5","5","5","1","1","2","1","1","1","1","4","1","0","1","0","0","1","0","0","0","1","0","0","1","0","1","0","5","1","3","1","1","5","4","3","4","2","656853379439394816","张","","","","match","","","","","","","","","","","","","","key","f","16.657780219780303","640","356","f","true","match","img/ellipse.png","椭圆","椭圆","ALT1","formal_ALT1_2","","","","","","","","","",""
"null","<span style='color:GreenYellow; font-size: 70px;'>正确! </span>","null","html-keyboard-response","114","314966","0.0-7.0-1.0-4.0-0.0-1.3","4","4","4","4","4","4","4","4","4","4","5","5","5","5","5","5","5","5","5","5","1","1","2","1","1","1","1","4","1","0","1","0","0","1","0","0","0","1","0","0","1","0","1","0","5","1","3","1","1","5","4","3","4","2","656853379439394816","张","","","","","","","","","","","","","","","","","","","","","","","","","","","","","","feedback_test","","","","","","","","","",""
"564","","f","psychophysics","115","316532","0.0-7.0-1.0-4.0-0.0-0.4","4","4","4","4","4","4","4","4","4","4","5","5","5","5","5","5","5","5","5","5","1","1","2","1","1","1","1","4","1","0","1","0","0","1","0","0","0","1","0","0","1","0","1","0","5","1","3","1","1","5","4","3","4","2","656853379439394816","张","","","","match","","","","","","","","","","","","","","key","f","16.657268817204187","640","356","f","true","match","img/ellipse.png","椭圆","椭圆","ALT1","formal_ALT1_2","","","","","","","","","",""
"null","<span style='color:GreenYellow; font-size: 70px;'>正确! </span>","null","html-keyboard-response","116","317035","0.0-7.0-1.0-4.0-0.0-1.4","4","4","4","4","4","4","4","4","4","4","5","5","5","5","5","5","5","5","5","5","1","1","2","1","1","1","1","4","1","0","1","0","0","1","0","0","0","1","0","0","1","0","1","0","5","1","3","1","1","5","4","3","4","2","656853379439394816","张","","","","","","","","","","","","","","","","","","","","","","","","","","","","","","feedback_test","","","","","","","","","",""
"646","","j","psychophysics","117","318685","0.0-7.0-1.0-4.0-0.0-0.5","4","4","4","4","4","4","4","4","4","4","5","5","5","5","5","5","5","5","5","5","1","1","2","1","1","1","1","4","1","0","1","0","0","1","0","0","0","1","0","0","1","0","1","0","5","1","3","1","1","5","4","3","4","2","656853379439394816","张","","","","nonmatch","","","","","","","","","","","","","","key","j","16.651438775510357","640","356","j","true","nonmatch","img/square.png","三角","方形","ALT1","formal_ALT1_2","","","","","","","","","",""
"null","<span style='color:GreenYellow; font-size: 70px;'>正确! </span>","null","html-keyboard-response","118","319189","0.0-7.0-1.0-4.0-0.0-1.5","4","4","4","4","4","4","4","4","4","4","5","5","5","5","5","5","5","5","5","5","1","1","2","1","1","1","1","4","1","0","1","0","0","1","0","0","0","1","0","0","1","0","1","0","5","1","3","1","1","5","4","3","4","2","656853379439394816","张","","","","","","","","","","","","","","","","","","","","","","","","","","","","","","feedback_test","","","","","","","","","",""
"624","","f","psychophysics","119","320818","0.0-7.0-1.0-4.0-0.0-0.6","4","4","4","4","4","4","4","4","4","4","5","5","5","5","5","5","5","5","5","5","1","1","2","1","1","1","1","4","1","0","1","0","0","1","0","0","0","1","0","0","1","0","1","0","5","1","3","1","1","5","4","3","4","2","656853379439394816","张","","","","match","","","","","","","","","","","","","","key","f","16.655340206185258","640","356","f","true","match","img/square.png","方形","方形","ALT1","formal_ALT1_2","","","","","","","","","",""
"null","<span style='color:GreenYellow; font-size: 70px;'>正确! </span>","null","html-keyboard-response","120","321321","0.0-7.0-1.0-4.0-0.0-1.6","4","4","4","4","4","4","4","4","4","4","5","5","5","5","5","5","5","5","5","5","1","1","2","1","1","1","1","4","1","0","1","0","0","1","0","0","0","1","0","0","1","0","1","0","5","1","3","1","1","5","4","3","4","2","656853379439394816","张","","","","","","","","","","","","","","","","","","","","","","","","","","","","","","feedback_test","","","","","","","","","",""
"515","","f","psychophysics","121","322838","0.0-7.0-1.0-4.0-0.0-0.7","4","4","4","4","4","4","4","4","4","4","5","5","5","5","5","5","5","5","5","5","1","1","2","1","1","1","1","4","1","0","1","0","0","1","0","0","0","1","0","0","1","0","1","0","5","1","3","1","1","5","4","3","4","2","656853379439394816","张","","","","match","","","","","","","","","","","","","","key","f","16.65638888888902","640","356","f","true","match","img/triangle.png","三角","三角","ALT1","formal_ALT1_2","","","","","","","","","",""
"null","<span style='color:GreenYellow; font-size: 70px;'>正确! </span>","null","html-keyboard-response","122","323341","0.0-7.0-1.0-4.0-0.0-1.7","4","4","4","4","4","4","4","4","4","4","5","5","5","5","5","5","5","5","5","5","1","1","2","1","1","1","1","4","1","0","1","0","0","1","0","0","0","1","0","0","1","0","1","0","5","1","3","1","1","5","4","3","4","2","656853379439394816","张","","","","","","","","","","","","","","","","","","","","","","","","","","","","","","feedback_test","","","","","","","","","",""
"737","","j","psychophysics","123","325080","0.0-7.0-1.0-4.0-0.0-0.8","4","4","4","4","4","4","4","4","4","4","5","5","5","5","5","5","5","5","5","5","1","1","2","1","1","1","1","4","1","0","1","0","0","1","0","0","0","1","0","0","1","0","1","0","5","1","3","1","1","5","4","3","4","2","656853379439394816","张","","","","nonmatch","","","","","","","","","","","","","","key","j","16.657427184465703","640","356","j","true","nonmatch","img/ellipse.png","三角","椭圆","ALT1","formal_ALT1_2","","","","","","","","","",""
"null","<span style='color:GreenYellow; font-size: 70px;'>正确! </span>","null","html-keyboard-response","124","325583","0.0-7.0-1.0-4.0-0.0-1.8","4","4","4","4","4","4","4","4","4","4","5","5","5","5","5","5","5","5","5","5","1","1","2","1","1","1","1","4","1","0","1","0","0","1","0","0","0","1","0","0","1","0","1","0","5","1","3","1","1","5","4","3","4","2","656853379439394816","张","","","","","","","","","","","","","","","","","","","","","","","","","","","","","","feedback_test","","","","","","","","","",""
"512","","f","psychophysics","125","327099","0.0-7.0-1.0-4.0-0.0-0.9","4","4","4","4","4","4","4","4","4","4","5","5","5","5","5","5","5","5","5","5","1","1","2","1","1","1","1","4","1","0","1","0","0","1","0","0","0","1","0","0","1","0","1","0","5","1","3","1","1","5","4","3","4","2","656853379439394816","张","","","","match","","","","","","","","","","","","","","key","f","16.657966666666713","640","356","f","true","match","img/square.png","方形","方形","ALT1","formal_ALT1_2","","","","","","","","","",""
"null","<span style='color:GreenYellow; font-size: 70px;'>正确! </span>","null","html-keyboard-response","126","327601","0.0-7.0-1.0-4.0-0.0-1.9","4","4","4","4","4","4","4","4","4","4","5","5","5","5","5","5","5","5","5","5","1","1","2","1","1","1","1","4","1","0","1","0","0","1","0","0","0","1","0","0","1","0","1","0","5","1","3","1","1","5","4","3","4","2","656853379439394816","张","","","","","","","","","","","","","","","","","","","","","","","","","","","","","","feedback_test","","","","","","","","","",""
"676","","f","psychophysics","127","329280","0.0-7.0-1.0-4.0-0.0-0.10","4","4","4","4","4","4","4","4","4","4","5","5","5","5","5","5","5","5","5","5","1","1","2","1","1","1","1","4","1","0","1","0","0","1","0","0","0","1","0","0","1","0","1","0","5","1","3","1","1","5","4","3","4","2","656853379439394816","张","","","","match","","","","","","","","","","","","","","key","f","16.652020000000483","640","356","f","true","match","img/pentagon.png","五边","五边","ALT1","formal_ALT1_2","","","","","","","","","",""
"null","<span style='color:GreenYellow; font-size: 70px;'>正确! </span>","null","html-keyboard-response","128","329783","0.0-7.0-1.0-4.0-0.0-1.10","4","4","4","4","4","4","4","4","4","4","5","5","5","5","5","5","5","5","5","5","1","1","2","1","1","1","1","4","1","0","1","0","0","1","0","0","0","1","0","0","1","0","1","0","5","1","3","1","1","5","4","3","4","2","656853379439394816","张","","","","","","","","","","","","","","","","","","","","","","","","","","","","","","feedback_test","","","","","","","","","",""
"878","","j","psychophysics","129","331665","0.0-7.0-1.0-4.0-0.0-0.11","4","4","4","4","4","4","4","4","4","4","5","5","5","5","5","5","5","5","5","5","1","1","2","1","1","1","1","4","1","0","1","0","0","1","0","0","0","1","0","0","1","0","1","0","5","1","3","1","1","5","4","3","4","2","656853379439394816","张","","","","nonmatch","","","","","","","","","","","","","","key","j","16.653330357142426","640","356","j","true","nonmatch","img/pentagon.png","方形","五边","ALT1","formal_ALT1_2","","","","","","","","","",""
"null","<span style='color:GreenYellow; font-size: 70px;'>正确! </span>","null","html-keyboard-response","130","332167","0.0-7.0-1.0-4.0-0.0-1.11","4","4","4","4","4","4","4","4","4","4","5","5","5","5","5","5","5","5","5","5","1","1","2","1","1","1","1","4","1","0","1","0","0","1","0","0","0","1","0","0","1","0","1","0","5","1","3","1","1","5","4","3","4","2","656853379439394816","张","","","","","","","","","","","","","","","","","","","","","","","","","","","","","","feedback_test","","","","","","","","","",""
"639","","j","psychophysics","131","333808","0.0-7.0-1.0-4.0-0.0-0.12","4","4","4","4","4","4","4","4","4","4","5","5","5","5","5","5","5","5","5","5","1","1","2","1","1","1","1","4","1","0","1","0","0","1","0","0","0","1","0","0","1","0","1","0","5","1","3","1","1","5","4","3","4","2","656853379439394816","张","","","","nonmatch","","","","","","","","","","","","","","key","j","16.65443298969053","640","356","j","true","nonmatch","img/square.png","椭圆","方形","ALT1","formal_ALT1_2","","","","","","","","","",""
"null","<span style='color:GreenYellow; font-size: 70px;'>正确! </span>","null","html-keyboard-response","132","334309","0.0-7.0-1.0-4.0-0.0-1.12","4","4","4","4","4","4","4","4","4","4","5","5","5","5","5","5","5","5","5","5","1","1","2","1","1","1","1","4","1","0","1","0","0","1","0","0","0","1","0","0","1","0","1","0","5","1","3","1","1","5","4","3","4","2","656853379439394816","张","","","","","","","","","","","","","","","","","","","","","","","","","","","","","","feedback_test","","","","","","","","","",""
"645","","f","psychophysics","133","335958","0.0-7.0-1.0-4.0-0.0-0.13","4","4","4","4","4","4","4","4","4","4","5","5","5","5","5","5","5","5","5","5","1","1","2","1","1","1","1","4","1","0","1","0","0","1","0","0","0","1","0","0","1","0","1","0","5","1","3","1","1","5","4","3","4","2","656853379439394816","张","","","","match","","","","","","","","","","","","","","key","f","16.657775510204075","640","356","j","false","nonmatch","img/triangle.png","方形","三角","ALT1","formal_ALT1_2","","","","","","","","","",""
"null","<span style='color:red; font-size: 70px;'>错误! </span>","null","html-keyboard-response","134","336474","0.0-7.0-1.0-4.0-0.0-1.13","4","4","4","4","4","4","4","4","4","4","5","5","5","5","5","5","5","5","5","5","1","1","2","1","1","1","1","4","1","0","1","0","0","1","0","0","0","1","0","0","1","0","1","0","5","1","3","1","1","5","4","3","4","2","656853379439394816","张","","","","","","","","","","","","","","","","","","","","","","","","","","","","","","feedback_test","","","","","","","","","",""
"779","","j","psychophysics","135","338256","0.0-7.0-1.0-4.0-0.0-0.14","4","4","4","4","4","4","4","4","4","4","5","5","5","5","5","5","5","5","5","5","1","1","2","1","1","1","1","4","1","0","1","0","0","1","0","0","0","1","0","0","1","0","1","0","5","1","3","1","1","5","4","3","4","2","656853379439394816","张","","","","nonmatch","","","","","","","","","","","","","","key","j","16.656688679245253","640","356","j","true","nonmatch","img/pentagon.png","三角","五边","ALT1","formal_ALT1_2","","","","","","","","","",""
"null","<span style='color:GreenYellow; font-size: 70px;'>正确! </span>","null","html-keyboard-response","136","338759","0.0-7.0-1.0-4.0-0.0-1.14","4","4","4","4","4","4","4","4","4","4","5","5","5","5","5","5","5","5","5","5","1","1","2","1","1","1","1","4","1","0","1","0","0","1","0","0","0","1","0","0","1","0","1","0","5","1","3","1","1","5","4","3","4","2","656853379439394816","张","","","","","","","","","","","","","","","","","","","","","","","","","","","","","","feedback_test","","","","","","","","","",""
"761","","j","psychophysics","137","340522","0.0-7.0-1.0-4.0-0.0-0.15","4","4","4","4","4","4","4","4","4","4","5","5","5","5","5","5","5","5","5","5","1","1","2","1","1","1","1","4","1","0","1","0","0","1","0","0","0","1","0","0","1","0","1","0","5","1","3","1","1","5","4","3","4","2","656853379439394816","张","","","","nonmatch","","","","","","","","","","","","","","key","j","16.653200000000098","640","356","j","true","nonmatch","img/pentagon.png","椭圆","五边","ALT1","formal_ALT1_2","","","","","","","","","",""
"null","<span style='color:GreenYellow; font-size: 70px;'>正确! </span>","null","html-keyboard-response","138","341024","0.0-7.0-1.0-4.0-0.0-1.15","4","4","4","4","4","4","4","4","4","4","5","5","5","5","5","5","5","5","5","5","1","1","2","1","1","1","1","4","1","0","1","0","0","1","0","0","0","1","0","0","1","0","1","0","5","1","3","1","1","5","4","3","4","2","656853379439394816","张","","","","","","","","","","","","","","","","","","","","","","","","","","","","","","feedback_test","","","","","","","","","",""
"null","","null","psychophysics","139","343228","0.0-7.0-1.0-4.0-0.0-0.16","4","4","4","4","4","4","4","4","4","4","5","5","5","5","5","5","5","5","5","5","1","1","2","1","1","1","1","4","1","0","1","0","0","1","0","0","0","1","0","0","1","0","1","0","5","1","3","1","1","5","4","3","4","2","656853379439394816","张","","","","null","","","","","","","","","","","","","","key","null","27.95183333333355","640","356","f","false","match","img/pentagon.png","五边","五边","ALT1","formal_ALT1_2","","","","","","","","","",""
"null","<span class='add_' style='color:yellow; font-size: 70px;'> 太慢! </span>","null","html-keyboard-response","140","343732","0.0-7.0-1.0-4.0-0.0-1.16","4","4","4","4","4","4","4","4","4","4","5","5","5","5","5","5","5","5","5","5","1","1","2","1","1","1","1","4","1","0","1","0","0","1","0","0","0","1","0","0","1","0","1","0","5","1","3","1","1","5","4","3","4","2","656853379439394816","张","","","","","","","","","","","","","","","","","","","","","","","","","","","","","","feedback_test","","","","","","","","","",""
"731","","j","psychophysics","141","345465","0.0-7.0-1.0-4.0-0.0-0.17","4","4","4","4","4","4","4","4","4","4","5","5","5","5","5","5","5","5","5","5","1","1","2","1","1","1","1","4","1","0","1","0","0","1","0","0","0","1","0","0","1","0","1","0","5","1","3","1","1","5","4","3","4","2","656853379439394816","张","","","","nonmatch","","","","","","","","","","","","","","key","j","16.651097087378872","640","356","j","true","nonmatch","img/square.png","五边","方形","ALT1","formal_ALT1_2","","","","","","","","","",""
"null","<span style='color:GreenYellow; font-size: 70px;'>正确! </span>","null","html-keyboard-response","142","345966","0.0-7.0-1.0-4.0-0.0-1.17","4","4","4","4","4","4","4","4","4","4","5","5","5","5","5","5","5","5","5","5","1","1","2","1","1","1","1","4","1","0","1","0","0","1","0","0","0","1","0","0","1","0","1","0","5","1","3","1","1","5","4","3","4","2","656853379439394816","张","","","","","","","","","","","","","","","","","","","","","","","","","","","","","","feedback_test","","","","","","","","","",""
"1013","","j","psychophysics","143","347980","0.0-7.0-1.0-4.0-0.0-0.18","4","4","4","4","4","4","4","4","4","4","5","5","5","5","5","5","5","5","5","5","1","1","2","1","1","1","1","4","1","0","1","0","0","1","0","0","0","1","0","0","1","0","1","0","5","1","3","1","1","5","4","3","4","2","656853379439394816","张","","","","nonmatch","","","","","","","","","","","","","","key","j","16.653066666666806","640","356","j","true","nonmatch","img/ellipse.png","方形","椭圆","ALT1","formal_ALT1_2","","","","","","","","","",""
"null","<span style='color:GreenYellow; font-size: 70px;'>正确! </span>","null","html-keyboard-response","144","348481","0.0-7.0-1.0-4.0-0.0-1.18","4","4","4","4","4","4","4","4","4","4","5","5","5","5","5","5","5","5","5","5","1","1","2","1","1","1","1","4","1","0","1","0","0","1","0","0","0","1","0","0","1","0","1","0","5","1","3","1","1","5","4","3","4","2","656853379439394816","张","","","","","","","","","","","","","","","","","","","","","","","","","","","","","","feedback_test","","","","","","","","","",""
"706","","j","psychophysics","145","350188","0.0-7.0-1.0-4.0-0.0-0.19","4","4","4","4","4","4","4","4","4","4","5","5","5","5","5","5","5","5","5","5","1","1","2","1","1","1","1","4","1","0","1","0","0","1","0","0","0","1","0","0","1","0","1","0","5","1","3","1","1","5","4","3","4","2","656853379439394816","张","","","","nonmatch","","","","","","","","","","","","","","key","j","16.652607843137172","640","356","j","true","nonmatch","img/ellipse.png","五边","椭圆","ALT1","formal_ALT1_2","","","","","","","","","",""
"null","<span style='color:GreenYellow; font-size: 70px;'>正确! </span>","null","html-keyboard-response","146","350691","0.0-7.0-1.0-4.0-0.0-1.19","4","4","4","4","4","4","4","4","4","4","5","5","5","5","5","5","5","5","5","5","1","1","2","1","1","1","1","4","1","0","1","0","0","1","0","0","0","1","0","0","1","0","1","0","5","1","3","1","1","5","4","3","4","2","656853379439394816","张","","","","","","","","","","","","","","","","","","","","","","","","","","","","","","feedback_test","","","","","","","","","",""
"616","","f","psychophysics","147","352310","0.0-7.0-1.0-4.0-0.0-0.20","4","4","4","4","4","4","4","4","4","4","5","5","5","5","5","5","5","5","5","5","1","1","2","1","1","1","1","4","1","0","1","0","0","1","0","0","0","1","0","0","1","0","1","0","5","1","3","1","1","5","4","3","4","2","656853379439394816","张","","","","match","","","","","","","","","","","","","","key","f","16.65397916666613","640","356","f","true","match","img/triangle.png","三角","三角","ALT1","formal_ALT1_2","","","","","","","","","",""
"null","<span style='color:GreenYellow; font-size: 70px;'>正确! </span>","null","html-keyboard-response","148","352811","0.0-7.0-1.0-4.0-0.0-1.20","4","4","4","4","4","4","4","4","4","4","5","5","5","5","5","5","5","5","5","5","1","1","2","1","1","1","1","4","1","0","1","0","0","1","0","0","0","1","0","0","1","0","1","0","5","1","3","1","1","5","4","3","4","2","656853379439394816","张","","","","","","","","","","","","","","","","","","","","","","","","","","","","","","feedback_test","","","","","","","","","",""
"741","","f","psychophysics","149","354552","0.0-7.0-1.0-4.0-0.0-0.21","4","4","4","4","4","4","4","4","4","4","5","5","5","5","5","5","5","5","5","5","1","1","2","1","1","1","1","4","1","0","1","0","0","1","0","0","0","1","0","0","1","0","1","0","5","1","3","1","1","5","4","3","4","2","656853379439394816","张","","","","match","","","","","","","","","","","","","","key","f","16.651586538461114","640","356","f","true","match","img/pentagon.png","五边","五边","ALT1","formal_ALT1_2","","","","","","","","","",""
"null","<span style='color:GreenYellow; font-size: 70px;'>正确! </span>","null","html-keyboard-response","150","355053","0.0-7.0-1.0-4.0-0.0-1.21","4","4","4","4","4","4","4","4","4","4","5","5","5","5","5","5","5","5","5","5","1","1","2","1","1","1","1","4","1","0","1","0","0","1","0","0","0","1","0","0","1","0","1","0","5","1","3","1","1","5","4","3","4","2","656853379439394816","张","","","","","","","","","","","","","","","","","","","","","","","","","","","","","","feedback_test","","","","","","","","","",""
"736","","f","psychophysics","151","356791","0.0-7.0-1.0-4.0-0.0-0.22","4","4","4","4","4","4","4","4","4","4","5","5","5","5","5","5","5","5","5","5","1","1","2","1","1","1","1","4","1","0","1","0","0","1","0","0","0","1","0","0","1","0","1","0","5","1","3","1","1","5","4","3","4","2","656853379439394816","张","","","","match","","","","","","","","","","","","","","key","f","16.653097087378924","640","356","f","true","match","img/square.png","方形","方形","ALT1","formal_ALT1_2","","","","","","","","","",""
"null","<span style='color:GreenYellow; font-size: 70px;'>正确! </span>","null","html-keyboard-response","152","357293","0.0-7.0-1.0-4.0-0.0-1.22","4","4","4","4","4","4","4","4","4","4","5","5","5","5","5","5","5","5","5","5","1","1","2","1","1","1","1","4","1","0","1","0","0","1","0","0","0","1","0","0","1","0","1","0","5","1","3","1","1","5","4","3","4","2","656853379439394816","张","","","","","","","","","","","","","","","","","","","","","","","","","","","","","","feedback_test","","","","","","","","","",""
"605","","j","psychophysics","153","358899","0.0-7.0-1.0-4.0-0.0-0.23","4","4","4","4","4","4","4","4","4","4","5","5","5","5","5","5","5","5","5","5","1","1","2","1","1","1","1","4","1","0","1","0","0","1","0","0","0","1","0","0","1","0","1","0","5","1","3","1","1","5","4","3","4","2","656853379439394816","张","","","","nonmatch","","","","","","","","","","","","","","key","j","16.653645833333332","640","356","j","true","nonmatch","img/triangle.png","椭圆","三角","ALT1","formal_ALT1_2","","","","","","","","","",""
"null","<span style='color:GreenYellow; font-size: 70px;'>正确! </span>","null","html-keyboard-response","154","359400","0.0-7.0-1.0-4.0-0.0-1.23","4","4","4","4","4","4","4","4","4","4","5","5","5","5","5","5","5","5","5","5","1","1","2","1","1","1","1","4","1","0","1","0","0","1","0","0","0","1","0","0","1","0","1","0","5","1","3","1","1","5","4","3","4","2","656853379439394816","张","","","","","","","","","","","","","","","","","","","","","","","","","","","","","","feedback_test","","","","","","","","","",""
"575","","f","psychophysics","155","360977","0.0-7.0-1.0-4.0-0.0-0.24","4","4","4","4","4","4","4","4","4","4","5","5","5","5","5","5","5","5","5","5","1","1","2","1","1","1","1","4","1","0","1","0","0","1","0","0","0","1","0","0","1","0","1","0","5","1","3","1","1","5","4","3","4","2","656853379439394816","张","","","","match","","","","","","","","","","","","","","key","f","16.65312765957416","640","356","f","true","match","img/pentagon.png","五边","五边","ALT1","formal_ALT1_2","","","","","","","","","",""
"null","<span style='color:GreenYellow; font-size: 70px;'>正确! </span>","null","html-keyboard-response","156","361492","0.0-7.0-1.0-4.0-0.0-1.24","4","4","4","4","4","4","4","4","4","4","5","5","5","5","5","5","5","5","5","5","1","1","2","1","1","1","1","4","1","0","1","0","0","1","0","0","0","1","0","0","1","0","1","0","5","1","3","1","1","5","4","3","4","2","656853379439394816","张","","","","","","","","","","","","","","","","","","","","","","","","","","","","","","feedback_test","","","","","","","","","",""
"545","","f","psychophysics","157","363038","0.0-7.0-1.0-4.0-0.0-0.25","4","4","4","4","4","4","4","4","4","4","5","5","5","5","5","5","5","5","5","5","1","1","2","1","1","1","1","4","1","0","1","0","0","1","0","0","0","1","0","0","1","0","1","0","5","1","3","1","1","5","4","3","4","2","656853379439394816","张","","","","match","","","","","","","","","","","","","","key","f","16.65479120879132","640","356","f","true","match","img/triangle.png","三角","三角","ALT1","formal_ALT1_2","","","","","","","","","",""
"null","<span style='color:GreenYellow; font-size: 70px;'>正确! </span>","null","html-keyboard-response","158","363539","0.0-7.0-1.0-4.0-0.0-1.25","4","4","4","4","4","4","4","4","4","4","5","5","5","5","5","5","5","5","5","5","1","1","2","1","1","1","1","4","1","0","1","0","0","1","0","0","0","1","0","0","1","0","1","0","5","1","3","1","1","5","4","3","4","2","656853379439394816","张","","","","","","","","","","","","","","","","","","","","","","","","","","","","","","feedback_test","","","","","","","","","",""
"861","","j","psychophysics","159","365402","0.0-7.0-1.0-4.0-0.0-0.26","4","4","4","4","4","4","4","4","4","4","5","5","5","5","5","5","5","5","5","5","1","1","2","1","1","1","1","4","1","0","1","0","0","1","0","0","0","1","0","0","1","0","1","0","5","1","3","1","1","5","4","3","4","2","656853379439394816","张","","","","nonmatch","","","","","","","","","","","","","","key","j","16.64493636363609","640","356","j","true","nonmatch","img/triangle.png","方形","三角","ALT1","formal_ALT1_2","","","","","","","","","",""
"null","<span style='color:GreenYellow; font-size: 70px;'>正确! </span>","null","html-keyboard-response","160","365903","0.0-7.0-1.0-4.0-0.0-1.26","4","4","4","4","4","4","4","4","4","4","5","5","5","5","5","5","5","5","5","5","1","1","2","1","1","1","1","4","1","0","1","0","0","1","0","0","0","1","0","0","1","0","1","0","5","1","3","1","1","5","4","3","4","2","656853379439394816","张","","","","","","","","","","","","","","","","","","","","","","","","","","","","","","feedback_test","","","","","","","","","",""
"588","","f","psychophysics","161","367495","0.0-7.0-1.0-4.0-0.0-0.27","4","4","4","4","4","4","4","4","4","4","5","5","5","5","5","5","5","5","5","5","1","1","2","1","1","1","1","4","1","0","1","0","0","1","0","0","0","1","0","0","1","0","1","0","5","1","3","1","1","5","4","3","4","2","656853379439394816","张","","","","match","","","","","","","","","","","","","","key","f","16.654115789473718","640","356","f","true","match","img/square.png","方形","方形","ALT1","formal_ALT1_2","","","","","","","","","",""
"null","<span style='color:GreenYellow; font-size: 70px;'>正确! </span>","null","html-keyboard-response","162","367996","0.0-7.0-1.0-4.0-0.0-1.27","4","4","4","4","4","4","4","4","4","4","5","5","5","5","5","5","5","5","5","5","1","1","2","1","1","1","1","4","1","0","1","0","0","1","0","0","0","1","0","0","1","0","1","0","5","1","3","1","1","5","4","3","4","2","656853379439394816","张","","","","","","","","","","","","","","","","","","","","","","","","","","","","","","feedback_test","","","","","","","","","",""
"860","","j","psychophysics","163","369860","0.0-7.0-1.0-4.0-0.0-0.28","4","4","4","4","4","4","4","4","4","4","5","5","5","5","5","5","5","5","5","5","1","1","2","1","1","1","1","4","1","0","1","0","0","1","0","0","0","1","0","0","1","0","1","0","5","1","3","1","1","5","4","3","4","2","656853379439394816","张","","","","nonmatch","","","","","","","","","","","","","","key","j","16.654081081081106","640","356","j","true","nonmatch","img/square.png","五边","方形","ALT1","formal_ALT1_2","","","","","","","","","",""
"null","<span style='color:GreenYellow; font-size: 70px;'>正确! </span>","null","html-keyboard-response","164","370362","0.0-7.0-1.0-4.0-0.0-1.28","4","4","4","4","4","4","4","4","4","4","5","5","5","5","5","5","5","5","5","5","1","1","2","1","1","1","1","4","1","0","1","0","0","1","0","0","0","1","0","0","1","0","1","0","5","1","3","1","1","5","4","3","4","2","656853379439394816","张","","","","","","","","","","","","","","","","","","","","","","","","","","","","","","feedback_test","","","","","","","","","",""
"779","","f","psychophysics","165","372143","0.0-7.0-1.0-4.0-0.0-0.29","4","4","4","4","4","4","4","4","4","4","5","5","5","5","5","5","5","5","5","5","1","1","2","1","1","1","1","4","1","0","1","0","0","1","0","0","0","1","0","0","1","0","1","0","5","1","3","1","1","5","4","3","4","2","656853379439394816","张","","","","match","","","","","","","","","","","","","","key","f","16.653311320754614","640","356","f","true","match","img/square.png","方形","方形","ALT1","formal_ALT1_2","","","","","","","","","",""
"null","<span style='color:GreenYellow; font-size: 70px;'>正确! </span>","null","html-keyboard-response","166","372646","0.0-7.0-1.0-4.0-0.0-1.29","4","4","4","4","4","4","4","4","4","4","5","5","5","5","5","5","5","5","5","5","1","1","2","1","1","1","1","4","1","0","1","0","0","1","0","0","0","1","0","0","1","0","1","0","5","1","3","1","1","5","4","3","4","2","656853379439394816","张","","","","","","","","","","","","","","","","","","","","","","","","","","","","","","feedback_test","","","","","","","","","",""
"826","","j","psychophysics","167","374475","0.0-7.0-1.0-4.0-0.0-0.30","4","4","4","4","4","4","4","4","4","4","5","5","5","5","5","5","5","5","5","5","1","1","2","1","1","1","1","4","1","0","1","0","0","1","0","0","0","1","0","0","1","0","1","0","5","1","3","1","1","5","4","3","4","2","656853379439394816","张","","","","nonmatch","","","","","","","","","","","","","","key","j","16.654385321101262","640","356","j","true","nonmatch","img/ellipse.png","五边","椭圆","ALT1","formal_ALT1_2","","","","","","","","","",""
"null","<span style='color:GreenYellow; font-size: 70px;'>正确! </span>","null","html-keyboard-response","168","374977","0.0-7.0-1.0-4.0-0.0-1.30","4","4","4","4","4","4","4","4","4","4","5","5","5","5","5","5","5","5","5","5","1","1","2","1","1","1","1","4","1","0","1","0","0","1","0","0","0","1","0","0","1","0","1","0","5","1","3","1","1","5","4","3","4","2","656853379439394816","张","","","","","","","","","","","","","","","","","","","","","","","","","","","","","","feedback_test","","","","","","","","","",""
"681","","j","psychophysics","169","376661","0.0-7.0-1.0-4.0-0.0-0.31","4","4","4","4","4","4","4","4","4","4","5","5","5","5","5","5","5","5","5","5","1","1","2","1","1","1","1","4","1","0","1","0","0","1","0","0","0","1","0","0","1","0","1","0","5","1","3","1","1","5","4","3","4","2","656853379439394816","张","","","","nonmatch","","","","","","","","","","","","","","key","j","16.65420999999973","640","356","j","true","nonmatch","img/pentagon.png","椭圆","五边","ALT1","formal_ALT1_2","","","","","","","","","",""
"null","<span style='color:GreenYellow; font-size: 70px;'>正确! </span>","null","html-keyboard-response","170","377163","0.0-7.0-1.0-4.0-0.0-1.31","4","4","4","4","4","4","4","4","4","4","5","5","5","5","5","5","5","5","5","5","1","1","2","1","1","1","1","4","1","0","1","0","0","1","0","0","0","1","0","0","1","0","1","0","5","1","3","1","1","5","4","3","4","2","656853379439394816","张","","","","","","","","","","","","","","","","","","","","","","","","","","","","","","feedback_test","","","","","","","","","",""
"650","","f","psychophysics","171","378816","0.0-7.0-1.0-4.0-0.0-0.32","4","4","4","4","4","4","4","4","4","4","5","5","5","5","5","5","5","5","5","5","1","1","2","1","1","1","1","4","1","0","1","0","0","1","0","0","0","1","0","0","1","0","1","0","5","1","3","1","1","5","4","3","4","2","656853379439394816","张","","","","match","","","","","","","","","","","","","","key","f","16.654469387755462","640","356","f","true","match","img/ellipse.png","椭圆","椭圆","ALT1","formal_ALT1_2","","","","","","","","","",""
"null","<span style='color:GreenYellow; font-size: 70px;'>正确! </span>","null","html-keyboard-response","172","379321","0.0-7.0-1.0-4.0-0.0-1.32","4","4","4","4","4","4","4","4","4","4","5","5","5","5","5","5","5","5","5","5","1","1","2","1","1","1","1","4","1","0","1","0","0","1","0","0","0","1","0","0","1","0","1","0","5","1","3","1","1","5","4","3","4","2","656853379439394816","张","","","","","","","","","","","","","","","","","","","","","","","","","","","","","","feedback_test","","","","","","","","","",""
"610","","f","psychophysics","173","380933","0.0-7.0-1.0-4.0-0.0-0.33","4","4","4","4","4","4","4","4","4","4","5","5","5","5","5","5","5","5","5","5","1","1","2","1","1","1","1","4","1","0","1","0","0","1","0","0","0","1","0","0","1","0","1","0","5","1","3","1","1","5","4","3","4","2","656853379439394816","张","","","","match","","","","","","","","","","","","","","key","f","16.653958333333623","640","356","f","true","match","img/ellipse.png","椭圆","椭圆","ALT1","formal_ALT1_2","","","","","","","","","",""
"null","<span style='color:GreenYellow; font-size: 70px;'>正确! </span>","null","html-keyboard-response","174","381435","0.0-7.0-1.0-4.0-0.0-1.33","4","4","4","4","4","4","4","4","4","4","5","5","5","5","5","5","5","5","5","5","1","1","2","1","1","1","1","4","1","0","1","0","0","1","0","0","0","1","0","0","1","0","1","0","5","1","3","1","1","5","4","3","4","2","656853379439394816","张","","","","","","","","","","","","","","","","","","","","","","","","","","","","","","feedback_test","","","","","","","","","",""
"689","","j","psychophysics","175","383128","0.0-7.0-1.0-4.0-0.0-0.34","4","4","4","4","4","4","4","4","4","4","5","5","5","5","5","5","5","5","5","5","1","1","2","1","1","1","1","4","1","0","1","0","0","1","0","0","0","1","0","0","1","0","1","0","5","1","3","1","1","5","4","3","4","2","656853379439394816","张","","","","nonmatch","","","","","","","","","","","","","","key","j","16.653564356435737","640","356","j","true","nonmatch","img/square.png","三角","方形","ALT1","formal_ALT1_2","","","","","","","","","",""
"null","<span style='color:GreenYellow; font-size: 70px;'>正确! </span>","null","html-keyboard-response","176","383636","0.0-7.0-1.0-4.0-0.0-1.34","4","4","4","4","4","4","4","4","4","4","5","5","5","5","5","5","5","5","5","5","1","1","2","1","1","1","1","4","1","0","1","0","0","1","0","0","0","1","0","0","1","0","1","0","5","1","3","1","1","5","4","3","4","2","656853379439394816","张","","","","","","","","","","","","","","","","","","","","","","","","","","","","","","feedback_test","","","","","","","","","",""
"675","","j","psychophysics","177","385315","0.0-7.0-1.0-4.0-0.0-0.35","4","4","4","4","4","4","4","4","4","4","5","5","5","5","5","5","5","5","5","5","1","1","2","1","1","1","1","4","1","0","1","0","0","1","0","0","0","1","0","0","1","0","1","0","5","1","3","1","1","5","4","3","4","2","656853379439394816","张","","","","nonmatch","","","","","","","","","","","","","","key","j","16.654020000000017","640","356","j","true","nonmatch","img/square.png","椭圆","方形","ALT1","formal_ALT1_2","","","","","","","","","",""
"null","<span style='color:GreenYellow; font-size: 70px;'>正确! </span>","null","html-keyboard-response","178","385829","0.0-7.0-1.0-4.0-0.0-1.35","4","4","4","4","4","4","4","4","4","4","5","5","5","5","5","5","5","5","5","5","1","1","2","1","1","1","1","4","1","0","1","0","0","1","0","0","0","1","0","0","1","0","1","0","5","1","3","1","1","5","4","3","4","2","656853379439394816","张","","","","","","","","","","","","","","","","","","","","","","","","","","","","","","feedback_test","","","","","","","","","",""
"851","","j","psychophysics","179","387683","0.0-7.0-1.0-4.0-0.0-0.36","4","4","4","4","4","4","4","4","4","4","5","5","5","5","5","5","5","5","5","5","1","1","2","1","1","1","1","4","1","0","1","0","0","1","0","0","0","1","0","0","1","0","1","0","5","1","3","1","1","5","4","3","4","2","656853379439394816","张","","","","nonmatch","","","","","","","","","","","","","","key","j","16.654818181818435","640","356","j","true","nonmatch","img/triangle.png","五边","三角","ALT1","formal_ALT1_2","","","","","","","","","",""
"null","<span style='color:GreenYellow; font-size: 70px;'>正确! </span>","null","html-keyboard-response","180","388185","0.0-7.0-1.0-4.0-0.0-1.36","4","4","4","4","4","4","4","4","4","4","5","5","5","5","5","5","5","5","5","5","1","1","2","1","1","1","1","4","1","0","1","0","0","1","0","0","0","1","0","0","1","0","1","0","5","1","3","1","1","5","4","3","4","2","656853379439394816","张","","","","","","","","","","","","","","","","","","","","","","","","","","","","","","feedback_test","","","","","","","","","",""
"850","","j","psychophysics","181","390039","0.0-7.0-1.0-4.0-0.0-0.37","4","4","4","4","4","4","4","4","4","4","5","5","5","5","5","5","5","5","5","5","1","1","2","1","1","1","1","4","1","0","1","0","0","1","0","0","0","1","0","0","1","0","1","0","5","1","3","1","1","5","4","3","4","2","656853379439394816","张","","","","nonmatch","","","","","","","","","","","","","","key","j","16.647890909090744","640","356","j","true","nonmatch","img/pentagon.png","方形","五边","ALT1","formal_ALT1_2","","","","","","","","","",""
"null","<span style='color:GreenYellow; font-size: 70px;'>正确! </span>","null","html-keyboard-response","182","390543","0.0-7.0-1.0-4.0-0.0-1.37","4","4","4","4","4","4","4","4","4","4","5","5","5","5","5","5","5","5","5","5","1","1","2","1","1","1","1","4","1","0","1","0","0","1","0","0","0","1","0","0","1","0","1","0","5","1","3","1","1","5","4","3","4","2","656853379439394816","张","","","","","","","","","","","","","","","","","","","","","","","","","","","","","","feedback_test","","","","","","","","","",""
"663","","j","psychophysics","183","392208","0.0-7.0-1.0-4.0-0.0-0.38","4","4","4","4","4","4","4","4","4","4","5","5","5","5","5","5","5","5","5","5","1","1","2","1","1","1","1","4","1","0","1","0","0","1","0","0","0","1","0","0","1","0","1","0","5","1","3","1","1","5","4","3","4","2","656853379439394816","张","","","","nonmatch","","","","","","","","","","","","","","key","j","16.651949494949548","640","356","j","true","nonmatch","img/triangle.png","椭圆","三角","ALT1","formal_ALT1_2","","","","","","","","","",""
"null","<span style='color:GreenYellow; font-size: 70px;'>正确! </span>","null","html-keyboard-response","184","392710","0.0-7.0-1.0-4.0-0.0-1.38","4","4","4","4","4","4","4","4","4","4","5","5","5","5","5","5","5","5","5","5","1","1","2","1","1","1","1","4","1","0","1","0","0","1","0","0","0","1","0","0","1","0","1","0","5","1","3","1","1","5","4","3","4","2","656853379439394816","张","","","","","","","","","","","","","","","","","","","","","","","","","","","","","","feedback_test","","","","","","","","","",""
"697","","j","psychophysics","185","394409","0.0-7.0-1.0-4.0-0.0-0.39","4","4","4","4","4","4","4","4","4","4","5","5","5","5","5","5","5","5","5","5","1","1","2","1","1","1","1","4","1","0","1","0","0","1","0","0","0","1","0","0","1","0","1","0","5","1","3","1","1","5","4","3","4","2","656853379439394816","张","","","","nonmatch","","","","","","","","","","","","","","key","j","16.65300990098979","640","356","j","true","nonmatch","img/ellipse.png","三角","椭圆","ALT1","formal_ALT1_2","","","","","","","","","",""
"null","<span style='color:GreenYellow; font-size: 70px;'>正确! </span>","null","html-keyboard-response","186","394912","0.0-7.0-1.0-4.0-0.0-1.39","4","4","4","4","4","4","4","4","4","4","5","5","5","5","5","5","5","5","5","5","1","1","2","1","1","1","1","4","1","0","1","0","0","1","0","0","0","1","0","0","1","0","1","0","5","1","3","1","1","5","4","3","4","2","656853379439394816","张","","","","","","","","","","","","","","","","","","","","","","","","","","","","","","feedback_test","","","","","","","","","",""
