"rt","stimulus","response","trial_type","trial_index","time_elapsed","internal_node_id","ses_1","ses_2","ses_3","ses_4","ses_5","ses_6","ses_7","ses_8","ses_9","ses_10","coreself_1","coreself_2","coreself_3","coreself_4","coreself_5","coreself_6","coreself_7","coreself_8","coreself_9","coreself_10","SGPS_1","SGPS_2","SGPS_3","SGPS_4","SGPS_5","SGPS_6","SGPS_7","SGPS_8","SGPS_9","NPI1","NPI2","NPI3","NPI4","NPI5","NPI6","NPI7","NPI8","NPI9","NPI10","NPI11","NPI12","NPI13","NPI14","NPI15","hsns_1","hsns_2","hsns_3","hsns_4","hsns_5","hsns_6","hsns_7","hsns_8","hsns_9","hsns_10","subj_idx","friend_name","value","success","user_agent","responses","item_order","radio_event_ids","radio_event_times","key_event_times","mouse_event_times","straightlining","zigzagging","honeypot","timeout","failed_images","failed_audio","failed_video","version_attrib2","version_target2","correct","IAT","screen_id","task_id","RT","condition","word","varname","summary","version_attrib","version_target","time_stamp","view_history","response_type","key_press","avg_frame_time","center_x","center_y","correct_response","identity","Image","question_order"
"6845","
   <p><div style = ""color: white;font-size:25px;"">您好，欢迎参加本次实验。</div> </p>
   <p><div style = ""color: white;font-size:25px;"">为充分保障您的权利，请确保您已经知晓并同意《参与实验同意书》以及《数据公开知情同意书》。</div></p>
   <p><div style = ""color: white;font-size:25px;"">如果您未见过上述内容，请咨询实验员。</div></p>
   <p><div style = ""color: white;font-size:25px;"">如果您选择继续实验，则表示您已经清楚两份知情同意书的内容并同意。</div></p>
   <p> <div style = ""color: green;font-size:25px;""><按空格键至下页></div> </p>
   "," ","html-keyboard-response","0","6852","0.0-0.0","4","3","4","4","4","4","3","4","4","4","4","4","5","4","5","5","5","4","4","5","1","2","1","1","1","1","1","1","1","0","0","1","1","0","0","0","0","0","1","-1","0","0","0","1","5","1","2","2","1","2","4","2","3","2","628584680945352704","林","","","","","","","","","","","","","","","","","","","","","","","","","","","","","","","","","","","","","","","",""
"","","","call-function","1","6857","0.0-1.0-0.0","4","3","4","4","4","4","3","4","4","4","4","4","5","4","5","5","5","4","4","5","1","2","1","1","1","1","1","1","1","0","0","1","1","0","0","0","0","0","1","-1","0","0","0","1","5","1","2","2","1","2","4","2","3","2","628584680945352704","林","","","","","","","","","","","","","","","","","","","","","","","","","","","","","","","","","","","","","","","",""
"29865","","{""friend_name"":""林""}","survey-html-form","2","36724","0.0-1.0-1.0","4","3","4","4","4","4","3","4","4","4","4","4","5","4","5","5","5","4","4","5","1","2","1","1","1","1","1","1","1","0","0","1","1","0","0","0","0","0","1","-1","0","0","0","1","5","1","2","2","1","2","4","2","3","2","628584680945352704","林","","","","","","","","","","","","","","","","","","","","","","","","","","","","","","","","","","","","","","","",""
"","","","fullscreen","3","39232","0.0-2.0","4","3","4","4","4","4","3","4","4","4","4","4","5","4","5","5","5","4","4","5","1","2","1","1","1","1","1","1","1","0","0","1","1","0","0","0","0","0","1","-1","0","0","0","1","5","1","2","2","1","2","4","2","3","2","628584680945352704","林","","true","{}","","","","","","","","","","","","","","","","","","","","","","","","","","","","","","","","","","","","",""
"27528.60000000056","","{""Q01"":""4"",""Q02"":""3"",""Q03"":""4"",""Q04"":""4"",""Q05"":""4"",""Q06"":""4"",""Q07"":""3"",""Q08"":""4"",""Q09"":""4"",""Q10"":""4""}","survey-template","4","66770","0.0-3.0","4","3","4","4","4","4","3","4","4","4","4","4","5","4","5","5","5","4","4","5","1","2","1","1","1","1","1","1","1","0","0","1","1","0","0","0","0","0","1","-1","0","0","0","1","5","1","2","2","1","2","4","2","3","2","628584680945352704","林","","","","{""Q01"":""4"",""Q02"":""3"",""Q03"":""4"",""Q04"":""4"",""Q05"":""4"",""Q06"":""4"",""Q07"":""3"",""Q08"":""4"",""Q09"":""4"",""Q10"":""4""}","[0,1,2,3,4,5,6,7,8,9]","[""Q01"",""Q02"",""Q03"",""Q04"",""Q05"",""Q06"",""Q07"",""Q08"",""Q09"",""Q10""]","[3949.5,6861.600000000559,9085.100000000559,10901.799999999814,13220.900000000373,14804.799999999814,18300.60000000056,20268.299999999814,21588.60000000056,23652.200000000186]","[]","[3949.5,6117.700000000186,6861.600000000559,9085.100000000559,10901.799999999814,13220.900000000373,14804.799999999814,18300.60000000056,20268.299999999814,21588.60000000056,22613,23652.200000000186,27523.700000000186]","0.5","0.5555555555555556","0","","","","","","","","","","","","","","","","","","","","","","","","","","","",""
"25833.39999999944","","{""Q01"":""4"",""Q02"":""4"",""Q03"":""5"",""Q04"":""4"",""Q05"":""5"",""Q06"":""5"",""Q07"":""5"",""Q08"":""4"",""Q09"":""4"",""Q10"":""5""}","survey-template","5","92622","0.0-4.0","4","3","4","4","4","4","3","4","4","4","4","4","5","4","5","5","5","4","4","5","1","2","1","1","1","1","1","1","1","0","0","1","1","0","0","0","0","0","1","-1","0","0","0","1","5","1","2","2","1","2","4","2","3","2","628584680945352704","林","","","","{""Q01"":""4"",""Q02"":""4"",""Q03"":""5"",""Q04"":""4"",""Q05"":""5"",""Q06"":""5"",""Q07"":""5"",""Q08"":""4"",""Q09"":""4"",""Q10"":""5""}","[0,1,2,3,4,5,6,7,8,9]","[""Q01"",""Q02"",""Q03"",""Q04"",""Q04"",""Q05"",""Q06"",""Q07"",""Q08"",""Q09"",""Q10""]","[3735,6383.199999999255,7487.699999999255,9263.099999999627,9830.899999999441,11630.899999999441,13631.399999999441,15830.299999999814,21446.199999999255,22910.599999999627,24983.099999999627]","[]","[3735,6383.199999999255,7487.699999999255,9263.099999999627,9830.899999999441,11630.899999999441,13631.399999999441,15830.299999999814,21446.199999999255,22910.599999999627,24983.099999999627,25830]","0.4","0.4444444444444444","0","","","","","","","","","","","","","","","","","","","","","","","","","","","",""
"","","","preload","6","93027","0.0-5.0","4","3","4","4","4","4","3","4","4","4","4","4","5","4","5","5","5","4","4","5","1","2","1","1","1","1","1","1","1","0","0","1","1","0","0","0","0","0","1","-1","0","0","0","1","5","1","2","2","1","2","4","2","3","2","628584680945352704","林","","true","","","","","","","","","","","false","[]","[]","[]","","","","","","","","","","","","","","","","","","","","","","","",""
"17150","
    <h3>词语分类任务</h3>
    <p>在接下来的任务中，你需要对一系列词语进行分类。<p/>
    请先熟悉这些词语，这有利于你完成接下来的任务。</p>
    <table align=""center"" border=1 cellpadding=3 cellspacing=0>
    <tr> <th>类别</th> <th>词语</th> </tr>
    <tr> <td>&emsp;积极&emsp;</td> <td>&emsp;高尚、诚信、善良、君子、廉正、正直&emsp;</td> </tr>
    <tr> <td>&emsp;消极&emsp;</td> <td>&emsp;缺德、卑鄙、不孝、不仁、小人、黑心&emsp;</td> </tr>
    <tr> <td>&emsp;自我&emsp;</td> <td>&emsp;我、我的、自己、自己的、本人、本人的&emsp;</td> </tr>
    <tr> <td>&emsp;他人&emsp;</td> <td>&emsp;他、他的、别人、别人的、他人、他人的&emsp;</td> </tr>
    </table><br/>","0","html-button-response","7","110179","0.0-6.0-1.0-0.0","4","3","4","4","4","4","3","4","4","4","4","4","5","4","5","5","5","4","4","5","1","2","1","1","1","1","1","1","1","0","0","1","1","0","0","0","0","0","1","-1","0","0","0","1","5","1","2","2","1","2","4","2","3","2","628584680945352704","林","","","","","","","","","","","","","","","","","1","1","","","","","","","","","","","","","","","","","","","","","",""
"4507","
    <div class=""tag-bottom""><p>
    ―― 任务1：对“自我”词和“他人”词分类 ――<p/>
    不同词语会出现在屏幕中央，类别标签将始终显示在屏幕上方<p/>   
    <span style=""color:#FFD866""><b>请根据上方标签的提示，尽可能正确并且快速地做出按键反应</b></span><p/>
    当按键错误时屏幕中会出现<span style=""color:red""> X </span>，需要按另一个键纠正才能继续<br/><p/>
    请把双手食指分别放在键盘的“E”键和“I”键上<p/>
    按<空格键>开始
    </p></div>"," ","html-keyboard-response","8","114701","0.0-6.0-1.0-1.0","4","3","4","4","4","4","3","4","4","4","4","4","5","4","5","5","5","4","4","5","1","2","1","1","1","1","1","1","1","0","0","1","1","0","0","0","0","0","1","-1","0","0","0","1","5","1","2","2","1","2","4","2","3","2","628584680945352704","林","","","","","","","","","","","","","","","","","","","","","","","","","","","","","","","","","","","","","","","",""
"null","","null","html-keyboard-response","9","114953","0.0-6.0-1.0-2.0-0.0","4","3","4","4","4","4","3","4","4","4","4","4","5","4","5","5","5","4","4","5","1","2","1","1","1","1","1","1","1","0","0","1","1","0","0","0","0","0","1","-1","0","0","0","1","5","1","2","2","1","2","4","2","3","2","628584680945352704","林","","","","","","","","","","","","","","","","","","","","","","","","","","","","","","","","","","","","","","","",""
"825","<p style=""color:rgb(150, 250, 100); font-size: 35px;"">本人的</p>","e","categorize-html","10","115786","0.0-6.0-1.0-2.0-1.0","4","3","4","4","4","4","3","4","4","4","4","4","5","4","5","5","5","4","4","5","1","2","1","1","1","1","1","1","1","0","0","1","1","0","0","0","0","0","1","-1","0","0","0","1","5","1","2","2","1","2","4","2","3","2","628584680945352704","林","","","","","","","","","","","","","","","","","","","true","11","1","moral","825","self","本人的","","","","","","","","","","","","","","",""
"null","","null","html-keyboard-response","11","116038","0.0-6.0-1.0-2.0-0.1","4","3","4","4","4","4","3","4","4","4","4","4","5","4","5","5","5","4","4","5","1","2","1","1","1","1","1","1","1","0","0","1","1","0","0","0","0","0","1","-1","0","0","0","1","5","1","2","2","1","2","4","2","3","2","628584680945352704","林","","","","","","","","","","","","","","","","","","","","","","","","","","","","","","","","","","","","","","","",""
"1046","<p style=""color:rgb(150, 250, 100); font-size: 35px;"">本人</p>","e","categorize-html","12","117088","0.0-6.0-1.0-2.0-1.1","4","3","4","4","4","4","3","4","4","4","4","4","5","4","5","5","5","4","4","5","1","2","1","1","1","1","1","1","1","0","0","1","1","0","0","0","0","0","1","-1","0","0","0","1","5","1","2","2","1","2","4","2","3","2","628584680945352704","林","","","","","","","","","","","","","","","","","","","true","11","1","moral","1046","self","本人","","","","","","","","","","","","","","",""
"null","","null","html-keyboard-response","13","117340","0.0-6.0-1.0-2.0-0.2","4","3","4","4","4","4","3","4","4","4","4","4","5","4","5","5","5","4","4","5","1","2","1","1","1","1","1","1","1","0","0","1","1","0","0","0","0","0","1","-1","0","0","0","1","5","1","2","2","1","2","4","2","3","2","628584680945352704","林","","","","","","","","","","","","","","","","","","","","","","","","","","","","","","","","","","","","","","","",""
"656","<p style=""color:rgb(150, 250, 100); font-size: 35px;"">他人的</p>","i","categorize-html","14","117999","0.0-6.0-1.0-2.0-1.2","4","3","4","4","4","4","3","4","4","4","4","4","5","4","5","5","5","4","4","5","1","2","1","1","1","1","1","1","1","0","0","1","1","0","0","0","0","0","1","-1","0","0","0","1","5","1","2","2","1","2","4","2","3","2","628584680945352704","林","","","","","","","","","","","","","","","","","","","true","11","1","moral","656","other","他人的","","","","","","","","","","","","","","",""
"null","","null","html-keyboard-response","15","118250","0.0-6.0-1.0-2.0-0.3","4","3","4","4","4","4","3","4","4","4","4","4","5","4","5","5","5","4","4","5","1","2","1","1","1","1","1","1","1","0","0","1","1","0","0","0","0","0","1","-1","0","0","0","1","5","1","2","2","1","2","4","2","3","2","628584680945352704","林","","","","","","","","","","","","","","","","","","","","","","","","","","","","","","","","","","","","","","","",""
"577","<p style=""color:rgb(150, 250, 100); font-size: 35px;"">他的</p>","i","categorize-html","16","118832","0.0-6.0-1.0-2.0-1.3","4","3","4","4","4","4","3","4","4","4","4","4","5","4","5","5","5","4","4","5","1","2","1","1","1","1","1","1","1","0","0","1","1","0","0","0","0","0","1","-1","0","0","0","1","5","1","2","2","1","2","4","2","3","2","628584680945352704","林","","","","","","","","","","","","","","","","","","","true","11","1","moral","577","other","他的","","","","","","","","","","","","","","",""
"null","","null","html-keyboard-response","17","119083","0.0-6.0-1.0-2.0-0.4","4","3","4","4","4","4","3","4","4","4","4","4","5","4","5","5","5","4","4","5","1","2","1","1","1","1","1","1","1","0","0","1","1","0","0","0","0","0","1","-1","0","0","0","1","5","1","2","2","1","2","4","2","3","2","628584680945352704","林","","","","","","","","","","","","","","","","","","","","","","","","","","","","","","","","","","","","","","","",""
"583","<p style=""color:rgb(150, 250, 100); font-size: 35px;"">别人的</p>","i","categorize-html","18","119670","0.0-6.0-1.0-2.0-1.4","4","3","4","4","4","4","3","4","4","4","4","4","5","4","5","5","5","4","4","5","1","2","1","1","1","1","1","1","1","0","0","1","1","0","0","0","0","0","1","-1","0","0","0","1","5","1","2","2","1","2","4","2","3","2","628584680945352704","林","","","","","","","","","","","","","","","","","","","true","11","1","moral","583","other","别人的","","","","","","","","","","","","","","",""
"null","","null","html-keyboard-response","19","119922","0.0-6.0-1.0-2.0-0.5","4","3","4","4","4","4","3","4","4","4","4","4","5","4","5","5","5","4","4","5","1","2","1","1","1","1","1","1","1","0","0","1","1","0","0","0","0","0","1","-1","0","0","0","1","5","1","2","2","1","2","4","2","3","2","628584680945352704","林","","","","","","","","","","","","","","","","","","","","","","","","","","","","","","","","","","","","","","","",""
"417","<p style=""color:rgb(150, 250, 100); font-size: 35px;"">别人</p>","i","categorize-html","20","120344","0.0-6.0-1.0-2.0-1.5","4","3","4","4","4","4","3","4","4","4","4","4","5","4","5","5","5","4","4","5","1","2","1","1","1","1","1","1","1","0","0","1","1","0","0","0","0","0","1","-1","0","0","0","1","5","1","2","2","1","2","4","2","3","2","628584680945352704","林","","","","","","","","","","","","","","","","","","","true","11","1","moral","417","other","别人","","","","","","","","","","","","","","",""
"null","","null","html-keyboard-response","21","120595","0.0-6.0-1.0-2.0-0.6","4","3","4","4","4","4","3","4","4","4","4","4","5","4","5","5","5","4","4","5","1","2","1","1","1","1","1","1","1","0","0","1","1","0","0","0","0","0","1","-1","0","0","0","1","5","1","2","2","1","2","4","2","3","2","628584680945352704","林","","","","","","","","","","","","","","","","","","","","","","","","","","","","","","","","","","","","","","","",""
"639","<p style=""color:rgb(150, 250, 100); font-size: 35px;"">自己的</p>","e","categorize-html","22","121238","0.0-6.0-1.0-2.0-1.6","4","3","4","4","4","4","3","4","4","4","4","4","5","4","5","5","5","4","4","5","1","2","1","1","1","1","1","1","1","0","0","1","1","0","0","0","0","0","1","-1","0","0","0","1","5","1","2","2","1","2","4","2","3","2","628584680945352704","林","","","","","","","","","","","","","","","","","","","true","11","1","moral","639","self","自己的","","","","","","","","","","","","","","",""
"null","","null","html-keyboard-response","23","121489","0.0-6.0-1.0-2.0-0.7","4","3","4","4","4","4","3","4","4","4","4","4","5","4","5","5","5","4","4","5","1","2","1","1","1","1","1","1","1","0","0","1","1","0","0","0","0","0","1","-1","0","0","0","1","5","1","2","2","1","2","4","2","3","2","628584680945352704","林","","","","","","","","","","","","","","","","","","","","","","","","","","","","","","","","","","","","","","","",""
"569","<p style=""color:rgb(150, 250, 100); font-size: 35px;"">他人</p>","i","categorize-html","24","122062","0.0-6.0-1.0-2.0-1.7","4","3","4","4","4","4","3","4","4","4","4","4","5","4","5","5","5","4","4","5","1","2","1","1","1","1","1","1","1","0","0","1","1","0","0","0","0","0","1","-1","0","0","0","1","5","1","2","2","1","2","4","2","3","2","628584680945352704","林","","","","","","","","","","","","","","","","","","","true","11","1","moral","569","other","他人","","","","","","","","","","","","","","",""
"null","","null","html-keyboard-response","25","122313","0.0-6.0-1.0-2.0-0.8","4","3","4","4","4","4","3","4","4","4","4","4","5","4","5","5","5","4","4","5","1","2","1","1","1","1","1","1","1","0","0","1","1","0","0","0","0","0","1","-1","0","0","0","1","5","1","2","2","1","2","4","2","3","2","628584680945352704","林","","","","","","","","","","","","","","","","","","","","","","","","","","","","","","","","","","","","","","","",""
"514","<p style=""color:rgb(150, 250, 100); font-size: 35px;"">我</p>","e","categorize-html","26","122832","0.0-6.0-1.0-2.0-1.8","4","3","4","4","4","4","3","4","4","4","4","4","5","4","5","5","5","4","4","5","1","2","1","1","1","1","1","1","1","0","0","1","1","0","0","0","0","0","1","-1","0","0","0","1","5","1","2","2","1","2","4","2","3","2","628584680945352704","林","","","","","","","","","","","","","","","","","","","true","11","1","moral","514","self","我","","","","","","","","","","","","","","",""
"null","","null","html-keyboard-response","27","123084","0.0-6.0-1.0-2.0-0.9","4","3","4","4","4","4","3","4","4","4","4","4","5","4","5","5","5","4","4","5","1","2","1","1","1","1","1","1","1","0","0","1","1","0","0","0","0","0","1","-1","0","0","0","1","5","1","2","2","1","2","4","2","3","2","628584680945352704","林","","","","","","","","","","","","","","","","","","","","","","","","","","","","","","","","","","","","","","","",""
"607","<p style=""color:rgb(150, 250, 100); font-size: 35px;"">他</p>","i","categorize-html","28","123695","0.0-6.0-1.0-2.0-1.9","4","3","4","4","4","4","3","4","4","4","4","4","5","4","5","5","5","4","4","5","1","2","1","1","1","1","1","1","1","0","0","1","1","0","0","0","0","0","1","-1","0","0","0","1","5","1","2","2","1","2","4","2","3","2","628584680945352704","林","","","","","","","","","","","","","","","","","","","true","11","1","moral","607","other","他","","","","","","","","","","","","","","",""
"null","","null","html-keyboard-response","29","123946","0.0-6.0-1.0-2.0-0.10","4","3","4","4","4","4","3","4","4","4","4","4","5","4","5","5","5","4","4","5","1","2","1","1","1","1","1","1","1","0","0","1","1","0","0","0","0","0","1","-1","0","0","0","1","5","1","2","2","1","2","4","2","3","2","628584680945352704","林","","","","","","","","","","","","","","","","","","","","","","","","","","","","","","","","","","","","","","","",""
"554","<p style=""color:rgb(150, 250, 100); font-size: 35px;"">自己</p>","e","categorize-html","30","124505","0.0-6.0-1.0-2.0-1.10","4","3","4","4","4","4","3","4","4","4","4","4","5","4","5","5","5","4","4","5","1","2","1","1","1","1","1","1","1","0","0","1","1","0","0","0","0","0","1","-1","0","0","0","1","5","1","2","2","1","2","4","2","3","2","628584680945352704","林","","","","","","","","","","","","","","","","","","","true","11","1","moral","554","self","自己","","","","","","","","","","","","","","",""
"null","","null","html-keyboard-response","31","124756","0.0-6.0-1.0-2.0-0.11","4","3","4","4","4","4","3","4","4","4","4","4","5","4","5","5","5","4","4","5","1","2","1","1","1","1","1","1","1","0","0","1","1","0","0","0","0","0","1","-1","0","0","0","1","5","1","2","2","1","2","4","2","3","2","628584680945352704","林","","","","","","","","","","","","","","","","","","","","","","","","","","","","","","","","","","","","","","","",""
"448","<p style=""color:rgb(150, 250, 100); font-size: 35px;"">我的</p>","e","categorize-html","32","125208","0.0-6.0-1.0-2.0-1.11","4","3","4","4","4","4","3","4","4","4","4","4","5","4","5","5","5","4","4","5","1","2","1","1","1","1","1","1","1","0","0","1","1","0","0","0","0","0","1","-1","0","0","0","1","5","1","2","2","1","2","4","2","3","2","628584680945352704","林","","","","","","","","","","","","","","","","","","","true","11","1","moral","448","self","我的","","","","","","","","","","","","","","",""
"3858","
    <div class=""tag-bottom""><p>
    ―― 任务2：对“积极”词和“消极”词分类 ――<p/>   
    <span style=""color:#78DCE8""><b>注意上方，类别标签和需要分类的词语都已经改变</b></span><p/>
    <span style=""color:#FFD866""><b>请根据上方标签的提示，尽可能正确并且快速地做出按键反应</b></span><p/>
    当按键错误时屏幕中会出现<span style=""color:red""> X </span>，需要按另一个键纠正才能继续<br/><p/>
    请把双手食指分别放在键盘的“E”键和“I”键上<p/>
    按<空格键>开始
    </p></div>"," ","html-keyboard-response","33","129067","0.0-6.0-1.0-3.0","4","3","4","4","4","4","3","4","4","4","4","4","5","4","5","5","5","4","4","5","1","2","1","1","1","1","1","1","1","0","0","1","1","0","0","0","0","0","1","-1","0","0","0","1","5","1","2","2","1","2","4","2","3","2","628584680945352704","林","","","","","","","","","","","","","","","","","","","","","","","","","","","","","","","","","","","","","","","",""
"null","","null","html-keyboard-response","34","129318","0.0-6.0-1.0-4.0-0.0","4","3","4","4","4","4","3","4","4","4","4","4","5","4","5","5","5","4","4","5","1","2","1","1","1","1","1","1","1","0","0","1","1","0","0","0","0","0","1","-1","0","0","0","1","5","1","2","2","1","2","4","2","3","2","628584680945352704","林","","","","","","","","","","","","","","","","","","","","","","","","","","","","","","","","","","","","","","","",""
"1468","<p style=""color:white; font-size: 35px;"">君子</p>","e","categorize-html","35","130792","0.0-6.0-1.0-4.0-1.0","4","3","4","4","4","4","3","4","4","4","4","4","5","4","5","5","5","4","4","5","1","2","1","1","1","1","1","1","1","0","0","1","1","0","0","0","0","0","1","-1","0","0","0","1","5","1","2","2","1","2","4","2","3","2","628584680945352704","林","","","","","","","","","","","","","","","","","","","true","12","2","moral","1468","positive","君子","","","","","","","","","","","","","","",""
"null","","null","html-keyboard-response","36","131043","0.0-6.0-1.0-4.0-0.1","4","3","4","4","4","4","3","4","4","4","4","4","5","4","5","5","5","4","4","5","1","2","1","1","1","1","1","1","1","0","0","1","1","0","0","0","0","0","1","-1","0","0","0","1","5","1","2","2","1","2","4","2","3","2","628584680945352704","林","","","","","","","","","","","","","","","","","","","","","","","","","","","","","","","","","","","","","","","",""
"590","<p style=""color:white; font-size: 35px;"">廉正</p>","e","categorize-html","37","131638","0.0-6.0-1.0-4.0-1.1","4","3","4","4","4","4","3","4","4","4","4","4","5","4","5","5","5","4","4","5","1","2","1","1","1","1","1","1","1","0","0","1","1","0","0","0","0","0","1","-1","0","0","0","1","5","1","2","2","1","2","4","2","3","2","628584680945352704","林","","","","","","","","","","","","","","","","","","","true","12","2","moral","590","positive","廉正","","","","","","","","","","","","","","",""
"null","","null","html-keyboard-response","38","131889","0.0-6.0-1.0-4.0-0.2","4","3","4","4","4","4","3","4","4","4","4","4","5","4","5","5","5","4","4","5","1","2","1","1","1","1","1","1","1","0","0","1","1","0","0","0","0","0","1","-1","0","0","0","1","5","1","2","2","1","2","4","2","3","2","628584680945352704","林","","","","","","","","","","","","","","","","","","","","","","","","","","","","","","","","","","","","","","","",""
"538","<p style=""color:white; font-size: 35px;"">小人</p>","i","categorize-html","39","132432","0.0-6.0-1.0-4.0-1.2","4","3","4","4","4","4","3","4","4","4","4","4","5","4","5","5","5","4","4","5","1","2","1","1","1","1","1","1","1","0","0","1","1","0","0","0","0","0","1","-1","0","0","0","1","5","1","2","2","1","2","4","2","3","2","628584680945352704","林","","","","","","","","","","","","","","","","","","","true","12","2","moral","538","negative","小人","","","","","","","","","","","","","","",""
"null","","null","html-keyboard-response","40","132683","0.0-6.0-1.0-4.0-0.3","4","3","4","4","4","4","3","4","4","4","4","4","5","4","5","5","5","4","4","5","1","2","1","1","1","1","1","1","1","0","0","1","1","0","0","0","0","0","1","-1","0","0","0","1","5","1","2","2","1","2","4","2","3","2","628584680945352704","林","","","","","","","","","","","","","","","","","","","","","","","","","","","","","","","","","","","","","","","",""
"534","<p style=""color:white; font-size: 35px;"">善良</p>","e","categorize-html","41","133222","0.0-6.0-1.0-4.0-1.3","4","3","4","4","4","4","3","4","4","4","4","4","5","4","5","5","5","4","4","5","1","2","1","1","1","1","1","1","1","0","0","1","1","0","0","0","0","0","1","-1","0","0","0","1","5","1","2","2","1","2","4","2","3","2","628584680945352704","林","","","","","","","","","","","","","","","","","","","true","12","2","moral","534","positive","善良","","","","","","","","","","","","","","",""
"null","","null","html-keyboard-response","42","133473","0.0-6.0-1.0-4.0-0.4","4","3","4","4","4","4","3","4","4","4","4","4","5","4","5","5","5","4","4","5","1","2","1","1","1","1","1","1","1","0","0","1","1","0","0","0","0","0","1","-1","0","0","0","1","5","1","2","2","1","2","4","2","3","2","628584680945352704","林","","","","","","","","","","","","","","","","","","","","","","","","","","","","","","","","","","","","","","","",""
"473","<p style=""color:white; font-size: 35px;"">不孝</p>","i","categorize-html","43","133951","0.0-6.0-1.0-4.0-1.4","4","3","4","4","4","4","3","4","4","4","4","4","5","4","5","5","5","4","4","5","1","2","1","1","1","1","1","1","1","0","0","1","1","0","0","0","0","0","1","-1","0","0","0","1","5","1","2","2","1","2","4","2","3","2","628584680945352704","林","","","","","","","","","","","","","","","","","","","true","12","2","moral","473","negative","不孝","","","","","","","","","","","","","","",""
"null","","null","html-keyboard-response","44","134202","0.0-6.0-1.0-4.0-0.5","4","3","4","4","4","4","3","4","4","4","4","4","5","4","5","5","5","4","4","5","1","2","1","1","1","1","1","1","1","0","0","1","1","0","0","0","0","0","1","-1","0","0","0","1","5","1","2","2","1","2","4","2","3","2","628584680945352704","林","","","","","","","","","","","","","","","","","","","","","","","","","","","","","","","","","","","","","","","",""
"416","<p style=""color:white; font-size: 35px;"">卑鄙</p>","i","categorize-html","45","134622","0.0-6.0-1.0-4.0-1.5","4","3","4","4","4","4","3","4","4","4","4","4","5","4","5","5","5","4","4","5","1","2","1","1","1","1","1","1","1","0","0","1","1","0","0","0","0","0","1","-1","0","0","0","1","5","1","2","2","1","2","4","2","3","2","628584680945352704","林","","","","","","","","","","","","","","","","","","","true","12","2","moral","416","negative","卑鄙","","","","","","","","","","","","","","",""
"null","","null","html-keyboard-response","46","134873","0.0-6.0-1.0-4.0-0.6","4","3","4","4","4","4","3","4","4","4","4","4","5","4","5","5","5","4","4","5","1","2","1","1","1","1","1","1","1","0","0","1","1","0","0","0","0","0","1","-1","0","0","0","1","5","1","2","2","1","2","4","2","3","2","628584680945352704","林","","","","","","","","","","","","","","","","","","","","","","","","","","","","","","","","","","","","","","","",""
"417","<p style=""color:white; font-size: 35px;"">不仁</p>","i","categorize-html","47","135294","0.0-6.0-1.0-4.0-1.6","4","3","4","4","4","4","3","4","4","4","4","4","5","4","5","5","5","4","4","5","1","2","1","1","1","1","1","1","1","0","0","1","1","0","0","0","0","0","1","-1","0","0","0","1","5","1","2","2","1","2","4","2","3","2","628584680945352704","林","","","","","","","","","","","","","","","","","","","true","12","2","moral","417","negative","不仁","","","","","","","","","","","","","","",""
"null","","null","html-keyboard-response","48","135545","0.0-6.0-1.0-4.0-0.7","4","3","4","4","4","4","3","4","4","4","4","4","5","4","5","5","5","4","4","5","1","2","1","1","1","1","1","1","1","0","0","1","1","0","0","0","0","0","1","-1","0","0","0","1","5","1","2","2","1","2","4","2","3","2","628584680945352704","林","","","","","","","","","","","","","","","","","","","","","","","","","","","","","","","","","","","","","","","",""
"569","<p style=""color:white; font-size: 35px;"">正直</p>","e","categorize-html","49","136117","0.0-6.0-1.0-4.0-1.7","4","3","4","4","4","4","3","4","4","4","4","4","5","4","5","5","5","4","4","5","1","2","1","1","1","1","1","1","1","0","0","1","1","0","0","0","0","0","1","-1","0","0","0","1","5","1","2","2","1","2","4","2","3","2","628584680945352704","林","","","","","","","","","","","","","","","","","","","true","12","2","moral","569","positive","正直","","","","","","","","","","","","","","",""
"null","","null","html-keyboard-response","50","136368","0.0-6.0-1.0-4.0-0.8","4","3","4","4","4","4","3","4","4","4","4","4","5","4","5","5","5","4","4","5","1","2","1","1","1","1","1","1","1","0","0","1","1","0","0","0","0","0","1","-1","0","0","0","1","5","1","2","2","1","2","4","2","3","2","628584680945352704","林","","","","","","","","","","","","","","","","","","","","","","","","","","","","","","","","","","","","","","","",""
"826","<p style=""color:white; font-size: 35px;"">高尚</p>","e","categorize-html","51","137198","0.0-6.0-1.0-4.0-1.8","4","3","4","4","4","4","3","4","4","4","4","4","5","4","5","5","5","4","4","5","1","2","1","1","1","1","1","1","1","0","0","1","1","0","0","0","0","0","1","-1","0","0","0","1","5","1","2","2","1","2","4","2","3","2","628584680945352704","林","","","","","","","","","","","","","","","","","","","true","12","2","moral","826","positive","高尚","","","","","","","","","","","","","","",""
"null","","null","html-keyboard-response","52","137450","0.0-6.0-1.0-4.0-0.9","4","3","4","4","4","4","3","4","4","4","4","4","5","4","5","5","5","4","4","5","1","2","1","1","1","1","1","1","1","0","0","1","1","0","0","0","0","0","1","-1","0","0","0","1","5","1","2","2","1","2","4","2","3","2","628584680945352704","林","","","","","","","","","","","","","","","","","","","","","","","","","","","","","","","","","","","","","","","",""
"472","<p style=""color:white; font-size: 35px;"">诚信</p>","e","categorize-html","53","137926","0.0-6.0-1.0-4.0-1.9","4","3","4","4","4","4","3","4","4","4","4","4","5","4","5","5","5","4","4","5","1","2","1","1","1","1","1","1","1","0","0","1","1","0","0","0","0","0","1","-1","0","0","0","1","5","1","2","2","1","2","4","2","3","2","628584680945352704","林","","","","","","","","","","","","","","","","","","","true","12","2","moral","472","positive","诚信","","","","","","","","","","","","","","",""
"null","","null","html-keyboard-response","54","138178","0.0-6.0-1.0-4.0-0.10","4","3","4","4","4","4","3","4","4","4","4","4","5","4","5","5","5","4","4","5","1","2","1","1","1","1","1","1","1","0","0","1","1","0","0","0","0","0","1","-1","0","0","0","1","5","1","2","2","1","2","4","2","3","2","628584680945352704","林","","","","","","","","","","","","","","","","","","","","","","","","","","","","","","","","","","","","","","","",""
"544","<p style=""color:white; font-size: 35px;"">缺德</p>","i","categorize-html","55","138725","0.0-6.0-1.0-4.0-1.10","4","3","4","4","4","4","3","4","4","4","4","4","5","4","5","5","5","4","4","5","1","2","1","1","1","1","1","1","1","0","0","1","1","0","0","0","0","0","1","-1","0","0","0","1","5","1","2","2","1","2","4","2","3","2","628584680945352704","林","","","","","","","","","","","","","","","","","","","true","12","2","moral","544","negative","缺德","","","","","","","","","","","","","","",""
"null","","null","html-keyboard-response","56","138977","0.0-6.0-1.0-4.0-0.11","4","3","4","4","4","4","3","4","4","4","4","4","5","4","5","5","5","4","4","5","1","2","1","1","1","1","1","1","1","0","0","1","1","0","0","0","0","0","1","-1","0","0","0","1","5","1","2","2","1","2","4","2","3","2","628584680945352704","林","","","","","","","","","","","","","","","","","","","","","","","","","","","","","","","","","","","","","","","",""
"569","<p style=""color:white; font-size: 35px;"">黑心</p>","i","categorize-html","57","139550","0.0-6.0-1.0-4.0-1.11","4","3","4","4","4","4","3","4","4","4","4","4","5","4","5","5","5","4","4","5","1","2","1","1","1","1","1","1","1","0","0","1","1","0","0","0","0","0","1","-1","0","0","0","1","5","1","2","2","1","2","4","2","3","2","628584680945352704","林","","","","","","","","","","","","","","","","","","","true","12","2","moral","569","negative","黑心","","","","","","","","","","","","","","",""
"7044","
    <div class=""tag-bottom""><p>
    ―― 任务3：对“自我/积极”词和“他人/消极”词分类 ――<p/>
    <span style=""color:#78DCE8""><b>注意上方，之前的四类词语将混合在一起交替呈现</b></span><p/>
    <span style=""color:#FFD866""><b>请根据上方标签的提示，尽可能正确并且快速地做出按键反应</b></span><p/>
    当按键错误时屏幕中会出现<span style=""color:red""> X </span>，需要按另一个键纠正才能继续<br/><p/>
    请把双手食指分别放在键盘的“E”键和“I”键上<p/>
    按<空格键>开始
    </p></div>"," ","html-keyboard-response","58","146596","0.0-6.0-1.0-5.0","4","3","4","4","4","4","3","4","4","4","4","4","5","4","5","5","5","4","4","5","1","2","1","1","1","1","1","1","1","0","0","1","1","0","0","0","0","0","1","-1","0","0","0","1","5","1","2","2","1","2","4","2","3","2","628584680945352704","林","","","","","","","","","","","","","","","","","","","","","","","","","","","","","","","","","","","","","","","",""
"null","","null","html-keyboard-response","59","146847","0.0-6.0-1.0-6.0-0.0","4","3","4","4","4","4","3","4","4","4","4","4","5","4","5","5","5","4","4","5","1","2","1","1","1","1","1","1","1","0","0","1","1","0","0","0","0","0","1","-1","0","0","0","1","5","1","2","2","1","2","4","2","3","2","628584680945352704","林","","","","","","","","","","","","","","","","","","","","","","","","","","","","","","","","","","","","","","","",""
"889","<p style=""color:rgb(150, 250, 100); font-size: 35px;"">他的</p>","i","categorize-html","60","147742","0.0-6.0-1.0-6.0-1.0","4","3","4","4","4","4","3","4","4","4","4","4","5","4","5","5","5","4","4","5","1","2","1","1","1","1","1","1","1","0","0","1","1","0","0","0","0","0","1","-1","0","0","0","1","5","1","2","2","1","2","4","2","3","2","628584680945352704","林","","","","","","","","","","","","","","","","","","","true","13","3","moral","889","other","他的","","","","","","","","","","","","","","",""
"null","","null","html-keyboard-response","61","147993","0.0-6.0-1.0-6.0-0.1","4","3","4","4","4","4","3","4","4","4","4","4","5","4","5","5","5","4","4","5","1","2","1","1","1","1","1","1","1","0","0","1","1","0","0","0","0","0","1","-1","0","0","0","1","5","1","2","2","1","2","4","2","3","2","628584680945352704","林","","","","","","","","","","","","","","","","","","","","","","","","","","","","","","","","","","","","","","","",""
"873","<p style=""color:white; font-size: 35px;"">小人</p>","i","categorize-html","62","148871","0.0-6.0-1.0-6.0-1.1","4","3","4","4","4","4","3","4","4","4","4","4","5","4","5","5","5","4","4","5","1","2","1","1","1","1","1","1","1","0","0","1","1","0","0","0","0","0","1","-1","0","0","0","1","5","1","2","2","1","2","4","2","3","2","628584680945352704","林","","","","","","","","","","","","","","","","","","","true","13","3","moral","873","negative","小人","","","","","","","","","","","","","","",""
"null","","null","html-keyboard-response","63","149122","0.0-6.0-1.0-6.0-0.2","4","3","4","4","4","4","3","4","4","4","4","4","5","4","5","5","5","4","4","5","1","2","1","1","1","1","1","1","1","0","0","1","1","0","0","0","0","0","1","-1","0","0","0","1","5","1","2","2","1","2","4","2","3","2","628584680945352704","林","","","","","","","","","","","","","","","","","","","","","","","","","","","","","","","","","","","","","","","",""
"743","<p style=""color:rgb(150, 250, 100); font-size: 35px;"">自己的</p>","e","categorize-html","64","149870","0.0-6.0-1.0-6.0-1.2","4","3","4","4","4","4","3","4","4","4","4","4","5","4","5","5","5","4","4","5","1","2","1","1","1","1","1","1","1","0","0","1","1","0","0","0","0","0","1","-1","0","0","0","1","5","1","2","2","1","2","4","2","3","2","628584680945352704","林","","","","","","","","","","","","","","","","","","","true","13","3","moral","743","self","自己的","","","","","","","","","","","","","","",""
"null","","null","html-keyboard-response","65","150121","0.0-6.0-1.0-6.0-0.3","4","3","4","4","4","4","3","4","4","4","4","4","5","4","5","5","5","4","4","5","1","2","1","1","1","1","1","1","1","0","0","1","1","0","0","0","0","0","1","-1","0","0","0","1","5","1","2","2","1","2","4","2","3","2","628584680945352704","林","","","","","","","","","","","","","","","","","","","","","","","","","","","","","","","","","","","","","","","",""
"520","<p style=""color:white; font-size: 35px;"">善良</p>","e","categorize-html","66","150645","0.0-6.0-1.0-6.0-1.3","4","3","4","4","4","4","3","4","4","4","4","4","5","4","5","5","5","4","4","5","1","2","1","1","1","1","1","1","1","0","0","1","1","0","0","0","0","0","1","-1","0","0","0","1","5","1","2","2","1","2","4","2","3","2","628584680945352704","林","","","","","","","","","","","","","","","","","","","true","13","3","moral","520","positive","善良","","","","","","","","","","","","","","",""
"null","","null","html-keyboard-response","67","150896","0.0-6.0-1.0-6.0-0.4","4","3","4","4","4","4","3","4","4","4","4","4","5","4","5","5","5","4","4","5","1","2","1","1","1","1","1","1","1","0","0","1","1","0","0","0","0","0","1","-1","0","0","0","1","5","1","2","2","1","2","4","2","3","2","628584680945352704","林","","","","","","","","","","","","","","","","","","","","","","","","","","","","","","","","","","","","","","","",""
"488","<p style=""color:rgb(150, 250, 100); font-size: 35px;"">本人的</p>","e","categorize-html","68","151390","0.0-6.0-1.0-6.0-1.4","4","3","4","4","4","4","3","4","4","4","4","4","5","4","5","5","5","4","4","5","1","2","1","1","1","1","1","1","1","0","0","1","1","0","0","0","0","0","1","-1","0","0","0","1","5","1","2","2","1","2","4","2","3","2","628584680945352704","林","","","","","","","","","","","","","","","","","","","true","13","3","moral","488","self","本人的","","","","","","","","","","","","","","",""
"null","","null","html-keyboard-response","69","151642","0.0-6.0-1.0-6.0-0.5","4","3","4","4","4","4","3","4","4","4","4","4","5","4","5","5","5","4","4","5","1","2","1","1","1","1","1","1","1","0","0","1","1","0","0","0","0","0","1","-1","0","0","0","1","5","1","2","2","1","2","4","2","3","2","628584680945352704","林","","","","","","","","","","","","","","","","","","","","","","","","","","","","","","","","","","","","","","","",""
"511","<p style=""color:white; font-size: 35px;"">不孝</p>","i","categorize-html","70","152158","0.0-6.0-1.0-6.0-1.5","4","3","4","4","4","4","3","4","4","4","4","4","5","4","5","5","5","4","4","5","1","2","1","1","1","1","1","1","1","0","0","1","1","0","0","0","0","0","1","-1","0","0","0","1","5","1","2","2","1","2","4","2","3","2","628584680945352704","林","","","","","","","","","","","","","","","","","","","true","13","3","moral","511","negative","不孝","","","","","","","","","","","","","","",""
"null","","null","html-keyboard-response","71","152410","0.0-6.0-1.0-6.0-0.6","4","3","4","4","4","4","3","4","4","4","4","4","5","4","5","5","5","4","4","5","1","2","1","1","1","1","1","1","1","0","0","1","1","0","0","0","0","0","1","-1","0","0","0","1","5","1","2","2","1","2","4","2","3","2","628584680945352704","林","","","","","","","","","","","","","","","","","","","","","","","","","","","","","","","","","","","","","","","",""
"759","<p style=""color:rgb(150, 250, 100); font-size: 35px;"">他人</p>","i","categorize-html","72","153174","0.0-6.0-1.0-6.0-1.6","4","3","4","4","4","4","3","4","4","4","4","4","5","4","5","5","5","4","4","5","1","2","1","1","1","1","1","1","1","0","0","1","1","0","0","0","0","0","1","-1","0","0","0","1","5","1","2","2","1","2","4","2","3","2","628584680945352704","林","","","","","","","","","","","","","","","","","","","true","13","3","moral","759","other","他人","","","","","","","","","","","","","","",""
"null","","null","html-keyboard-response","73","153426","0.0-6.0-1.0-6.0-0.7","4","3","4","4","4","4","3","4","4","4","4","4","5","4","5","5","5","4","4","5","1","2","1","1","1","1","1","1","1","0","0","1","1","0","0","0","0","0","1","-1","0","0","0","1","5","1","2","2","1","2","4","2","3","2","628584680945352704","林","","","","","","","","","","","","","","","","","","","","","","","","","","","","","","","","","","","","","","","",""
"503","<p style=""color:white; font-size: 35px;"">高尚</p>","e","categorize-html","74","153933","0.0-6.0-1.0-6.0-1.7","4","3","4","4","4","4","3","4","4","4","4","4","5","4","5","5","5","4","4","5","1","2","1","1","1","1","1","1","1","0","0","1","1","0","0","0","0","0","1","-1","0","0","0","1","5","1","2","2","1","2","4","2","3","2","628584680945352704","林","","","","","","","","","","","","","","","","","","","true","13","3","moral","503","positive","高尚","","","","","","","","","","","","","","",""
"null","","null","html-keyboard-response","75","154185","0.0-6.0-1.0-6.0-0.8","4","3","4","4","4","4","3","4","4","4","4","4","5","4","5","5","5","4","4","5","1","2","1","1","1","1","1","1","1","0","0","1","1","0","0","0","0","0","1","-1","0","0","0","1","5","1","2","2","1","2","4","2","3","2","628584680945352704","林","","","","","","","","","","","","","","","","","","","","","","","","","","","","","","","","","","","","","","","",""
"641","<p style=""color:rgb(150, 250, 100); font-size: 35px;"">他人的</p>","i","categorize-html","76","154832","0.0-6.0-1.0-6.0-1.8","4","3","4","4","4","4","3","4","4","4","4","4","5","4","5","5","5","4","4","5","1","2","1","1","1","1","1","1","1","0","0","1","1","0","0","0","0","0","1","-1","0","0","0","1","5","1","2","2","1","2","4","2","3","2","628584680945352704","林","","","","","","","","","","","","","","","","","","","true","13","3","moral","641","other","他人的","","","","","","","","","","","","","","",""
"null","","null","html-keyboard-response","77","155083","0.0-6.0-1.0-6.0-0.9","4","3","4","4","4","4","3","4","4","4","4","4","5","4","5","5","5","4","4","5","1","2","1","1","1","1","1","1","1","0","0","1","1","0","0","0","0","0","1","-1","0","0","0","1","5","1","2","2","1","2","4","2","3","2","628584680945352704","林","","","","","","","","","","","","","","","","","","","","","","","","","","","","","","","","","","","","","","","",""
"549","<p style=""color:white; font-size: 35px;"">黑心</p>","i","categorize-html","78","155636","0.0-6.0-1.0-6.0-1.9","4","3","4","4","4","4","3","4","4","4","4","4","5","4","5","5","5","4","4","5","1","2","1","1","1","1","1","1","1","0","0","1","1","0","0","0","0","0","1","-1","0","0","0","1","5","1","2","2","1","2","4","2","3","2","628584680945352704","林","","","","","","","","","","","","","","","","","","","true","13","3","moral","549","negative","黑心","","","","","","","","","","","","","","",""
"null","","null","html-keyboard-response","79","155888","0.0-6.0-1.0-6.0-0.10","4","3","4","4","4","4","3","4","4","4","4","4","5","4","5","5","5","4","4","5","1","2","1","1","1","1","1","1","1","0","0","1","1","0","0","0","0","0","1","-1","0","0","0","1","5","1","2","2","1","2","4","2","3","2","628584680945352704","林","","","","","","","","","","","","","","","","","","","","","","","","","","","","","","","","","","","","","","","",""
"440","<p style=""color:rgb(150, 250, 100); font-size: 35px;"">自己</p>","e","categorize-html","80","156333","0.0-6.0-1.0-6.0-1.10","4","3","4","4","4","4","3","4","4","4","4","4","5","4","5","5","5","4","4","5","1","2","1","1","1","1","1","1","1","0","0","1","1","0","0","0","0","0","1","-1","0","0","0","1","5","1","2","2","1","2","4","2","3","2","628584680945352704","林","","","","","","","","","","","","","","","","","","","true","13","3","moral","440","self","自己","","","","","","","","","","","","","","",""
"null","","null","html-keyboard-response","81","156584","0.0-6.0-1.0-6.0-0.11","4","3","4","4","4","4","3","4","4","4","4","4","5","4","5","5","5","4","4","5","1","2","1","1","1","1","1","1","1","0","0","1","1","0","0","0","0","0","1","-1","0","0","0","1","5","1","2","2","1","2","4","2","3","2","628584680945352704","林","","","","","","","","","","","","","","","","","","","","","","","","","","","","","","","","","","","","","","","",""
"497","<p style=""color:white; font-size: 35px;"">正直</p>","e","categorize-html","82","157085","0.0-6.0-1.0-6.0-1.11","4","3","4","4","4","4","3","4","4","4","4","4","5","4","5","5","5","4","4","5","1","2","1","1","1","1","1","1","1","0","0","1","1","0","0","0","0","0","1","-1","0","0","0","1","5","1","2","2","1","2","4","2","3","2","628584680945352704","林","","","","","","","","","","","","","","","","","","","true","13","3","moral","497","positive","正直","","","","","","","","","","","","","","",""
"null","","null","html-keyboard-response","83","157336","0.0-6.0-1.0-6.0-0.12","4","3","4","4","4","4","3","4","4","4","4","4","5","4","5","5","5","4","4","5","1","2","1","1","1","1","1","1","1","0","0","1","1","0","0","0","0","0","1","-1","0","0","0","1","5","1","2","2","1","2","4","2","3","2","628584680945352704","林","","","","","","","","","","","","","","","","","","","","","","","","","","","","","","","","","","","","","","","",""
"520","<p style=""color:rgb(150, 250, 100); font-size: 35px;"">我</p>","e","categorize-html","84","157860","0.0-6.0-1.0-6.0-1.12","4","3","4","4","4","4","3","4","4","4","4","4","5","4","5","5","5","4","4","5","1","2","1","1","1","1","1","1","1","0","0","1","1","0","0","0","0","0","1","-1","0","0","0","1","5","1","2","2","1","2","4","2","3","2","628584680945352704","林","","","","","","","","","","","","","","","","","","","true","13","3","moral","520","self","我","","","","","","","","","","","","","","",""
"null","","null","html-keyboard-response","85","158111","0.0-6.0-1.0-6.0-0.13","4","3","4","4","4","4","3","4","4","4","4","4","5","4","5","5","5","4","4","5","1","2","1","1","1","1","1","1","1","0","0","1","1","0","0","0","0","0","1","-1","0","0","0","1","5","1","2","2","1","2","4","2","3","2","628584680945352704","林","","","","","","","","","","","","","","","","","","","","","","","","","","","","","","","","","","","","","","","",""
"921","<p style=""color:white; font-size: 35px;"">不仁</p>","i","categorize-html","86","159039","0.0-6.0-1.0-6.0-1.13","4","3","4","4","4","4","3","4","4","4","4","4","5","4","5","5","5","4","4","5","1","2","1","1","1","1","1","1","1","0","0","1","1","0","0","0","0","0","1","-1","0","0","0","1","5","1","2","2","1","2","4","2","3","2","628584680945352704","林","","","","","","","","","","","","","","","","","","","true","13","3","moral","921","negative","不仁","","","","","","","","","","","","","","",""
"null","","null","html-keyboard-response","87","159291","0.0-6.0-1.0-6.0-0.14","4","3","4","4","4","4","3","4","4","4","4","4","5","4","5","5","5","4","4","5","1","2","1","1","1","1","1","1","1","0","0","1","1","0","0","0","0","0","1","-1","0","0","0","1","5","1","2","2","1","2","4","2","3","2","628584680945352704","林","","","","","","","","","","","","","","","","","","","","","","","","","","","","","","","","","","","","","","","",""
"701","<p style=""color:rgb(150, 250, 100); font-size: 35px;"">别人</p>","i","categorize-html","88","159997","0.0-6.0-1.0-6.0-1.14","4","3","4","4","4","4","3","4","4","4","4","4","5","4","5","5","5","4","4","5","1","2","1","1","1","1","1","1","1","0","0","1","1","0","0","0","0","0","1","-1","0","0","0","1","5","1","2","2","1","2","4","2","3","2","628584680945352704","林","","","","","","","","","","","","","","","","","","","true","13","3","moral","701","other","别人","","","","","","","","","","","","","","",""
"null","","null","html-keyboard-response","89","160248","0.0-6.0-1.0-6.0-0.15","4","3","4","4","4","4","3","4","4","4","4","4","5","4","5","5","5","4","4","5","1","2","1","1","1","1","1","1","1","0","0","1","1","0","0","0","0","0","1","-1","0","0","0","1","5","1","2","2","1","2","4","2","3","2","628584680945352704","林","","","","","","","","","","","","","","","","","","","","","","","","","","","","","","","","","","","","","","","",""
"839","<p style=""color:white; font-size: 35px;"">君子</p>","e","categorize-html","90","161090","0.0-6.0-1.0-6.0-1.15","4","3","4","4","4","4","3","4","4","4","4","4","5","4","5","5","5","4","4","5","1","2","1","1","1","1","1","1","1","0","0","1","1","0","0","0","0","0","1","-1","0","0","0","1","5","1","2","2","1","2","4","2","3","2","628584680945352704","林","","","","","","","","","","","","","","","","","","","true","13","3","moral","839","positive","君子","","","","","","","","","","","","","","",""
"null","","null","html-keyboard-response","91","161341","0.0-6.0-1.0-6.0-0.16","4","3","4","4","4","4","3","4","4","4","4","4","5","4","5","5","5","4","4","5","1","2","1","1","1","1","1","1","1","0","0","1","1","0","0","0","0","0","1","-1","0","0","0","1","5","1","2","2","1","2","4","2","3","2","628584680945352704","林","","","","","","","","","","","","","","","","","","","","","","","","","","","","","","","","","","","","","","","",""
"1042","<p style=""color:rgb(150, 250, 100); font-size: 35px;"">他</p>","i","categorize-html","92","162387","0.0-6.0-1.0-6.0-1.16","4","3","4","4","4","4","3","4","4","4","4","4","5","4","5","5","5","4","4","5","1","2","1","1","1","1","1","1","1","0","0","1","1","0","0","0","0","0","1","-1","0","0","0","1","5","1","2","2","1","2","4","2","3","2","628584680945352704","林","","","","","","","","","","","","","","","","","","","true","13","3","moral","1042","other","他","","","","","","","","","","","","","","",""
"null","","null","html-keyboard-response","93","162638","0.0-6.0-1.0-6.0-0.17","4","3","4","4","4","4","3","4","4","4","4","4","5","4","5","5","5","4","4","5","1","2","1","1","1","1","1","1","1","0","0","1","1","0","0","0","0","0","1","-1","0","0","0","1","5","1","2","2","1","2","4","2","3","2","628584680945352704","林","","","","","","","","","","","","","","","","","","","","","","","","","","","","","","","","","","","","","","","",""
"788","<p style=""color:white; font-size: 35px;"">廉正</p>","e","categorize-html","94","163432","0.0-6.0-1.0-6.0-1.17","4","3","4","4","4","4","3","4","4","4","4","4","5","4","5","5","5","4","4","5","1","2","1","1","1","1","1","1","1","0","0","1","1","0","0","0","0","0","1","-1","0","0","0","1","5","1","2","2","1","2","4","2","3","2","628584680945352704","林","","","","","","","","","","","","","","","","","","","true","13","3","moral","788","positive","廉正","","","","","","","","","","","","","","",""
"null","","null","html-keyboard-response","95","163683","0.0-6.0-1.0-6.0-0.18","4","3","4","4","4","4","3","4","4","4","4","4","5","4","5","5","5","4","4","5","1","2","1","1","1","1","1","1","1","0","0","1","1","0","0","0","0","0","1","-1","0","0","0","1","5","1","2","2","1","2","4","2","3","2","628584680945352704","林","","","","","","","","","","","","","","","","","","","","","","","","","","","","","","","","","","","","","","","",""
"517","<p style=""color:rgb(150, 250, 100); font-size: 35px;"">我的</p>","e","categorize-html","96","164205","0.0-6.0-1.0-6.0-1.18","4","3","4","4","4","4","3","4","4","4","4","4","5","4","5","5","5","4","4","5","1","2","1","1","1","1","1","1","1","0","0","1","1","0","0","0","0","0","1","-1","0","0","0","1","5","1","2","2","1","2","4","2","3","2","628584680945352704","林","","","","","","","","","","","","","","","","","","","true","13","3","moral","517","self","我的","","","","","","","","","","","","","","",""
"null","","null","html-keyboard-response","97","164457","0.0-6.0-1.0-6.0-0.19","4","3","4","4","4","4","3","4","4","4","4","4","5","4","5","5","5","4","4","5","1","2","1","1","1","1","1","1","1","0","0","1","1","0","0","0","0","0","1","-1","0","0","0","1","5","1","2","2","1","2","4","2","3","2","628584680945352704","林","","","","","","","","","","","","","","","","","","","","","","","","","","","","","","","","","","","","","","","",""
"558","<p style=""color:white; font-size: 35px;"">缺德</p>","i","categorize-html","98","165018","0.0-6.0-1.0-6.0-1.19","4","3","4","4","4","4","3","4","4","4","4","4","5","4","5","5","5","4","4","5","1","2","1","1","1","1","1","1","1","0","0","1","1","0","0","0","0","0","1","-1","0","0","0","1","5","1","2","2","1","2","4","2","3","2","628584680945352704","林","","","","","","","","","","","","","","","","","","","true","13","3","moral","558","negative","缺德","","","","","","","","","","","","","","",""
"null","","null","html-keyboard-response","99","165270","0.0-6.0-1.0-6.0-0.20","4","3","4","4","4","4","3","4","4","4","4","4","5","4","5","5","5","4","4","5","1","2","1","1","1","1","1","1","1","0","0","1","1","0","0","0","0","0","1","-1","0","0","0","1","5","1","2","2","1","2","4","2","3","2","628584680945352704","林","","","","","","","","","","","","","","","","","","","","","","","","","","","","","","","","","","","","","","","",""
"482","<p style=""color:rgb(150, 250, 100); font-size: 35px;"">本人</p>","e","categorize-html","100","165757","0.0-6.0-1.0-6.0-1.20","4","3","4","4","4","4","3","4","4","4","4","4","5","4","5","5","5","4","4","5","1","2","1","1","1","1","1","1","1","0","0","1","1","0","0","0","0","0","1","-1","0","0","0","1","5","1","2","2","1","2","4","2","3","2","628584680945352704","林","","","","","","","","","","","","","","","","","","","true","13","3","moral","482","self","本人","","","","","","","","","","","","","","",""
"null","","null","html-keyboard-response","101","166009","0.0-6.0-1.0-6.0-0.21","4","3","4","4","4","4","3","4","4","4","4","4","5","4","5","5","5","4","4","5","1","2","1","1","1","1","1","1","1","0","0","1","1","0","0","0","0","0","1","-1","0","0","0","1","5","1","2","2","1","2","4","2","3","2","628584680945352704","林","","","","","","","","","","","","","","","","","","","","","","","","","","","","","","","","","","","","","","","",""
"551","<p style=""color:white; font-size: 35px;"">卑鄙</p>","i","categorize-html","102","166564","0.0-6.0-1.0-6.0-1.21","4","3","4","4","4","4","3","4","4","4","4","4","5","4","5","5","5","4","4","5","1","2","1","1","1","1","1","1","1","0","0","1","1","0","0","0","0","0","1","-1","0","0","0","1","5","1","2","2","1","2","4","2","3","2","628584680945352704","林","","","","","","","","","","","","","","","","","","","true","13","3","moral","551","negative","卑鄙","","","","","","","","","","","","","","",""
"null","","null","html-keyboard-response","103","166816","0.0-6.0-1.0-6.0-0.22","4","3","4","4","4","4","3","4","4","4","4","4","5","4","5","5","5","4","4","5","1","2","1","1","1","1","1","1","1","0","0","1","1","0","0","0","0","0","1","-1","0","0","0","1","5","1","2","2","1","2","4","2","3","2","628584680945352704","林","","","","","","","","","","","","","","","","","","","","","","","","","","","","","","","","","","","","","","","",""
"618","<p style=""color:rgb(150, 250, 100); font-size: 35px;"">别人的</p>","i","categorize-html","104","167439","0.0-6.0-1.0-6.0-1.22","4","3","4","4","4","4","3","4","4","4","4","4","5","4","5","5","5","4","4","5","1","2","1","1","1","1","1","1","1","0","0","1","1","0","0","0","0","0","1","-1","0","0","0","1","5","1","2","2","1","2","4","2","3","2","628584680945352704","林","","","","","","","","","","","","","","","","","","","true","13","3","moral","618","other","别人的","","","","","","","","","","","","","","",""
"null","","null","html-keyboard-response","105","167689","0.0-6.0-1.0-6.0-0.23","4","3","4","4","4","4","3","4","4","4","4","4","5","4","5","5","5","4","4","5","1","2","1","1","1","1","1","1","1","0","0","1","1","0","0","0","0","0","1","-1","0","0","0","1","5","1","2","2","1","2","4","2","3","2","628584680945352704","林","","","","","","","","","","","","","","","","","","","","","","","","","","","","","","","","","","","","","","","",""
"713","<p style=""color:white; font-size: 35px;"">诚信</p>","e","categorize-html","106","168407","0.0-6.0-1.0-6.0-1.23","4","3","4","4","4","4","3","4","4","4","4","4","5","4","5","5","5","4","4","5","1","2","1","1","1","1","1","1","1","0","0","1","1","0","0","0","0","0","1","-1","0","0","0","1","5","1","2","2","1","2","4","2","3","2","628584680945352704","林","","","","","","","","","","","","","","","","","","","true","13","3","moral","713","positive","诚信","","","","","","","","","","","","","","",""
"6607","
    <div class=""tag-bottom""><p>
    ―― 任务4：对“自我/积极”词和“他人/消极”词分类 ――<p/>
    <span style=""color:#78DCE8""><b>与刚才的任务完全相同，请再次对这四类词语分类</b></span><p/>
    <span style=""color:#FFD866""><b>请根据上方标签的提示，尽可能正确并且快速地做出按键反应</b></span><p/>
    当按键错误时屏幕中会出现<span style=""color:red""> X </span>，需要按另一个键纠正才能继续<br/><p/>
    请把双手食指分别放在键盘的“E”键和“I”键上<p/>
    按<空格键>开始
    </p></div>"," ","html-keyboard-response","107","175021","0.0-6.0-1.0-7.0","4","3","4","4","4","4","3","4","4","4","4","4","5","4","5","5","5","4","4","5","1","2","1","1","1","1","1","1","1","0","0","1","1","0","0","0","0","0","1","-1","0","0","0","1","5","1","2","2","1","2","4","2","3","2","628584680945352704","林","","","","","","","","","","","","","","","","","","","","","","","","","","","","","","","","","","","","","","","",""
"null","","null","html-keyboard-response","108","175273","0.0-6.0-1.0-8.0-0.0","4","3","4","4","4","4","3","4","4","4","4","4","5","4","5","5","5","4","4","5","1","2","1","1","1","1","1","1","1","0","0","1","1","0","0","0","0","0","1","-1","0","0","0","1","5","1","2","2","1","2","4","2","3","2","628584680945352704","林","","","","","","","","","","","","","","","","","","","","","","","","","","","","","","","","","","","","","","","",""
"810","<p style=""color:rgb(150, 250, 100); font-size: 35px;"">本人</p>","e","categorize-html","109","176089","0.0-6.0-1.0-8.0-1.0","4","3","4","4","4","4","3","4","4","4","4","4","5","4","5","5","5","4","4","5","1","2","1","1","1","1","1","1","1","0","0","1","1","0","0","0","0","0","1","-1","0","0","0","1","5","1","2","2","1","2","4","2","3","2","628584680945352704","林","","","","","","","","","","","","","","","","","","","true","14","4","moral","810","self","本人","","","","","","","","","","","","","","",""
"null","","null","html-keyboard-response","110","176340","0.0-6.0-1.0-8.0-0.1","4","3","4","4","4","4","3","4","4","4","4","4","5","4","5","5","5","4","4","5","1","2","1","1","1","1","1","1","1","0","0","1","1","0","0","0","0","0","1","-1","0","0","0","1","5","1","2","2","1","2","4","2","3","2","628584680945352704","林","","","","","","","","","","","","","","","","","","","","","","","","","","","","","","","","","","","","","","","",""
"953","<p style=""color:white; font-size: 35px;"">小人</p>","i","categorize-html","111","177299","0.0-6.0-1.0-8.0-1.1","4","3","4","4","4","4","3","4","4","4","4","4","5","4","5","5","5","4","4","5","1","2","1","1","1","1","1","1","1","0","0","1","1","0","0","0","0","0","1","-1","0","0","0","1","5","1","2","2","1","2","4","2","3","2","628584680945352704","林","","","","","","","","","","","","","","","","","","","true","14","4","moral","953","negative","小人","","","","","","","","","","","","","","",""
"null","","null","html-keyboard-response","112","177551","0.0-6.0-1.0-8.0-0.2","4","3","4","4","4","4","3","4","4","4","4","4","5","4","5","5","5","4","4","5","1","2","1","1","1","1","1","1","1","0","0","1","1","0","0","0","0","0","1","-1","0","0","0","1","5","1","2","2","1","2","4","2","3","2","628584680945352704","林","","","","","","","","","","","","","","","","","","","","","","","","","","","","","","","","","","","","","","","",""
"806","<p style=""color:rgb(150, 250, 100); font-size: 35px;"">别人</p>","i","categorize-html","113","178362","0.0-6.0-1.0-8.0-1.2","4","3","4","4","4","4","3","4","4","4","4","4","5","4","5","5","5","4","4","5","1","2","1","1","1","1","1","1","1","0","0","1","1","0","0","0","0","0","1","-1","0","0","0","1","5","1","2","2","1","2","4","2","3","2","628584680945352704","林","","","","","","","","","","","","","","","","","","","true","14","4","moral","806","other","别人","","","","","","","","","","","","","","",""
"null","","null","html-keyboard-response","114","178614","0.0-6.0-1.0-8.0-0.3","4","3","4","4","4","4","3","4","4","4","4","4","5","4","5","5","5","4","4","5","1","2","1","1","1","1","1","1","1","0","0","1","1","0","0","0","0","0","1","-1","0","0","0","1","5","1","2","2","1","2","4","2","3","2","628584680945352704","林","","","","","","","","","","","","","","","","","","","","","","","","","","","","","","","","","","","","","","","",""
"927","<p style=""color:white; font-size: 35px;"">君子</p>","e","categorize-html","115","179547","0.0-6.0-1.0-8.0-1.3","4","3","4","4","4","4","3","4","4","4","4","4","5","4","5","5","5","4","4","5","1","2","1","1","1","1","1","1","1","0","0","1","1","0","0","0","0","0","1","-1","0","0","0","1","5","1","2","2","1","2","4","2","3","2","628584680945352704","林","","","","","","","","","","","","","","","","","","","true","14","4","moral","927","positive","君子","","","","","","","","","","","","","","",""
"null","","null","html-keyboard-response","116","179800","0.0-6.0-1.0-8.0-0.4","4","3","4","4","4","4","3","4","4","4","4","4","5","4","5","5","5","4","4","5","1","2","1","1","1","1","1","1","1","0","0","1","1","0","0","0","0","0","1","-1","0","0","0","1","5","1","2","2","1","2","4","2","3","2","628584680945352704","林","","","","","","","","","","","","","","","","","","","","","","","","","","","","","","","","","","","","","","","",""
"709","<p style=""color:rgb(150, 250, 100); font-size: 35px;"">他人</p>","i","categorize-html","117","180514","0.0-6.0-1.0-8.0-1.4","4","3","4","4","4","4","3","4","4","4","4","4","5","4","5","5","5","4","4","5","1","2","1","1","1","1","1","1","1","0","0","1","1","0","0","0","0","0","1","-1","0","0","0","1","5","1","2","2","1","2","4","2","3","2","628584680945352704","林","","","","","","","","","","","","","","","","","","","true","14","4","moral","709","other","他人","","","","","","","","","","","","","","",""
"null","","null","html-keyboard-response","118","180765","0.0-6.0-1.0-8.0-0.5","4","3","4","4","4","4","3","4","4","4","4","4","5","4","5","5","5","4","4","5","1","2","1","1","1","1","1","1","1","0","0","1","1","0","0","0","0","0","1","-1","0","0","0","1","5","1","2","2","1","2","4","2","3","2","628584680945352704","林","","","","","","","","","","","","","","","","","","","","","","","","","","","","","","","","","","","","","","","",""
"975","<p style=""color:white; font-size: 35px;"">正直</p>","e","categorize-html","119","181744","0.0-6.0-1.0-8.0-1.5","4","3","4","4","4","4","3","4","4","4","4","4","5","4","5","5","5","4","4","5","1","2","1","1","1","1","1","1","1","0","0","1","1","0","0","0","0","0","1","-1","0","0","0","1","5","1","2","2","1","2","4","2","3","2","628584680945352704","林","","","","","","","","","","","","","","","","","","","true","14","4","moral","975","positive","正直","","","","","","","","","","","","","","",""
"null","","null","html-keyboard-response","120","181995","0.0-6.0-1.0-8.0-0.6","4","3","4","4","4","4","3","4","4","4","4","4","5","4","5","5","5","4","4","5","1","2","1","1","1","1","1","1","1","0","0","1","1","0","0","0","0","0","1","-1","0","0","0","1","5","1","2","2","1","2","4","2","3","2","628584680945352704","林","","","","","","","","","","","","","","","","","","","","","","","","","","","","","","","","","","","","","","","",""
"1088","<p style=""color:rgb(150, 250, 100); font-size: 35px;"">我</p>","e","categorize-html","121","183089","0.0-6.0-1.0-8.0-1.6","4","3","4","4","4","4","3","4","4","4","4","4","5","4","5","5","5","4","4","5","1","2","1","1","1","1","1","1","1","0","0","1","1","0","0","0","0","0","1","-1","0","0","0","1","5","1","2","2","1","2","4","2","3","2","628584680945352704","林","","","","","","","","","","","","","","","","","","","true","14","4","moral","1088","self","我","","","","","","","","","","","","","","",""
"null","","null","html-keyboard-response","122","183340","0.0-6.0-1.0-8.0-0.7","4","3","4","4","4","4","3","4","4","4","4","4","5","4","5","5","5","4","4","5","1","2","1","1","1","1","1","1","1","0","0","1","1","0","0","0","0","0","1","-1","0","0","0","1","5","1","2","2","1","2","4","2","3","2","628584680945352704","林","","","","","","","","","","","","","","","","","","","","","","","","","","","","","","","","","","","","","","","",""
"1263","<p style=""color:white; font-size: 35px;"">不孝</p>","i","categorize-html","123","184608","0.0-6.0-1.0-8.0-1.7","4","3","4","4","4","4","3","4","4","4","4","4","5","4","5","5","5","4","4","5","1","2","1","1","1","1","1","1","1","0","0","1","1","0","0","0","0","0","1","-1","0","0","0","1","5","1","2","2","1","2","4","2","3","2","628584680945352704","林","","","","","","","","","","","","","","","","","","","true","14","4","moral","1263","negative","不孝","","","","","","","","","","","","","","",""
"null","","null","html-keyboard-response","124","184861","0.0-6.0-1.0-8.0-0.8","4","3","4","4","4","4","3","4","4","4","4","4","5","4","5","5","5","4","4","5","1","2","1","1","1","1","1","1","1","0","0","1","1","0","0","0","0","0","1","-1","0","0","0","1","5","1","2","2","1","2","4","2","3","2","628584680945352704","林","","","","","","","","","","","","","","","","","","","","","","","","","","","","","","","","","","","","","","","",""
"1270","<p style=""color:rgb(150, 250, 100); font-size: 35px;"">自己的</p>","e","categorize-html","125","186136","0.0-6.0-1.0-8.0-1.8","4","3","4","4","4","4","3","4","4","4","4","4","5","4","5","5","5","4","4","5","1","2","1","1","1","1","1","1","1","0","0","1","1","0","0","0","0","0","1","-1","0","0","0","1","5","1","2","2","1","2","4","2","3","2","628584680945352704","林","","","","","","","","","","","","","","","","","","","true","14","4","moral","1270","self","自己的","","","","","","","","","","","","","","",""
"null","","null","html-keyboard-response","126","186387","0.0-6.0-1.0-8.0-0.9","4","3","4","4","4","4","3","4","4","4","4","4","5","4","5","5","5","4","4","5","1","2","1","1","1","1","1","1","1","0","0","1","1","0","0","0","0","0","1","-1","0","0","0","1","5","1","2","2","1","2","4","2","3","2","628584680945352704","林","","","","","","","","","","","","","","","","","","","","","","","","","","","","","","","","","","","","","","","",""
"712","<p style=""color:white; font-size: 35px;"">不仁</p>","i","categorize-html","127","187104","0.0-6.0-1.0-8.0-1.9","4","3","4","4","4","4","3","4","4","4","4","4","5","4","5","5","5","4","4","5","1","2","1","1","1","1","1","1","1","0","0","1","1","0","0","0","0","0","1","-1","0","0","0","1","5","1","2","2","1","2","4","2","3","2","628584680945352704","林","","","","","","","","","","","","","","","","","","","true","14","4","moral","712","negative","不仁","","","","","","","","","","","","","","",""
"null","","null","html-keyboard-response","128","187356","0.0-6.0-1.0-8.0-0.10","4","3","4","4","4","4","3","4","4","4","4","4","5","4","5","5","5","4","4","5","1","2","1","1","1","1","1","1","1","0","0","1","1","0","0","0","0","0","1","-1","0","0","0","1","5","1","2","2","1","2","4","2","3","2","628584680945352704","林","","","","","","","","","","","","","","","","","","","","","","","","","","","","","","","","","","","","","","","",""
"871","<p style=""color:rgb(150, 250, 100); font-size: 35px;"">他人</p>","i","categorize-html","129","188232","0.0-6.0-1.0-8.0-1.10","4","3","4","4","4","4","3","4","4","4","4","4","5","4","5","5","5","4","4","5","1","2","1","1","1","1","1","1","1","0","0","1","1","0","0","0","0","0","1","-1","0","0","0","1","5","1","2","2","1","2","4","2","3","2","628584680945352704","林","","","","","","","","","","","","","","","","","","","true","14","4","moral","871","other","他人","","","","","","","","","","","","","","",""
"null","","null","html-keyboard-response","130","188484","0.0-6.0-1.0-8.0-0.11","4","3","4","4","4","4","3","4","4","4","4","4","5","4","5","5","5","4","4","5","1","2","1","1","1","1","1","1","1","0","0","1","1","0","0","0","0","0","1","-1","0","0","0","1","5","1","2","2","1","2","4","2","3","2","628584680945352704","林","","","","","","","","","","","","","","","","","","","","","","","","","","","","","","","","","","","","","","","",""
"863","<p style=""color:white; font-size: 35px;"">君子</p>","e","categorize-html","131","189352","0.0-6.0-1.0-8.0-1.11","4","3","4","4","4","4","3","4","4","4","4","4","5","4","5","5","5","4","4","5","1","2","1","1","1","1","1","1","1","0","0","1","1","0","0","0","0","0","1","-1","0","0","0","1","5","1","2","2","1","2","4","2","3","2","628584680945352704","林","","","","","","","","","","","","","","","","","","","true","14","4","moral","863","positive","君子","","","","","","","","","","","","","","",""
"null","","null","html-keyboard-response","132","189604","0.0-6.0-1.0-8.0-0.12","4","3","4","4","4","4","3","4","4","4","4","4","5","4","5","5","5","4","4","5","1","2","1","1","1","1","1","1","1","0","0","1","1","0","0","0","0","0","1","-1","0","0","0","1","5","1","2","2","1","2","4","2","3","2","628584680945352704","林","","","","","","","","","","","","","","","","","","","","","","","","","","","","","","","","","","","","","","","",""
"1344","<p style=""color:rgb(150, 250, 100); font-size: 35px;"">本人</p>","e","categorize-html","133","190953","0.0-6.0-1.0-8.0-1.12","4","3","4","4","4","4","3","4","4","4","4","4","5","4","5","5","5","4","4","5","1","2","1","1","1","1","1","1","1","0","0","1","1","0","0","0","0","0","1","-1","0","0","0","1","5","1","2","2","1","2","4","2","3","2","628584680945352704","林","","","","","","","","","","","","","","","","","","","true","14","4","moral","1344","self","本人","","","","","","","","","","","","","","",""
"null","","null","html-keyboard-response","134","191205","0.0-6.0-1.0-8.0-0.13","4","3","4","4","4","4","3","4","4","4","4","4","5","4","5","5","5","4","4","5","1","2","1","1","1","1","1","1","1","0","0","1","1","0","0","0","0","0","1","-1","0","0","0","1","5","1","2","2","1","2","4","2","3","2","628584680945352704","林","","","","","","","","","","","","","","","","","","","","","","","","","","","","","","","","","","","","","","","",""
"678","<p style=""color:white; font-size: 35px;"">黑心</p>","i","categorize-html","135","191887","0.0-6.0-1.0-8.0-1.13","4","3","4","4","4","4","3","4","4","4","4","4","5","4","5","5","5","4","4","5","1","2","1","1","1","1","1","1","1","0","0","1","1","0","0","0","0","0","1","-1","0","0","0","1","5","1","2","2","1","2","4","2","3","2","628584680945352704","林","","","","","","","","","","","","","","","","","","","true","14","4","moral","678","negative","黑心","","","","","","","","","","","","","","",""
"null","","null","html-keyboard-response","136","192139","0.0-6.0-1.0-8.0-0.14","4","3","4","4","4","4","3","4","4","4","4","4","5","4","5","5","5","4","4","5","1","2","1","1","1","1","1","1","1","0","0","1","1","0","0","0","0","0","1","-1","0","0","0","1","5","1","2","2","1","2","4","2","3","2","628584680945352704","林","","","","","","","","","","","","","","","","","","","","","","","","","","","","","","","","","","","","","","","",""
"1377","<p style=""color:rgb(150, 250, 100); font-size: 35px;"">他的</p>","i","categorize-html","137","193521","0.0-6.0-1.0-8.0-1.14","4","3","4","4","4","4","3","4","4","4","4","4","5","4","5","5","5","4","4","5","1","2","1","1","1","1","1","1","1","0","0","1","1","0","0","0","0","0","1","-1","0","0","0","1","5","1","2","2","1","2","4","2","3","2","628584680945352704","林","","","","","","","","","","","","","","","","","","","true","14","4","moral","1377","other","他的","","","","","","","","","","","","","","",""
"null","","null","html-keyboard-response","138","193773","0.0-6.0-1.0-8.0-0.15","4","3","4","4","4","4","3","4","4","4","4","4","5","4","5","5","5","4","4","5","1","2","1","1","1","1","1","1","1","0","0","1","1","0","0","0","0","0","1","-1","0","0","0","1","5","1","2","2","1","2","4","2","3","2","628584680945352704","林","","","","","","","","","","","","","","","","","","","","","","","","","","","","","","","","","","","","","","","",""
"653","<p style=""color:white; font-size: 35px;"">诚信</p>","e","categorize-html","139","194431","0.0-6.0-1.0-8.0-1.15","4","3","4","4","4","4","3","4","4","4","4","4","5","4","5","5","5","4","4","5","1","2","1","1","1","1","1","1","1","0","0","1","1","0","0","0","0","0","1","-1","0","0","0","1","5","1","2","2","1","2","4","2","3","2","628584680945352704","林","","","","","","","","","","","","","","","","","","","true","14","4","moral","653","positive","诚信","","","","","","","","","","","","","","",""
"null","","null","html-keyboard-response","140","194681","0.0-6.0-1.0-8.0-0.16","4","3","4","4","4","4","3","4","4","4","4","4","5","4","5","5","5","4","4","5","1","2","1","1","1","1","1","1","1","0","0","1","1","0","0","0","0","0","1","-1","0","0","0","1","5","1","2","2","1","2","4","2","3","2","628584680945352704","林","","","","","","","","","","","","","","","","","","","","","","","","","","","","","","","","","","","","","","","",""
"497","<p style=""color:rgb(150, 250, 100); font-size: 35px;"">本人的</p>","e","categorize-html","141","195183","0.0-6.0-1.0-8.0-1.16","4","3","4","4","4","4","3","4","4","4","4","4","5","4","5","5","5","4","4","5","1","2","1","1","1","1","1","1","1","0","0","1","1","0","0","0","0","0","1","-1","0","0","0","1","5","1","2","2","1","2","4","2","3","2","628584680945352704","林","","","","","","","","","","","","","","","","","","","true","14","4","moral","497","self","本人的","","","","","","","","","","","","","","",""
"null","","null","html-keyboard-response","142","195435","0.0-6.0-1.0-8.0-0.17","4","3","4","4","4","4","3","4","4","4","4","4","5","4","5","5","5","4","4","5","1","2","1","1","1","1","1","1","1","0","0","1","1","0","0","0","0","0","1","-1","0","0","0","1","5","1","2","2","1","2","4","2","3","2","628584680945352704","林","","","","","","","","","","","","","","","","","","","","","","","","","","","","","","","","","","","","","","","",""
"479","<p style=""color:white; font-size: 35px;"">卑鄙</p>","i","categorize-html","143","195919","0.0-6.0-1.0-8.0-1.17","4","3","4","4","4","4","3","4","4","4","4","4","5","4","5","5","5","4","4","5","1","2","1","1","1","1","1","1","1","0","0","1","1","0","0","0","0","0","1","-1","0","0","0","1","5","1","2","2","1","2","4","2","3","2","628584680945352704","林","","","","","","","","","","","","","","","","","","","true","14","4","moral","479","negative","卑鄙","","","","","","","","","","","","","","",""
"null","","null","html-keyboard-response","144","196171","0.0-6.0-1.0-8.0-0.18","4","3","4","4","4","4","3","4","4","4","4","4","5","4","5","5","5","4","4","5","1","2","1","1","1","1","1","1","1","0","0","1","1","0","0","0","0","0","1","-1","0","0","0","1","5","1","2","2","1","2","4","2","3","2","628584680945352704","林","","","","","","","","","","","","","","","","","","","","","","","","","","","","","","","","","","","","","","","",""
"658","<p style=""color:rgb(150, 250, 100); font-size: 35px;"">他的</p>","i","categorize-html","145","196833","0.0-6.0-1.0-8.0-1.18","4","3","4","4","4","4","3","4","4","4","4","4","5","4","5","5","5","4","4","5","1","2","1","1","1","1","1","1","1","0","0","1","1","0","0","0","0","0","1","-1","0","0","0","1","5","1","2","2","1","2","4","2","3","2","628584680945352704","林","","","","","","","","","","","","","","","","","","","true","14","4","moral","658","other","他的","","","","","","","","","","","","","","",""
"null","","null","html-keyboard-response","146","197085","0.0-6.0-1.0-8.0-0.19","4","3","4","4","4","4","3","4","4","4","4","4","5","4","5","5","5","4","4","5","1","2","1","1","1","1","1","1","1","0","0","1","1","0","0","0","0","0","1","-1","0","0","0","1","5","1","2","2","1","2","4","2","3","2","628584680945352704","林","","","","","","","","","","","","","","","","","","","","","","","","","","","","","","","","","","","","","","","",""
"589","<p style=""color:white; font-size: 35px;"">廉正</p>","e","categorize-html","147","197679","0.0-6.0-1.0-8.0-1.19","4","3","4","4","4","4","3","4","4","4","4","4","5","4","5","5","5","4","4","5","1","2","1","1","1","1","1","1","1","0","0","1","1","0","0","0","0","0","1","-1","0","0","0","1","5","1","2","2","1","2","4","2","3","2","628584680945352704","林","","","","","","","","","","","","","","","","","","","true","14","4","moral","589","positive","廉正","","","","","","","","","","","","","","",""
"null","","null","html-keyboard-response","148","197931","0.0-6.0-1.0-8.0-0.20","4","3","4","4","4","4","3","4","4","4","4","4","5","4","5","5","5","4","4","5","1","2","1","1","1","1","1","1","1","0","0","1","1","0","0","0","0","0","1","-1","0","0","0","1","5","1","2","2","1","2","4","2","3","2","628584680945352704","林","","","","","","","","","","","","","","","","","","","","","","","","","","","","","","","","","","","","","","","",""
"863","<p style=""color:rgb(150, 250, 100); font-size: 35px;"">他人的</p>","i","categorize-html","149","198799","0.0-6.0-1.0-8.0-1.20","4","3","4","4","4","4","3","4","4","4","4","4","5","4","5","5","5","4","4","5","1","2","1","1","1","1","1","1","1","0","0","1","1","0","0","0","0","0","1","-1","0","0","0","1","5","1","2","2","1","2","4","2","3","2","628584680945352704","林","","","","","","","","","","","","","","","","","","","true","14","4","moral","863","other","他人的","","","","","","","","","","","","","","",""
"null","","null","html-keyboard-response","150","199051","0.0-6.0-1.0-8.0-0.21","4","3","4","4","4","4","3","4","4","4","4","4","5","4","5","5","5","4","4","5","1","2","1","1","1","1","1","1","1","0","0","1","1","0","0","0","0","0","1","-1","0","0","0","1","5","1","2","2","1","2","4","2","3","2","628584680945352704","林","","","","","","","","","","","","","","","","","","","","","","","","","","","","","","","","","","","","","","","",""
"568","<p style=""color:white; font-size: 35px;"">小人</p>","i","categorize-html","151","199625","0.0-6.0-1.0-8.0-1.21","4","3","4","4","4","4","3","4","4","4","4","4","5","4","5","5","5","4","4","5","1","2","1","1","1","1","1","1","1","0","0","1","1","0","0","0","0","0","1","-1","0","0","0","1","5","1","2","2","1","2","4","2","3","2","628584680945352704","林","","","","","","","","","","","","","","","","","","","true","14","4","moral","568","negative","小人","","","","","","","","","","","","","","",""
"null","","null","html-keyboard-response","152","199876","0.0-6.0-1.0-8.0-0.22","4","3","4","4","4","4","3","4","4","4","4","4","5","4","5","5","5","4","4","5","1","2","1","1","1","1","1","1","1","0","0","1","1","0","0","0","0","0","1","-1","0","0","0","1","5","1","2","2","1","2","4","2","3","2","628584680945352704","林","","","","","","","","","","","","","","","","","","","","","","","","","","","","","","","","","","","","","","","",""
"414","<p style=""color:rgb(150, 250, 100); font-size: 35px;"">自己</p>","e","categorize-html","153","200295","0.0-6.0-1.0-8.0-1.22","4","3","4","4","4","4","3","4","4","4","4","4","5","4","5","5","5","4","4","5","1","2","1","1","1","1","1","1","1","0","0","1","1","0","0","0","0","0","1","-1","0","0","0","1","5","1","2","2","1","2","4","2","3","2","628584680945352704","林","","","","","","","","","","","","","","","","","","","true","14","4","moral","414","self","自己","","","","","","","","","","","","","","",""
"null","","null","html-keyboard-response","154","200546","0.0-6.0-1.0-8.0-0.23","4","3","4","4","4","4","3","4","4","4","4","4","5","4","5","5","5","4","4","5","1","2","1","1","1","1","1","1","1","0","0","1","1","0","0","0","0","0","1","-1","0","0","0","1","5","1","2","2","1","2","4","2","3","2","628584680945352704","林","","","","","","","","","","","","","","","","","","","","","","","","","","","","","","","","","","","","","","","",""
"461","<p style=""color:white; font-size: 35px;"">正直</p>","e","categorize-html","155","201011","0.0-6.0-1.0-8.0-1.23","4","3","4","4","4","4","3","4","4","4","4","4","5","4","5","5","5","4","4","5","1","2","1","1","1","1","1","1","1","0","0","1","1","0","0","0","0","0","1","-1","0","0","0","1","5","1","2","2","1","2","4","2","3","2","628584680945352704","林","","","","","","","","","","","","","","","","","","","true","14","4","moral","461","positive","正直","","","","","","","","","","","","","","",""
"null","","null","html-keyboard-response","156","201263","0.0-6.0-1.0-8.0-0.24","4","3","4","4","4","4","3","4","4","4","4","4","5","4","5","5","5","4","4","5","1","2","1","1","1","1","1","1","1","0","0","1","1","0","0","0","0","0","1","-1","0","0","0","1","5","1","2","2","1","2","4","2","3","2","628584680945352704","林","","","","","","","","","","","","","","","","","","","","","","","","","","","","","","","","","","","","","","","",""
"507","<p style=""color:rgb(150, 250, 100); font-size: 35px;"">别人的</p>","i","categorize-html","157","201775","0.0-6.0-1.0-8.0-1.24","4","3","4","4","4","4","3","4","4","4","4","4","5","4","5","5","5","4","4","5","1","2","1","1","1","1","1","1","1","0","0","1","1","0","0","0","0","0","1","-1","0","0","0","1","5","1","2","2","1","2","4","2","3","2","628584680945352704","林","","","","","","","","","","","","","","","","","","","true","14","4","moral","507","other","别人的","","","","","","","","","","","","","","",""
"null","","null","html-keyboard-response","158","202026","0.0-6.0-1.0-8.0-0.25","4","3","4","4","4","4","3","4","4","4","4","4","5","4","5","5","5","4","4","5","1","2","1","1","1","1","1","1","1","0","0","1","1","0","0","0","0","0","1","-1","0","0","0","1","5","1","2","2","1","2","4","2","3","2","628584680945352704","林","","","","","","","","","","","","","","","","","","","","","","","","","","","","","","","","","","","","","","","",""
"552","<p style=""color:white; font-size: 35px;"">廉正</p>","e","categorize-html","159","202582","0.0-6.0-1.0-8.0-1.25","4","3","4","4","4","4","3","4","4","4","4","4","5","4","5","5","5","4","4","5","1","2","1","1","1","1","1","1","1","0","0","1","1","0","0","0","0","0","1","-1","0","0","0","1","5","1","2","2","1","2","4","2","3","2","628584680945352704","林","","","","","","","","","","","","","","","","","","","true","14","4","moral","552","positive","廉正","","","","","","","","","","","","","","",""
"null","","null","html-keyboard-response","160","202834","0.0-6.0-1.0-8.0-0.26","4","3","4","4","4","4","3","4","4","4","4","4","5","4","5","5","5","4","4","5","1","2","1","1","1","1","1","1","1","0","0","1","1","0","0","0","0","0","1","-1","0","0","0","1","5","1","2","2","1","2","4","2","3","2","628584680945352704","林","","","","","","","","","","","","","","","","","","","","","","","","","","","","","","","","","","","","","","","",""
"536","<p style=""color:rgb(150, 250, 100); font-size: 35px;"">我的</p>","e","categorize-html","161","203374","0.0-6.0-1.0-8.0-1.26","4","3","4","4","4","4","3","4","4","4","4","4","5","4","5","5","5","4","4","5","1","2","1","1","1","1","1","1","1","0","0","1","1","0","0","0","0","0","1","-1","0","0","0","1","5","1","2","2","1","2","4","2","3","2","628584680945352704","林","","","","","","","","","","","","","","","","","","","true","14","4","moral","536","self","我的","","","","","","","","","","","","","","",""
"null","","null","html-keyboard-response","162","203626","0.0-6.0-1.0-8.0-0.27","4","3","4","4","4","4","3","4","4","4","4","4","5","4","5","5","5","4","4","5","1","2","1","1","1","1","1","1","1","0","0","1","1","0","0","0","0","0","1","-1","0","0","0","1","5","1","2","2","1","2","4","2","3","2","628584680945352704","林","","","","","","","","","","","","","","","","","","","","","","","","","","","","","","","","","","","","","","","",""
"471","<p style=""color:white; font-size: 35px;"">不孝</p>","i","categorize-html","163","204103","0.0-6.0-1.0-8.0-1.27","4","3","4","4","4","4","3","4","4","4","4","4","5","4","5","5","5","4","4","5","1","2","1","1","1","1","1","1","1","0","0","1","1","0","0","0","0","0","1","-1","0","0","0","1","5","1","2","2","1","2","4","2","3","2","628584680945352704","林","","","","","","","","","","","","","","","","","","","true","14","4","moral","471","negative","不孝","","","","","","","","","","","","","","",""
"null","","null","html-keyboard-response","164","204354","0.0-6.0-1.0-8.0-0.28","4","3","4","4","4","4","3","4","4","4","4","4","5","4","5","5","5","4","4","5","1","2","1","1","1","1","1","1","1","0","0","1","1","0","0","0","0","0","1","-1","0","0","0","1","5","1","2","2","1","2","4","2","3","2","628584680945352704","林","","","","","","","","","","","","","","","","","","","","","","","","","","","","","","","","","","","","","","","",""
"584","<p style=""color:rgb(150, 250, 100); font-size: 35px;"">别人</p>","i","categorize-html","165","204943","0.0-6.0-1.0-8.0-1.28","4","3","4","4","4","4","3","4","4","4","4","4","5","4","5","5","5","4","4","5","1","2","1","1","1","1","1","1","1","0","0","1","1","0","0","0","0","0","1","-1","0","0","0","1","5","1","2","2","1","2","4","2","3","2","628584680945352704","林","","","","","","","","","","","","","","","","","","","true","14","4","moral","584","other","别人","","","","","","","","","","","","","","",""
"null","","null","html-keyboard-response","166","205194","0.0-6.0-1.0-8.0-0.29","4","3","4","4","4","4","3","4","4","4","4","4","5","4","5","5","5","4","4","5","1","2","1","1","1","1","1","1","1","0","0","1","1","0","0","0","0","0","1","-1","0","0","0","1","5","1","2","2","1","2","4","2","3","2","628584680945352704","林","","","","","","","","","","","","","","","","","","","","","","","","","","","","","","","","","","","","","","","",""
"720","<p style=""color:white; font-size: 35px;"">高尚</p>","e","categorize-html","167","205919","0.0-6.0-1.0-8.0-1.29","4","3","4","4","4","4","3","4","4","4","4","4","5","4","5","5","5","4","4","5","1","2","1","1","1","1","1","1","1","0","0","1","1","0","0","0","0","0","1","-1","0","0","0","1","5","1","2","2","1","2","4","2","3","2","628584680945352704","林","","","","","","","","","","","","","","","","","","","true","14","4","moral","720","positive","高尚","","","","","","","","","","","","","","",""
"null","","null","html-keyboard-response","168","206171","0.0-6.0-1.0-8.0-0.30","4","3","4","4","4","4","3","4","4","4","4","4","5","4","5","5","5","4","4","5","1","2","1","1","1","1","1","1","1","0","0","1","1","0","0","0","0","0","1","-1","0","0","0","1","5","1","2","2","1","2","4","2","3","2","628584680945352704","林","","","","","","","","","","","","","","","","","","","","","","","","","","","","","","","","","","","","","","","",""
"983","<p style=""color:rgb(150, 250, 100); font-size: 35px;"">自己的</p>","e","categorize-html","169","207159","0.0-6.0-1.0-8.0-1.30","4","3","4","4","4","4","3","4","4","4","4","4","5","4","5","5","5","4","4","5","1","2","1","1","1","1","1","1","1","0","0","1","1","0","0","0","0","0","1","-1","0","0","0","1","5","1","2","2","1","2","4","2","3","2","628584680945352704","林","","","","","","","","","","","","","","","","","","","true","14","4","moral","983","self","自己的","","","","","","","","","","","","","","",""
"null","","null","html-keyboard-response","170","207410","0.0-6.0-1.0-8.0-0.31","4","3","4","4","4","4","3","4","4","4","4","4","5","4","5","5","5","4","4","5","1","2","1","1","1","1","1","1","1","0","0","1","1","0","0","0","0","0","1","-1","0","0","0","1","5","1","2","2","1","2","4","2","3","2","628584680945352704","林","","","","","","","","","","","","","","","","","","","","","","","","","","","","","","","","","","","","","","","",""
"528","<p style=""color:white; font-size: 35px;"">不仁</p>","i","categorize-html","171","207941","0.0-6.0-1.0-8.0-1.31","4","3","4","4","4","4","3","4","4","4","4","4","5","4","5","5","5","4","4","5","1","2","1","1","1","1","1","1","1","0","0","1","1","0","0","0","0","0","1","-1","0","0","0","1","5","1","2","2","1","2","4","2","3","2","628584680945352704","林","","","","","","","","","","","","","","","","","","","true","14","4","moral","528","negative","不仁","","","","","","","","","","","","","","",""
"null","","null","html-keyboard-response","172","208192","0.0-6.0-1.0-8.0-0.32","4","3","4","4","4","4","3","4","4","4","4","4","5","4","5","5","5","4","4","5","1","2","1","1","1","1","1","1","1","0","0","1","1","0","0","0","0","0","1","-1","0","0","0","1","5","1","2","2","1","2","4","2","3","2","628584680945352704","林","","","","","","","","","","","","","","","","","","","","","","","","","","","","","","","","","","","","","","","",""
"584","<p style=""color:rgb(150, 250, 100); font-size: 35px;"">他</p>","i","categorize-html","173","208780","0.0-6.0-1.0-8.0-1.32","4","3","4","4","4","4","3","4","4","4","4","4","5","4","5","5","5","4","4","5","1","2","1","1","1","1","1","1","1","0","0","1","1","0","0","0","0","0","1","-1","0","0","0","1","5","1","2","2","1","2","4","2","3","2","628584680945352704","林","","","","","","","","","","","","","","","","","","","true","14","4","moral","584","other","他","","","","","","","","","","","","","","",""
"null","","null","html-keyboard-response","174","209031","0.0-6.0-1.0-8.0-0.33","4","3","4","4","4","4","3","4","4","4","4","4","5","4","5","5","5","4","4","5","1","2","1","1","1","1","1","1","1","0","0","1","1","0","0","0","0","0","1","-1","0","0","0","1","5","1","2","2","1","2","4","2","3","2","628584680945352704","林","","","","","","","","","","","","","","","","","","","","","","","","","","","","","","","","","","","","","","","",""
"1042","<p style=""color:white; font-size: 35px;"">善良</p>","e","categorize-html","175","210076","0.0-6.0-1.0-8.0-1.33","4","3","4","4","4","4","3","4","4","4","4","4","5","4","5","5","5","4","4","5","1","2","1","1","1","1","1","1","1","0","0","1","1","0","0","0","0","0","1","-1","0","0","0","1","5","1","2","2","1","2","4","2","3","2","628584680945352704","林","","","","","","","","","","","","","","","","","","","true","14","4","moral","1042","positive","善良","","","","","","","","","","","","","","",""
"null","","null","html-keyboard-response","176","210327","0.0-6.0-1.0-8.0-0.34","4","3","4","4","4","4","3","4","4","4","4","4","5","4","5","5","5","4","4","5","1","2","1","1","1","1","1","1","1","0","0","1","1","0","0","0","0","0","1","-1","0","0","0","1","5","1","2","2","1","2","4","2","3","2","628584680945352704","林","","","","","","","","","","","","","","","","","","","","","","","","","","","","","","","","","","","","","","","",""
"682","<p style=""color:rgb(150, 250, 100); font-size: 35px;"">本人的</p>","e","categorize-html","177","211014","0.0-6.0-1.0-8.0-1.34","4","3","4","4","4","4","3","4","4","4","4","4","5","4","5","5","5","4","4","5","1","2","1","1","1","1","1","1","1","0","0","1","1","0","0","0","0","0","1","-1","0","0","0","1","5","1","2","2","1","2","4","2","3","2","628584680945352704","林","","","","","","","","","","","","","","","","","","","true","14","4","moral","682","self","本人的","","","","","","","","","","","","","","",""
"null","","null","html-keyboard-response","178","211265","0.0-6.0-1.0-8.0-0.35","4","3","4","4","4","4","3","4","4","4","4","4","5","4","5","5","5","4","4","5","1","2","1","1","1","1","1","1","1","0","0","1","1","0","0","0","0","0","1","-1","0","0","0","1","5","1","2","2","1","2","4","2","3","2","628584680945352704","林","","","","","","","","","","","","","","","","","","","","","","","","","","","","","","","","","","","","","","","",""
"680","<p style=""color:white; font-size: 35px;"">卑鄙</p>","i","categorize-html","179","211950","0.0-6.0-1.0-8.0-1.35","4","3","4","4","4","4","3","4","4","4","4","4","5","4","5","5","5","4","4","5","1","2","1","1","1","1","1","1","1","0","0","1","1","0","0","0","0","0","1","-1","0","0","0","1","5","1","2","2","1","2","4","2","3","2","628584680945352704","林","","","","","","","","","","","","","","","","","","","true","14","4","moral","680","negative","卑鄙","","","","","","","","","","","","","","",""
"null","","null","html-keyboard-response","180","212201","0.0-6.0-1.0-8.0-0.36","4","3","4","4","4","4","3","4","4","4","4","4","5","4","5","5","5","4","4","5","1","2","1","1","1","1","1","1","1","0","0","1","1","0","0","0","0","0","1","-1","0","0","0","1","5","1","2","2","1","2","4","2","3","2","628584680945352704","林","","","","","","","","","","","","","","","","","","","","","","","","","","","","","","","","","","","","","","","",""
"768","<p style=""color:rgb(150, 250, 100); font-size: 35px;"">我</p>","e","categorize-html","181","212974","0.0-6.0-1.0-8.0-1.36","4","3","4","4","4","4","3","4","4","4","4","4","5","4","5","5","5","4","4","5","1","2","1","1","1","1","1","1","1","0","0","1","1","0","0","0","0","0","1","-1","0","0","0","1","5","1","2","2","1","2","4","2","3","2","628584680945352704","林","","","","","","","","","","","","","","","","","","","true","14","4","moral","768","self","我","","","","","","","","","","","","","","",""
"null","","null","html-keyboard-response","182","213226","0.0-6.0-1.0-8.0-0.37","4","3","4","4","4","4","3","4","4","4","4","4","5","4","5","5","5","4","4","5","1","2","1","1","1","1","1","1","1","0","0","1","1","0","0","0","0","0","1","-1","0","0","0","1","5","1","2","2","1","2","4","2","3","2","628584680945352704","林","","","","","","","","","","","","","","","","","","","","","","","","","","","","","","","","","","","","","","","",""
"583","<p style=""color:white; font-size: 35px;"">诚信</p>","e","categorize-html","183","213814","0.0-6.0-1.0-8.0-1.37","4","3","4","4","4","4","3","4","4","4","4","4","5","4","5","5","5","4","4","5","1","2","1","1","1","1","1","1","1","0","0","1","1","0","0","0","0","0","1","-1","0","0","0","1","5","1","2","2","1","2","4","2","3","2","628584680945352704","林","","","","","","","","","","","","","","","","","","","true","14","4","moral","583","positive","诚信","","","","","","","","","","","","","","",""
"null","","null","html-keyboard-response","184","214065","0.0-6.0-1.0-8.0-0.38","4","3","4","4","4","4","3","4","4","4","4","4","5","4","5","5","5","4","4","5","1","2","1","1","1","1","1","1","1","0","0","1","1","0","0","0","0","0","1","-1","0","0","0","1","5","1","2","2","1","2","4","2","3","2","628584680945352704","林","","","","","","","","","","","","","","","","","","","","","","","","","","","","","","","","","","","","","","","",""
"776","<p style=""color:rgb(150, 250, 100); font-size: 35px;"">别人的</p>","i","categorize-html","185","214846","0.0-6.0-1.0-8.0-1.38","4","3","4","4","4","4","3","4","4","4","4","4","5","4","5","5","5","4","4","5","1","2","1","1","1","1","1","1","1","0","0","1","1","0","0","0","0","0","1","-1","0","0","0","1","5","1","2","2","1","2","4","2","3","2","628584680945352704","林","","","","","","","","","","","","","","","","","","","true","14","4","moral","776","other","别人的","","","","","","","","","","","","","","",""
"null","","null","html-keyboard-response","186","215098","0.0-6.0-1.0-8.0-0.39","4","3","4","4","4","4","3","4","4","4","4","4","5","4","5","5","5","4","4","5","1","2","1","1","1","1","1","1","1","0","0","1","1","0","0","0","0","0","1","-1","0","0","0","1","5","1","2","2","1","2","4","2","3","2","628584680945352704","林","","","","","","","","","","","","","","","","","","","","","","","","","","","","","","","","","","","","","","","",""
"727","<p style=""color:white; font-size: 35px;"">缺德</p>","i","categorize-html","187","215829","0.0-6.0-1.0-8.0-1.39","4","3","4","4","4","4","3","4","4","4","4","4","5","4","5","5","5","4","4","5","1","2","1","1","1","1","1","1","1","0","0","1","1","0","0","0","0","0","1","-1","0","0","0","1","5","1","2","2","1","2","4","2","3","2","628584680945352704","林","","","","","","","","","","","","","","","","","","","true","14","4","moral","727","negative","缺德","","","","","","","","","","","","","","",""
"null","","null","html-keyboard-response","188","216081","0.0-6.0-1.0-8.0-0.40","4","3","4","4","4","4","3","4","4","4","4","4","5","4","5","5","5","4","4","5","1","2","1","1","1","1","1","1","1","0","0","1","1","0","0","0","0","0","1","-1","0","0","0","1","5","1","2","2","1","2","4","2","3","2","628584680945352704","林","","","","","","","","","","","","","","","","","","","","","","","","","","","","","","","","","","","","","","","",""
"663","<p style=""color:rgb(150, 250, 100); font-size: 35px;"">我的</p>","e","categorize-html","189","216747","0.0-6.0-1.0-8.0-1.40","4","3","4","4","4","4","3","4","4","4","4","4","5","4","5","5","5","4","4","5","1","2","1","1","1","1","1","1","1","0","0","1","1","0","0","0","0","0","1","-1","0","0","0","1","5","1","2","2","1","2","4","2","3","2","628584680945352704","林","","","","","","","","","","","","","","","","","","","true","14","4","moral","663","self","我的","","","","","","","","","","","","","","",""
"null","","null","html-keyboard-response","190","216999","0.0-6.0-1.0-8.0-0.41","4","3","4","4","4","4","3","4","4","4","4","4","5","4","5","5","5","4","4","5","1","2","1","1","1","1","1","1","1","0","0","1","1","0","0","0","0","0","1","-1","0","0","0","1","5","1","2","2","1","2","4","2","3","2","628584680945352704","林","","","","","","","","","","","","","","","","","","","","","","","","","","","","","","","","","","","","","","","",""
"714","<p style=""color:white; font-size: 35px;"">缺德</p>","i","categorize-html","191","217718","0.0-6.0-1.0-8.0-1.41","4","3","4","4","4","4","3","4","4","4","4","4","5","4","5","5","5","4","4","5","1","2","1","1","1","1","1","1","1","0","0","1","1","0","0","0","0","0","1","-1","0","0","0","1","5","1","2","2","1","2","4","2","3","2","628584680945352704","林","","","","","","","","","","","","","","","","","","","true","14","4","moral","714","negative","缺德","","","","","","","","","","","","","","",""
"null","","null","html-keyboard-response","192","217970","0.0-6.0-1.0-8.0-0.42","4","3","4","4","4","4","3","4","4","4","4","4","5","4","5","5","5","4","4","5","1","2","1","1","1","1","1","1","1","0","0","1","1","0","0","0","0","0","1","-1","0","0","0","1","5","1","2","2","1","2","4","2","3","2","628584680945352704","林","","","","","","","","","","","","","","","","","","","","","","","","","","","","","","","","","","","","","","","",""
"1063","<p style=""color:rgb(150, 250, 100); font-size: 35px;"">他人的</p>","i","categorize-html","193","219038","0.0-6.0-1.0-8.0-1.42","4","3","4","4","4","4","3","4","4","4","4","4","5","4","5","5","5","4","4","5","1","2","1","1","1","1","1","1","1","0","0","1","1","0","0","0","0","0","1","-1","0","0","0","1","5","1","2","2","1","2","4","2","3","2","628584680945352704","林","","","","","","","","","","","","","","","","","","","true","14","4","moral","1063","other","他人的","","","","","","","","","","","","","","",""
"null","","null","html-keyboard-response","194","219290","0.0-6.0-1.0-8.0-0.43","4","3","4","4","4","4","3","4","4","4","4","4","5","4","5","5","5","4","4","5","1","2","1","1","1","1","1","1","1","0","0","1","1","0","0","0","0","0","1","-1","0","0","0","1","5","1","2","2","1","2","4","2","3","2","628584680945352704","林","","","","","","","","","","","","","","","","","","","","","","","","","","","","","","","","","","","","","","","",""
"711","<p style=""color:white; font-size: 35px;"">善良</p>","e","categorize-html","195","220005","0.0-6.0-1.0-8.0-1.43","4","3","4","4","4","4","3","4","4","4","4","4","5","4","5","5","5","4","4","5","1","2","1","1","1","1","1","1","1","0","0","1","1","0","0","0","0","0","1","-1","0","0","0","1","5","1","2","2","1","2","4","2","3","2","628584680945352704","林","","","","","","","","","","","","","","","","","","","true","14","4","moral","711","positive","善良","","","","","","","","","","","","","","",""
"null","","null","html-keyboard-response","196","220257","0.0-6.0-1.0-8.0-0.44","4","3","4","4","4","4","3","4","4","4","4","4","5","4","5","5","5","4","4","5","1","2","1","1","1","1","1","1","1","0","0","1","1","0","0","0","0","0","1","-1","0","0","0","1","5","1","2","2","1","2","4","2","3","2","628584680945352704","林","","","","","","","","","","","","","","","","","","","","","","","","","","","","","","","","","","","","","","","",""
"681","<p style=""color:rgb(150, 250, 100); font-size: 35px;"">自己</p>","e","categorize-html","197","220943","0.0-6.0-1.0-8.0-1.44","4","3","4","4","4","4","3","4","4","4","4","4","5","4","5","5","5","4","4","5","1","2","1","1","1","1","1","1","1","0","0","1","1","0","0","0","0","0","1","-1","0","0","0","1","5","1","2","2","1","2","4","2","3","2","628584680945352704","林","","","","","","","","","","","","","","","","","","","true","14","4","moral","681","self","自己","","","","","","","","","","","","","","",""
"null","","null","html-keyboard-response","198","221196","0.0-6.0-1.0-8.0-0.45","4","3","4","4","4","4","3","4","4","4","4","4","5","4","5","5","5","4","4","5","1","2","1","1","1","1","1","1","1","0","0","1","1","0","0","0","0","0","1","-1","0","0","0","1","5","1","2","2","1","2","4","2","3","2","628584680945352704","林","","","","","","","","","","","","","","","","","","","","","","","","","","","","","","","","","","","","","","","",""
