"rt","stimulus","response","trial_type","trial_index","time_elapsed","internal_node_id","ses_1","ses_2","ses_3","ses_4","ses_5","ses_6","ses_7","ses_8","ses_9","ses_10","coreself_1","coreself_2","coreself_3","coreself_4","coreself_5","coreself_6","coreself_7","coreself_8","coreself_9","coreself_10","SGPS_1","SGPS_2","SGPS_3","SGPS_4","SGPS_5","SGPS_6","SGPS_7","SGPS_8","SGPS_9","NPI1","NPI2","NPI3","NPI4","NPI5","NPI6","NPI7","NPI8","NPI9","NPI10","NPI11","NPI12","NPI13","NPI14","NPI15","hsns_1","hsns_2","hsns_3","hsns_4","hsns_5","hsns_6","hsns_7","hsns_8","hsns_9","hsns_10","subj_idx","friend_name","value","success","user_agent","responses","item_order","radio_event_ids","radio_event_times","key_event_times","mouse_event_times","straightlining","zigzagging","honeypot","timeout","failed_images","failed_audio","failed_video","view_history","response_type","key_press","avg_frame_time","center_x","center_y","correct_response","correct","identity","Image","word","condition","task_id","screen_id","time_stamp","version_attrib","version_target","IAT","RT","varname","summary","version_attrib2","version_target2","question_order"
"2234","
   <p><div style = ""color: white;font-size:25px;"">您好，欢迎参加本次实验。</div> </p>
   <p><div style = ""color: white;font-size:25px;"">为充分保障您的权利，请确保您已经知晓并同意《参与实验同意书》以及《数据公开知情同意书》。</div></p>
   <p><div style = ""color: white;font-size:25px;"">如果您未见过上述内容，请咨询实验员。</div></p>
   <p><div style = ""color: white;font-size:25px;"">如果您选择继续实验，则表示您已经清楚两份知情同意书的内容并同意。</div></p>
   <p> <div style = ""color: green;font-size:25px;""><按空格键至下页></div> </p>
   "," ","html-keyboard-response","0","2236","0.0-0.0","3","4","4","3","4","3","3","3","4","4","4","4","5","3","2","4","4","3","4","4","2","2","2","2","2","1","2","4","1","1","0","1","1","0","0","0","1","0","1","-1","0","1","0","1","4","3","4","2","2","1","2","2","1","2","635222761890906112","沈","","","","","","","","","","","","","","","","","","","","","","","","","","","","","","","","","","","","","","","",""
"","","","call-function","1","2237","0.0-1.0-0.0","3","4","4","3","4","3","3","3","4","4","4","4","5","3","2","4","4","3","4","4","2","2","2","2","2","1","2","4","1","1","0","1","1","0","0","0","1","0","1","-1","0","1","0","1","4","3","4","2","2","1","2","2","1","2","635222761890906112","沈","","","","","","","","","","","","","","","","","","","","","","","","","","","","","","","","","","","","","","","",""
"11182","","{""friend_name"":""沈""}","survey-html-form","2","13420","0.0-1.0-1.0","3","4","4","3","4","3","3","3","4","4","4","4","5","3","2","4","4","3","4","4","2","2","2","2","2","1","2","4","1","1","0","1","1","0","0","0","1","0","1","-1","0","1","0","1","4","3","4","2","2","1","2","2","1","2","635222761890906112","沈","","","","","","","","","","","","","","","","","","","","","","","","","","","","","","","","","","","","","","","",""
"","","","fullscreen","3","39494","0.0-2.0","3","4","4","3","4","3","3","3","4","4","4","4","5","3","2","4","4","3","4","4","2","2","2","2","2","1","2","4","1","1","0","1","1","0","0","0","1","0","1","-1","0","1","0","1","4","3","4","2","2","1","2","2","1","2","635222761890906112","沈","","true","{}","","","","","","","","","","","","","","","","","","","","","","","","","","","","","","","","","","","","",""
"18402.5","","{""Q01"":""3"",""Q02"":""4"",""Q03"":""4"",""Q04"":""3"",""Q05"":""4"",""Q06"":""3"",""Q07"":""3"",""Q08"":""3"",""Q09"":""4"",""Q10"":""4""}","survey-template","4","57898","0.0-3.0","3","4","4","3","4","3","3","3","4","4","4","4","5","3","2","4","4","3","4","4","2","2","2","2","2","1","2","4","1","1","0","1","1","0","0","0","1","0","1","-1","0","1","0","1","4","3","4","2","2","1","2","2","1","2","635222761890906112","沈","","","","{""Q01"":""3"",""Q02"":""4"",""Q03"":""4"",""Q04"":""3"",""Q05"":""4"",""Q06"":""3"",""Q07"":""3"",""Q08"":""3"",""Q09"":""4"",""Q10"":""4""}","[0,1,2,3,4,5,6,7,8,9]","[""Q01"",""Q02"",""Q03"",""Q04"",""Q05"",""Q06"",""Q07"",""Q08"",""Q09"",""Q10""]","[2964.5,4333.800000190735,6735.400000095367,8162.900000095367,9359.300000190735,11441.800000190735,12689,15245.100000143051,16412.700000047684,17334.60000014305]","[]","[2964.5,4333.800000190735,5875.700000047684,6735.400000095367,8162.900000095367,9359.300000190735,11441.800000190735,12689,14296.900000095367,15245.100000143051,16412.700000047684,17334.60000014305,18401.5]","0.4","0.4444444444444444","0","","","","","","","","","","","","","","","","","","","","","","","","","","","",""
"16889.900000095367","","{""Q01"":""4"",""Q02"":""4"",""Q03"":""5"",""Q04"":""3"",""Q05"":""2"",""Q06"":""4"",""Q07"":""4"",""Q08"":""3"",""Q09"":""4"",""Q10"":""4""}","survey-template","5","74794","0.0-4.0","3","4","4","3","4","3","3","3","4","4","4","4","5","3","2","4","4","3","4","4","2","2","2","2","2","1","2","4","1","1","0","1","1","0","0","0","1","0","1","-1","0","1","0","1","4","3","4","2","2","1","2","2","1","2","635222761890906112","沈","","","","{""Q01"":""4"",""Q02"":""4"",""Q03"":""5"",""Q04"":""3"",""Q05"":""2"",""Q06"":""4"",""Q07"":""4"",""Q08"":""3"",""Q09"":""4"",""Q10"":""4""}","[0,1,2,3,4,5,6,7,8,9]","[""Q01"",""Q02"",""Q03"",""Q04"",""Q05"",""Q06"",""Q07"",""Q08"",""Q09"",""Q10""]","[2105.9000000953674,3220.4000000953674,5012.700000047684,6842.700000047684,8624.5,10157.600000143051,11401.600000143051,13252.600000143051,14382.700000047684,15656.200000047684]","[]","[2105.9000000953674,3220.4000000953674,4189.900000095367,5012.700000047684,6842.700000047684,8624.5,10157.600000143051,11401.600000143051,13252.600000143051,14382.700000047684,15656.200000047684,16888.900000095367]","0.4","0.4444444444444444","0","","","","","","","","","","","","","","","","","","","","","","","","","","","",""
"","","","preload","6","75056","0.0-5.0","3","4","4","3","4","3","3","3","4","4","4","4","5","3","2","4","4","3","4","4","2","2","2","2","2","1","2","4","1","1","0","1","1","0","0","0","1","0","1","-1","0","1","0","1","4","3","4","2","2","1","2","2","1","2","635222761890906112","沈","","true","","","","","","","","","","","false","[]","[]","[]","","","","","","","","","","","","","","","","","","","","","","","",""
"4078","","","instructions","7","79135","0.0-6.0","3","4","4","3","4","3","3","3","4","4","4","4","5","3","2","4","4","3","4","4","2","2","2","2","2","1","2","4","1","1","0","1","1","0","0","0","1","0","1","-1","0","1","0","1","4","3","4","2","2","1","2","2","1","2","635222761890906112","沈","","","","","","","","","","","","","","","","","[{""page_index"":0,""viewing_time"":4078}]","","","","","","","","","","","","","","","","","","","","","","",""
"25274","","","instructions","8","104411","0.0-7.0-0.0-0.0","3","4","4","3","4","3","3","3","4","4","4","4","5","3","2","4","4","3","4","4","2","2","2","2","2","1","2","4","1","1","0","1","1","0","0","0","1","0","1","-1","0","1","0","1","4","3","4","2","2","1","2","2","1","2","635222761890906112","沈","","","","","","","","","","","","","","","","","[{""page_index"":0,""viewing_time"":18937},{""page_index"":1,""viewing_time"":3915},{""page_index"":2,""viewing_time"":2422}]","","","","","","","","","","","","","","","","","","","","","","",""
"null","","null","psychophysics","9","106626","0.0-7.0-0.0-1.0-0.0-0.0","3","4","4","3","4","3","3","3","4","4","4","4","5","3","2","4","4","3","4","4","2","2","2","2","2","1","2","4","1","1","0","1","1","0","0","0","1","0","1","-1","0","1","0","1","4","3","4","2","2","1","2","2","1","2","635222761890906112","沈","","","","null","","","","","","","","","","","","","","key","null","16.667015151515166","640","396","f","false","match","img/pentagon.png","五边","五边","ALT1_1","prac_ALT1_1","","","","","","","","","",""
"null","<span class='add_' style='color:yellow; font-size: 70px;'> 太慢! </span>","null","html-keyboard-response","10","107127","0.0-7.0-0.0-1.0-0.0-1.0","3","4","4","3","4","3","3","3","4","4","4","4","5","3","2","4","4","3","4","4","2","2","2","2","2","1","2","4","1","1","0","1","1","0","0","0","1","0","1","-1","0","1","0","1","4","3","4","2","2","1","2","2","1","2","635222761890906112","沈","","","","","","","","","","","","","","","","","","","","","","","","","","","","","","feedback_test","","","","","","","","","",""
"460","","f","psychophysics","11","108590","0.0-7.0-0.0-1.0-0.0-0.1","3","4","4","3","4","3","3","3","4","4","4","4","5","3","2","4","4","3","4","4","2","2","2","2","2","1","2","4","1","1","0","1","1","0","0","0","1","0","1","-1","0","1","0","1","4","3","4","2","2","1","2","2","1","2","635222761890906112","沈","","","","match","","","","","","","","","","","","","","key","f","16.668436781609138","640","396","j","false","nonmatch","img/pentagon.png","方形","五边","ALT1_1","prac_ALT1_1","","","","","","","","","",""
"null","<span style='color:red; font-size: 70px;'>错误! </span>","null","html-keyboard-response","12","109090","0.0-7.0-0.0-1.0-0.0-1.1","3","4","4","3","4","3","3","3","4","4","4","4","5","3","2","4","4","3","4","4","2","2","2","2","2","1","2","4","1","1","0","1","1","0","0","0","1","0","1","-1","0","1","0","1","4","3","4","2","2","1","2","2","1","2","635222761890906112","沈","","","","","","","","","","","","","","","","","","","","","","","","","","","","","","feedback_test","","","","","","","","","",""
"445","","f","psychophysics","13","110537","0.0-7.0-0.0-1.0-0.0-0.2","3","4","4","3","4","3","3","3","4","4","4","4","5","3","2","4","4","3","4","4","2","2","2","2","2","1","2","4","1","1","0","1","1","0","0","0","1","0","1","-1","0","1","0","1","4","3","4","2","2","1","2","2","1","2","635222761890906112","沈","","","","match","","","","","","","","","","","","","","key","f","16.666616279069743","640","396","j","false","nonmatch","img/square.png","五边","方形","ALT1_1","prac_ALT1_1","","","","","","","","","",""
"null","<span style='color:red; font-size: 70px;'>错误! </span>","null","html-keyboard-response","14","111037","0.0-7.0-0.0-1.0-0.0-1.2","3","4","4","3","4","3","3","3","4","4","4","4","5","3","2","4","4","3","4","4","2","2","2","2","2","1","2","4","1","1","0","1","1","0","0","0","1","0","1","-1","0","1","0","1","4","3","4","2","2","1","2","2","1","2","635222761890906112","沈","","","","","","","","","","","","","","","","","","","","","","","","","","","","","","feedback_test","","","","","","","","","",""
"549","","j","psychophysics","15","112588","0.0-7.0-0.0-1.0-0.0-0.3","3","4","4","3","4","3","3","3","4","4","4","4","5","3","2","4","4","3","4","4","2","2","2","2","2","1","2","4","1","1","0","1","1","0","0","0","1","0","1","-1","0","1","0","1","4","3","4","2","2","1","2","2","1","2","635222761890906112","沈","","","","nonmatch","","","","","","","","","","","","","","key","j","16.66713043478265","640","396","j","true","nonmatch","img/circle.png","菱形","圆形","ALT1_1","prac_ALT1_1","","","","","","","","","",""
"null","<span style='color:GreenYellow; font-size: 70px;'>正确! </span>","null","html-keyboard-response","16","113090","0.0-7.0-0.0-1.0-0.0-1.3","3","4","4","3","4","3","3","3","4","4","4","4","5","3","2","4","4","3","4","4","2","2","2","2","2","1","2","4","1","1","0","1","1","0","0","0","1","0","1","-1","0","1","0","1","4","3","4","2","2","1","2","2","1","2","635222761890906112","沈","","","","","","","","","","","","","","","","","","","","","","","","","","","","","","feedback_test","","","","","","","","","",""
"512","","j","psychophysics","17","114605","0.0-7.0-0.0-1.0-0.0-0.4","3","4","4","3","4","3","3","3","4","4","4","4","5","3","2","4","4","3","4","4","2","2","2","2","2","1","2","4","1","1","0","1","1","0","0","0","1","0","1","-1","0","1","0","1","4","3","4","2","2","1","2","2","1","2","635222761890906112","沈","","","","nonmatch","","","","","","","","","","","","","","key","j","16.667122222222194","640","396","j","true","nonmatch","img/square.png","圆形","方形","ALT1_1","prac_ALT1_1","","","","","","","","","",""
"null","<span style='color:GreenYellow; font-size: 70px;'>正确! </span>","null","html-keyboard-response","18","115106","0.0-7.0-0.0-1.0-0.0-1.4","3","4","4","3","4","3","3","3","4","4","4","4","5","3","2","4","4","3","4","4","2","2","2","2","2","1","2","4","1","1","0","1","1","0","0","0","1","0","1","-1","0","1","0","1","4","3","4","2","2","1","2","2","1","2","635222761890906112","沈","","","","","","","","","","","","","","","","","","","","","","","","","","","","","","feedback_test","","","","","","","","","",""
"759","","j","psychophysics","19","116865","0.0-7.0-0.0-1.0-0.0-0.5","3","4","4","3","4","3","3","3","4","4","4","4","5","3","2","4","4","3","4","4","2","2","2","2","2","1","2","4","1","1","0","1","1","0","0","0","1","0","1","-1","0","1","0","1","4","3","4","2","2","1","2","2","1","2","635222761890906112","沈","","","","nonmatch","","","","","","","","","","","","","","key","j","16.66610476190468","640","396","j","true","nonmatch","img/diamond.png","五边","菱形","ALT1_1","prac_ALT1_1","","","","","","","","","",""
"null","<span style='color:GreenYellow; font-size: 70px;'>正确! </span>","null","html-keyboard-response","20","117366","0.0-7.0-0.0-1.0-0.0-1.5","3","4","4","3","4","3","3","3","4","4","4","4","5","3","2","4","4","3","4","4","2","2","2","2","2","1","2","4","1","1","0","1","1","0","0","0","1","0","1","-1","0","1","0","1","4","3","4","2","2","1","2","2","1","2","635222761890906112","沈","","","","","","","","","","","","","","","","","","","","","","","","","","","","","","feedback_test","","","","","","","","","",""
"694","","j","psychophysics","21","119062","0.0-7.0-0.0-1.0-0.0-0.6","3","4","4","3","4","3","3","3","4","4","4","4","5","3","2","4","4","3","4","4","2","2","2","2","2","1","2","4","1","1","0","1","1","0","0","0","1","0","1","-1","0","1","0","1","4","3","4","2","2","1","2","2","1","2","635222761890906112","沈","","","","nonmatch","","","","","","","","","","","","","","key","j","16.666159999999945","640","396","j","true","nonmatch","img/diamond.png","圆形","菱形","ALT1_1","prac_ALT1_1","","","","","","","","","",""
"null","<span style='color:GreenYellow; font-size: 70px;'>正确! </span>","null","html-keyboard-response","22","119563","0.0-7.0-0.0-1.0-0.0-1.6","3","4","4","3","4","3","3","3","4","4","4","4","5","3","2","4","4","3","4","4","2","2","2","2","2","1","2","4","1","1","0","1","1","0","0","0","1","0","1","-1","0","1","0","1","4","3","4","2","2","1","2","2","1","2","635222761890906112","沈","","","","","","","","","","","","","","","","","","","","","","","","","","","","","","feedback_test","","","","","","","","","",""
"670","","f","psychophysics","23","121235","0.0-7.0-0.0-1.0-0.0-0.7","3","4","4","3","4","3","3","3","4","4","4","4","5","3","2","4","4","3","4","4","2","2","2","2","2","1","2","4","1","1","0","1","1","0","0","0","1","0","1","-1","0","1","0","1","4","3","4","2","2","1","2","2","1","2","635222761890906112","沈","","","","match","","","","","","","","","","","","","","key","f","16.667282828282843","640","396","f","true","match","img/pentagon.png","五边","五边","ALT1_1","prac_ALT1_1","","","","","","","","","",""
"null","<span style='color:GreenYellow; font-size: 70px;'>正确! </span>","null","html-keyboard-response","24","121737","0.0-7.0-0.0-1.0-0.0-1.7","3","4","4","3","4","3","3","3","4","4","4","4","5","3","2","4","4","3","4","4","2","2","2","2","2","1","2","4","1","1","0","1","1","0","0","0","1","0","1","-1","0","1","0","1","4","3","4","2","2","1","2","2","1","2","635222761890906112","沈","","","","","","","","","","","","","","","","","","","","","","","","","","","","","","feedback_test","","","","","","","","","",""
"837","","f","psychophysics","25","123576","0.0-7.0-0.0-1.0-0.0-0.8","3","4","4","3","4","3","3","3","4","4","4","4","5","3","2","4","4","3","4","4","2","2","2","2","2","1","2","4","1","1","0","1","1","0","0","0","1","0","1","-1","0","1","0","1","4","3","4","2","2","1","2","2","1","2","635222761890906112","沈","","","","match","","","","","","","","","","","","","","key","f","16.665715596330227","640","396","f","true","match","img/pentagon.png","五边","五边","ALT1_1","prac_ALT1_1","","","","","","","","","",""
"null","<span style='color:GreenYellow; font-size: 70px;'>正确! </span>","null","html-keyboard-response","26","124077","0.0-7.0-0.0-1.0-0.0-1.8","3","4","4","3","4","3","3","3","4","4","4","4","5","3","2","4","4","3","4","4","2","2","2","2","2","1","2","4","1","1","0","1","1","0","0","0","1","0","1","-1","0","1","0","1","4","3","4","2","2","1","2","2","1","2","635222761890906112","沈","","","","","","","","","","","","","","","","","","","","","","","","","","","","","","feedback_test","","","","","","","","","",""
"398","","f","psychophysics","27","125477","0.0-7.0-0.0-1.0-0.0-0.9","3","4","4","3","4","3","3","3","4","4","4","4","5","3","2","4","4","3","4","4","2","2","2","2","2","1","2","4","1","1","0","1","1","0","0","0","1","0","1","-1","0","1","0","1","4","3","4","2","2","1","2","2","1","2","635222761890906112","沈","","","","match","","","","","","","","","","","","","","key","f","16.668578313252993","640","396","f","true","match","img/diamond.png","菱形","菱形","ALT1_1","prac_ALT1_1","","","","","","","","","",""
"null","<span style='color:GreenYellow; font-size: 70px;'>正确! </span>","null","html-keyboard-response","28","125978","0.0-7.0-0.0-1.0-0.0-1.9","3","4","4","3","4","3","3","3","4","4","4","4","5","3","2","4","4","3","4","4","2","2","2","2","2","1","2","4","1","1","0","1","1","0","0","0","1","0","1","-1","0","1","0","1","4","3","4","2","2","1","2","2","1","2","635222761890906112","沈","","","","","","","","","","","","","","","","","","","","","","","","","","","","","","feedback_test","","","","","","","","","",""
"628","","j","psychophysics","29","127608","0.0-7.0-0.0-1.0-0.0-0.10","3","4","4","3","4","3","3","3","4","4","4","4","5","3","2","4","4","3","4","4","2","2","2","2","2","1","2","4","1","1","0","1","1","0","0","0","1","0","1","-1","0","1","0","1","4","3","4","2","2","1","2","2","1","2","635222761890906112","沈","","","","nonmatch","","","","","","","","","","","","","","key","j","16.602374999999938","640","396","j","true","nonmatch","img/pentagon.png","圆形","五边","ALT1_1","prac_ALT1_1","","","","","","","","","",""
"null","<span style='color:GreenYellow; font-size: 70px;'>正确! </span>","null","html-keyboard-response","30","128109","0.0-7.0-0.0-1.0-0.0-1.10","3","4","4","3","4","3","3","3","4","4","4","4","5","3","2","4","4","3","4","4","2","2","2","2","2","1","2","4","1","1","0","1","1","0","0","0","1","0","1","-1","0","1","0","1","4","3","4","2","2","1","2","2","1","2","635222761890906112","沈","","","","","","","","","","","","","","","","","","","","","","","","","","","","","","feedback_test","","","","","","","","","",""
"735","","f","psychophysics","31","129845","0.0-7.0-0.0-1.0-0.0-0.11","3","4","4","3","4","3","3","3","4","4","4","4","5","3","2","4","4","3","4","4","2","2","2","2","2","1","2","4","1","1","0","1","1","0","0","0","1","0","1","-1","0","1","0","1","4","3","4","2","2","1","2","2","1","2","635222761890906112","沈","","","","match","","","","","","","","","","","","","","key","f","16.66878640776694","640","396","f","true","match","img/circle.png","圆形","圆形","ALT1_1","prac_ALT1_1","","","","","","","","","",""
"null","<span style='color:GreenYellow; font-size: 70px;'>正确! </span>","null","html-keyboard-response","32","130346","0.0-7.0-0.0-1.0-0.0-1.11","3","4","4","3","4","3","3","3","4","4","4","4","5","3","2","4","4","3","4","4","2","2","2","2","2","1","2","4","1","1","0","1","1","0","0","0","1","0","1","-1","0","1","0","1","4","3","4","2","2","1","2","2","1","2","635222761890906112","沈","","","","","","","","","","","","","","","","","","","","","","","","","","","","","","feedback_test","","","","","","","","","",""
"604","","f","psychophysics","33","131952","0.0-7.0-0.0-1.0-0.0-0.12","3","4","4","3","4","3","3","3","4","4","4","4","5","3","2","4","4","3","4","4","2","2","2","2","2","1","2","4","1","1","0","1","1","0","0","0","1","0","1","-1","0","1","0","1","4","3","4","2","2","1","2","2","1","2","635222761890906112","沈","","","","match","","","","","","","","","","","","","","key","f","16.666484210526228","640","396","f","true","match","img/circle.png","圆形","圆形","ALT1_1","prac_ALT1_1","","","","","","","","","",""
"null","<span style='color:GreenYellow; font-size: 70px;'>正确! </span>","null","html-keyboard-response","34","132453","0.0-7.0-0.0-1.0-0.0-1.12","3","4","4","3","4","3","3","3","4","4","4","4","5","3","2","4","4","3","4","4","2","2","2","2","2","1","2","4","1","1","0","1","1","0","0","0","1","0","1","-1","0","1","0","1","4","3","4","2","2","1","2","2","1","2","635222761890906112","沈","","","","","","","","","","","","","","","","","","","","","","","","","","","","","","feedback_test","","","","","","","","","",""
"842","","f","psychophysics","35","134297","0.0-7.0-0.0-1.0-0.0-0.13","3","4","4","3","4","3","3","3","4","4","4","4","5","3","2","4","4","3","4","4","2","2","2","2","2","1","2","4","1","1","0","1","1","0","0","0","1","0","1","-1","0","1","0","1","4","3","4","2","2","1","2","2","1","2","635222761890906112","沈","","","","match","","","","","","","","","","","","","","key","f","16.666136363636312","640","396","f","true","match","img/diamond.png","菱形","菱形","ALT1_1","prac_ALT1_1","","","","","","","","","",""
"null","<span style='color:GreenYellow; font-size: 70px;'>正确! </span>","null","html-keyboard-response","36","134800","0.0-7.0-0.0-1.0-0.0-1.13","3","4","4","3","4","3","3","3","4","4","4","4","5","3","2","4","4","3","4","4","2","2","2","2","2","1","2","4","1","1","0","1","1","0","0","0","1","0","1","-1","0","1","0","1","4","3","4","2","2","1","2","2","1","2","635222761890906112","沈","","","","","","","","","","","","","","","","","","","","","","","","","","","","","","feedback_test","","","","","","","","","",""
"752","","f","psychophysics","37","136556","0.0-7.0-0.0-1.0-0.0-0.14","3","4","4","3","4","3","3","3","4","4","4","4","5","3","2","4","4","3","4","4","2","2","2","2","2","1","2","4","1","1","0","1","1","0","0","0","1","0","1","-1","0","1","0","1","4","3","4","2","2","1","2","2","1","2","635222761890906112","沈","","","","match","","","","","","","","","","","","","","key","f","16.66695192307704","640","396","f","true","match","img/circle.png","圆形","圆形","ALT1_1","prac_ALT1_1","","","","","","","","","",""
"null","<span style='color:GreenYellow; font-size: 70px;'>正确! </span>","null","html-keyboard-response","38","137057","0.0-7.0-0.0-1.0-0.0-1.14","3","4","4","3","4","3","3","3","4","4","4","4","5","3","2","4","4","3","4","4","2","2","2","2","2","1","2","4","1","1","0","1","1","0","0","0","1","0","1","-1","0","1","0","1","4","3","4","2","2","1","2","2","1","2","635222761890906112","沈","","","","","","","","","","","","","","","","","","","","","","","","","","","","","","feedback_test","","","","","","","","","",""
"729","","j","psychophysics","39","138788","0.0-7.0-0.0-1.0-0.0-0.15","3","4","4","3","4","3","3","3","4","4","4","4","5","3","2","4","4","3","4","4","2","2","2","2","2","1","2","4","1","1","0","1","1","0","0","0","1","0","1","-1","0","1","0","1","4","3","4","2","2","1","2","2","1","2","635222761890906112","沈","","","","nonmatch","","","","","","","","","","","","","","key","j","16.667339805825286","640","396","j","true","nonmatch","img/square.png","菱形","方形","ALT1_1","prac_ALT1_1","","","","","","","","","",""
"null","<span style='color:GreenYellow; font-size: 70px;'>正确! </span>","null","html-keyboard-response","40","139289","0.0-7.0-0.0-1.0-0.0-1.15","3","4","4","3","4","3","3","3","4","4","4","4","5","3","2","4","4","3","4","4","2","2","2","2","2","1","2","4","1","1","0","1","1","0","0","0","1","0","1","-1","0","1","0","1","4","3","4","2","2","1","2","2","1","2","635222761890906112","沈","","","","","","","","","","","","","","","","","","","","","","","","","","","","","","feedback_test","","","","","","","","","",""
"576","","f","psychophysics","41","140869","0.0-7.0-0.0-1.0-0.0-0.16","3","4","4","3","4","3","3","3","4","4","4","4","5","3","2","4","4","3","4","4","2","2","2","2","2","1","2","4","1","1","0","1","1","0","0","0","1","0","1","-1","0","1","0","1","4","3","4","2","2","1","2","2","1","2","635222761890906112","沈","","","","match","","","","","","","","","","","","","","key","f","16.668882978723403","640","396","f","true","match","img/square.png","方形","方形","ALT1_1","prac_ALT1_1","","","","","","","","","",""
"null","<span style='color:GreenYellow; font-size: 70px;'>正确! </span>","null","html-keyboard-response","42","141369","0.0-7.0-0.0-1.0-0.0-1.16","3","4","4","3","4","3","3","3","4","4","4","4","5","3","2","4","4","3","4","4","2","2","2","2","2","1","2","4","1","1","0","1","1","0","0","0","1","0","1","-1","0","1","0","1","4","3","4","2","2","1","2","2","1","2","635222761890906112","沈","","","","","","","","","","","","","","","","","","","","","","","","","","","","","","feedback_test","","","","","","","","","",""
"875","","f","psychophysics","43","143245","0.0-7.0-0.0-1.0-0.0-0.17","3","4","4","3","4","3","3","3","4","4","4","4","5","3","2","4","4","3","4","4","2","2","2","2","2","1","2","4","1","1","0","1","1","0","0","0","1","0","1","-1","0","1","0","1","4","3","4","2","2","1","2","2","1","2","635222761890906112","沈","","","","match","","","","","","","","","","","","","","key","f","16.666513513513582","640","396","f","true","match","img/square.png","方形","方形","ALT1_1","prac_ALT1_1","","","","","","","","","",""
"null","<span style='color:GreenYellow; font-size: 70px;'>正确! </span>","null","html-keyboard-response","44","143746","0.0-7.0-0.0-1.0-0.0-1.17","3","4","4","3","4","3","3","3","4","4","4","4","5","3","2","4","4","3","4","4","2","2","2","2","2","1","2","4","1","1","0","1","1","0","0","0","1","0","1","-1","0","1","0","1","4","3","4","2","2","1","2","2","1","2","635222761890906112","沈","","","","","","","","","","","","","","","","","","","","","","","","","","","","","","feedback_test","","","","","","","","","",""
"861","","f","psychophysics","45","145608","0.0-7.0-0.0-1.0-0.0-0.18","3","4","4","3","4","3","3","3","4","4","4","4","5","3","2","4","4","3","4","4","2","2","2","2","2","1","2","4","1","1","0","1","1","0","0","0","1","0","1","-1","0","1","0","1","4","3","4","2","2","1","2","2","1","2","635222761890906112","沈","","","","match","","","","","","","","","","","","","","key","f","16.667009090909215","640","396","j","false","nonmatch","img/diamond.png","方形","菱形","ALT1_1","prac_ALT1_1","","","","","","","","","",""
"null","<span style='color:red; font-size: 70px;'>错误! </span>","null","html-keyboard-response","46","146109","0.0-7.0-0.0-1.0-0.0-1.18","3","4","4","3","4","3","3","3","4","4","4","4","5","3","2","4","4","3","4","4","2","2","2","2","2","1","2","4","1","1","0","1","1","0","0","0","1","0","1","-1","0","1","0","1","4","3","4","2","2","1","2","2","1","2","635222761890906112","沈","","","","","","","","","","","","","","","","","","","","","","","","","","","","","","feedback_test","","","","","","","","","",""
"580","","j","psychophysics","47","147692","0.0-7.0-0.0-1.0-0.0-0.19","3","4","4","3","4","3","3","3","4","4","4","4","5","3","2","4","4","3","4","4","2","2","2","2","2","1","2","4","1","1","0","1","1","0","0","0","1","0","1","-1","0","1","0","1","4","3","4","2","2","1","2","2","1","2","635222761890906112","沈","","","","nonmatch","","","","","","","","","","","","","","key","j","16.66706382978721","640","396","j","true","nonmatch","img/circle.png","五边","圆形","ALT1_1","prac_ALT1_1","","","","","","","","","",""
"null","<span style='color:GreenYellow; font-size: 70px;'>正确! </span>","null","html-keyboard-response","48","148193","0.0-7.0-0.0-1.0-0.0-1.19","3","4","4","3","4","3","3","3","4","4","4","4","5","3","2","4","4","3","4","4","2","2","2","2","2","1","2","4","1","1","0","1","1","0","0","0","1","0","1","-1","0","1","0","1","4","3","4","2","2","1","2","2","1","2","635222761890906112","沈","","","","","","","","","","","","","","","","","","","","","","","","","","","","","","feedback_test","","","","","","","","","",""
"673","","f","psychophysics","49","149868","0.0-7.0-0.0-1.0-0.0-0.20","3","4","4","3","4","3","3","3","4","4","4","4","5","3","2","4","4","3","4","4","2","2","2","2","2","1","2","4","1","1","0","1","1","0","0","0","1","0","1","-1","0","1","0","1","4","3","4","2","2","1","2","2","1","2","635222761890906112","沈","","","","match","","","","","","","","","","","","","","key","f","16.667219999999798","640","396","j","false","nonmatch","img/pentagon.png","菱形","五边","ALT1_1","prac_ALT1_1","","","","","","","","","",""
"null","<span style='color:red; font-size: 70px;'>错误! </span>","null","html-keyboard-response","50","150369","0.0-7.0-0.0-1.0-0.0-1.20","3","4","4","3","4","3","3","3","4","4","4","4","5","3","2","4","4","3","4","4","2","2","2","2","2","1","2","4","1","1","0","1","1","0","0","0","1","0","1","-1","0","1","0","1","4","3","4","2","2","1","2","2","1","2","635222761890906112","沈","","","","","","","","","","","","","","","","","","","","","","","","","","","","","","feedback_test","","","","","","","","","",""
"552","","j","psychophysics","51","151922","0.0-7.0-0.0-1.0-0.0-0.21","3","4","4","3","4","3","3","3","4","4","4","4","5","3","2","4","4","3","4","4","2","2","2","2","2","1","2","4","1","1","0","1","1","0","0","0","1","0","1","-1","0","1","0","1","4","3","4","2","2","1","2","2","1","2","635222761890906112","沈","","","","nonmatch","","","","","","","","","","","","","","key","j","16.66544565217381","640","396","j","true","nonmatch","img/circle.png","方形","圆形","ALT1_1","prac_ALT1_1","","","","","","","","","",""
"null","<span style='color:GreenYellow; font-size: 70px;'>正确! </span>","null","html-keyboard-response","52","152423","0.0-7.0-0.0-1.0-0.0-1.21","3","4","4","3","4","3","3","3","4","4","4","4","5","3","2","4","4","3","4","4","2","2","2","2","2","1","2","4","1","1","0","1","1","0","0","0","1","0","1","-1","0","1","0","1","4","3","4","2","2","1","2","2","1","2","635222761890906112","沈","","","","","","","","","","","","","","","","","","","","","","","","","","","","","","feedback_test","","","","","","","","","",""
"765","","f","psychophysics","53","154189","0.0-7.0-0.0-1.0-0.0-0.22","3","4","4","3","4","3","3","3","4","4","4","4","5","3","2","4","4","3","4","4","2","2","2","2","2","1","2","4","1","1","0","1","1","0","0","0","1","0","1","-1","0","1","0","1","4","3","4","2","2","1","2","2","1","2","635222761890906112","沈","","","","match","","","","","","","","","","","","","","key","f","16.66685714285732","640","396","f","true","match","img/square.png","方形","方形","ALT1_1","prac_ALT1_1","","","","","","","","","",""
"null","<span style='color:GreenYellow; font-size: 70px;'>正确! </span>","null","html-keyboard-response","54","154690","0.0-7.0-0.0-1.0-0.0-1.22","3","4","4","3","4","3","3","3","4","4","4","4","5","3","2","4","4","3","4","4","2","2","2","2","2","1","2","4","1","1","0","1","1","0","0","0","1","0","1","-1","0","1","0","1","4","3","4","2","2","1","2","2","1","2","635222761890906112","沈","","","","","","","","","","","","","","","","","","","","","","","","","","","","","","feedback_test","","","","","","","","","",""
"688","","f","psychophysics","55","156380","0.0-7.0-0.0-1.0-0.0-0.23","3","4","4","3","4","3","3","3","4","4","4","4","5","3","2","4","4","3","4","4","2","2","2","2","2","1","2","4","1","1","0","1","1","0","0","0","1","0","1","-1","0","1","0","1","4","3","4","2","2","1","2","2","1","2","635222761890906112","沈","","","","match","","","","","","","","","","","","","","key","f","16.66767326732671","640","396","f","true","match","img/diamond.png","菱形","菱形","ALT1_1","prac_ALT1_1","","","","","","","","","",""
"null","<span style='color:GreenYellow; font-size: 70px;'>正确! </span>","null","html-keyboard-response","56","156882","0.0-7.0-0.0-1.0-0.0-1.23","3","4","4","3","4","3","3","3","4","4","4","4","5","3","2","4","4","3","4","4","2","2","2","2","2","1","2","4","1","1","0","1","1","0","0","0","1","0","1","-1","0","1","0","1","4","3","4","2","2","1","2","2","1","2","635222761890906112","沈","","","","","","","","","","","","","","","","","","","","","","","","","","","","","","feedback_test","","","","","","","","","",""
"653","","f","psychophysics","57","158538","0.0-7.0-0.0-1.0-0.0-0.24","3","4","4","3","4","3","3","3","4","4","4","4","5","3","2","4","4","3","4","4","2","2","2","2","2","1","2","4","1","1","0","1","1","0","0","0","1","0","1","-1","0","1","0","1","4","3","4","2","2","1","2","2","1","2","635222761890906112","沈","","","","match","","","","","","","","","","","","","","key","f","16.668795918367213","640","396","f","true","match","img/square.png","方形","方形","ALT1_1","prac_ALT1_1","","","","","","","","","",""
"null","<span style='color:GreenYellow; font-size: 70px;'>正确! </span>","null","html-keyboard-response","58","159038","0.0-7.0-0.0-1.0-0.0-1.24","3","4","4","3","4","3","3","3","4","4","4","4","5","3","2","4","4","3","4","4","2","2","2","2","2","1","2","4","1","1","0","1","1","0","0","0","1","0","1","-1","0","1","0","1","4","3","4","2","2","1","2","2","1","2","635222761890906112","沈","","","","","","","","","","","","","","","","","","","","","","","","","","","","","","feedback_test","","","","","","","","","",""
"701","","f","psychophysics","59","160742","0.0-7.0-0.0-1.0-0.0-0.25","3","4","4","3","4","3","3","3","4","4","4","4","5","3","2","4","4","3","4","4","2","2","2","2","2","1","2","4","1","1","0","1","1","0","0","0","1","0","1","-1","0","1","0","1","4","3","4","2","2","1","2","2","1","2","635222761890906112","沈","","","","match","","","","","","","","","","","","","","key","f","16.667029702970538","640","396","f","true","match","img/square.png","方形","方形","ALT1_1","prac_ALT1_1","","","","","","","","","",""
"null","<span style='color:GreenYellow; font-size: 70px;'>正确! </span>","null","html-keyboard-response","60","161243","0.0-7.0-0.0-1.0-0.0-1.25","3","4","4","3","4","3","3","3","4","4","4","4","5","3","2","4","4","3","4","4","2","2","2","2","2","1","2","4","1","1","0","1","1","0","0","0","1","0","1","-1","0","1","0","1","4","3","4","2","2","1","2","2","1","2","635222761890906112","沈","","","","","","","","","","","","","","","","","","","","","","","","","","","","","","feedback_test","","","","","","","","","",""
"715","","j","psychophysics","61","162960","0.0-7.0-0.0-1.0-0.0-0.26","3","4","4","3","4","3","3","3","4","4","4","4","5","3","2","4","4","3","4","4","2","2","2","2","2","1","2","4","1","1","0","1","1","0","0","0","1","0","1","-1","0","1","0","1","4","3","4","2","2","1","2","2","1","2","635222761890906112","沈","","","","nonmatch","","","","","","","","","","","","","","key","j","16.667205882352874","640","396","j","true","nonmatch","img/pentagon.png","菱形","五边","ALT1_1","prac_ALT1_1","","","","","","","","","",""
"null","<span style='color:GreenYellow; font-size: 70px;'>正确! </span>","null","html-keyboard-response","62","163463","0.0-7.0-0.0-1.0-0.0-1.26","3","4","4","3","4","3","3","3","4","4","4","4","5","3","2","4","4","3","4","4","2","2","2","2","2","1","2","4","1","1","0","1","1","0","0","0","1","0","1","-1","0","1","0","1","4","3","4","2","2","1","2","2","1","2","635222761890906112","沈","","","","","","","","","","","","","","","","","","","","","","","","","","","","","","feedback_test","","","","","","","","","",""
"1113","","f","psychophysics","63","165578","0.0-7.0-0.0-1.0-0.0-0.27","3","4","4","3","4","3","3","3","4","4","4","4","5","3","2","4","4","3","4","4","2","2","2","2","2","1","2","4","1","1","0","1","1","0","0","0","1","0","1","-1","0","1","0","1","4","3","4","2","2","1","2","2","1","2","635222761890906112","沈","","","","match","","","","","","","","","","","","","","key","f","16.66729599999986","640","396","f","true","match","img/diamond.png","菱形","菱形","ALT1_1","prac_ALT1_1","","","","","","","","","",""
"null","<span style='color:GreenYellow; font-size: 70px;'>正确! </span>","null","html-keyboard-response","64","166079","0.0-7.0-0.0-1.0-0.0-1.27","3","4","4","3","4","3","3","3","4","4","4","4","5","3","2","4","4","3","4","4","2","2","2","2","2","1","2","4","1","1","0","1","1","0","0","0","1","0","1","-1","0","1","0","1","4","3","4","2","2","1","2","2","1","2","635222761890906112","沈","","","","","","","","","","","","","","","","","","","","","","","","","","","","","","feedback_test","","","","","","","","","",""
"665","","j","psychophysics","65","167746","0.0-7.0-0.0-1.0-0.0-0.28","3","4","4","3","4","3","3","3","4","4","4","4","5","3","2","4","4","3","4","4","2","2","2","2","2","1","2","4","1","1","0","1","1","0","0","0","1","0","1","-1","0","1","0","1","4","3","4","2","2","1","2","2","1","2","635222761890906112","沈","","","","nonmatch","","","","","","","","","","","","","","key","j","16.66734343434324","640","396","j","true","nonmatch","img/pentagon.png","圆形","五边","ALT1_1","prac_ALT1_1","","","","","","","","","",""
"null","<span style='color:GreenYellow; font-size: 70px;'>正确! </span>","null","html-keyboard-response","66","168259","0.0-7.0-0.0-1.0-0.0-1.28","3","4","4","3","4","3","3","3","4","4","4","4","5","3","2","4","4","3","4","4","2","2","2","2","2","1","2","4","1","1","0","1","1","0","0","0","1","0","1","-1","0","1","0","1","4","3","4","2","2","1","2","2","1","2","635222761890906112","沈","","","","","","","","","","","","","","","","","","","","","","","","","","","","","","feedback_test","","","","","","","","","",""
"737","","j","psychophysics","67","169998","0.0-7.0-0.0-1.0-0.0-0.29","3","4","4","3","4","3","3","3","4","4","4","4","5","3","2","4","4","3","4","4","2","2","2","2","2","1","2","4","1","1","0","1","1","0","0","0","1","0","1","-1","0","1","0","1","4","3","4","2","2","1","2","2","1","2","635222761890906112","沈","","","","nonmatch","","","","","","","","","","","","","","key","j","16.667124999999942","640","396","j","true","nonmatch","img/square.png","五边","方形","ALT1_1","prac_ALT1_1","","","","","","","","","",""
"null","<span style='color:GreenYellow; font-size: 70px;'>正确! </span>","null","html-keyboard-response","68","170500","0.0-7.0-0.0-1.0-0.0-1.29","3","4","4","3","4","3","3","3","4","4","4","4","5","3","2","4","4","3","4","4","2","2","2","2","2","1","2","4","1","1","0","1","1","0","0","0","1","0","1","-1","0","1","0","1","4","3","4","2","2","1","2","2","1","2","635222761890906112","沈","","","","","","","","","","","","","","","","","","","","","","","","","","","","","","feedback_test","","","","","","","","","",""
"799","","f","psychophysics","69","172301","0.0-7.0-0.0-1.0-0.0-0.30","3","4","4","3","4","3","3","3","4","4","4","4","5","3","2","4","4","3","4","4","2","2","2","2","2","1","2","4","1","1","0","1","1","0","0","0","1","0","1","-1","0","1","0","1","4","3","4","2","2","1","2","2","1","2","635222761890906112","沈","","","","match","","","","","","","","","","","","","","key","f","16.666588785046837","640","396","f","true","match","img/diamond.png","菱形","菱形","ALT1_1","prac_ALT1_1","","","","","","","","","",""
"null","<span style='color:GreenYellow; font-size: 70px;'>正确! </span>","null","html-keyboard-response","70","172802","0.0-7.0-0.0-1.0-0.0-1.30","3","4","4","3","4","3","3","3","4","4","4","4","5","3","2","4","4","3","4","4","2","2","2","2","2","1","2","4","1","1","0","1","1","0","0","0","1","0","1","-1","0","1","0","1","4","3","4","2","2","1","2","2","1","2","635222761890906112","沈","","","","","","","","","","","","","","","","","","","","","","","","","","","","","","feedback_test","","","","","","","","","",""
"719","","f","psychophysics","71","174523","0.0-7.0-0.0-1.0-0.0-0.31","3","4","4","3","4","3","3","3","4","4","4","4","5","3","2","4","4","3","4","4","2","2","2","2","2","1","2","4","1","1","0","1","1","0","0","0","1","0","1","-1","0","1","0","1","4","3","4","2","2","1","2","2","1","2","635222761890906112","沈","","","","match","","","","","","","","","","","","","","key","f","16.666588235294103","640","396","f","true","match","img/pentagon.png","五边","五边","ALT1_1","prac_ALT1_1","","","","","","","","","",""
"null","<span style='color:GreenYellow; font-size: 70px;'>正确! </span>","null","html-keyboard-response","72","175025","0.0-7.0-0.0-1.0-0.0-1.31","3","4","4","3","4","3","3","3","4","4","4","4","5","3","2","4","4","3","4","4","2","2","2","2","2","1","2","4","1","1","0","1","1","0","0","0","1","0","1","-1","0","1","0","1","4","3","4","2","2","1","2","2","1","2","635222761890906112","沈","","","","","","","","","","","","","","","","","","","","","","","","","","","","","","feedback_test","","","","","","","","","",""
"654","","f","psychophysics","73","176679","0.0-7.0-0.0-1.0-0.0-0.32","3","4","4","3","4","3","3","3","4","4","4","4","5","3","2","4","4","3","4","4","2","2","2","2","2","1","2","4","1","1","0","1","1","0","0","0","1","0","1","-1","0","1","0","1","4","3","4","2","2","1","2","2","1","2","635222761890906112","沈","","","","match","","","","","","","","","","","","","","key","f","16.666959595959693","640","396","f","true","match","img/square.png","方形","方形","ALT1_1","prac_ALT1_1","","","","","","","","","",""
"null","<span style='color:GreenYellow; font-size: 70px;'>正确! </span>","null","html-keyboard-response","74","177181","0.0-7.0-0.0-1.0-0.0-1.32","3","4","4","3","4","3","3","3","4","4","4","4","5","3","2","4","4","3","4","4","2","2","2","2","2","1","2","4","1","1","0","1","1","0","0","0","1","0","1","-1","0","1","0","1","4","3","4","2","2","1","2","2","1","2","635222761890906112","沈","","","","","","","","","","","","","","","","","","","","","","","","","","","","","","feedback_test","","","","","","","","","",""
"724","","j","psychophysics","75","178906","0.0-7.0-0.0-1.0-0.0-0.33","3","4","4","3","4","3","3","3","4","4","4","4","5","3","2","4","4","3","4","4","2","2","2","2","2","1","2","4","1","1","0","1","1","0","0","0","1","0","1","-1","0","1","0","1","4","3","4","2","2","1","2","2","1","2","635222761890906112","沈","","","","nonmatch","","","","","","","","","","","","","","key","j","16.667156862744985","640","396","j","true","nonmatch","img/circle.png","五边","圆形","ALT1_1","prac_ALT1_1","","","","","","","","","",""
"null","<span style='color:GreenYellow; font-size: 70px;'>正确! </span>","null","html-keyboard-response","76","179408","0.0-7.0-0.0-1.0-0.0-1.33","3","4","4","3","4","3","3","3","4","4","4","4","5","3","2","4","4","3","4","4","2","2","2","2","2","1","2","4","1","1","0","1","1","0","0","0","1","0","1","-1","0","1","0","1","4","3","4","2","2","1","2","2","1","2","635222761890906112","沈","","","","","","","","","","","","","","","","","","","","","","","","","","","","","","feedback_test","","","","","","","","","",""
"827","","j","psychophysics","77","181236","0.0-7.0-0.0-1.0-0.0-0.34","3","4","4","3","4","3","3","3","4","4","4","4","5","3","2","4","4","3","4","4","2","2","2","2","2","1","2","4","1","1","0","1","1","0","0","0","1","0","1","-1","0","1","0","1","4","3","4","2","2","1","2","2","1","2","635222761890906112","沈","","","","nonmatch","","","","","","","","","","","","","","key","j","16.66659633027536","640","396","j","true","nonmatch","img/diamond.png","方形","菱形","ALT1_1","prac_ALT1_1","","","","","","","","","",""
"null","<span style='color:GreenYellow; font-size: 70px;'>正确! </span>","null","html-keyboard-response","78","181737","0.0-7.0-0.0-1.0-0.0-1.34","3","4","4","3","4","3","3","3","4","4","4","4","5","3","2","4","4","3","4","4","2","2","2","2","2","1","2","4","1","1","0","1","1","0","0","0","1","0","1","-1","0","1","0","1","4","3","4","2","2","1","2","2","1","2","635222761890906112","沈","","","","","","","","","","","","","","","","","","","","","","","","","","","","","","feedback_test","","","","","","","","","",""
"563","","j","psychophysics","79","183302","0.0-7.0-0.0-1.0-0.0-0.35","3","4","4","3","4","3","3","3","4","4","4","4","5","3","2","4","4","3","4","4","2","2","2","2","2","1","2","4","1","1","0","1","1","0","0","0","1","0","1","-1","0","1","0","1","4","3","4","2","2","1","2","2","1","2","635222761890906112","沈","","","","nonmatch","","","","","","","","","","","","","","key","j","16.66769892473108","640","396","j","true","nonmatch","img/square.png","菱形","方形","ALT1_1","prac_ALT1_1","","","","","","","","","",""
"null","<span style='color:GreenYellow; font-size: 70px;'>正确! </span>","null","html-keyboard-response","80","183803","0.0-7.0-0.0-1.0-0.0-1.35","3","4","4","3","4","3","3","3","4","4","4","4","5","3","2","4","4","3","4","4","2","2","2","2","2","1","2","4","1","1","0","1","1","0","0","0","1","0","1","-1","0","1","0","1","4","3","4","2","2","1","2","2","1","2","635222761890906112","沈","","","","","","","","","","","","","","","","","","","","","","","","","","","","","","feedback_test","","","","","","","","","",""
"544","","j","psychophysics","81","185348","0.0-7.0-0.0-1.0-0.0-0.36","3","4","4","3","4","3","3","3","4","4","4","4","5","3","2","4","4","3","4","4","2","2","2","2","2","1","2","4","1","1","0","1","1","0","0","0","1","0","1","-1","0","1","0","1","4","3","4","2","2","1","2","2","1","2","635222761890906112","沈","","","","nonmatch","","","","","","","","","","","","","","key","j","16.66711956521739","640","396","f","false","match","img/circle.png","圆形","圆形","ALT1_1","prac_ALT1_1","","","","","","","","","",""
"null","<span style='color:red; font-size: 70px;'>错误! </span>","null","html-keyboard-response","82","185849","0.0-7.0-0.0-1.0-0.0-1.36","3","4","4","3","4","3","3","3","4","4","4","4","5","3","2","4","4","3","4","4","2","2","2","2","2","1","2","4","1","1","0","1","1","0","0","0","1","0","1","-1","0","1","0","1","4","3","4","2","2","1","2","2","1","2","635222761890906112","沈","","","","","","","","","","","","","","","","","","","","","","","","","","","","","","feedback_test","","","","","","","","","",""
"693","","j","psychophysics","83","187545","0.0-7.0-0.0-1.0-0.0-0.37","3","4","4","3","4","3","3","3","4","4","4","4","5","3","2","4","4","3","4","4","2","2","2","2","2","1","2","4","1","1","0","1","1","0","0","0","1","0","1","-1","0","1","0","1","4","3","4","2","2","1","2","2","1","2","635222761890906112","沈","","","","nonmatch","","","","","","","","","","","","","","key","j","16.664899999999907","640","396","j","true","nonmatch","img/diamond.png","五边","菱形","ALT1_1","prac_ALT1_1","","","","","","","","","",""
"null","<span style='color:GreenYellow; font-size: 70px;'>正确! </span>","null","html-keyboard-response","84","188046","0.0-7.0-0.0-1.0-0.0-1.37","3","4","4","3","4","3","3","3","4","4","4","4","5","3","2","4","4","3","4","4","2","2","2","2","2","1","2","4","1","1","0","1","1","0","0","0","1","0","1","-1","0","1","0","1","4","3","4","2","2","1","2","2","1","2","635222761890906112","沈","","","","","","","","","","","","","","","","","","","","","","","","","","","","","","feedback_test","","","","","","","","","",""
"616","","f","psychophysics","85","189664","0.0-7.0-0.0-1.0-0.0-0.38","3","4","4","3","4","3","3","3","4","4","4","4","5","3","2","4","4","3","4","4","2","2","2","2","2","1","2","4","1","1","0","1","1","0","0","0","1","0","1","-1","0","1","0","1","4","3","4","2","2","1","2","2","1","2","635222761890906112","沈","","","","match","","","","","","","","","","","","","","key","f","16.668343749999924","640","396","f","true","match","img/circle.png","圆形","圆形","ALT1_1","prac_ALT1_1","","","","","","","","","",""
"null","<span style='color:GreenYellow; font-size: 70px;'>正确! </span>","null","html-keyboard-response","86","190164","0.0-7.0-0.0-1.0-0.0-1.38","3","4","4","3","4","3","3","3","4","4","4","4","5","3","2","4","4","3","4","4","2","2","2","2","2","1","2","4","1","1","0","1","1","0","0","0","1","0","1","-1","0","1","0","1","4","3","4","2","2","1","2","2","1","2","635222761890906112","沈","","","","","","","","","","","","","","","","","","","","","","","","","","","","","","feedback_test","","","","","","","","","",""
"657","","f","psychophysics","87","191823","0.0-7.0-0.0-1.0-0.0-0.39","3","4","4","3","4","3","3","3","4","4","4","4","5","3","2","4","4","3","4","4","2","2","2","2","2","1","2","4","1","1","0","1","1","0","0","0","1","0","1","-1","0","1","0","1","4","3","4","2","2","1","2","2","1","2","635222761890906112","沈","","","","match","","","","","","","","","","","","","","key","f","16.666836734693938","640","396","f","true","match","img/pentagon.png","五边","五边","ALT1_1","prac_ALT1_1","","","","","","","","","",""
"null","<span style='color:GreenYellow; font-size: 70px;'>正确! </span>","null","html-keyboard-response","88","192324","0.0-7.0-0.0-1.0-0.0-1.39","3","4","4","3","4","3","3","3","4","4","4","4","5","3","2","4","4","3","4","4","2","2","2","2","2","1","2","4","1","1","0","1","1","0","0","0","1","0","1","-1","0","1","0","1","4","3","4","2","2","1","2","2","1","2","635222761890906112","沈","","","","","","","","","","","","","","","","","","","","","","","","","","","","","","feedback_test","","","","","","","","","",""
"609","","j","psychophysics","89","193933","0.0-7.0-0.0-1.0-0.0-0.40","3","4","4","3","4","3","3","3","4","4","4","4","5","3","2","4","4","3","4","4","2","2","2","2","2","1","2","4","1","1","0","1","1","0","0","0","1","0","1","-1","0","1","0","1","4","3","4","2","2","1","2","2","1","2","635222761890906112","沈","","","","nonmatch","","","","","","","","","","","","","","key","j","16.667052083333147","640","396","j","true","nonmatch","img/circle.png","菱形","圆形","ALT1_1","prac_ALT1_1","","","","","","","","","",""
"null","<span style='color:GreenYellow; font-size: 70px;'>正确! </span>","null","html-keyboard-response","90","194434","0.0-7.0-0.0-1.0-0.0-1.40","3","4","4","3","4","3","3","3","4","4","4","4","5","3","2","4","4","3","4","4","2","2","2","2","2","1","2","4","1","1","0","1","1","0","0","0","1","0","1","-1","0","1","0","1","4","3","4","2","2","1","2","2","1","2","635222761890906112","沈","","","","","","","","","","","","","","","","","","","","","","","","","","","","","","feedback_test","","","","","","","","","",""
"932","","f","psychophysics","91","196368","0.0-7.0-0.0-1.0-0.0-0.41","3","4","4","3","4","3","3","3","4","4","4","4","5","3","2","4","4","3","4","4","2","2","2","2","2","1","2","4","1","1","0","1","1","0","0","0","1","0","1","-1","0","1","0","1","4","3","4","2","2","1","2","2","1","2","635222761890906112","沈","","","","match","","","","","","","","","","","","","","key","f","16.666321739130503","640","396","f","true","match","img/diamond.png","菱形","菱形","ALT1_1","prac_ALT1_1","","","","","","","","","",""
"null","<span style='color:GreenYellow; font-size: 70px;'>正确! </span>","null","html-keyboard-response","92","196869","0.0-7.0-0.0-1.0-0.0-1.41","3","4","4","3","4","3","3","3","4","4","4","4","5","3","2","4","4","3","4","4","2","2","2","2","2","1","2","4","1","1","0","1","1","0","0","0","1","0","1","-1","0","1","0","1","4","3","4","2","2","1","2","2","1","2","635222761890906112","沈","","","","","","","","","","","","","","","","","","","","","","","","","","","","","","feedback_test","","","","","","","","","",""
"603","","f","psychophysics","93","198474","0.0-7.0-0.0-1.0-0.0-0.42","3","4","4","3","4","3","3","3","4","4","4","4","5","3","2","4","4","3","4","4","2","2","2","2","2","1","2","4","1","1","0","1","1","0","0","0","1","0","1","-1","0","1","0","1","4","3","4","2","2","1","2","2","1","2","635222761890906112","沈","","","","match","","","","","","","","","","","","","","key","f","16.668431578947256","640","396","f","true","match","img/pentagon.png","五边","五边","ALT1_1","prac_ALT1_1","","","","","","","","","",""
"null","<span style='color:GreenYellow; font-size: 70px;'>正确! </span>","null","html-keyboard-response","94","198975","0.0-7.0-0.0-1.0-0.0-1.42","3","4","4","3","4","3","3","3","4","4","4","4","5","3","2","4","4","3","4","4","2","2","2","2","2","1","2","4","1","1","0","1","1","0","0","0","1","0","1","-1","0","1","0","1","4","3","4","2","2","1","2","2","1","2","635222761890906112","沈","","","","","","","","","","","","","","","","","","","","","","","","","","","","","","feedback_test","","","","","","","","","",""
"583","","f","psychophysics","95","200560","0.0-7.0-0.0-1.0-0.0-0.43","3","4","4","3","4","3","3","3","4","4","4","4","5","3","2","4","4","3","4","4","2","2","2","2","2","1","2","4","1","1","0","1","1","0","0","0","1","0","1","-1","0","1","0","1","4","3","4","2","2","1","2","2","1","2","635222761890906112","沈","","","","match","","","","","","","","","","","","","","key","f","16.666734042553294","640","396","j","false","nonmatch","img/square.png","圆形","方形","ALT1_1","prac_ALT1_1","","","","","","","","","",""
"null","<span style='color:red; font-size: 70px;'>错误! </span>","null","html-keyboard-response","96","201061","0.0-7.0-0.0-1.0-0.0-1.43","3","4","4","3","4","3","3","3","4","4","4","4","5","3","2","4","4","3","4","4","2","2","2","2","2","1","2","4","1","1","0","1","1","0","0","0","1","0","1","-1","0","1","0","1","4","3","4","2","2","1","2","2","1","2","635222761890906112","沈","","","","","","","","","","","","","","","","","","","","","","","","","","","","","","feedback_test","","","","","","","","","",""
"826","","j","psychophysics","97","202889","0.0-7.0-0.0-1.0-0.0-0.44","3","4","4","3","4","3","3","3","4","4","4","4","5","3","2","4","4","3","4","4","2","2","2","2","2","1","2","4","1","1","0","1","1","0","0","0","1","0","1","-1","0","1","0","1","4","3","4","2","2","1","2","2","1","2","635222761890906112","沈","","","","nonmatch","","","","","","","","","","","","","","key","j","16.549185185185234","640","396","j","true","nonmatch","img/diamond.png","圆形","菱形","ALT1_1","prac_ALT1_1","","","","","","","","","",""
"null","<span style='color:GreenYellow; font-size: 70px;'>正确! </span>","null","html-keyboard-response","98","203390","0.0-7.0-0.0-1.0-0.0-1.44","3","4","4","3","4","3","3","3","4","4","4","4","5","3","2","4","4","3","4","4","2","2","2","2","2","1","2","4","1","1","0","1","1","0","0","0","1","0","1","-1","0","1","0","1","4","3","4","2","2","1","2","2","1","2","635222761890906112","沈","","","","","","","","","","","","","","","","","","","","","","","","","","","","","","feedback_test","","","","","","","","","",""
"620","","f","psychophysics","99","205012","0.0-7.0-0.0-1.0-0.0-0.45","3","4","4","3","4","3","3","3","4","4","4","4","5","3","2","4","4","3","4","4","2","2","2","2","2","1","2","4","1","1","0","1","1","0","0","0","1","0","1","-1","0","1","0","1","4","3","4","2","2","1","2","2","1","2","635222761890906112","沈","","","","match","","","","","","","","","","","","","","key","f","16.66683505154629","640","396","j","false","nonmatch","img/pentagon.png","方形","五边","ALT1_1","prac_ALT1_1","","","","","","","","","",""
"null","<span style='color:red; font-size: 70px;'>错误! </span>","null","html-keyboard-response","100","205514","0.0-7.0-0.0-1.0-0.0-1.45","3","4","4","3","4","3","3","3","4","4","4","4","5","3","2","4","4","3","4","4","2","2","2","2","2","1","2","4","1","1","0","1","1","0","0","0","1","0","1","-1","0","1","0","1","4","3","4","2","2","1","2","2","1","2","635222761890906112","沈","","","","","","","","","","","","","","","","","","","","","","","","","","","","","","feedback_test","","","","","","","","","",""
"487","","f","psychophysics","101","207002","0.0-7.0-0.0-1.0-0.0-0.46","3","4","4","3","4","3","3","3","4","4","4","4","5","3","2","4","4","3","4","4","2","2","2","2","2","1","2","4","1","1","0","1","1","0","0","0","1","0","1","-1","0","1","0","1","4","3","4","2","2","1","2","2","1","2","635222761890906112","沈","","","","match","","","","","","","","","","","","","","key","f","16.66623863636348","640","396","f","true","match","img/circle.png","圆形","圆形","ALT1_1","prac_ALT1_1","","","","","","","","","",""
"null","<span style='color:GreenYellow; font-size: 70px;'>正确! </span>","null","html-keyboard-response","102","207504","0.0-7.0-0.0-1.0-0.0-1.46","3","4","4","3","4","3","3","3","4","4","4","4","5","3","2","4","4","3","4","4","2","2","2","2","2","1","2","4","1","1","0","1","1","0","0","0","1","0","1","-1","0","1","0","1","4","3","4","2","2","1","2","2","1","2","635222761890906112","沈","","","","","","","","","","","","","","","","","","","","","","","","","","","","","","feedback_test","","","","","","","","","",""
"726","","j","psychophysics","103","209231","0.0-7.0-0.0-1.0-0.0-0.47","3","4","4","3","4","3","3","3","4","4","4","4","5","3","2","4","4","3","4","4","2","2","2","2","2","1","2","4","1","1","0","1","1","0","0","0","1","0","1","-1","0","1","0","1","4","3","4","2","2","1","2","2","1","2","635222761890906112","沈","","","","nonmatch","","","","","","","","","","","","","","key","j","16.66822330097078","640","396","j","true","nonmatch","img/circle.png","方形","圆形","ALT1_1","prac_ALT1_1","","","","","","","","","",""
"null","<span style='color:GreenYellow; font-size: 70px;'>正确! </span>","null","html-keyboard-response","104","209732","0.0-7.0-0.0-1.0-0.0-1.47","3","4","4","3","4","3","3","3","4","4","4","4","5","3","2","4","4","3","4","4","2","2","2","2","2","1","2","4","1","1","0","1","1","0","0","0","1","0","1","-1","0","1","0","1","4","3","4","2","2","1","2","2","1","2","635222761890906112","沈","","","","","","","","","","","","","","","","","","","","","","","","","","","","","","feedback_test","","","","","","","","","",""
"4741","<style>.context{color:white; font-size: 35px; line-height:40px}</style>                            <div><p class='context'>您正确回答了83% 的试次。</p><p class='context'>您的平均反应时为694毫秒。</p><p class='context'>恭喜您完成练习。按空格键进入正式实验。</p><p class='footer' style='font-size: 35px; line-height:40px;'>请在进入正式实验实验之前将您的<span style='color: lightgreen;'>食指</span>放在电脑键盘的相应键位上进行按键。</p>"," ","html-keyboard-response","105","214475","0.0-7.0-0.0-2.0","3","4","4","3","4","3","3","3","4","4","4","4","5","3","2","4","4","3","4","4","2","2","2","2","2","1","2","4","1","1","0","1","1","0","0","0","1","0","1","-1","0","1","0","1","4","3","4","2","2","1","2","2","1","2","635222761890906112","沈","","","","","","","","","","","","","","","","","","","","","","","","","","","","","","","","","","","","","","","",""
"1210","
    <p>请您将手指放在按键上，准备进入正式的匹配任务。</p>
    <p> <div style = ""color: green""><按空格键进入下一阶段的匹配任务></div></p>
    "," ","html-keyboard-response","106","215687","0.0-7.0-0.0-3.0","3","4","4","3","4","3","3","3","4","4","4","4","5","3","2","4","4","3","4","4","2","2","2","2","2","1","2","4","1","1","0","1","1","0","0","0","1","0","1","-1","0","1","0","1","4","3","4","2","2","1","2","2","1","2","635222761890906112","沈","","","","","","","","","","","","","","","","","","","","","","","","","","","","","","","","","","","","","","","",""
"615","","f","psychophysics","107","217304","0.0-7.0-0.0-4.0-0.0-0.0","3","4","4","3","4","3","3","3","4","4","4","4","5","3","2","4","4","3","4","4","2","2","2","2","2","1","2","4","1","1","0","1","1","0","0","0","1","0","1","-1","0","1","0","1","4","3","4","2","2","1","2","2","1","2","635222761890906112","沈","","","","match","","","","","","","","","","","","","","key","f","16.66853125000004","640","396","f","true","match","img/circle.png","圆形","圆形","ALT1","formal_ALT1_1","","","","","","","","","",""
"null","<span style='color:GreenYellow; font-size: 70px;'>正确! </span>","null","html-keyboard-response","108","217805","0.0-7.0-0.0-4.0-0.0-1.0","3","4","4","3","4","3","3","3","4","4","4","4","5","3","2","4","4","3","4","4","2","2","2","2","2","1","2","4","1","1","0","1","1","0","0","0","1","0","1","-1","0","1","0","1","4","3","4","2","2","1","2","2","1","2","635222761890906112","沈","","","","","","","","","","","","","","","","","","","","","","","","","","","","","","feedback_test","","","","","","","","","",""
"656","","f","psychophysics","109","219463","0.0-7.0-0.0-4.0-0.0-0.1","3","4","4","3","4","3","3","3","4","4","4","4","5","3","2","4","4","3","4","4","2","2","2","2","2","1","2","4","1","1","0","1","1","0","0","0","1","0","1","-1","0","1","0","1","4","3","4","2","2","1","2","2","1","2","635222761890906112","沈","","","","match","","","","","","","","","","","","","","key","f","16.66920202020191","640","396","f","true","match","img/circle.png","圆形","圆形","ALT1","formal_ALT1_1","","","","","","","","","",""
"null","<span style='color:GreenYellow; font-size: 70px;'>正确! </span>","null","html-keyboard-response","110","219964","0.0-7.0-0.0-4.0-0.0-1.1","3","4","4","3","4","3","3","3","4","4","4","4","5","3","2","4","4","3","4","4","2","2","2","2","2","1","2","4","1","1","0","1","1","0","0","0","1","0","1","-1","0","1","0","1","4","3","4","2","2","1","2","2","1","2","635222761890906112","沈","","","","","","","","","","","","","","","","","","","","","","","","","","","","","","feedback_test","","","","","","","","","",""
"484","","f","psychophysics","111","221450","0.0-7.0-0.0-4.0-0.0-0.2","3","4","4","3","4","3","3","3","4","4","4","4","5","3","2","4","4","3","4","4","2","2","2","2","2","1","2","4","1","1","0","1","1","0","0","0","1","0","1","-1","0","1","0","1","4","3","4","2","2","1","2","2","1","2","635222761890906112","沈","","","","match","","","","","","","","","","","","","","key","f","16.665954545454454","640","396","f","true","match","img/circle.png","圆形","圆形","ALT1","formal_ALT1_1","","","","","","","","","",""
"null","<span style='color:GreenYellow; font-size: 70px;'>正确! </span>","null","html-keyboard-response","112","221951","0.0-7.0-0.0-4.0-0.0-1.2","3","4","4","3","4","3","3","3","4","4","4","4","5","3","2","4","4","3","4","4","2","2","2","2","2","1","2","4","1","1","0","1","1","0","0","0","1","0","1","-1","0","1","0","1","4","3","4","2","2","1","2","2","1","2","635222761890906112","沈","","","","","","","","","","","","","","","","","","","","","","","","","","","","","","feedback_test","","","","","","","","","",""
"576","","j","psychophysics","113","223529","0.0-7.0-0.0-4.0-0.0-0.3","3","4","4","3","4","3","3","3","4","4","4","4","5","3","2","4","4","3","4","4","2","2","2","2","2","1","2","4","1","1","0","1","1","0","0","0","1","0","1","-1","0","1","0","1","4","3","4","2","2","1","2","2","1","2","635222761890906112","沈","","","","nonmatch","","","","","","","","","","","","","","key","j","16.6653085106385","640","396","j","true","nonmatch","img/circle.png","方形","圆形","ALT1","formal_ALT1_1","","","","","","","","","",""
"null","<span style='color:GreenYellow; font-size: 70px;'>正确! </span>","null","html-keyboard-response","114","224032","0.0-7.0-0.0-4.0-0.0-1.3","3","4","4","3","4","3","3","3","4","4","4","4","5","3","2","4","4","3","4","4","2","2","2","2","2","1","2","4","1","1","0","1","1","0","0","0","1","0","1","-1","0","1","0","1","4","3","4","2","2","1","2","2","1","2","635222761890906112","沈","","","","","","","","","","","","","","","","","","","","","","","","","","","","","","feedback_test","","","","","","","","","",""
"700","","j","psychophysics","115","225735","0.0-7.0-0.0-4.0-0.0-0.4","3","4","4","3","4","3","3","3","4","4","4","4","5","3","2","4","4","3","4","4","2","2","2","2","2","1","2","4","1","1","0","1","1","0","0","0","1","0","1","-1","0","1","0","1","4","3","4","2","2","1","2","2","1","2","635222761890906112","沈","","","","nonmatch","","","","","","","","","","","","","","key","j","16.66702970297025","640","396","j","true","nonmatch","img/pentagon.png","方形","五边","ALT1","formal_ALT1_1","","","","","","","","","",""
"null","<span style='color:GreenYellow; font-size: 70px;'>正确! </span>","null","html-keyboard-response","116","226237","0.0-7.0-0.0-4.0-0.0-1.4","3","4","4","3","4","3","3","3","4","4","4","4","5","3","2","4","4","3","4","4","2","2","2","2","2","1","2","4","1","1","0","1","1","0","0","0","1","0","1","-1","0","1","0","1","4","3","4","2","2","1","2","2","1","2","635222761890906112","沈","","","","","","","","","","","","","","","","","","","","","","","","","","","","","","feedback_test","","","","","","","","","",""
"685","","f","psychophysics","117","227923","0.0-7.0-0.0-4.0-0.0-0.5","3","4","4","3","4","3","3","3","4","4","4","4","5","3","2","4","4","3","4","4","2","2","2","2","2","1","2","4","1","1","0","1","1","0","0","0","1","0","1","-1","0","1","0","1","4","3","4","2","2","1","2","2","1","2","635222761890906112","沈","","","","match","","","","","","","","","","","","","","key","f","16.666980000000038","640","396","f","true","match","img/square.png","方形","方形","ALT1","formal_ALT1_1","","","","","","","","","",""
"null","<span style='color:GreenYellow; font-size: 70px;'>正确! </span>","null","html-keyboard-response","118","228425","0.0-7.0-0.0-4.0-0.0-1.5","3","4","4","3","4","3","3","3","4","4","4","4","5","3","2","4","4","3","4","4","2","2","2","2","2","1","2","4","1","1","0","1","1","0","0","0","1","0","1","-1","0","1","0","1","4","3","4","2","2","1","2","2","1","2","635222761890906112","沈","","","","","","","","","","","","","","","","","","","","","","","","","","","","","","feedback_test","","","","","","","","","",""
"643","","j","psychophysics","119","230069","0.0-7.0-0.0-4.0-0.0-0.6","3","4","4","3","4","3","3","3","4","4","4","4","5","3","2","4","4","3","4","4","2","2","2","2","2","1","2","4","1","1","0","1","1","0","0","0","1","0","1","-1","0","1","0","1","4","3","4","2","2","1","2","2","1","2","635222761890906112","沈","","","","nonmatch","","","","","","","","","","","","","","key","j","16.667102040816513","640","396","j","true","nonmatch","img/square.png","菱形","方形","ALT1","formal_ALT1_1","","","","","","","","","",""
"null","<span style='color:GreenYellow; font-size: 70px;'>正确! </span>","null","html-keyboard-response","120","230570","0.0-7.0-0.0-4.0-0.0-1.6","3","4","4","3","4","3","3","3","4","4","4","4","5","3","2","4","4","3","4","4","2","2","2","2","2","1","2","4","1","1","0","1","1","0","0","0","1","0","1","-1","0","1","0","1","4","3","4","2","2","1","2","2","1","2","635222761890906112","沈","","","","","","","","","","","","","","","","","","","","","","","","","","","","","","feedback_test","","","","","","","","","",""
"595","","j","psychophysics","121","232167","0.0-7.0-0.0-4.0-0.0-0.7","3","4","4","3","4","3","3","3","4","4","4","4","5","3","2","4","4","3","4","4","2","2","2","2","2","1","2","4","1","1","0","1","1","0","0","0","1","0","1","-1","0","1","0","1","4","3","4","2","2","1","2","2","1","2","635222761890906112","沈","","","","nonmatch","","","","","","","","","","","","","","key","j","16.66896842105259","640","396","j","true","nonmatch","img/circle.png","五边","圆形","ALT1","formal_ALT1_1","","","","","","","","","",""
"null","<span style='color:GreenYellow; font-size: 70px;'>正确! </span>","null","html-keyboard-response","122","232668","0.0-7.0-0.0-4.0-0.0-1.7","3","4","4","3","4","3","3","3","4","4","4","4","5","3","2","4","4","3","4","4","2","2","2","2","2","1","2","4","1","1","0","1","1","0","0","0","1","0","1","-1","0","1","0","1","4","3","4","2","2","1","2","2","1","2","635222761890906112","沈","","","","","","","","","","","","","","","","","","","","","","","","","","","","","","feedback_test","","","","","","","","","",""
"703","","j","psychophysics","123","234372","0.0-7.0-0.0-4.0-0.0-0.8","3","4","4","3","4","3","3","3","4","4","4","4","5","3","2","4","4","3","4","4","2","2","2","2","2","1","2","4","1","1","0","1","1","0","0","0","1","0","1","-1","0","1","0","1","4","3","4","2","2","1","2","2","1","2","635222761890906112","沈","","","","nonmatch","","","","","","","","","","","","","","key","j","16.66667326732647","640","396","j","true","nonmatch","img/circle.png","菱形","圆形","ALT1","formal_ALT1_1","","","","","","","","","",""
"null","<span style='color:GreenYellow; font-size: 70px;'>正确! </span>","null","html-keyboard-response","124","234874","0.0-7.0-0.0-4.0-0.0-1.8","3","4","4","3","4","3","3","3","4","4","4","4","5","3","2","4","4","3","4","4","2","2","2","2","2","1","2","4","1","1","0","1","1","0","0","0","1","0","1","-1","0","1","0","1","4","3","4","2","2","1","2","2","1","2","635222761890906112","沈","","","","","","","","","","","","","","","","","","","","","","","","","","","","","","feedback_test","","","","","","","","","",""
"688","","f","psychophysics","125","236563","0.0-7.0-0.0-4.0-0.0-0.9","3","4","4","3","4","3","3","3","4","4","4","4","5","3","2","4","4","3","4","4","2","2","2","2","2","1","2","4","1","1","0","1","1","0","0","0","1","0","1","-1","0","1","0","1","4","3","4","2","2","1","2","2","1","2","635222761890906112","沈","","","","match","","","","","","","","","","","","","","key","f","16.66785148514831","640","396","f","true","match","img/diamond.png","菱形","菱形","ALT1","formal_ALT1_1","","","","","","","","","",""
"null","<span style='color:GreenYellow; font-size: 70px;'>正确! </span>","null","html-keyboard-response","126","237065","0.0-7.0-0.0-4.0-0.0-1.9","3","4","4","3","4","3","3","3","4","4","4","4","5","3","2","4","4","3","4","4","2","2","2","2","2","1","2","4","1","1","0","1","1","0","0","0","1","0","1","-1","0","1","0","1","4","3","4","2","2","1","2","2","1","2","635222761890906112","沈","","","","","","","","","","","","","","","","","","","","","","","","","","","","","","feedback_test","","","","","","","","","",""
"664","","f","psychophysics","127","238730","0.0-7.0-0.0-4.0-0.0-0.10","3","4","4","3","4","3","3","3","4","4","4","4","5","3","2","4","4","3","4","4","2","2","2","2","2","1","2","4","1","1","0","1","1","0","0","0","1","0","1","-1","0","1","0","1","4","3","4","2","2","1","2","2","1","2","635222761890906112","沈","","","","match","","","","","","","","","","","","","","key","f","16.66599999999979","640","396","f","true","match","img/diamond.png","菱形","菱形","ALT1","formal_ALT1_1","","","","","","","","","",""
"null","<span style='color:GreenYellow; font-size: 70px;'>正确! </span>","null","html-keyboard-response","128","239231","0.0-7.0-0.0-4.0-0.0-1.10","3","4","4","3","4","3","3","3","4","4","4","4","5","3","2","4","4","3","4","4","2","2","2","2","2","1","2","4","1","1","0","1","1","0","0","0","1","0","1","-1","0","1","0","1","4","3","4","2","2","1","2","2","1","2","635222761890906112","沈","","","","","","","","","","","","","","","","","","","","","","","","","","","","","","feedback_test","","","","","","","","","",""
"688","","f","psychophysics","129","240920","0.0-7.0-0.0-4.0-0.0-0.11","3","4","4","3","4","3","3","3","4","4","4","4","5","3","2","4","4","3","4","4","2","2","2","2","2","1","2","4","1","1","0","1","1","0","0","0","1","0","1","-1","0","1","0","1","4","3","4","2","2","1","2","2","1","2","635222761890906112","沈","","","","match","","","","","","","","","","","","","","key","f","16.667109999999813","640","396","f","true","match","img/square.png","方形","方形","ALT1","formal_ALT1_1","","","","","","","","","",""
"null","<span style='color:GreenYellow; font-size: 70px;'>正确! </span>","null","html-keyboard-response","130","241421","0.0-7.0-0.0-4.0-0.0-1.11","3","4","4","3","4","3","3","3","4","4","4","4","5","3","2","4","4","3","4","4","2","2","2","2","2","1","2","4","1","1","0","1","1","0","0","0","1","0","1","-1","0","1","0","1","4","3","4","2","2","1","2","2","1","2","635222761890906112","沈","","","","","","","","","","","","","","","","","","","","","","","","","","","","","","feedback_test","","","","","","","","","",""
"562","","f","psychophysics","131","242984","0.0-7.0-0.0-4.0-0.0-0.12","3","4","4","3","4","3","3","3","4","4","4","4","5","3","2","4","4","3","4","4","2","2","2","2","2","1","2","4","1","1","0","1","1","0","0","0","1","0","1","-1","0","1","0","1","4","3","4","2","2","1","2","2","1","2","635222761890906112","沈","","","","match","","","","","","","","","","","","","","key","f","16.6655913978494","640","396","f","true","match","img/square.png","方形","方形","ALT1","formal_ALT1_1","","","","","","","","","",""
"null","<span style='color:GreenYellow; font-size: 70px;'>正确! </span>","null","html-keyboard-response","132","243485","0.0-7.0-0.0-4.0-0.0-1.12","3","4","4","3","4","3","3","3","4","4","4","4","5","3","2","4","4","3","4","4","2","2","2","2","2","1","2","4","1","1","0","1","1","0","0","0","1","0","1","-1","0","1","0","1","4","3","4","2","2","1","2","2","1","2","635222761890906112","沈","","","","","","","","","","","","","","","","","","","","","","","","","","","","","","feedback_test","","","","","","","","","",""
"650","","f","psychophysics","133","245136","0.0-7.0-0.0-4.0-0.0-0.13","3","4","4","3","4","3","3","3","4","4","4","4","5","3","2","4","4","3","4","4","2","2","2","2","2","1","2","4","1","1","0","1","1","0","0","0","1","0","1","-1","0","1","0","1","4","3","4","2","2","1","2","2","1","2","635222761890906112","沈","","","","match","","","","","","","","","","","","","","key","f","16.667734693877495","640","396","f","true","match","img/diamond.png","菱形","菱形","ALT1","formal_ALT1_1","","","","","","","","","",""
"null","<span style='color:GreenYellow; font-size: 70px;'>正确! </span>","null","html-keyboard-response","134","245637","0.0-7.0-0.0-4.0-0.0-1.13","3","4","4","3","4","3","3","3","4","4","4","4","5","3","2","4","4","3","4","4","2","2","2","2","2","1","2","4","1","1","0","1","1","0","0","0","1","0","1","-1","0","1","0","1","4","3","4","2","2","1","2","2","1","2","635222761890906112","沈","","","","","","","","","","","","","","","","","","","","","","","","","","","","","","feedback_test","","","","","","","","","",""
"754","","j","psychophysics","135","247393","0.0-7.0-0.0-4.0-0.0-0.14","3","4","4","3","4","3","3","3","4","4","4","4","5","3","2","4","4","3","4","4","2","2","2","2","2","1","2","4","1","1","0","1","1","0","0","0","1","0","1","-1","0","1","0","1","4","3","4","2","2","1","2","2","1","2","635222761890906112","沈","","","","nonmatch","","","","","","","","","","","","","","key","j","16.66863461538462","640","396","j","true","nonmatch","img/diamond.png","方形","菱形","ALT1","formal_ALT1_1","","","","","","","","","",""
"null","<span style='color:GreenYellow; font-size: 70px;'>正确! </span>","null","html-keyboard-response","136","247894","0.0-7.0-0.0-4.0-0.0-1.14","3","4","4","3","4","3","3","3","4","4","4","4","5","3","2","4","4","3","4","4","2","2","2","2","2","1","2","4","1","1","0","1","1","0","0","0","1","0","1","-1","0","1","0","1","4","3","4","2","2","1","2","2","1","2","635222761890906112","沈","","","","","","","","","","","","","","","","","","","","","","","","","","","","","","feedback_test","","","","","","","","","",""
"673","","f","psychophysics","137","249568","0.0-7.0-0.0-4.0-0.0-0.15","3","4","4","3","4","3","3","3","4","4","4","4","5","3","2","4","4","3","4","4","2","2","2","2","2","1","2","4","1","1","0","1","1","0","0","0","1","0","1","-1","0","1","0","1","4","3","4","2","2","1","2","2","1","2","635222761890906112","沈","","","","match","","","","","","","","","","","","","","key","f","16.66846464646479","640","396","f","true","match","img/pentagon.png","五边","五边","ALT1","formal_ALT1_1","","","","","","","","","",""
"null","<span style='color:GreenYellow; font-size: 70px;'>正确! </span>","null","html-keyboard-response","138","250069","0.0-7.0-0.0-4.0-0.0-1.15","3","4","4","3","4","3","3","3","4","4","4","4","5","3","2","4","4","3","4","4","2","2","2","2","2","1","2","4","1","1","0","1","1","0","0","0","1","0","1","-1","0","1","0","1","4","3","4","2","2","1","2","2","1","2","635222761890906112","沈","","","","","","","","","","","","","","","","","","","","","","","","","","","","","","feedback_test","","","","","","","","","",""
"680","","j","psychophysics","139","251751","0.0-7.0-0.0-4.0-0.0-0.16","3","4","4","3","4","3","3","3","4","4","4","4","5","3","2","4","4","3","4","4","2","2","2","2","2","1","2","4","1","1","0","1","1","0","0","0","1","0","1","-1","0","1","0","1","4","3","4","2","2","1","2","2","1","2","635222761890906112","沈","","","","nonmatch","","","","","","","","","","","","","","key","j","16.66701000000001","640","396","j","true","nonmatch","img/diamond.png","圆形","菱形","ALT1","formal_ALT1_1","","","","","","","","","",""
"null","<span style='color:GreenYellow; font-size: 70px;'>正确! </span>","null","html-keyboard-response","140","252252","0.0-7.0-0.0-4.0-0.0-1.16","3","4","4","3","4","3","3","3","4","4","4","4","5","3","2","4","4","3","4","4","2","2","2","2","2","1","2","4","1","1","0","1","1","0","0","0","1","0","1","-1","0","1","0","1","4","3","4","2","2","1","2","2","1","2","635222761890906112","沈","","","","","","","","","","","","","","","","","","","","","","","","","","","","","","feedback_test","","","","","","","","","",""
"659","","f","psychophysics","141","253914","0.0-7.0-0.0-4.0-0.0-0.17","3","4","4","3","4","3","3","3","4","4","4","4","5","3","2","4","4","3","4","4","2","2","2","2","2","1","2","4","1","1","0","1","1","0","0","0","1","0","1","-1","0","1","0","1","4","3","4","2","2","1","2","2","1","2","635222761890906112","沈","","","","match","","","","","","","","","","","","","","key","f","16.66648484848503","640","396","j","false","nonmatch","img/square.png","五边","方形","ALT1","formal_ALT1_1","","","","","","","","","",""
"null","<span style='color:red; font-size: 70px;'>错误! </span>","null","html-keyboard-response","142","254415","0.0-7.0-0.0-4.0-0.0-1.17","3","4","4","3","4","3","3","3","4","4","4","4","5","3","2","4","4","3","4","4","2","2","2","2","2","1","2","4","1","1","0","1","1","0","0","0","1","0","1","-1","0","1","0","1","4","3","4","2","2","1","2","2","1","2","635222761890906112","沈","","","","","","","","","","","","","","","","","","","","","","","","","","","","","","feedback_test","","","","","","","","","",""
"762","","j","psychophysics","143","256179","0.0-7.0-0.0-4.0-0.0-0.18","3","4","4","3","4","3","3","3","4","4","4","4","5","3","2","4","4","3","4","4","2","2","2","2","2","1","2","4","1","1","0","1","1","0","0","0","1","0","1","-1","0","1","0","1","4","3","4","2","2","1","2","2","1","2","635222761890906112","沈","","","","nonmatch","","","","","","","","","","","","","","key","j","16.666161904762046","640","396","j","true","nonmatch","img/diamond.png","五边","菱形","ALT1","formal_ALT1_1","","","","","","","","","",""
"null","<span style='color:GreenYellow; font-size: 70px;'>正确! </span>","null","html-keyboard-response","144","256680","0.0-7.0-0.0-4.0-0.0-1.18","3","4","4","3","4","3","3","3","4","4","4","4","5","3","2","4","4","3","4","4","2","2","2","2","2","1","2","4","1","1","0","1","1","0","0","0","1","0","1","-1","0","1","0","1","4","3","4","2","2","1","2","2","1","2","635222761890906112","沈","","","","","","","","","","","","","","","","","","","","","","","","","","","","","","feedback_test","","","","","","","","","",""
"825","","f","psychophysics","145","258508","0.0-7.0-0.0-4.0-0.0-0.19","3","4","4","3","4","3","3","3","4","4","4","4","5","3","2","4","4","3","4","4","2","2","2","2","2","1","2","4","1","1","0","1","1","0","0","0","1","0","1","-1","0","1","0","1","4","3","4","2","2","1","2","2","1","2","635222761890906112","沈","","","","match","","","","","","","","","","","","","","key","f","16.666861111111185","640","396","f","true","match","img/pentagon.png","五边","五边","ALT1","formal_ALT1_1","","","","","","","","","",""
"null","<span style='color:GreenYellow; font-size: 70px;'>正确! </span>","null","html-keyboard-response","146","259009","0.0-7.0-0.0-4.0-0.0-1.19","3","4","4","3","4","3","3","3","4","4","4","4","5","3","2","4","4","3","4","4","2","2","2","2","2","1","2","4","1","1","0","1","1","0","0","0","1","0","1","-1","0","1","0","1","4","3","4","2","2","1","2","2","1","2","635222761890906112","沈","","","","","","","","","","","","","","","","","","","","","","","","","","","","","","feedback_test","","","","","","","","","",""
"646","","j","psychophysics","147","260658","0.0-7.0-0.0-4.0-0.0-0.20","3","4","4","3","4","3","3","3","4","4","4","4","5","3","2","4","4","3","4","4","2","2","2","2","2","1","2","4","1","1","0","1","1","0","0","0","1","0","1","-1","0","1","0","1","4","3","4","2","2","1","2","2","1","2","635222761890906112","沈","","","","nonmatch","","","","","","","","","","","","","","key","j","16.666826530612116","640","396","j","true","nonmatch","img/square.png","圆形","方形","ALT1","formal_ALT1_1","","","","","","","","","",""
"null","<span style='color:GreenYellow; font-size: 70px;'>正确! </span>","null","html-keyboard-response","148","261159","0.0-7.0-0.0-4.0-0.0-1.20","3","4","4","3","4","3","3","3","4","4","4","4","5","3","2","4","4","3","4","4","2","2","2","2","2","1","2","4","1","1","0","1","1","0","0","0","1","0","1","-1","0","1","0","1","4","3","4","2","2","1","2","2","1","2","635222761890906112","沈","","","","","","","","","","","","","","","","","","","","","","","","","","","","","","feedback_test","","","","","","","","","",""
"588","","f","psychophysics","149","262748","0.0-7.0-0.0-4.0-0.0-0.21","3","4","4","3","4","3","3","3","4","4","4","4","5","3","2","4","4","3","4","4","2","2","2","2","2","1","2","4","1","1","0","1","1","0","0","0","1","0","1","-1","0","1","0","1","4","3","4","2","2","1","2","2","1","2","635222761890906112","沈","","","","match","","","","","","","","","","","","","","key","f","16.666915789473876","640","396","j","false","nonmatch","img/pentagon.png","菱形","五边","ALT1","formal_ALT1_1","","","","","","","","","",""
"null","<span style='color:red; font-size: 70px;'>错误! </span>","null","html-keyboard-response","150","263249","0.0-7.0-0.0-4.0-0.0-1.21","3","4","4","3","4","3","3","3","4","4","4","4","5","3","2","4","4","3","4","4","2","2","2","2","2","1","2","4","1","1","0","1","1","0","0","0","1","0","1","-1","0","1","0","1","4","3","4","2","2","1","2","2","1","2","635222761890906112","沈","","","","","","","","","","","","","","","","","","","","","","","","","","","","","","feedback_test","","","","","","","","","",""
"700","","j","psychophysics","151","264951","0.0-7.0-0.0-4.0-0.0-0.22","3","4","4","3","4","3","3","3","4","4","4","4","5","3","2","4","4","3","4","4","2","2","2","2","2","1","2","4","1","1","0","1","1","0","0","0","1","0","1","-1","0","1","0","1","4","3","4","2","2","1","2","2","1","2","635222761890906112","沈","","","","nonmatch","","","","","","","","","","","","","","key","j","16.664534653465513","640","396","j","true","nonmatch","img/pentagon.png","圆形","五边","ALT1","formal_ALT1_1","","","","","","","","","",""
"null","<span style='color:GreenYellow; font-size: 70px;'>正确! </span>","null","html-keyboard-response","152","265452","0.0-7.0-0.0-4.0-0.0-1.22","3","4","4","3","4","3","3","3","4","4","4","4","5","3","2","4","4","3","4","4","2","2","2","2","2","1","2","4","1","1","0","1","1","0","0","0","1","0","1","-1","0","1","0","1","4","3","4","2","2","1","2","2","1","2","635222761890906112","沈","","","","","","","","","","","","","","","","","","","","","","","","","","","","","","feedback_test","","","","","","","","","",""
"807","","f","psychophysics","153","267260","0.0-7.0-0.0-4.0-0.0-0.23","3","4","4","3","4","3","3","3","4","4","4","4","5","3","2","4","4","3","4","4","2","2","2","2","2","1","2","4","1","1","0","1","1","0","0","0","1","0","1","-1","0","1","0","1","4","3","4","2","2","1","2","2","1","2","635222761890906112","沈","","","","match","","","","","","","","","","","","","","key","f","16.66558878504667","640","396","f","true","match","img/pentagon.png","五边","五边","ALT1","formal_ALT1_1","","","","","","","","","",""
"null","<span style='color:GreenYellow; font-size: 70px;'>正确! </span>","null","html-keyboard-response","154","267761","0.0-7.0-0.0-4.0-0.0-1.23","3","4","4","3","4","3","3","3","4","4","4","4","5","3","2","4","4","3","4","4","2","2","2","2","2","1","2","4","1","1","0","1","1","0","0","0","1","0","1","-1","0","1","0","1","4","3","4","2","2","1","2","2","1","2","635222761890906112","沈","","","","","","","","","","","","","","","","","","","","","","","","","","","","","","feedback_test","","","","","","","","","",""
"737","","f","psychophysics","155","269500","0.0-7.0-0.0-4.0-0.0-0.24","3","4","4","3","4","3","3","3","4","4","4","4","5","3","2","4","4","3","4","4","2","2","2","2","2","1","2","4","1","1","0","1","1","0","0","0","1","0","1","-1","0","1","0","1","4","3","4","2","2","1","2","2","1","2","635222761890906112","沈","","","","match","","","","","","","","","","","","","","key","f","16.66709708737874","640","396","f","true","match","img/pentagon.png","五边","五边","ALT1","formal_ALT1_1","","","","","","","","","",""
"null","<span style='color:GreenYellow; font-size: 70px;'>正确! </span>","null","html-keyboard-response","156","270001","0.0-7.0-0.0-4.0-0.0-1.24","3","4","4","3","4","3","3","3","4","4","4","4","5","3","2","4","4","3","4","4","2","2","2","2","2","1","2","4","1","1","0","1","1","0","0","0","1","0","1","-1","0","1","0","1","4","3","4","2","2","1","2","2","1","2","635222761890906112","沈","","","","","","","","","","","","","","","","","","","","","","","","","","","","","","feedback_test","","","","","","","","","",""
"617","","j","psychophysics","157","271619","0.0-7.0-0.0-4.0-0.0-0.25","3","4","4","3","4","3","3","3","4","4","4","4","5","3","2","4","4","3","4","4","2","2","2","2","2","1","2","4","1","1","0","1","1","0","0","0","1","0","1","-1","0","1","0","1","4","3","4","2","2","1","2","2","1","2","635222761890906112","沈","","","","nonmatch","","","","","","","","","","","","","","key","j","16.666166666666566","640","396","j","true","nonmatch","img/circle.png","方形","圆形","ALT1","formal_ALT1_1","","","","","","","","","",""
"null","<span style='color:GreenYellow; font-size: 70px;'>正确! </span>","null","html-keyboard-response","158","272120","0.0-7.0-0.0-4.0-0.0-1.25","3","4","4","3","4","3","3","3","4","4","4","4","5","3","2","4","4","3","4","4","2","2","2","2","2","1","2","4","1","1","0","1","1","0","0","0","1","0","1","-1","0","1","0","1","4","3","4","2","2","1","2","2","1","2","635222761890906112","沈","","","","","","","","","","","","","","","","","","","","","","","","","","","","","","feedback_test","","","","","","","","","",""
"668","","j","psychophysics","159","273789","0.0-7.0-0.0-4.0-0.0-0.26","3","4","4","3","4","3","3","3","4","4","4","4","5","3","2","4","4","3","4","4","2","2","2","2","2","1","2","4","1","1","0","1","1","0","0","0","1","0","1","-1","0","1","0","1","4","3","4","2","2","1","2","2","1","2","635222761890906112","沈","","","","nonmatch","","","","","","","","","","","","","","key","j","16.668616161615862","640","396","j","true","nonmatch","img/square.png","菱形","方形","ALT1","formal_ALT1_1","","","","","","","","","",""
"null","<span style='color:GreenYellow; font-size: 70px;'>正确! </span>","null","html-keyboard-response","160","274291","0.0-7.0-0.0-4.0-0.0-1.26","3","4","4","3","4","3","3","3","4","4","4","4","5","3","2","4","4","3","4","4","2","2","2","2","2","1","2","4","1","1","0","1","1","0","0","0","1","0","1","-1","0","1","0","1","4","3","4","2","2","1","2","2","1","2","635222761890906112","沈","","","","","","","","","","","","","","","","","","","","","","","","","","","","","","feedback_test","","","","","","","","","",""
"989","","j","psychophysics","161","276281","0.0-7.0-0.0-4.0-0.0-0.27","3","4","4","3","4","3","3","3","4","4","4","4","5","3","2","4","4","3","4","4","2","2","2","2","2","1","2","4","1","1","0","1","1","0","0","0","1","0","1","-1","0","1","0","1","4","3","4","2","2","1","2","2","1","2","635222761890906112","沈","","","","nonmatch","","","","","","","","","","","","","","key","j","16.666890756302404","640","396","j","true","nonmatch","img/square.png","圆形","方形","ALT1","formal_ALT1_1","","","","","","","","","",""
"null","<span style='color:GreenYellow; font-size: 70px;'>正确! </span>","null","html-keyboard-response","162","276782","0.0-7.0-0.0-4.0-0.0-1.27","3","4","4","3","4","3","3","3","4","4","4","4","5","3","2","4","4","3","4","4","2","2","2","2","2","1","2","4","1","1","0","1","1","0","0","0","1","0","1","-1","0","1","0","1","4","3","4","2","2","1","2","2","1","2","635222761890906112","沈","","","","","","","","","","","","","","","","","","","","","","","","","","","","","","feedback_test","","","","","","","","","",""
"829","","f","psychophysics","163","278612","0.0-7.0-0.0-4.0-0.0-0.28","3","4","4","3","4","3","3","3","4","4","4","4","5","3","2","4","4","3","4","4","2","2","2","2","2","1","2","4","1","1","0","1","1","0","0","0","1","0","1","-1","0","1","0","1","4","3","4","2","2","1","2","2","1","2","635222761890906112","沈","","","","match","","","","","","","","","","","","","","key","f","16.667275229357866","640","396","f","true","match","img/square.png","方形","方形","ALT1","formal_ALT1_1","","","","","","","","","",""
"null","<span style='color:GreenYellow; font-size: 70px;'>正确! </span>","null","html-keyboard-response","164","279114","0.0-7.0-0.0-4.0-0.0-1.28","3","4","4","3","4","3","3","3","4","4","4","4","5","3","2","4","4","3","4","4","2","2","2","2","2","1","2","4","1","1","0","1","1","0","0","0","1","0","1","-1","0","1","0","1","4","3","4","2","2","1","2","2","1","2","635222761890906112","沈","","","","","","","","","","","","","","","","","","","","","","","","","","","","","","feedback_test","","","","","","","","","",""
"802","","j","psychophysics","165","280918","0.0-7.0-0.0-4.0-0.0-0.29","3","4","4","3","4","3","3","3","4","4","4","4","5","3","2","4","4","3","4","4","2","2","2","2","2","1","2","4","1","1","0","1","1","0","0","0","1","0","1","-1","0","1","0","1","4","3","4","2","2","1","2","2","1","2","635222761890906112","沈","","","","nonmatch","","","","","","","","","","","","","","key","j","16.66662616822455","640","396","j","true","nonmatch","img/diamond.png","五边","菱形","ALT1","formal_ALT1_1","","","","","","","","","",""
"null","<span style='color:GreenYellow; font-size: 70px;'>正确! </span>","null","html-keyboard-response","166","281420","0.0-7.0-0.0-4.0-0.0-1.29","3","4","4","3","4","3","3","3","4","4","4","4","5","3","2","4","4","3","4","4","2","2","2","2","2","1","2","4","1","1","0","1","1","0","0","0","1","0","1","-1","0","1","0","1","4","3","4","2","2","1","2","2","1","2","635222761890906112","沈","","","","","","","","","","","","","","","","","","","","","","","","","","","","","","feedback_test","","","","","","","","","",""
"1022","","j","psychophysics","167","283443","0.0-7.0-0.0-4.0-0.0-0.30","3","4","4","3","4","3","3","3","4","4","4","4","5","3","2","4","4","3","4","4","2","2","2","2","2","1","2","4","1","1","0","1","1","0","0","0","1","0","1","-1","0","1","0","1","4","3","4","2","2","1","2","2","1","2","635222761890906112","沈","","","","nonmatch","","","","","","","","","","","","","","key","j","16.66700833333307","640","396","j","true","nonmatch","img/pentagon.png","菱形","五边","ALT1","formal_ALT1_1","","","","","","","","","",""
"null","<span style='color:GreenYellow; font-size: 70px;'>正确! </span>","null","html-keyboard-response","168","283945","0.0-7.0-0.0-4.0-0.0-1.30","3","4","4","3","4","3","3","3","4","4","4","4","5","3","2","4","4","3","4","4","2","2","2","2","2","1","2","4","1","1","0","1","1","0","0","0","1","0","1","-1","0","1","0","1","4","3","4","2","2","1","2","2","1","2","635222761890906112","沈","","","","","","","","","","","","","","","","","","","","","","","","","","","","","","feedback_test","","","","","","","","","",""
"625","","f","psychophysics","169","285572","0.0-7.0-0.0-4.0-0.0-0.31","3","4","4","3","4","3","3","3","4","4","4","4","5","3","2","4","4","3","4","4","2","2","2","2","2","1","2","4","1","1","0","1","1","0","0","0","1","0","1","-1","0","1","0","1","4","3","4","2","2","1","2","2","1","2","635222761890906112","沈","","","","match","","","","","","","","","","","","","","key","f","16.667270833333532","640","396","f","true","match","img/pentagon.png","五边","五边","ALT1","formal_ALT1_1","","","","","","","","","",""
"null","<span style='color:GreenYellow; font-size: 70px;'>正确! </span>","null","html-keyboard-response","170","286073","0.0-7.0-0.0-4.0-0.0-1.31","3","4","4","3","4","3","3","3","4","4","4","4","5","3","2","4","4","3","4","4","2","2","2","2","2","1","2","4","1","1","0","1","1","0","0","0","1","0","1","-1","0","1","0","1","4","3","4","2","2","1","2","2","1","2","635222761890906112","沈","","","","","","","","","","","","","","","","","","","","","","","","","","","","","","feedback_test","","","","","","","","","",""
"636","","f","psychophysics","171","287711","0.0-7.0-0.0-4.0-0.0-0.32","3","4","4","3","4","3","3","3","4","4","4","4","5","3","2","4","4","3","4","4","2","2","2","2","2","1","2","4","1","1","0","1","1","0","0","0","1","0","1","-1","0","1","0","1","4","3","4","2","2","1","2","2","1","2","635222761890906112","沈","","","","match","","","","","","","","","","","","","","key","f","16.667295918367536","640","396","f","true","match","img/pentagon.png","五边","五边","ALT1","formal_ALT1_1","","","","","","","","","",""
"null","<span style='color:GreenYellow; font-size: 70px;'>正确! </span>","null","html-keyboard-response","172","288213","0.0-7.0-0.0-4.0-0.0-1.32","3","4","4","3","4","3","3","3","4","4","4","4","5","3","2","4","4","3","4","4","2","2","2","2","2","1","2","4","1","1","0","1","1","0","0","0","1","0","1","-1","0","1","0","1","4","3","4","2","2","1","2","2","1","2","635222761890906112","沈","","","","","","","","","","","","","","","","","","","","","","","","","","","","","","feedback_test","","","","","","","","","",""
"622","","j","psychophysics","173","289838","0.0-7.0-0.0-4.0-0.0-0.33","3","4","4","3","4","3","3","3","4","4","4","4","5","3","2","4","4","3","4","4","2","2","2","2","2","1","2","4","1","1","0","1","1","0","0","0","1","0","1","-1","0","1","0","1","4","3","4","2","2","1","2","2","1","2","635222761890906112","沈","","","","nonmatch","","","","","","","","","","","","","","key","j","16.66641666666692","640","396","j","true","nonmatch","img/circle.png","菱形","圆形","ALT1","formal_ALT1_1","","","","","","","","","",""
"null","<span style='color:GreenYellow; font-size: 70px;'>正确! </span>","null","html-keyboard-response","174","290338","0.0-7.0-0.0-4.0-0.0-1.33","3","4","4","3","4","3","3","3","4","4","4","4","5","3","2","4","4","3","4","4","2","2","2","2","2","1","2","4","1","1","0","1","1","0","0","0","1","0","1","-1","0","1","0","1","4","3","4","2","2","1","2","2","1","2","635222761890906112","沈","","","","","","","","","","","","","","","","","","","","","","","","","","","","","","feedback_test","","","","","","","","","",""
"598","","f","psychophysics","175","291938","0.0-7.0-0.0-4.0-0.0-0.34","3","4","4","3","4","3","3","3","4","4","4","4","5","3","2","4","4","3","4","4","2","2","2","2","2","1","2","4","1","1","0","1","1","0","0","0","1","0","1","-1","0","1","0","1","4","3","4","2","2","1","2","2","1","2","635222761890906112","沈","","","","match","","","","","","","","","","","","","","key","f","16.667052631579512","640","396","f","true","match","img/circle.png","圆形","圆形","ALT1","formal_ALT1_1","","","","","","","","","",""
"null","<span style='color:GreenYellow; font-size: 70px;'>正确! </span>","null","html-keyboard-response","176","292439","0.0-7.0-0.0-4.0-0.0-1.34","3","4","4","3","4","3","3","3","4","4","4","4","5","3","2","4","4","3","4","4","2","2","2","2","2","1","2","4","1","1","0","1","1","0","0","0","1","0","1","-1","0","1","0","1","4","3","4","2","2","1","2","2","1","2","635222761890906112","沈","","","","","","","","","","","","","","","","","","","","","","","","","","","","","","feedback_test","","","","","","","","","",""
"614","","f","psychophysics","177","294055","0.0-7.0-0.0-4.0-0.0-0.35","3","4","4","3","4","3","3","3","4","4","4","4","5","3","2","4","4","3","4","4","2","2","2","2","2","1","2","4","1","1","0","1","1","0","0","0","1","0","1","-1","0","1","0","1","4","3","4","2","2","1","2","2","1","2","635222761890906112","沈","","","","match","","","","","","","","","","","","","","key","f","16.66858333333342","640","396","f","true","match","img/square.png","方形","方形","ALT1","formal_ALT1_1","","","","","","","","","",""
"null","<span style='color:GreenYellow; font-size: 70px;'>正确! </span>","null","html-keyboard-response","178","294556","0.0-7.0-0.0-4.0-0.0-1.35","3","4","4","3","4","3","3","3","4","4","4","4","5","3","2","4","4","3","4","4","2","2","2","2","2","1","2","4","1","1","0","1","1","0","0","0","1","0","1","-1","0","1","0","1","4","3","4","2","2","1","2","2","1","2","635222761890906112","沈","","","","","","","","","","","","","","","","","","","","","","","","","","","","","","feedback_test","","","","","","","","","",""
"661","","f","psychophysics","179","296219","0.0-7.0-0.0-4.0-0.0-0.36","3","4","4","3","4","3","3","3","4","4","4","4","5","3","2","4","4","3","4","4","2","2","2","2","2","1","2","4","1","1","0","1","1","0","0","0","1","0","1","-1","0","1","0","1","4","3","4","2","2","1","2","2","1","2","635222761890906112","沈","","","","match","","","","","","","","","","","","","","key","f","16.66725252525213","640","396","f","true","match","img/diamond.png","菱形","菱形","ALT1","formal_ALT1_1","","","","","","","","","",""
"null","<span style='color:GreenYellow; font-size: 70px;'>正确! </span>","null","html-keyboard-response","180","296719","0.0-7.0-0.0-4.0-0.0-1.36","3","4","4","3","4","3","3","3","4","4","4","4","5","3","2","4","4","3","4","4","2","2","2","2","2","1","2","4","1","1","0","1","1","0","0","0","1","0","1","-1","0","1","0","1","4","3","4","2","2","1","2","2","1","2","635222761890906112","沈","","","","","","","","","","","","","","","","","","","","","","","","","","","","","","feedback_test","","","","","","","","","",""
"801","","j","psychophysics","181","298522","0.0-7.0-0.0-4.0-0.0-0.37","3","4","4","3","4","3","3","3","4","4","4","4","5","3","2","4","4","3","4","4","2","2","2","2","2","1","2","4","1","1","0","1","1","0","0","0","1","0","1","-1","0","1","0","1","4","3","4","2","2","1","2","2","1","2","635222761890906112","沈","","","","nonmatch","","","","","","","","","","","","","","key","j","16.666644859813136","640","396","j","true","nonmatch","img/diamond.png","方形","菱形","ALT1","formal_ALT1_1","","","","","","","","","",""
"null","<span style='color:GreenYellow; font-size: 70px;'>正确! </span>","null","html-keyboard-response","182","299024","0.0-7.0-0.0-4.0-0.0-1.37","3","4","4","3","4","3","3","3","4","4","4","4","5","3","2","4","4","3","4","4","2","2","2","2","2","1","2","4","1","1","0","1","1","0","0","0","1","0","1","-1","0","1","0","1","4","3","4","2","2","1","2","2","1","2","635222761890906112","沈","","","","","","","","","","","","","","","","","","","","","","","","","","","","","","feedback_test","","","","","","","","","",""
"495","","f","psychophysics","183","300520","0.0-7.0-0.0-4.0-0.0-0.38","3","4","4","3","4","3","3","3","4","4","4","4","5","3","2","4","4","3","4","4","2","2","2","2","2","1","2","4","1","1","0","1","1","0","0","0","1","0","1","-1","0","1","0","1","4","3","4","2","2","1","2","2","1","2","635222761890906112","沈","","","","match","","","","","","","","","","","","","","key","f","16.668179775280827","640","396","f","true","match","img/circle.png","圆形","圆形","ALT1","formal_ALT1_1","","","","","","","","","",""
"null","<span style='color:GreenYellow; font-size: 70px;'>正确! </span>","null","html-keyboard-response","184","301020","0.0-7.0-0.0-4.0-0.0-1.38","3","4","4","3","4","3","3","3","4","4","4","4","5","3","2","4","4","3","4","4","2","2","2","2","2","1","2","4","1","1","0","1","1","0","0","0","1","0","1","-1","0","1","0","1","4","3","4","2","2","1","2","2","1","2","635222761890906112","沈","","","","","","","","","","","","","","","","","","","","","","","","","","","","","","feedback_test","","","","","","","","","",""
"603","","j","psychophysics","185","302625","0.0-7.0-0.0-4.0-0.0-0.39","3","4","4","3","4","3","3","3","4","4","4","4","5","3","2","4","4","3","4","4","2","2","2","2","2","1","2","4","1","1","0","1","1","0","0","0","1","0","1","-1","0","1","0","1","4","3","4","2","2","1","2","2","1","2","635222761890906112","沈","","","","nonmatch","","","","","","","","","","","","","","key","j","16.66635789473688","640","396","j","true","nonmatch","img/diamond.png","圆形","菱形","ALT1","formal_ALT1_1","","","","","","","","","",""
"null","<span style='color:GreenYellow; font-size: 70px;'>正确! </span>","null","html-keyboard-response","186","303126","0.0-7.0-0.0-4.0-0.0-1.39","3","4","4","3","4","3","3","3","4","4","4","4","5","3","2","4","4","3","4","4","2","2","2","2","2","1","2","4","1","1","0","1","1","0","0","0","1","0","1","-1","0","1","0","1","4","3","4","2","2","1","2","2","1","2","635222761890906112","沈","","","","","","","","","","","","","","","","","","","","","","","","","","","","","","feedback_test","","","","","","","","","",""
"590","","f","psychophysics","187","304716","0.0-7.0-0.0-4.0-0.0-0.40","3","4","4","3","4","3","3","3","4","4","4","4","5","3","2","4","4","3","4","4","2","2","2","2","2","1","2","4","1","1","0","1","1","0","0","0","1","0","1","-1","0","1","0","1","4","3","4","2","2","1","2","2","1","2","635222761890906112","沈","","","","match","","","","","","","","","","","","","","key","f","16.503797872339998","640","396","f","true","match","img/circle.png","圆形","圆形","ALT1","formal_ALT1_1","","","","","","","","","",""
