"rt","stimulus","response","trial_type","trial_index","time_elapsed","internal_node_id","ses_1","ses_2","ses_3","ses_4","ses_5","ses_6","ses_7","ses_8","ses_9","ses_10","coreself_1","coreself_2","coreself_3","coreself_4","coreself_5","coreself_6","coreself_7","coreself_8","coreself_9","coreself_10","SGPS_1","SGPS_2","SGPS_3","SGPS_4","SGPS_5","SGPS_6","SGPS_7","SGPS_8","SGPS_9","NPI1","NPI2","NPI3","NPI4","NPI5","NPI6","NPI7","NPI8","NPI9","NPI10","NPI11","NPI12","NPI13","NPI14","NPI15","hsns_1","hsns_2","hsns_3","hsns_4","hsns_5","hsns_6","hsns_7","hsns_8","hsns_9","hsns_10","subj_idx","friend_name","value","success","user_agent","responses","item_order","radio_event_ids","radio_event_times","key_event_times","mouse_event_times","straightlining","zigzagging","honeypot","timeout","failed_images","failed_audio","failed_video","view_history","response_type","key_press","avg_frame_time","center_x","center_y","correct_response","correct","identity","Image","word","condition","task_id","screen_id","time_stamp","version_attrib","version_target","IAT","RT","varname","summary","version_attrib2","version_target2","question_order"
"2833","
   <p><div style = ""color: white;font-size:25px;"">您好，欢迎参加本次实验。</div> </p>
   <p><div style = ""color: white;font-size:25px;"">为充分保障您的权利，请确保您已经知晓并同意《参与实验同意书》以及《数据公开知情同意书》。</div></p>
   <p><div style = ""color: white;font-size:25px;"">如果您未见过上述内容，请咨询实验员。</div></p>
   <p><div style = ""color: white;font-size:25px;"">如果您选择继续实验，则表示您已经清楚两份知情同意书的内容并同意。</div></p>
   <p> <div style = ""color: green;font-size:25px;""><按空格键至下页></div> </p>
   "," ","html-keyboard-response","0","2837","0.0-0.0","4","4","4","4","4","4","4","4","4","4","5","5","4","5","5","5","5","4","5","5","1","1","1","1","1","1","2","5","1","0","1","0","0","0","0","0","1","0","0","-1","0","1","0","1","5","2","4","2","2","2","2","2","2","1","728341831389020160","李","","","","","","","","","","","","","","","","","","","","","","","","","","","","","","","","","","","","","","","",""
"","","","call-function","1","2840","0.0-1.0-0.0","4","4","4","4","4","4","4","4","4","4","5","5","4","5","5","5","5","4","5","5","1","1","1","1","1","1","2","5","1","0","1","0","0","0","0","0","1","0","0","-1","0","1","0","1","5","2","4","2","2","2","2","2","2","1","728341831389020160","李","","","","","","","","","","","","","","","","","","","","","","","","","","","","","","","","","","","","","","","",""
"14358","","{""friend_name"":""李""}","survey-html-form","2","17198","0.0-1.0-1.0","4","4","4","4","4","4","4","4","4","4","5","5","4","5","5","5","5","4","5","5","1","1","1","1","1","1","2","5","1","0","1","0","0","0","0","0","1","0","0","-1","0","1","0","1","5","2","4","2","2","2","2","2","2","1","728341831389020160","李","","","","","","","","","","","","","","","","","","","","","","","","","","","","","","","","","","","","","","","",""
"","","","fullscreen","3","27837","0.0-2.0","4","4","4","4","4","4","4","4","4","4","5","5","4","5","5","5","5","4","5","5","1","1","1","1","1","1","2","5","1","0","1","0","0","0","0","0","1","0","0","-1","0","1","0","1","5","2","4","2","2","2","2","2","2","1","728341831389020160","李","","true","{}","","","","","","","","","","","","","","","","","","","","","","","","","","","","","","","","","","","","",""
"21777.600000023842","","{""Q01"":""4"",""Q02"":""4"",""Q03"":""4"",""Q04"":""4"",""Q05"":""4"",""Q06"":""4"",""Q07"":""4"",""Q08"":""4"",""Q09"":""4"",""Q10"":""4""}","survey-template","4","49617","0.0-3.0","4","4","4","4","4","4","4","4","4","4","5","5","4","5","5","5","5","4","5","5","1","1","1","1","1","1","2","5","1","0","1","0","0","0","0","0","1","0","0","-1","0","1","0","1","5","2","4","2","2","2","2","2","2","1","728341831389020160","李","","","","{""Q01"":""4"",""Q02"":""4"",""Q03"":""4"",""Q04"":""4"",""Q05"":""4"",""Q06"":""4"",""Q07"":""4"",""Q08"":""4"",""Q09"":""4"",""Q10"":""4""}","[0,1,2,3,4,5,6,7,8,9]","[""Q01"",""Q02"",""Q03"",""Q04"",""Q05"",""Q06"",""Q07"",""Q08"",""Q09"",""Q10""]","[5152.600000023842,6542.800000011921,8399,9943.5,11695,12847.300000011921,13992.600000023842,16647.30000001192,17943.20000001788,19472.5]","[]","[4271.700000017881,5152.600000023842,6542.800000011921,8399,9943.5,11695,12847.300000011921,13992.600000023842,16647.30000001192,17943.20000001788,18743.90000000596,19472.5,21776.30000001192]","0.5","0.5555555555555556","0","","","","","","","","","","","","","","","","","","","","","","","","","","","",""
"28552.69999998808","","{""Q01"":""5"",""Q02"":""5"",""Q03"":""4"",""Q04"":""5"",""Q05"":""5"",""Q06"":""5"",""Q07"":""5"",""Q08"":""4"",""Q09"":""5"",""Q10"":""5""}","survey-template","5","78176","0.0-4.0","4","4","4","4","4","4","4","4","4","4","5","5","4","5","5","5","5","4","5","5","1","1","1","1","1","1","2","5","1","0","1","0","0","0","0","0","1","0","0","-1","0","1","0","1","5","2","4","2","2","2","2","2","2","1","728341831389020160","李","","","","{""Q01"":""5"",""Q02"":""5"",""Q03"":""4"",""Q04"":""5"",""Q05"":""5"",""Q06"":""5"",""Q07"":""5"",""Q08"":""4"",""Q09"":""5"",""Q10"":""5""}","[0,1,2,3,4,5,6,7,8,9]","[""Q01"",""Q02"",""Q03"",""Q04"",""Q05"",""Q06"",""Q07"",""Q08"",""Q09"",""Q10""]","[3031.7999999821186,5441.0999999940395,10343.799999982119,11679.899999976158,13872.899999976158,15312,18992.09999999404,24040,26240.899999976158,27536.79999998212]","[]","[39.89999997615814,3031.7999999821186,4951.699999988079,5441.0999999940395,10343.799999982119,11679.899999976158,13215.299999982119,13872.899999976158,15312,16864,18176.59999999404,18992.09999999404,24040,26240.899999976158,27536.79999998212,28551.399999976158]","0.4","0.7777777777777778","0","","","","","","","","","","","","","","","","","","","","","","","","","","","",""
"","","","preload","6","78626","0.0-5.0","4","4","4","4","4","4","4","4","4","4","5","5","4","5","5","5","5","4","5","5","1","1","1","1","1","1","2","5","1","0","1","0","0","0","0","0","1","0","0","-1","0","1","0","1","5","2","4","2","2","2","2","2","2","1","728341831389020160","李","","true","","","","","","","","","","","false","[]","[]","[]","","","","","","","","","","","","","","","","","","","","","","","",""
"10164","","","instructions","7","88791","0.0-6.0","4","4","4","4","4","4","4","4","4","4","5","5","4","5","5","5","5","4","5","5","1","1","1","1","1","1","2","5","1","0","1","0","0","0","0","0","1","0","0","-1","0","1","0","1","5","2","4","2","2","2","2","2","2","1","728341831389020160","李","","","","","","","","","","","","","","","","","[{""page_index"":0,""viewing_time"":10164}]","","","","","","","","","","","","","","","","","","","","","","",""
"17368","","","instructions","8","106160","0.0-7.0-0.0-0.0","4","4","4","4","4","4","4","4","4","4","5","5","4","5","5","5","5","4","5","5","1","1","1","1","1","1","2","5","1","0","1","0","0","0","0","0","1","0","0","-1","0","1","0","1","5","2","4","2","2","2","2","2","2","1","728341831389020160","李","","","","","","","","","","","","","","","","","[{""page_index"":0,""viewing_time"":8854},{""page_index"":1,""viewing_time"":5561},{""page_index"":2,""viewing_time"":2952}]","","","","","","","","","","","","","","","","","","","","","","",""
"null","","null","psychophysics","9","108368","0.0-7.0-0.0-1.0-0.0-0.0","4","4","4","4","4","4","4","4","4","4","5","5","4","5","5","5","5","4","5","5","1","1","1","1","1","1","2","5","1","0","1","0","0","0","0","0","1","0","0","-1","0","1","0","1","5","2","4","2","2","2","2","2","2","1","728341831389020160","李","","","","null","","","","","","","","","","","","","","key","null","16.674213740458015","768","428","j","false","nonmatch","img/triangle.png","六边","三角","ALT1_1","prac_ALT1_1","","","","","","","","","",""
"null","<span class='add_' style='color:yellow; font-size: 70px;'> 太慢! </span>","null","html-keyboard-response","10","108872","0.0-7.0-0.0-1.0-0.0-1.0","4","4","4","4","4","4","4","4","4","4","5","5","4","5","5","5","5","4","5","5","1","1","1","1","1","1","2","5","1","0","1","0","0","0","0","0","1","0","0","-1","0","1","0","1","5","2","4","2","2","2","2","2","2","1","728341831389020160","李","","","","","","","","","","","","","","","","","","","","","","","","","","","","","","feedback_test","","","","","","","","","",""
"847","","j","psychophysics","11","110723","0.0-7.0-0.0-1.0-0.0-0.1","4","4","4","4","4","4","4","4","4","4","5","5","4","5","5","5","5","4","5","5","1","1","1","1","1","1","2","5","1","0","1","0","0","0","0","0","1","0","0","-1","0","1","0","1","5","2","4","2","2","2","2","2","2","1","728341831389020160","李","","","","nonmatch","","","","","","","","","","","","","","key","j","16.67890909090916","768","428","f","false","match","img/ellipse.png","椭圆","椭圆","ALT1_1","prac_ALT1_1","","","","","","","","","",""
"null","<span style='color:red; font-size: 70px;'>错误! </span>","null","html-keyboard-response","12","111225","0.0-7.0-0.0-1.0-0.0-1.1","4","4","4","4","4","4","4","4","4","4","5","5","4","5","5","5","5","4","5","5","1","1","1","1","1","1","2","5","1","0","1","0","0","0","0","0","1","0","0","-1","0","1","0","1","5","2","4","2","2","2","2","2","2","1","728341831389020160","李","","","","","","","","","","","","","","","","","","","","","","","","","","","","","","feedback_test","","","","","","","","","",""
"563","","f","psychophysics","13","112790","0.0-7.0-0.0-1.0-0.0-0.2","4","4","4","4","4","4","4","4","4","4","5","5","4","5","5","5","5","4","5","5","1","1","1","1","1","1","2","5","1","0","1","0","0","0","0","0","1","0","0","-1","0","1","0","1","5","2","4","2","2","2","2","2","2","1","728341831389020160","李","","","","match","","","","","","","","","","","","","","key","f","16.672869565217496","768","428","j","false","nonmatch","img/ellipse.png","方形","椭圆","ALT1_1","prac_ALT1_1","","","","","","","","","",""
"null","<span style='color:red; font-size: 70px;'>错误! </span>","null","html-keyboard-response","14","113291","0.0-7.0-0.0-1.0-0.0-1.2","4","4","4","4","4","4","4","4","4","4","5","5","4","5","5","5","5","4","5","5","1","1","1","1","1","1","2","5","1","0","1","0","0","0","0","0","1","0","0","-1","0","1","0","1","5","2","4","2","2","2","2","2","2","1","728341831389020160","李","","","","","","","","","","","","","","","","","","","","","","","","","","","","","","feedback_test","","","","","","","","","",""
"355","","j","psychophysics","15","114649","0.0-7.0-0.0-1.0-0.0-0.3","4","4","4","4","4","4","4","4","4","4","5","5","4","5","5","5","5","4","5","5","1","1","1","1","1","1","2","5","1","0","1","0","0","0","0","0","1","0","0","-1","0","1","0","1","5","2","4","2","2","2","2","2","2","1","728341831389020160","李","","","","nonmatch","","","","","","","","","","","","","","key","j","16.673543209876552","768","428","f","false","match","img/hexagon.png","六边","六边","ALT1_1","prac_ALT1_1","","","","","","","","","",""
"null","<span style='color:red; font-size: 70px;'>错误! </span>","null","html-keyboard-response","16","115151","0.0-7.0-0.0-1.0-0.0-1.3","4","4","4","4","4","4","4","4","4","4","5","5","4","5","5","5","5","4","5","5","1","1","1","1","1","1","2","5","1","0","1","0","0","0","0","0","1","0","0","-1","0","1","0","1","5","2","4","2","2","2","2","2","2","1","728341831389020160","李","","","","","","","","","","","","","","","","","","","","","","","","","","","","","","feedback_test","","","","","","","","","",""
"357","","f","psychophysics","17","116510","0.0-7.0-0.0-1.0-0.0-0.4","4","4","4","4","4","4","4","4","4","4","5","5","4","5","5","5","5","4","5","5","1","1","1","1","1","1","2","5","1","0","1","0","0","0","0","0","1","0","0","-1","0","1","0","1","5","2","4","2","2","2","2","2","2","1","728341831389020160","李","","","","match","","","","","","","","","","","","","","key","f","16.673400000000036","768","428","j","false","nonmatch","img/triangle.png","方形","三角","ALT1_1","prac_ALT1_1","","","","","","","","","",""
"null","<span style='color:red; font-size: 70px;'>错误! </span>","null","html-keyboard-response","18","117012","0.0-7.0-0.0-1.0-0.0-1.4","4","4","4","4","4","4","4","4","4","4","5","5","4","5","5","5","5","4","5","5","1","1","1","1","1","1","2","5","1","0","1","0","0","0","0","0","1","0","0","-1","0","1","0","1","5","2","4","2","2","2","2","2","2","1","728341831389020160","李","","","","","","","","","","","","","","","","","","","","","","","","","","","","","","feedback_test","","","","","","","","","",""
"793","","j","psychophysics","19","118808","0.0-7.0-0.0-1.0-0.0-0.5","4","4","4","4","4","4","4","4","4","4","5","5","4","5","5","5","5","4","5","5","1","1","1","1","1","1","2","5","1","0","1","0","0","0","0","0","1","0","0","-1","0","1","0","1","5","2","4","2","2","2","2","2","2","1","728341831389020160","李","","","","nonmatch","","","","","","","","","","","","","","key","j","16.670867924528242","768","428","j","true","nonmatch","img/hexagon.png","方形","六边","ALT1_1","prac_ALT1_1","","","","","","","","","",""
"null","<span style='color:GreenYellow; font-size: 70px;'>正确! </span>","null","html-keyboard-response","20","119308","0.0-7.0-0.0-1.0-0.0-1.5","4","4","4","4","4","4","4","4","4","4","5","5","4","5","5","5","5","4","5","5","1","1","1","1","1","1","2","5","1","0","1","0","0","0","0","0","1","0","0","-1","0","1","0","1","5","2","4","2","2","2","2","2","2","1","728341831389020160","李","","","","","","","","","","","","","","","","","","","","","","","","","","","","","","feedback_test","","","","","","","","","",""
"557","","f","psychophysics","21","120868","0.0-7.0-0.0-1.0-0.0-0.6","4","4","4","4","4","4","4","4","4","4","5","5","4","5","5","5","5","4","5","5","1","1","1","1","1","1","2","5","1","0","1","0","0","0","0","0","1","0","0","-1","0","1","0","1","5","2","4","2","2","2","2","2","2","1","728341831389020160","李","","","","match","","","","","","","","","","","","","","key","f","16.674150537634368","768","428","j","false","nonmatch","img/square.png","六边","方形","ALT1_1","prac_ALT1_1","","","","","","","","","",""
"null","<span style='color:red; font-size: 70px;'>错误! </span>","null","html-keyboard-response","22","121370","0.0-7.0-0.0-1.0-0.0-1.6","4","4","4","4","4","4","4","4","4","4","5","5","4","5","5","5","5","4","5","5","1","1","1","1","1","1","2","5","1","0","1","0","0","0","0","0","1","0","0","-1","0","1","0","1","5","2","4","2","2","2","2","2","2","1","728341831389020160","李","","","","","","","","","","","","","","","","","","","","","","","","","","","","","","feedback_test","","","","","","","","","",""
"357","","j","psychophysics","23","122729","0.0-7.0-0.0-1.0-0.0-0.7","4","4","4","4","4","4","4","4","4","4","5","5","4","5","5","5","5","4","5","5","1","1","1","1","1","1","2","5","1","0","1","0","0","0","0","0","1","0","0","-1","0","1","0","1","5","2","4","2","2","2","2","2","2","1","728341831389020160","李","","","","nonmatch","","","","","","","","","","","","","","key","j","16.674249999999848","768","428","f","false","match","img/square.png","方形","方形","ALT1_1","prac_ALT1_1","","","","","","","","","",""
"null","<span style='color:red; font-size: 70px;'>错误! </span>","null","html-keyboard-response","24","123229","0.0-7.0-0.0-1.0-0.0-1.7","4","4","4","4","4","4","4","4","4","4","5","5","4","5","5","5","5","4","5","5","1","1","1","1","1","1","2","5","1","0","1","0","0","0","0","0","1","0","0","-1","0","1","0","1","5","2","4","2","2","2","2","2","2","1","728341831389020160","李","","","","","","","","","","","","","","","","","","","","","","","","","","","","","","feedback_test","","","","","","","","","",""
"370","","f","psychophysics","25","124601","0.0-7.0-0.0-1.0-0.0-0.8","4","4","4","4","4","4","4","4","4","4","5","5","4","5","5","5","5","4","5","5","1","1","1","1","1","1","2","5","1","0","1","0","0","0","0","0","1","0","0","-1","0","1","0","1","5","2","4","2","2","2","2","2","2","1","728341831389020160","李","","","","match","","","","","","","","","","","","","","key","f","16.63478048780483","768","428","f","true","match","img/hexagon.png","六边","六边","ALT1_1","prac_ALT1_1","","","","","","","","","",""
"null","<span style='color:GreenYellow; font-size: 70px;'>正确! </span>","null","html-keyboard-response","26","125103","0.0-7.0-0.0-1.0-0.0-1.8","4","4","4","4","4","4","4","4","4","4","5","5","4","5","5","5","5","4","5","5","1","1","1","1","1","1","2","5","1","0","1","0","0","0","0","0","1","0","0","-1","0","1","0","1","5","2","4","2","2","2","2","2","2","1","728341831389020160","李","","","","","","","","","","","","","","","","","","","","","","","","","","","","","","feedback_test","","","","","","","","","",""
"710","","j","psychophysics","27","126816","0.0-7.0-0.0-1.0-0.0-0.9","4","4","4","4","4","4","4","4","4","4","5","5","4","5","5","5","5","4","5","5","1","1","1","1","1","1","2","5","1","0","1","0","0","0","0","0","1","0","0","-1","0","1","0","1","5","2","4","2","2","2","2","2","2","1","728341831389020160","李","","","","nonmatch","","","","","","","","","","","","","","key","j","16.67906930693065","768","428","j","true","nonmatch","img/ellipse.png","三角","椭圆","ALT1_1","prac_ALT1_1","","","","","","","","","",""
"null","<span style='color:GreenYellow; font-size: 70px;'>正确! </span>","null","html-keyboard-response","28","127317","0.0-7.0-0.0-1.0-0.0-1.9","4","4","4","4","4","4","4","4","4","4","5","5","4","5","5","5","5","4","5","5","1","1","1","1","1","1","2","5","1","0","1","0","0","0","0","0","1","0","0","-1","0","1","0","1","5","2","4","2","2","2","2","2","2","1","728341831389020160","李","","","","","","","","","","","","","","","","","","","","","","","","","","","","","","feedback_test","","","","","","","","","",""
"595","","j","psychophysics","29","128913","0.0-7.0-0.0-1.0-0.0-0.10","4","4","4","4","4","4","4","4","4","4","5","5","4","5","5","5","5","4","5","5","1","1","1","1","1","1","2","5","1","0","1","0","0","0","0","0","1","0","0","-1","0","1","0","1","5","2","4","2","2","2","2","2","2","1","728341831389020160","李","","","","nonmatch","","","","","","","","","","","","","","key","j","16.673212765957516","768","428","f","false","match","img/triangle.png","三角","三角","ALT1_1","prac_ALT1_1","","","","","","","","","",""
"null","<span style='color:red; font-size: 70px;'>错误! </span>","null","html-keyboard-response","30","129429","0.0-7.0-0.0-1.0-0.0-1.10","4","4","4","4","4","4","4","4","4","4","5","5","4","5","5","5","5","4","5","5","1","1","1","1","1","1","2","5","1","0","1","0","0","0","0","0","1","0","0","-1","0","1","0","1","5","2","4","2","2","2","2","2","2","1","728341831389020160","李","","","","","","","","","","","","","","","","","","","","","","","","","","","","","","feedback_test","","","","","","","","","",""
"781","","j","psychophysics","31","131212","0.0-7.0-0.0-1.0-0.0-0.11","4","4","4","4","4","4","4","4","4","4","5","5","4","5","5","5","5","4","5","5","1","1","1","1","1","1","2","5","1","0","1","0","0","0","0","0","1","0","0","-1","0","1","0","1","5","2","4","2","2","2","2","2","2","1","728341831389020160","李","","","","nonmatch","","","","","","","","","","","","","","key","j","16.664462264151123","768","428","j","true","nonmatch","img/hexagon.png","三角","六边","ALT1_1","prac_ALT1_1","","","","","","","","","",""
"null","<span style='color:GreenYellow; font-size: 70px;'>正确! </span>","null","html-keyboard-response","32","131713","0.0-7.0-0.0-1.0-0.0-1.11","4","4","4","4","4","4","4","4","4","4","5","5","4","5","5","5","5","4","5","5","1","1","1","1","1","1","2","5","1","0","1","0","0","0","0","0","1","0","0","-1","0","1","0","1","5","2","4","2","2","2","2","2","2","1","728341831389020160","李","","","","","","","","","","","","","","","","","","","","","","","","","","","","","","feedback_test","","","","","","","","","",""
"774","","f","psychophysics","33","133490","0.0-7.0-0.0-1.0-0.0-0.12","4","4","4","4","4","4","4","4","4","4","5","5","4","5","5","5","5","4","5","5","1","1","1","1","1","1","2","5","1","0","1","0","0","0","0","0","1","0","0","-1","0","1","0","1","5","2","4","2","2","2","2","2","2","1","728341831389020160","李","","","","match","","","","","","","","","","","","","","key","f","16.66416981132077","768","428","f","true","match","img/triangle.png","三角","三角","ALT1_1","prac_ALT1_1","","","","","","","","","",""
"null","<span style='color:GreenYellow; font-size: 70px;'>正确! </span>","null","html-keyboard-response","34","133992","0.0-7.0-0.0-1.0-0.0-1.12","4","4","4","4","4","4","4","4","4","4","5","5","4","5","5","5","5","4","5","5","1","1","1","1","1","1","2","5","1","0","1","0","0","0","0","0","1","0","0","-1","0","1","0","1","5","2","4","2","2","2","2","2","2","1","728341831389020160","李","","","","","","","","","","","","","","","","","","","","","","","","","","","","","","feedback_test","","","","","","","","","",""
"744","","j","psychophysics","35","135748","0.0-7.0-0.0-1.0-0.0-0.13","4","4","4","4","4","4","4","4","4","4","5","5","4","5","5","5","5","4","5","5","1","1","1","1","1","1","2","5","1","0","1","0","0","0","0","0","1","0","0","-1","0","1","0","1","5","2","4","2","2","2","2","2","2","1","728341831389020160","李","","","","nonmatch","","","","","","","","","","","","","","key","j","16.67154807692322","768","428","j","true","nonmatch","img/hexagon.png","椭圆","六边","ALT1_1","prac_ALT1_1","","","","","","","","","",""
"null","<span style='color:GreenYellow; font-size: 70px;'>正确! </span>","null","html-keyboard-response","36","136249","0.0-7.0-0.0-1.0-0.0-1.13","4","4","4","4","4","4","4","4","4","4","5","5","4","5","5","5","5","4","5","5","1","1","1","1","1","1","2","5","1","0","1","0","0","0","0","0","1","0","0","-1","0","1","0","1","5","2","4","2","2","2","2","2","2","1","728341831389020160","李","","","","","","","","","","","","","","","","","","","","","","","","","","","","","","feedback_test","","","","","","","","","",""
"793","","j","psychophysics","37","138043","0.0-7.0-0.0-1.0-0.0-0.14","4","4","4","4","4","4","4","4","4","4","5","5","4","5","5","5","5","4","5","5","1","1","1","1","1","1","2","5","1","0","1","0","0","0","0","0","1","0","0","-1","0","1","0","1","5","2","4","2","2","2","2","2","2","1","728341831389020160","李","","","","nonmatch","","","","","","","","","","","","","","key","j","16.659878504672793","768","428","j","true","nonmatch","img/square.png","椭圆","方形","ALT1_1","prac_ALT1_1","","","","","","","","","",""
"null","<span style='color:GreenYellow; font-size: 70px;'>正确! </span>","null","html-keyboard-response","38","138545","0.0-7.0-0.0-1.0-0.0-1.14","4","4","4","4","4","4","4","4","4","4","5","5","4","5","5","5","5","4","5","5","1","1","1","1","1","1","2","5","1","0","1","0","0","0","0","0","1","0","0","-1","0","1","0","1","5","2","4","2","2","2","2","2","2","1","728341831389020160","李","","","","","","","","","","","","","","","","","","","","","","","","","","","","","","feedback_test","","","","","","","","","",""
"798","","f","psychophysics","39","140345","0.0-7.0-0.0-1.0-0.0-0.15","4","4","4","4","4","4","4","4","4","4","5","5","4","5","5","5","5","4","5","5","1","1","1","1","1","1","2","5","1","0","1","0","0","0","0","0","1","0","0","-1","0","1","0","1","5","2","4","2","2","2","2","2","2","1","728341831389020160","李","","","","match","","","","","","","","","","","","","","key","f","16.677186915887603","768","428","f","true","match","img/square.png","方形","方形","ALT1_1","prac_ALT1_1","","","","","","","","","",""
"null","<span style='color:GreenYellow; font-size: 70px;'>正确! </span>","null","html-keyboard-response","40","140847","0.0-7.0-0.0-1.0-0.0-1.15","4","4","4","4","4","4","4","4","4","4","5","5","4","5","5","5","5","4","5","5","1","1","1","1","1","1","2","5","1","0","1","0","0","0","0","0","1","0","0","-1","0","1","0","1","5","2","4","2","2","2","2","2","2","1","728341831389020160","李","","","","","","","","","","","","","","","","","","","","","","","","","","","","","","feedback_test","","","","","","","","","",""
"593","","f","psychophysics","41","142443","0.0-7.0-0.0-1.0-0.0-0.16","4","4","4","4","4","4","4","4","4","4","5","5","4","5","5","5","5","4","5","5","1","1","1","1","1","1","2","5","1","0","1","0","0","0","0","0","1","0","0","-1","0","1","0","1","5","2","4","2","2","2","2","2","2","1","728341831389020160","李","","","","match","","","","","","","","","","","","","","key","f","16.657221052631442","768","428","f","true","match","img/square.png","方形","方形","ALT1_1","prac_ALT1_1","","","","","","","","","",""
"null","<span style='color:GreenYellow; font-size: 70px;'>正确! </span>","null","html-keyboard-response","42","142944","0.0-7.0-0.0-1.0-0.0-1.16","4","4","4","4","4","4","4","4","4","4","5","5","4","5","5","5","5","4","5","5","1","1","1","1","1","1","2","5","1","0","1","0","0","0","0","0","1","0","0","-1","0","1","0","1","5","2","4","2","2","2","2","2","2","1","728341831389020160","李","","","","","","","","","","","","","","","","","","","","","","","","","","","","","","feedback_test","","","","","","","","","",""
"717","","f","psychophysics","43","144665","0.0-7.0-0.0-1.0-0.0-0.17","4","4","4","4","4","4","4","4","4","4","5","5","4","5","5","5","5","4","5","5","1","1","1","1","1","1","2","5","1","0","1","0","0","0","0","0","1","0","0","-1","0","1","0","1","5","2","4","2","2","2","2","2","2","1","728341831389020160","李","","","","match","","","","","","","","","","","","","","key","f","16.67203921568637","768","428","f","true","match","img/hexagon.png","六边","六边","ALT1_1","prac_ALT1_1","","","","","","","","","",""
"null","<span style='color:GreenYellow; font-size: 70px;'>正确! </span>","null","html-keyboard-response","44","145166","0.0-7.0-0.0-1.0-0.0-1.17","4","4","4","4","4","4","4","4","4","4","5","5","4","5","5","5","5","4","5","5","1","1","1","1","1","1","2","5","1","0","1","0","0","0","0","0","1","0","0","-1","0","1","0","1","5","2","4","2","2","2","2","2","2","1","728341831389020160","李","","","","","","","","","","","","","","","","","","","","","","","","","","","","","","feedback_test","","","","","","","","","",""
"614","","j","psychophysics","45","146782","0.0-7.0-0.0-1.0-0.0-0.18","4","4","4","4","4","4","4","4","4","4","5","5","4","5","5","5","5","4","5","5","1","1","1","1","1","1","2","5","1","0","1","0","0","0","0","0","1","0","0","-1","0","1","0","1","5","2","4","2","2","2","2","2","2","1","728341831389020160","李","","","","nonmatch","","","","","","","","","","","","","","key","j","16.674343749999935","768","428","j","true","nonmatch","img/square.png","三角","方形","ALT1_1","prac_ALT1_1","","","","","","","","","",""
"null","<span style='color:GreenYellow; font-size: 70px;'>正确! </span>","null","html-keyboard-response","46","147283","0.0-7.0-0.0-1.0-0.0-1.18","4","4","4","4","4","4","4","4","4","4","5","5","4","5","5","5","5","4","5","5","1","1","1","1","1","1","2","5","1","0","1","0","0","0","0","0","1","0","0","-1","0","1","0","1","5","2","4","2","2","2","2","2","2","1","728341831389020160","李","","","","","","","","","","","","","","","","","","","","","","","","","","","","","","feedback_test","","","","","","","","","",""
"795","","f","psychophysics","47","149079","0.0-7.0-0.0-1.0-0.0-0.19","4","4","4","4","4","4","4","4","4","4","5","5","4","5","5","5","5","4","5","5","1","1","1","1","1","1","2","5","1","0","1","0","0","0","0","0","1","0","0","-1","0","1","0","1","5","2","4","2","2","2","2","2","2","1","728341831389020160","李","","","","match","","","","","","","","","","","","","","key","f","16.673056074766286","768","428","f","true","match","img/ellipse.png","椭圆","椭圆","ALT1_1","prac_ALT1_1","","","","","","","","","",""
"null","<span style='color:GreenYellow; font-size: 70px;'>正确! </span>","null","html-keyboard-response","48","149581","0.0-7.0-0.0-1.0-0.0-1.19","4","4","4","4","4","4","4","4","4","4","5","5","4","5","5","5","5","4","5","5","1","1","1","1","1","1","2","5","1","0","1","0","0","0","0","0","1","0","0","-1","0","1","0","1","5","2","4","2","2","2","2","2","2","1","728341831389020160","李","","","","","","","","","","","","","","","","","","","","","","","","","","","","","","feedback_test","","","","","","","","","",""
"602","","f","psychophysics","49","151185","0.0-7.0-0.0-1.0-0.0-0.20","4","4","4","4","4","4","4","4","4","4","5","5","4","5","5","5","5","4","5","5","1","1","1","1","1","1","2","5","1","0","1","0","0","0","0","0","1","0","0","-1","0","1","0","1","5","2","4","2","2","2","2","2","2","1","728341831389020160","李","","","","match","","","","","","","","","","","","","","key","f","16.67552631578935","768","428","f","true","match","img/ellipse.png","椭圆","椭圆","ALT1_1","prac_ALT1_1","","","","","","","","","",""
"null","<span style='color:GreenYellow; font-size: 70px;'>正确! </span>","null","html-keyboard-response","50","151687","0.0-7.0-0.0-1.0-0.0-1.20","4","4","4","4","4","4","4","4","4","4","5","5","4","5","5","5","5","4","5","5","1","1","1","1","1","1","2","5","1","0","1","0","0","0","0","0","1","0","0","-1","0","1","0","1","5","2","4","2","2","2","2","2","2","1","728341831389020160","李","","","","","","","","","","","","","","","","","","","","","","","","","","","","","","feedback_test","","","","","","","","","",""
"676","","f","psychophysics","51","153366","0.0-7.0-0.0-1.0-0.0-0.21","4","4","4","4","4","4","4","4","4","4","5","5","4","5","5","5","5","4","5","5","1","1","1","1","1","1","2","5","1","0","1","0","0","0","0","0","1","0","0","-1","0","1","0","1","5","2","4","2","2","2","2","2","2","1","728341831389020160","李","","","","match","","","","","","","","","","","","","","key","f","16.679409999999915","768","428","f","true","match","img/triangle.png","三角","三角","ALT1_1","prac_ALT1_1","","","","","","","","","",""
"null","<span style='color:GreenYellow; font-size: 70px;'>正确! </span>","null","html-keyboard-response","52","153866","0.0-7.0-0.0-1.0-0.0-1.21","4","4","4","4","4","4","4","4","4","4","5","5","4","5","5","5","5","4","5","5","1","1","1","1","1","1","2","5","1","0","1","0","0","0","0","0","1","0","0","-1","0","1","0","1","5","2","4","2","2","2","2","2","2","1","728341831389020160","李","","","","","","","","","","","","","","","","","","","","","","","","","","","","","","feedback_test","","","","","","","","","",""
"771","","j","psychophysics","53","155639","0.0-7.0-0.0-1.0-0.0-0.22","4","4","4","4","4","4","4","4","4","4","5","5","4","5","5","5","5","4","5","5","1","1","1","1","1","1","2","5","1","0","1","0","0","0","0","0","1","0","0","-1","0","1","0","1","5","2","4","2","2","2","2","2","2","1","728341831389020160","李","","","","nonmatch","","","","","","","","","","","","","","key","j","16.674819047619046","768","428","j","true","nonmatch","img/triangle.png","椭圆","三角","ALT1_1","prac_ALT1_1","","","","","","","","","",""
"null","<span style='color:GreenYellow; font-size: 70px;'>正确! </span>","null","html-keyboard-response","54","156140","0.0-7.0-0.0-1.0-0.0-1.22","4","4","4","4","4","4","4","4","4","4","5","5","4","5","5","5","5","4","5","5","1","1","1","1","1","1","2","5","1","0","1","0","0","0","0","0","1","0","0","-1","0","1","0","1","5","2","4","2","2","2","2","2","2","1","728341831389020160","李","","","","","","","","","","","","","","","","","","","","","","","","","","","","","","feedback_test","","","","","","","","","",""
"756","","j","psychophysics","55","157898","0.0-7.0-0.0-1.0-0.0-0.23","4","4","4","4","4","4","4","4","4","4","5","5","4","5","5","5","5","4","5","5","1","1","1","1","1","1","2","5","1","0","1","0","0","0","0","0","1","0","0","-1","0","1","0","1","5","2","4","2","2","2","2","2","2","1","728341831389020160","李","","","","nonmatch","","","","","","","","","","","","","","key","j","16.670714285714453","768","428","j","true","nonmatch","img/ellipse.png","六边","椭圆","ALT1_1","prac_ALT1_1","","","","","","","","","",""
"null","<span style='color:GreenYellow; font-size: 70px;'>正确! </span>","null","html-keyboard-response","56","158413","0.0-7.0-0.0-1.0-0.0-1.23","4","4","4","4","4","4","4","4","4","4","5","5","4","5","5","5","5","4","5","5","1","1","1","1","1","1","2","5","1","0","1","0","0","0","0","0","1","0","0","-1","0","1","0","1","5","2","4","2","2","2","2","2","2","1","728341831389020160","李","","","","","","","","","","","","","","","","","","","","","","","","","","","","","","feedback_test","","","","","","","","","",""
"595","","f","psychophysics","57","160010","0.0-7.0-0.0-1.0-0.0-0.24","4","4","4","4","4","4","4","4","4","4","5","5","4","5","5","5","5","4","5","5","1","1","1","1","1","1","2","5","1","0","1","0","0","0","0","0","1","0","0","-1","0","1","0","1","5","2","4","2","2","2","2","2","2","1","728341831389020160","李","","","","match","","","","","","","","","","","","","","key","f","16.668085106383163","768","428","j","false","nonmatch","img/hexagon.png","方形","六边","ALT1_1","prac_ALT1_1","","","","","","","","","",""
"null","<span style='color:red; font-size: 70px;'>错误! </span>","null","html-keyboard-response","58","160511","0.0-7.0-0.0-1.0-0.0-1.24","4","4","4","4","4","4","4","4","4","4","5","5","4","5","5","5","5","4","5","5","1","1","1","1","1","1","2","5","1","0","1","0","0","0","0","0","1","0","0","-1","0","1","0","1","5","2","4","2","2","2","2","2","2","1","728341831389020160","李","","","","","","","","","","","","","","","","","","","","","","","","","","","","","","feedback_test","","","","","","","","","",""
"688","","f","psychophysics","59","162200","0.0-7.0-0.0-1.0-0.0-0.25","4","4","4","4","4","4","4","4","4","4","5","5","4","5","5","5","5","4","5","5","1","1","1","1","1","1","2","5","1","0","1","0","0","0","0","0","1","0","0","-1","0","1","0","1","5","2","4","2","2","2","2","2","2","1","728341831389020160","李","","","","match","","","","","","","","","","","","","","key","f","16.671280000000262","768","428","f","true","match","img/triangle.png","三角","三角","ALT1_1","prac_ALT1_1","","","","","","","","","",""
"null","<span style='color:GreenYellow; font-size: 70px;'>正确! </span>","null","html-keyboard-response","60","162702","0.0-7.0-0.0-1.0-0.0-1.25","4","4","4","4","4","4","4","4","4","4","5","5","4","5","5","5","5","4","5","5","1","1","1","1","1","1","2","5","1","0","1","0","0","0","0","0","1","0","0","-1","0","1","0","1","5","2","4","2","2","2","2","2","2","1","728341831389020160","李","","","","","","","","","","","","","","","","","","","","","","","","","","","","","","feedback_test","","","","","","","","","",""
"575","","f","psychophysics","61","164279","0.0-7.0-0.0-1.0-0.0-0.26","4","4","4","4","4","4","4","4","4","4","5","5","4","5","5","5","5","4","5","5","1","1","1","1","1","1","2","5","1","0","1","0","0","0","0","0","1","0","0","-1","0","1","0","1","5","2","4","2","2","2","2","2","2","1","728341831389020160","李","","","","match","","","","","","","","","","","","","","key","f","16.67224731182796","768","428","f","true","match","img/ellipse.png","椭圆","椭圆","ALT1_1","prac_ALT1_1","","","","","","","","","",""
"null","<span style='color:GreenYellow; font-size: 70px;'>正确! </span>","null","html-keyboard-response","62","164780","0.0-7.0-0.0-1.0-0.0-1.26","4","4","4","4","4","4","4","4","4","4","5","5","4","5","5","5","5","4","5","5","1","1","1","1","1","1","2","5","1","0","1","0","0","0","0","0","1","0","0","-1","0","1","0","1","5","2","4","2","2","2","2","2","2","1","728341831389020160","李","","","","","","","","","","","","","","","","","","","","","","","","","","","","","","feedback_test","","","","","","","","","",""
"793","","j","psychophysics","63","166575","0.0-7.0-0.0-1.0-0.0-0.27","4","4","4","4","4","4","4","4","4","4","5","5","4","5","5","5","5","4","5","5","1","1","1","1","1","1","2","5","1","0","1","0","0","0","0","0","1","0","0","-1","0","1","0","1","5","2","4","2","2","2","2","2","2","1","728341831389020160","李","","","","nonmatch","","","","","","","","","","","","","","key","j","16.66808490566047","768","428","j","true","nonmatch","img/triangle.png","六边","三角","ALT1_1","prac_ALT1_1","","","","","","","","","",""
"null","<span style='color:GreenYellow; font-size: 70px;'>正确! </span>","null","html-keyboard-response","64","167077","0.0-7.0-0.0-1.0-0.0-1.27","4","4","4","4","4","4","4","4","4","4","5","5","4","5","5","5","5","4","5","5","1","1","1","1","1","1","2","5","1","0","1","0","0","0","0","0","1","0","0","-1","0","1","0","1","5","2","4","2","2","2","2","2","2","1","728341831389020160","李","","","","","","","","","","","","","","","","","","","","","","","","","","","","","","feedback_test","","","","","","","","","",""
"820","","j","psychophysics","65","168899","0.0-7.0-0.0-1.0-0.0-0.28","4","4","4","4","4","4","4","4","4","4","5","5","4","5","5","5","5","4","5","5","1","1","1","1","1","1","2","5","1","0","1","0","0","0","0","0","1","0","0","-1","0","1","0","1","5","2","4","2","2","2","2","2","2","1","728341831389020160","李","","","","nonmatch","","","","","","","","","","","","","","key","j","16.67754629629619","768","428","f","false","match","img/square.png","方形","方形","ALT1_1","prac_ALT1_1","","","","","","","","","",""
"null","<span style='color:red; font-size: 70px;'>错误! </span>","null","html-keyboard-response","66","169401","0.0-7.0-0.0-1.0-0.0-1.28","4","4","4","4","4","4","4","4","4","4","5","5","4","5","5","5","5","4","5","5","1","1","1","1","1","1","2","5","1","0","1","0","0","0","0","0","1","0","0","-1","0","1","0","1","5","2","4","2","2","2","2","2","2","1","728341831389020160","李","","","","","","","","","","","","","","","","","","","","","","","","","","","","","","feedback_test","","","","","","","","","",""
"704","","f","psychophysics","67","171107","0.0-7.0-0.0-1.0-0.0-0.29","4","4","4","4","4","4","4","4","4","4","5","5","4","5","5","5","5","4","5","5","1","1","1","1","1","1","2","5","1","0","1","0","0","0","0","0","1","0","0","-1","0","1","0","1","5","2","4","2","2","2","2","2","2","1","728341831389020160","李","","","","match","","","","","","","","","","","","","","key","f","16.673891089108857","768","428","j","false","nonmatch","img/square.png","椭圆","方形","ALT1_1","prac_ALT1_1","","","","","","","","","",""
"null","<span style='color:red; font-size: 70px;'>错误! </span>","null","html-keyboard-response","68","171609","0.0-7.0-0.0-1.0-0.0-1.29","4","4","4","4","4","4","4","4","4","4","5","5","4","5","5","5","5","4","5","5","1","1","1","1","1","1","2","5","1","0","1","0","0","0","0","0","1","0","0","-1","0","1","0","1","5","2","4","2","2","2","2","2","2","1","728341831389020160","李","","","","","","","","","","","","","","","","","","","","","","","","","","","","","","feedback_test","","","","","","","","","",""
"737","","f","psychophysics","69","173355","0.0-7.0-0.0-1.0-0.0-0.30","4","4","4","4","4","4","4","4","4","4","5","5","4","5","5","5","5","4","5","5","1","1","1","1","1","1","2","5","1","0","1","0","0","0","0","0","1","0","0","-1","0","1","0","1","5","2","4","2","2","2","2","2","2","1","728341831389020160","李","","","","match","","","","","","","","","","","","","","key","f","16.67281730769229","768","428","f","true","match","img/triangle.png","三角","三角","ALT1_1","prac_ALT1_1","","","","","","","","","",""
"null","<span style='color:GreenYellow; font-size: 70px;'>正确! </span>","null","html-keyboard-response","70","173857","0.0-7.0-0.0-1.0-0.0-1.30","4","4","4","4","4","4","4","4","4","4","5","5","4","5","5","5","5","4","5","5","1","1","1","1","1","1","2","5","1","0","1","0","0","0","0","0","1","0","0","-1","0","1","0","1","5","2","4","2","2","2","2","2","2","1","728341831389020160","李","","","","","","","","","","","","","","","","","","","","","","","","","","","","","","feedback_test","","","","","","","","","",""
"1037","","j","psychophysics","71","175898","0.0-7.0-0.0-1.0-0.0-0.31","4","4","4","4","4","4","4","4","4","4","5","5","4","5","5","5","5","4","5","5","1","1","1","1","1","1","2","5","1","0","1","0","0","0","0","0","1","0","0","-1","0","1","0","1","5","2","4","2","2","2","2","2","2","1","728341831389020160","李","","","","nonmatch","","","","","","","","","","","","","","key","j","16.673867768595045","768","428","j","true","nonmatch","img/triangle.png","椭圆","三角","ALT1_1","prac_ALT1_1","","","","","","","","","",""
"null","<span style='color:GreenYellow; font-size: 70px;'>正确! </span>","null","html-keyboard-response","72","176399","0.0-7.0-0.0-1.0-0.0-1.31","4","4","4","4","4","4","4","4","4","4","5","5","4","5","5","5","5","4","5","5","1","1","1","1","1","1","2","5","1","0","1","0","0","0","0","0","1","0","0","-1","0","1","0","1","5","2","4","2","2","2","2","2","2","1","728341831389020160","李","","","","","","","","","","","","","","","","","","","","","","","","","","","","","","feedback_test","","","","","","","","","",""
"451","","f","psychophysics","73","177852","0.0-7.0-0.0-1.0-0.0-0.32","4","4","4","4","4","4","4","4","4","4","5","5","4","5","5","5","5","4","5","5","1","1","1","1","1","1","2","5","1","0","1","0","0","0","0","0","1","0","0","-1","0","1","0","1","5","2","4","2","2","2","2","2","2","1","728341831389020160","李","","","","match","","","","","","","","","","","","","","key","f","16.67538372093005","768","428","f","true","match","img/square.png","方形","方形","ALT1_1","prac_ALT1_1","","","","","","","","","",""
"null","<span style='color:GreenYellow; font-size: 70px;'>正确! </span>","null","html-keyboard-response","74","178365","0.0-7.0-0.0-1.0-0.0-1.32","4","4","4","4","4","4","4","4","4","4","5","5","4","5","5","5","5","4","5","5","1","1","1","1","1","1","2","5","1","0","1","0","0","0","0","0","1","0","0","-1","0","1","0","1","5","2","4","2","2","2","2","2","2","1","728341831389020160","李","","","","","","","","","","","","","","","","","","","","","","","","","","","","","","feedback_test","","","","","","","","","",""
"833","","j","psychophysics","75","180199","0.0-7.0-0.0-1.0-0.0-0.33","4","4","4","4","4","4","4","4","4","4","5","5","4","5","5","5","5","4","5","5","1","1","1","1","1","1","2","5","1","0","1","0","0","0","0","0","1","0","0","-1","0","1","0","1","5","2","4","2","2","2","2","2","2","1","728341831389020160","李","","","","nonmatch","","","","","","","","","","","","","","key","j","16.669311926605655","768","428","j","true","nonmatch","img/ellipse.png","方形","椭圆","ALT1_1","prac_ALT1_1","","","","","","","","","",""
"null","<span style='color:GreenYellow; font-size: 70px;'>正确! </span>","null","html-keyboard-response","76","180701","0.0-7.0-0.0-1.0-0.0-1.33","4","4","4","4","4","4","4","4","4","4","5","5","4","5","5","5","5","4","5","5","1","1","1","1","1","1","2","5","1","0","1","0","0","0","0","0","1","0","0","-1","0","1","0","1","5","2","4","2","2","2","2","2","2","1","728341831389020160","李","","","","","","","","","","","","","","","","","","","","","","","","","","","","","","feedback_test","","","","","","","","","",""
"745","","j","psychophysics","77","182447","0.0-7.0-0.0-1.0-0.0-0.34","4","4","4","4","4","4","4","4","4","4","5","5","4","5","5","5","5","4","5","5","1","1","1","1","1","1","2","5","1","0","1","0","0","0","0","0","1","0","0","-1","0","1","0","1","5","2","4","2","2","2","2","2","2","1","728341831389020160","李","","","","nonmatch","","","","","","","","","","","","","","key","j","16.67908653846154","768","428","j","true","nonmatch","img/ellipse.png","三角","椭圆","ALT1_1","prac_ALT1_1","","","","","","","","","",""
"null","<span style='color:GreenYellow; font-size: 70px;'>正确! </span>","null","html-keyboard-response","78","182950","0.0-7.0-0.0-1.0-0.0-1.34","4","4","4","4","4","4","4","4","4","4","5","5","4","5","5","5","5","4","5","5","1","1","1","1","1","1","2","5","1","0","1","0","0","0","0","0","1","0","0","-1","0","1","0","1","5","2","4","2","2","2","2","2","2","1","728341831389020160","李","","","","","","","","","","","","","","","","","","","","","","","","","","","","","","feedback_test","","","","","","","","","",""
"759","","j","psychophysics","79","184711","0.0-7.0-0.0-1.0-0.0-0.35","4","4","4","4","4","4","4","4","4","4","5","5","4","5","5","5","5","4","5","5","1","1","1","1","1","1","2","5","1","0","1","0","0","0","0","0","1","0","0","-1","0","1","0","1","5","2","4","2","2","2","2","2","2","1","728341831389020160","李","","","","nonmatch","","","","","","","","","","","","","","key","j","16.674971428571457","768","428","j","true","nonmatch","img/square.png","三角","方形","ALT1_1","prac_ALT1_1","","","","","","","","","",""
"null","<span style='color:GreenYellow; font-size: 70px;'>正确! </span>","null","html-keyboard-response","80","185213","0.0-7.0-0.0-1.0-0.0-1.35","4","4","4","4","4","4","4","4","4","4","5","5","4","5","5","5","5","4","5","5","1","1","1","1","1","1","2","5","1","0","1","0","0","0","0","0","1","0","0","-1","0","1","0","1","5","2","4","2","2","2","2","2","2","1","728341831389020160","李","","","","","","","","","","","","","","","","","","","","","","","","","","","","","","feedback_test","","","","","","","","","",""
"734","","j","psychophysics","81","186950","0.0-7.0-0.0-1.0-0.0-0.36","4","4","4","4","4","4","4","4","4","4","5","5","4","5","5","5","5","4","5","5","1","1","1","1","1","1","2","5","1","0","1","0","0","0","0","0","1","0","0","-1","0","1","0","1","5","2","4","2","2","2","2","2","2","1","728341831389020160","李","","","","nonmatch","","","","","","","","","","","","","","key","j","16.671640776699064","768","428","f","false","match","img/triangle.png","三角","三角","ALT1_1","prac_ALT1_1","","","","","","","","","",""
"null","<span style='color:red; font-size: 70px;'>错误! </span>","null","html-keyboard-response","82","187452","0.0-7.0-0.0-1.0-0.0-1.36","4","4","4","4","4","4","4","4","4","4","5","5","4","5","5","5","5","4","5","5","1","1","1","1","1","1","2","5","1","0","1","0","0","0","0","0","1","0","0","-1","0","1","0","1","5","2","4","2","2","2","2","2","2","1","728341831389020160","李","","","","","","","","","","","","","","","","","","","","","","","","","","","","","","feedback_test","","","","","","","","","",""
"856","","j","psychophysics","83","189310","0.0-7.0-0.0-1.0-0.0-0.37","4","4","4","4","4","4","4","4","4","4","5","5","4","5","5","5","5","4","5","5","1","1","1","1","1","1","2","5","1","0","1","0","0","0","0","0","1","0","0","-1","0","1","0","1","5","2","4","2","2","2","2","2","2","1","728341831389020160","李","","","","nonmatch","","","","","","","","","","","","","","key","j","16.672558558558382","768","428","j","true","nonmatch","img/hexagon.png","椭圆","六边","ALT1_1","prac_ALT1_1","","","","","","","","","",""
"null","<span style='color:GreenYellow; font-size: 70px;'>正确! </span>","null","html-keyboard-response","84","189812","0.0-7.0-0.0-1.0-0.0-1.37","4","4","4","4","4","4","4","4","4","4","5","5","4","5","5","5","5","4","5","5","1","1","1","1","1","1","2","5","1","0","1","0","0","0","0","0","1","0","0","-1","0","1","0","1","5","2","4","2","2","2","2","2","2","1","728341831389020160","李","","","","","","","","","","","","","","","","","","","","","","","","","","","","","","feedback_test","","","","","","","","","",""
"852","","j","psychophysics","85","191666","0.0-7.0-0.0-1.0-0.0-0.38","4","4","4","4","4","4","4","4","4","4","5","5","4","5","5","5","5","4","5","5","1","1","1","1","1","1","2","5","1","0","1","0","0","0","0","0","1","0","0","-1","0","1","0","1","5","2","4","2","2","2","2","2","2","1","728341831389020160","李","","","","nonmatch","","","","","","","","","","","","","","key","j","16.672554545454542","768","428","f","false","match","img/ellipse.png","椭圆","椭圆","ALT1_1","prac_ALT1_1","","","","","","","","","",""
"null","<span style='color:red; font-size: 70px;'>错误! </span>","null","html-keyboard-response","86","192167","0.0-7.0-0.0-1.0-0.0-1.38","4","4","4","4","4","4","4","4","4","4","5","5","4","5","5","5","5","4","5","5","1","1","1","1","1","1","2","5","1","0","1","0","0","0","0","0","1","0","0","-1","0","1","0","1","5","2","4","2","2","2","2","2","2","1","728341831389020160","李","","","","","","","","","","","","","","","","","","","","","","","","","","","","","","feedback_test","","","","","","","","","",""
"780","","j","psychophysics","87","193949","0.0-7.0-0.0-1.0-0.0-0.39","4","4","4","4","4","4","4","4","4","4","5","5","4","5","5","5","5","4","5","5","1","1","1","1","1","1","2","5","1","0","1","0","0","0","0","0","1","0","0","-1","0","1","0","1","5","2","4","2","2","2","2","2","2","1","728341831389020160","李","","","","nonmatch","","","","","","","","","","","","","","key","j","16.673896226415","768","428","j","true","nonmatch","img/square.png","六边","方形","ALT1_1","prac_ALT1_1","","","","","","","","","",""
"null","<span style='color:GreenYellow; font-size: 70px;'>正确! </span>","null","html-keyboard-response","88","194450","0.0-7.0-0.0-1.0-0.0-1.39","4","4","4","4","4","4","4","4","4","4","5","5","4","5","5","5","5","4","5","5","1","1","1","1","1","1","2","5","1","0","1","0","0","0","0","0","1","0","0","-1","0","1","0","1","5","2","4","2","2","2","2","2","2","1","728341831389020160","李","","","","","","","","","","","","","","","","","","","","","","","","","","","","","","feedback_test","","","","","","","","","",""
"669","","j","psychophysics","89","196120","0.0-7.0-0.0-1.0-0.0-0.40","4","4","4","4","4","4","4","4","4","4","5","5","4","5","5","5","5","4","5","5","1","1","1","1","1","1","2","5","1","0","1","0","0","0","0","0","1","0","0","-1","0","1","0","1","5","2","4","2","2","2","2","2","2","1","728341831389020160","李","","","","nonmatch","","","","","","","","","","","","","","key","j","16.673767676767763","768","428","j","true","nonmatch","img/hexagon.png","三角","六边","ALT1_1","prac_ALT1_1","","","","","","","","","",""
"null","<span style='color:GreenYellow; font-size: 70px;'>正确! </span>","null","html-keyboard-response","90","196621","0.0-7.0-0.0-1.0-0.0-1.40","4","4","4","4","4","4","4","4","4","4","5","5","4","5","5","5","5","4","5","5","1","1","1","1","1","1","2","5","1","0","1","0","0","0","0","0","1","0","0","-1","0","1","0","1","5","2","4","2","2","2","2","2","2","1","728341831389020160","李","","","","","","","","","","","","","","","","","","","","","","","","","","","","","","feedback_test","","","","","","","","","",""
"685","","f","psychophysics","91","198307","0.0-7.0-0.0-1.0-0.0-0.41","4","4","4","4","4","4","4","4","4","4","5","5","4","5","5","5","5","4","5","5","1","1","1","1","1","1","2","5","1","0","1","0","0","0","0","0","1","0","0","-1","0","1","0","1","5","2","4","2","2","2","2","2","2","1","728341831389020160","李","","","","match","","","","","","","","","","","","","","key","f","16.673649999999906","768","428","f","true","match","img/ellipse.png","椭圆","椭圆","ALT1_1","prac_ALT1_1","","","","","","","","","",""
"null","<span style='color:GreenYellow; font-size: 70px;'>正确! </span>","null","html-keyboard-response","92","198808","0.0-7.0-0.0-1.0-0.0-1.41","4","4","4","4","4","4","4","4","4","4","5","5","4","5","5","5","5","4","5","5","1","1","1","1","1","1","2","5","1","0","1","0","0","0","0","0","1","0","0","-1","0","1","0","1","5","2","4","2","2","2","2","2","2","1","728341831389020160","李","","","","","","","","","","","","","","","","","","","","","","","","","","","","","","feedback_test","","","","","","","","","",""
"635","","j","psychophysics","93","200444","0.0-7.0-0.0-1.0-0.0-0.42","4","4","4","4","4","4","4","4","4","4","5","5","4","5","5","5","5","4","5","5","1","1","1","1","1","1","2","5","1","0","1","0","0","0","0","0","1","0","0","-1","0","1","0","1","5","2","4","2","2","2","2","2","2","1","728341831389020160","李","","","","nonmatch","","","","","","","","","","","","","","key","j","16.67347422680402","768","428","j","true","nonmatch","img/triangle.png","方形","三角","ALT1_1","prac_ALT1_1","","","","","","","","","",""
"null","<span style='color:GreenYellow; font-size: 70px;'>正确! </span>","null","html-keyboard-response","94","200946","0.0-7.0-0.0-1.0-0.0-1.42","4","4","4","4","4","4","4","4","4","4","5","5","4","5","5","5","5","4","5","5","1","1","1","1","1","1","2","5","1","0","1","0","0","0","0","0","1","0","0","-1","0","1","0","1","5","2","4","2","2","2","2","2","2","1","728341831389020160","李","","","","","","","","","","","","","","","","","","","","","","","","","","","","","","feedback_test","","","","","","","","","",""
"798","","f","psychophysics","95","202746","0.0-7.0-0.0-1.0-0.0-0.43","4","4","4","4","4","4","4","4","4","4","5","5","4","5","5","5","5","4","5","5","1","1","1","1","1","1","2","5","1","0","1","0","0","0","0","0","1","0","0","-1","0","1","0","1","5","2","4","2","2","2","2","2","2","1","728341831389020160","李","","","","match","","","","","","","","","","","","","","key","f","16.673411214953205","768","428","f","true","match","img/hexagon.png","六边","六边","ALT1_1","prac_ALT1_1","","","","","","","","","",""
"null","<span style='color:GreenYellow; font-size: 70px;'>正确! </span>","null","html-keyboard-response","96","203247","0.0-7.0-0.0-1.0-0.0-1.43","4","4","4","4","4","4","4","4","4","4","5","5","4","5","5","5","5","4","5","5","1","1","1","1","1","1","2","5","1","0","1","0","0","0","0","0","1","0","0","-1","0","1","0","1","5","2","4","2","2","2","2","2","2","1","728341831389020160","李","","","","","","","","","","","","","","","","","","","","","","","","","","","","","","feedback_test","","","","","","","","","",""
"664","","f","psychophysics","97","204913","0.0-7.0-0.0-1.0-0.0-0.44","4","4","4","4","4","4","4","4","4","4","5","5","4","5","5","5","5","4","5","5","1","1","1","1","1","1","2","5","1","0","1","0","0","0","0","0","1","0","0","-1","0","1","0","1","5","2","4","2","2","2","2","2","2","1","728341831389020160","李","","","","match","","","","","","","","","","","","","","key","f","16.672153061224332","768","428","f","true","match","img/hexagon.png","六边","六边","ALT1_1","prac_ALT1_1","","","","","","","","","",""
"null","<span style='color:GreenYellow; font-size: 70px;'>正确! </span>","null","html-keyboard-response","98","205414","0.0-7.0-0.0-1.0-0.0-1.44","4","4","4","4","4","4","4","4","4","4","5","5","4","5","5","5","5","4","5","5","1","1","1","1","1","1","2","5","1","0","1","0","0","0","0","0","1","0","0","-1","0","1","0","1","5","2","4","2","2","2","2","2","2","1","728341831389020160","李","","","","","","","","","","","","","","","","","","","","","","","","","","","","","","feedback_test","","","","","","","","","",""
"605","","f","psychophysics","99","207021","0.0-7.0-0.0-1.0-0.0-0.45","4","4","4","4","4","4","4","4","4","4","5","5","4","5","5","5","5","4","5","5","1","1","1","1","1","1","2","5","1","0","1","0","0","0","0","0","1","0","0","-1","0","1","0","1","5","2","4","2","2","2","2","2","2","1","728341831389020160","李","","","","match","","","","","","","","","","","","","","key","f","16.67207368421062","768","428","f","true","match","img/hexagon.png","六边","六边","ALT1_1","prac_ALT1_1","","","","","","","","","",""
"null","<span style='color:GreenYellow; font-size: 70px;'>正确! </span>","null","html-keyboard-response","100","207522","0.0-7.0-0.0-1.0-0.0-1.45","4","4","4","4","4","4","4","4","4","4","5","5","4","5","5","5","5","4","5","5","1","1","1","1","1","1","2","5","1","0","1","0","0","0","0","0","1","0","0","-1","0","1","0","1","5","2","4","2","2","2","2","2","2","1","728341831389020160","李","","","","","","","","","","","","","","","","","","","","","","","","","","","","","","feedback_test","","","","","","","","","",""
"612","","f","psychophysics","101","209136","0.0-7.0-0.0-1.0-0.0-0.46","4","4","4","4","4","4","4","4","4","4","5","5","4","5","5","5","5","4","5","5","1","1","1","1","1","1","2","5","1","0","1","0","0","0","0","0","1","0","0","-1","0","1","0","1","5","2","4","2","2","2","2","2","2","1","728341831389020160","李","","","","match","","","","","","","","","","","","","","key","f","16.66910416666663","768","428","j","false","nonmatch","img/ellipse.png","六边","椭圆","ALT1_1","prac_ALT1_1","","","","","","","","","",""
"null","<span style='color:red; font-size: 70px;'>错误! </span>","null","html-keyboard-response","102","209637","0.0-7.0-0.0-1.0-0.0-1.46","4","4","4","4","4","4","4","4","4","4","5","5","4","5","5","5","5","4","5","5","1","1","1","1","1","1","2","5","1","0","1","0","0","0","0","0","1","0","0","-1","0","1","0","1","5","2","4","2","2","2","2","2","2","1","728341831389020160","李","","","","","","","","","","","","","","","","","","","","","","","","","","","","","","feedback_test","","","","","","","","","",""
"568","","f","psychophysics","103","211208","0.0-7.0-0.0-1.0-0.0-0.47","4","4","4","4","4","4","4","4","4","4","5","5","4","5","5","5","5","4","5","5","1","1","1","1","1","1","2","5","1","0","1","0","0","0","0","0","1","0","0","-1","0","1","0","1","5","2","4","2","2","2","2","2","2","1","728341831389020160","李","","","","match","","","","","","","","","","","","","","key","f","16.673946236559097","768","428","f","true","match","img/square.png","方形","方形","ALT1_1","prac_ALT1_1","","","","","","","","","",""
"null","<span style='color:GreenYellow; font-size: 70px;'>正确! </span>","null","html-keyboard-response","104","211710","0.0-7.0-0.0-1.0-0.0-1.47","4","4","4","4","4","4","4","4","4","4","5","5","4","5","5","5","5","4","5","5","1","1","1","1","1","1","2","5","1","0","1","0","0","0","0","0","1","0","0","-1","0","1","0","1","5","2","4","2","2","2","2","2","2","1","728341831389020160","李","","","","","","","","","","","","","","","","","","","","","","","","","","","","","","feedback_test","","","","","","","","","",""
"4790","<style>.context{color:white; font-size: 35px; line-height:40px}</style>                            <div><p class='context'>您正确回答了71% 的试次。</p><p class='context'>您的平均反应时为711毫秒。</p><p class='context'>恭喜您完成练习。按空格键进入正式实验。</p><p class='footer' style='font-size: 35px; line-height:40px;'>请在进入正式实验实验之前将您的<span style='color: lightgreen;'>食指</span>放在电脑键盘的相应键位上进行按键。</p>"," ","html-keyboard-response","105","216505","0.0-7.0-0.0-2.0","4","4","4","4","4","4","4","4","4","4","5","5","4","5","5","5","5","4","5","5","1","1","1","1","1","1","2","5","1","0","1","0","0","0","0","0","1","0","0","-1","0","1","0","1","5","2","4","2","2","2","2","2","2","1","728341831389020160","李","","","","","","","","","","","","","","","","","","","","","","","","","","","","","","","","","","","","","","","",""
"1612","
    <p>请您将手指放在按键上，准备进入正式的匹配任务。</p>
    <p> <div style = ""color: green""><按空格键进入下一阶段的匹配任务></div></p>
    "," ","html-keyboard-response","106","218122","0.0-7.0-0.0-3.0","4","4","4","4","4","4","4","4","4","4","5","5","4","5","5","5","5","4","5","5","1","1","1","1","1","1","2","5","1","0","1","0","0","0","0","0","1","0","0","-1","0","1","0","1","5","2","4","2","2","2","2","2","2","1","728341831389020160","李","","","","","","","","","","","","","","","","","","","","","","","","","","","","","","","","","","","","","","","",""
"654","","f","psychophysics","107","219777","0.0-7.0-0.0-4.0-0.0-0.0","4","4","4","4","4","4","4","4","4","4","5","5","4","5","5","5","5","4","5","5","1","1","1","1","1","1","2","5","1","0","1","0","0","0","0","0","1","0","0","-1","0","1","0","1","5","2","4","2","2","2","2","2","2","1","728341831389020160","李","","","","match","","","","","","","","","","","","","","key","f","16.677326530612213","768","428","f","true","match","img/triangle.png","三角","三角","ALT1","formal_ALT1_1","","","","","","","","","",""
"null","<span style='color:GreenYellow; font-size: 70px;'>正确! </span>","null","html-keyboard-response","108","220279","0.0-7.0-0.0-4.0-0.0-1.0","4","4","4","4","4","4","4","4","4","4","5","5","4","5","5","5","5","4","5","5","1","1","1","1","1","1","2","5","1","0","1","0","0","0","0","0","1","0","0","-1","0","1","0","1","5","2","4","2","2","2","2","2","2","1","728341831389020160","李","","","","","","","","","","","","","","","","","","","","","","","","","","","","","","feedback_test","","","","","","","","","",""
"611","","f","psychophysics","109","221892","0.0-7.0-0.0-4.0-0.0-0.1","4","4","4","4","4","4","4","4","4","4","5","5","4","5","5","5","5","4","5","5","1","1","1","1","1","1","2","5","1","0","1","0","0","0","0","0","1","0","0","-1","0","1","0","1","5","2","4","2","2","2","2","2","2","1","728341831389020160","李","","","","match","","","","","","","","","","","","","","key","f","16.67202083333359","768","428","f","true","match","img/ellipse.png","椭圆","椭圆","ALT1","formal_ALT1_1","","","","","","","","","",""
"null","<span style='color:GreenYellow; font-size: 70px;'>正确! </span>","null","html-keyboard-response","110","222394","0.0-7.0-0.0-4.0-0.0-1.1","4","4","4","4","4","4","4","4","4","4","5","5","4","5","5","5","5","4","5","5","1","1","1","1","1","1","2","5","1","0","1","0","0","0","0","0","1","0","0","-1","0","1","0","1","5","2","4","2","2","2","2","2","2","1","728341831389020160","李","","","","","","","","","","","","","","","","","","","","","","","","","","","","","","feedback_test","","","","","","","","","",""
"547","","f","psychophysics","111","223944","0.0-7.0-0.0-4.0-0.0-0.2","4","4","4","4","4","4","4","4","4","4","5","5","4","5","5","5","5","4","5","5","1","1","1","1","1","1","2","5","1","0","1","0","0","0","0","0","1","0","0","-1","0","1","0","1","5","2","4","2","2","2","2","2","2","1","728341831389020160","李","","","","match","","","","","","","","","","","","","","key","f","16.677913043478444","768","428","f","true","match","img/hexagon.png","六边","六边","ALT1","formal_ALT1_1","","","","","","","","","",""
"null","<span style='color:GreenYellow; font-size: 70px;'>正确! </span>","null","html-keyboard-response","112","224461","0.0-7.0-0.0-4.0-0.0-1.2","4","4","4","4","4","4","4","4","4","4","5","5","4","5","5","5","5","4","5","5","1","1","1","1","1","1","2","5","1","0","1","0","0","0","0","0","1","0","0","-1","0","1","0","1","5","2","4","2","2","2","2","2","2","1","728341831389020160","李","","","","","","","","","","","","","","","","","","","","","","","","","","","","","","feedback_test","","","","","","","","","",""
"428","","f","psychophysics","113","225891","0.0-7.0-0.0-4.0-0.0-0.3","4","4","4","4","4","4","4","4","4","4","5","5","4","5","5","5","5","4","5","5","1","1","1","1","1","1","2","5","1","0","1","0","0","0","0","0","1","0","0","-1","0","1","0","1","5","2","4","2","2","2","2","2","2","1","728341831389020160","李","","","","match","","","","","","","","","","","","","","key","f","16.68059999999994","768","428","f","true","match","img/ellipse.png","椭圆","椭圆","ALT1","formal_ALT1_1","","","","","","","","","",""
"null","<span style='color:GreenYellow; font-size: 70px;'>正确! </span>","null","html-keyboard-response","114","226393","0.0-7.0-0.0-4.0-0.0-1.3","4","4","4","4","4","4","4","4","4","4","5","5","4","5","5","5","5","4","5","5","1","1","1","1","1","1","2","5","1","0","1","0","0","0","0","0","1","0","0","-1","0","1","0","1","5","2","4","2","2","2","2","2","2","1","728341831389020160","李","","","","","","","","","","","","","","","","","","","","","","","","","","","","","","feedback_test","","","","","","","","","",""
"375","","f","psychophysics","115","227769","0.0-7.0-0.0-4.0-0.0-0.4","4","4","4","4","4","4","4","4","4","4","5","5","4","5","5","5","5","4","5","5","1","1","1","1","1","1","2","5","1","0","1","0","0","0","0","0","1","0","0","-1","0","1","0","1","5","2","4","2","2","2","2","2","2","1","728341831389020160","李","","","","match","","","","","","","","","","","","","","key","f","16.673691358024552","768","428","f","true","match","img/square.png","方形","方形","ALT1","formal_ALT1_1","","","","","","","","","",""
"null","<span style='color:GreenYellow; font-size: 70px;'>正确! </span>","null","html-keyboard-response","116","228271","0.0-7.0-0.0-4.0-0.0-1.4","4","4","4","4","4","4","4","4","4","4","5","5","4","5","5","5","5","4","5","5","1","1","1","1","1","1","2","5","1","0","1","0","0","0","0","0","1","0","0","-1","0","1","0","1","5","2","4","2","2","2","2","2","2","1","728341831389020160","李","","","","","","","","","","","","","","","","","","","","","","","","","","","","","","feedback_test","","","","","","","","","",""
"678","","j","psychophysics","117","229952","0.0-7.0-0.0-4.0-0.0-0.5","4","4","4","4","4","4","4","4","4","4","5","5","4","5","5","5","5","4","5","5","1","1","1","1","1","1","2","5","1","0","1","0","0","0","0","0","1","0","0","-1","0","1","0","1","5","2","4","2","2","2","2","2","2","1","728341831389020160","李","","","","nonmatch","","","","","","","","","","","","","","key","j","16.673282828282815","768","428","j","true","nonmatch","img/triangle.png","椭圆","三角","ALT1","formal_ALT1_1","","","","","","","","","",""
"null","<span style='color:GreenYellow; font-size: 70px;'>正确! </span>","null","html-keyboard-response","118","230453","0.0-7.0-0.0-4.0-0.0-1.5","4","4","4","4","4","4","4","4","4","4","5","5","4","5","5","5","5","4","5","5","1","1","1","1","1","1","2","5","1","0","1","0","0","0","0","0","1","0","0","-1","0","1","0","1","5","2","4","2","2","2","2","2","2","1","728341831389020160","李","","","","","","","","","","","","","","","","","","","","","","","","","","","","","","feedback_test","","","","","","","","","",""
"743","","j","psychophysics","119","232199","0.0-7.0-0.0-4.0-0.0-0.6","4","4","4","4","4","4","4","4","4","4","5","5","4","5","5","5","5","4","5","5","1","1","1","1","1","1","2","5","1","0","1","0","0","0","0","0","1","0","0","-1","0","1","0","1","5","2","4","2","2","2","2","2","2","1","728341831389020160","李","","","","nonmatch","","","","","","","","","","","","","","key","j","16.678980769230783","768","428","j","true","nonmatch","img/square.png","椭圆","方形","ALT1","formal_ALT1_1","","","","","","","","","",""
"null","<span style='color:GreenYellow; font-size: 70px;'>正确! </span>","null","html-keyboard-response","120","232700","0.0-7.0-0.0-4.0-0.0-1.6","4","4","4","4","4","4","4","4","4","4","5","5","4","5","5","5","5","4","5","5","1","1","1","1","1","1","2","5","1","0","1","0","0","0","0","0","1","0","0","-1","0","1","0","1","5","2","4","2","2","2","2","2","2","1","728341831389020160","李","","","","","","","","","","","","","","","","","","","","","","","","","","","","","","feedback_test","","","","","","","","","",""
"588","","f","psychophysics","121","234290","0.0-7.0-0.0-4.0-0.0-0.7","4","4","4","4","4","4","4","4","4","4","5","5","4","5","5","5","5","4","5","5","1","1","1","1","1","1","2","5","1","0","1","0","0","0","0","0","1","0","0","-1","0","1","0","1","5","2","4","2","2","2","2","2","2","1","728341831389020160","李","","","","match","","","","","","","","","","","","","","key","f","16.661361702127714","768","428","f","true","match","img/hexagon.png","六边","六边","ALT1","formal_ALT1_1","","","","","","","","","",""
"null","<span style='color:GreenYellow; font-size: 70px;'>正确! </span>","null","html-keyboard-response","122","234792","0.0-7.0-0.0-4.0-0.0-1.7","4","4","4","4","4","4","4","4","4","4","5","5","4","5","5","5","5","4","5","5","1","1","1","1","1","1","2","5","1","0","1","0","0","0","0","0","1","0","0","-1","0","1","0","1","5","2","4","2","2","2","2","2","2","1","728341831389020160","李","","","","","","","","","","","","","","","","","","","","","","","","","","","","","","feedback_test","","","","","","","","","",""
"601","","f","psychophysics","123","236395","0.0-7.0-0.0-4.0-0.0-0.8","4","4","4","4","4","4","4","4","4","4","5","5","4","5","5","5","5","4","5","5","1","1","1","1","1","1","2","5","1","0","1","0","0","0","0","0","1","0","0","-1","0","1","0","1","5","2","4","2","2","2","2","2","2","1","728341831389020160","李","","","","match","","","","","","","","","","","","","","key","f","16.66741052631589","768","428","f","true","match","img/hexagon.png","六边","六边","ALT1","formal_ALT1_1","","","","","","","","","",""
"null","<span style='color:GreenYellow; font-size: 70px;'>正确! </span>","null","html-keyboard-response","124","236897","0.0-7.0-0.0-4.0-0.0-1.8","4","4","4","4","4","4","4","4","4","4","5","5","4","5","5","5","5","4","5","5","1","1","1","1","1","1","2","5","1","0","1","0","0","0","0","0","1","0","0","-1","0","1","0","1","5","2","4","2","2","2","2","2","2","1","728341831389020160","李","","","","","","","","","","","","","","","","","","","","","","","","","","","","","","feedback_test","","","","","","","","","",""
"620","","f","psychophysics","125","238520","0.0-7.0-0.0-4.0-0.0-0.9","4","4","4","4","4","4","4","4","4","4","5","5","4","5","5","5","5","4","5","5","1","1","1","1","1","1","2","5","1","0","1","0","0","0","0","0","1","0","0","-1","0","1","0","1","5","2","4","2","2","2","2","2","2","1","728341831389020160","李","","","","match","","","","","","","","","","","","","","key","f","16.662645833333347","768","428","f","true","match","img/square.png","方形","方形","ALT1","formal_ALT1_1","","","","","","","","","",""
"null","<span style='color:GreenYellow; font-size: 70px;'>正确! </span>","null","html-keyboard-response","126","239022","0.0-7.0-0.0-4.0-0.0-1.9","4","4","4","4","4","4","4","4","4","4","5","5","4","5","5","5","5","4","5","5","1","1","1","1","1","1","2","5","1","0","1","0","0","0","0","0","1","0","0","-1","0","1","0","1","5","2","4","2","2","2","2","2","2","1","728341831389020160","李","","","","","","","","","","","","","","","","","","","","","","","","","","","","","","feedback_test","","","","","","","","","",""
"855","","j","psychophysics","127","240881","0.0-7.0-0.0-4.0-0.0-0.10","4","4","4","4","4","4","4","4","4","4","5","5","4","5","5","5","5","4","5","5","1","1","1","1","1","1","2","5","1","0","1","0","0","0","0","0","1","0","0","-1","0","1","0","1","5","2","4","2","2","2","2","2","2","1","728341831389020160","李","","","","nonmatch","","","","","","","","","","","","","","key","j","16.67630630630637","768","428","j","true","nonmatch","img/hexagon.png","椭圆","六边","ALT1","formal_ALT1_1","","","","","","","","","",""
"null","<span style='color:GreenYellow; font-size: 70px;'>正确! </span>","null","html-keyboard-response","128","241382","0.0-7.0-0.0-4.0-0.0-1.10","4","4","4","4","4","4","4","4","4","4","5","5","4","5","5","5","5","4","5","5","1","1","1","1","1","1","2","5","1","0","1","0","0","0","0","0","1","0","0","-1","0","1","0","1","5","2","4","2","2","2","2","2","2","1","728341831389020160","李","","","","","","","","","","","","","","","","","","","","","","","","","","","","","","feedback_test","","","","","","","","","",""
"940","","j","psychophysics","129","243324","0.0-7.0-0.0-4.0-0.0-0.11","4","4","4","4","4","4","4","4","4","4","5","5","4","5","5","5","5","4","5","5","1","1","1","1","1","1","2","5","1","0","1","0","0","0","0","0","1","0","0","-1","0","1","0","1","5","2","4","2","2","2","2","2","2","1","728341831389020160","李","","","","nonmatch","","","","","","","","","","","","","","key","j","16.672713043478208","768","428","j","true","nonmatch","img/hexagon.png","方形","六边","ALT1","formal_ALT1_1","","","","","","","","","",""
"null","<span style='color:GreenYellow; font-size: 70px;'>正确! </span>","null","html-keyboard-response","130","243825","0.0-7.0-0.0-4.0-0.0-1.11","4","4","4","4","4","4","4","4","4","4","5","5","4","5","5","5","5","4","5","5","1","1","1","1","1","1","2","5","1","0","1","0","0","0","0","0","1","0","0","-1","0","1","0","1","5","2","4","2","2","2","2","2","2","1","728341831389020160","李","","","","","","","","","","","","","","","","","","","","","","","","","","","","","","feedback_test","","","","","","","","","",""
"849","","j","psychophysics","131","245676","0.0-7.0-0.0-4.0-0.0-0.12","4","4","4","4","4","4","4","4","4","4","5","5","4","5","5","5","5","4","5","5","1","1","1","1","1","1","2","5","1","0","1","0","0","0","0","0","1","0","0","-1","0","1","0","1","5","2","4","2","2","2","2","2","2","1","728341831389020160","李","","","","nonmatch","","","","","","","","","","","","","","key","j","16.63348181818199","768","428","j","true","nonmatch","img/triangle.png","方形","三角","ALT1","formal_ALT1_1","","","","","","","","","",""
"null","<span style='color:GreenYellow; font-size: 70px;'>正确! </span>","null","html-keyboard-response","132","246177","0.0-7.0-0.0-4.0-0.0-1.12","4","4","4","4","4","4","4","4","4","4","5","5","4","5","5","5","5","4","5","5","1","1","1","1","1","1","2","5","1","0","1","0","0","0","0","0","1","0","0","-1","0","1","0","1","5","2","4","2","2","2","2","2","2","1","728341831389020160","李","","","","","","","","","","","","","","","","","","","","","","","","","","","","","","feedback_test","","","","","","","","","",""
"938","","f","psychophysics","133","248118","0.0-7.0-0.0-4.0-0.0-0.13","4","4","4","4","4","4","4","4","4","4","5","5","4","5","5","5","5","4","5","5","1","1","1","1","1","1","2","5","1","0","1","0","0","0","0","0","1","0","0","-1","0","1","0","1","5","2","4","2","2","2","2","2","2","1","728341831389020160","李","","","","match","","","","","","","","","","","","","","key","f","16.67798260869585","768","428","j","false","nonmatch","img/ellipse.png","方形","椭圆","ALT1","formal_ALT1_1","","","","","","","","","",""
"null","<span style='color:red; font-size: 70px;'>错误! </span>","null","html-keyboard-response","134","248620","0.0-7.0-0.0-4.0-0.0-1.13","4","4","4","4","4","4","4","4","4","4","5","5","4","5","5","5","5","4","5","5","1","1","1","1","1","1","2","5","1","0","1","0","0","0","0","0","1","0","0","-1","0","1","0","1","5","2","4","2","2","2","2","2","2","1","728341831389020160","李","","","","","","","","","","","","","","","","","","","","","","","","","","","","","","feedback_test","","","","","","","","","",""
"1059","","f","psychophysics","135","250680","0.0-7.0-0.0-4.0-0.0-0.14","4","4","4","4","4","4","4","4","4","4","5","5","4","5","5","5","5","4","5","5","1","1","1","1","1","1","2","5","1","0","1","0","0","0","0","0","1","0","0","-1","0","1","0","1","5","2","4","2","2","2","2","2","2","1","728341831389020160","李","","","","match","","","","","","","","","","","","","","key","f","16.672713114754306","768","428","f","true","match","img/triangle.png","三角","三角","ALT1","formal_ALT1_1","","","","","","","","","",""
"null","<span style='color:GreenYellow; font-size: 70px;'>正确! </span>","null","html-keyboard-response","136","251182","0.0-7.0-0.0-4.0-0.0-1.14","4","4","4","4","4","4","4","4","4","4","5","5","4","5","5","5","5","4","5","5","1","1","1","1","1","1","2","5","1","0","1","0","0","0","0","0","1","0","0","-1","0","1","0","1","5","2","4","2","2","2","2","2","2","1","728341831389020160","李","","","","","","","","","","","","","","","","","","","","","","","","","","","","","","feedback_test","","","","","","","","","",""
"989","","j","psychophysics","137","253174","0.0-7.0-0.0-4.0-0.0-0.15","4","4","4","4","4","4","4","4","4","4","5","5","4","5","5","5","5","4","5","5","1","1","1","1","1","1","2","5","1","0","1","0","0","0","0","0","1","0","0","-1","0","1","0","1","5","2","4","2","2","2","2","2","2","1","728341831389020160","李","","","","nonmatch","","","","","","","","","","","","","","key","j","16.67217796610178","768","428","j","true","nonmatch","img/ellipse.png","六边","椭圆","ALT1","formal_ALT1_1","","","","","","","","","",""
"null","<span style='color:GreenYellow; font-size: 70px;'>正确! </span>","null","html-keyboard-response","138","253688","0.0-7.0-0.0-4.0-0.0-1.15","4","4","4","4","4","4","4","4","4","4","5","5","4","5","5","5","5","4","5","5","1","1","1","1","1","1","2","5","1","0","1","0","0","0","0","0","1","0","0","-1","0","1","0","1","5","2","4","2","2","2","2","2","2","1","728341831389020160","李","","","","","","","","","","","","","","","","","","","","","","","","","","","","","","feedback_test","","","","","","","","","",""
"1164","","j","psychophysics","139","255855","0.0-7.0-0.0-4.0-0.0-0.16","4","4","4","4","4","4","4","4","4","4","5","5","4","5","5","5","5","4","5","5","1","1","1","1","1","1","2","5","1","0","1","0","0","0","0","0","1","0","0","-1","0","1","0","1","5","2","4","2","2","2","2","2","2","1","728341831389020160","李","","","","nonmatch","","","","","","","","","","","","","","key","j","16.674511627906885","768","428","j","true","nonmatch","img/triangle.png","六边","三角","ALT1","formal_ALT1_1","","","","","","","","","",""
"null","<span style='color:GreenYellow; font-size: 70px;'>正确! </span>","null","html-keyboard-response","140","256357","0.0-7.0-0.0-4.0-0.0-1.16","4","4","4","4","4","4","4","4","4","4","5","5","4","5","5","5","5","4","5","5","1","1","1","1","1","1","2","5","1","0","1","0","0","0","0","0","1","0","0","-1","0","1","0","1","5","2","4","2","2","2","2","2","2","1","728341831389020160","李","","","","","","","","","","","","","","","","","","","","","","","","","","","","","","feedback_test","","","","","","","","","",""
"788","","j","psychophysics","141","258147","0.0-7.0-0.0-4.0-0.0-0.17","4","4","4","4","4","4","4","4","4","4","5","5","4","5","5","5","5","4","5","5","1","1","1","1","1","1","2","5","1","0","1","0","0","0","0","0","1","0","0","-1","0","1","0","1","5","2","4","2","2","2","2","2","2","1","728341831389020160","李","","","","nonmatch","","","","","","","","","","","","","","key","j","16.67755660377355","768","428","j","true","nonmatch","img/hexagon.png","三角","六边","ALT1","formal_ALT1_1","","","","","","","","","",""
"null","<span style='color:GreenYellow; font-size: 70px;'>正确! </span>","null","html-keyboard-response","142","258648","0.0-7.0-0.0-4.0-0.0-1.17","4","4","4","4","4","4","4","4","4","4","5","5","4","5","5","5","5","4","5","5","1","1","1","1","1","1","2","5","1","0","1","0","0","0","0","0","1","0","0","-1","0","1","0","1","5","2","4","2","2","2","2","2","2","1","728341831389020160","李","","","","","","","","","","","","","","","","","","","","","","","","","","","","","","feedback_test","","","","","","","","","",""
"1043","","j","psychophysics","143","260693","0.0-7.0-0.0-4.0-0.0-0.18","4","4","4","4","4","4","4","4","4","4","5","5","4","5","5","5","5","4","5","5","1","1","1","1","1","1","2","5","1","0","1","0","0","0","0","0","1","0","0","-1","0","1","0","1","5","2","4","2","2","2","2","2","2","1","728341831389020160","李","","","","nonmatch","","","","","","","","","","","","","","key","j","16.668801652892466","768","428","j","true","nonmatch","img/square.png","六边","方形","ALT1","formal_ALT1_1","","","","","","","","","",""
"null","<span style='color:GreenYellow; font-size: 70px;'>正确! </span>","null","html-keyboard-response","144","261198","0.0-7.0-0.0-4.0-0.0-1.18","4","4","4","4","4","4","4","4","4","4","5","5","4","5","5","5","5","4","5","5","1","1","1","1","1","1","2","5","1","0","1","0","0","0","0","0","1","0","0","-1","0","1","0","1","5","2","4","2","2","2","2","2","2","1","728341831389020160","李","","","","","","","","","","","","","","","","","","","","","","","","","","","","","","feedback_test","","","","","","","","","",""
"795","","f","psychophysics","145","262995","0.0-7.0-0.0-4.0-0.0-0.19","4","4","4","4","4","4","4","4","4","4","5","5","4","5","5","5","5","4","5","5","1","1","1","1","1","1","2","5","1","0","1","0","0","0","0","0","1","0","0","-1","0","1","0","1","5","2","4","2","2","2","2","2","2","1","728341831389020160","李","","","","match","","","","","","","","","","","","","","key","f","16.673831775700716","768","428","f","true","match","img/square.png","方形","方形","ALT1","formal_ALT1_1","","","","","","","","","",""
"null","<span style='color:GreenYellow; font-size: 70px;'>正确! </span>","null","html-keyboard-response","146","263498","0.0-7.0-0.0-4.0-0.0-1.19","4","4","4","4","4","4","4","4","4","4","5","5","4","5","5","5","5","4","5","5","1","1","1","1","1","1","2","5","1","0","1","0","0","0","0","0","1","0","0","-1","0","1","0","1","5","2","4","2","2","2","2","2","2","1","728341831389020160","李","","","","","","","","","","","","","","","","","","","","","","","","","","","","","","feedback_test","","","","","","","","","",""
"780","","f","psychophysics","147","265281","0.0-7.0-0.0-4.0-0.0-0.20","4","4","4","4","4","4","4","4","4","4","5","5","4","5","5","5","5","4","5","5","1","1","1","1","1","1","2","5","1","0","1","0","0","0","0","0","1","0","0","-1","0","1","0","1","5","2","4","2","2","2","2","2","2","1","728341831389020160","李","","","","match","","","","","","","","","","","","","","key","f","16.656669811320928","768","428","f","true","match","img/triangle.png","三角","三角","ALT1","formal_ALT1_1","","","","","","","","","",""
"null","<span style='color:GreenYellow; font-size: 70px;'>正确! </span>","null","html-keyboard-response","148","265782","0.0-7.0-0.0-4.0-0.0-1.20","4","4","4","4","4","4","4","4","4","4","5","5","4","5","5","5","5","4","5","5","1","1","1","1","1","1","2","5","1","0","1","0","0","0","0","0","1","0","0","-1","0","1","0","1","5","2","4","2","2","2","2","2","2","1","728341831389020160","李","","","","","","","","","","","","","","","","","","","","","","","","","","","","","","feedback_test","","","","","","","","","",""
"834","","f","psychophysics","149","267619","0.0-7.0-0.0-4.0-0.0-0.21","4","4","4","4","4","4","4","4","4","4","5","5","4","5","5","5","5","4","5","5","1","1","1","1","1","1","2","5","1","0","1","0","0","0","0","0","1","0","0","-1","0","1","0","1","5","2","4","2","2","2","2","2","2","1","728341831389020160","李","","","","match","","","","","","","","","","","","","","key","f","16.672981651375977","768","428","f","true","match","img/ellipse.png","椭圆","椭圆","ALT1","formal_ALT1_1","","","","","","","","","",""
"null","<span style='color:GreenYellow; font-size: 70px;'>正确! </span>","null","html-keyboard-response","150","268121","0.0-7.0-0.0-4.0-0.0-1.21","4","4","4","4","4","4","4","4","4","4","5","5","4","5","5","5","5","4","5","5","1","1","1","1","1","1","2","5","1","0","1","0","0","0","0","0","1","0","0","-1","0","1","0","1","5","2","4","2","2","2","2","2","2","1","728341831389020160","李","","","","","","","","","","","","","","","","","","","","","","","","","","","","","","feedback_test","","","","","","","","","",""
"586","","f","psychophysics","151","269708","0.0-7.0-0.0-4.0-0.0-0.22","4","4","4","4","4","4","4","4","4","4","5","5","4","5","5","5","5","4","5","5","1","1","1","1","1","1","2","5","1","0","1","0","0","0","0","0","1","0","0","-1","0","1","0","1","5","2","4","2","2","2","2","2","2","1","728341831389020160","李","","","","match","","","","","","","","","","","","","","key","f","16.67160638297866","768","428","j","false","nonmatch","img/ellipse.png","三角","椭圆","ALT1","formal_ALT1_1","","","","","","","","","",""
"null","<span style='color:red; font-size: 70px;'>错误! </span>","null","html-keyboard-response","152","270211","0.0-7.0-0.0-4.0-0.0-1.22","4","4","4","4","4","4","4","4","4","4","5","5","4","5","5","5","5","4","5","5","1","1","1","1","1","1","2","5","1","0","1","0","0","0","0","0","1","0","0","-1","0","1","0","1","5","2","4","2","2","2","2","2","2","1","728341831389020160","李","","","","","","","","","","","","","","","","","","","","","","","","","","","","","","feedback_test","","","","","","","","","",""
"991","","j","psychophysics","153","272203","0.0-7.0-0.0-4.0-0.0-0.23","4","4","4","4","4","4","4","4","4","4","5","5","4","5","5","5","5","4","5","5","1","1","1","1","1","1","2","5","1","0","1","0","0","0","0","0","1","0","0","-1","0","1","0","1","5","2","4","2","2","2","2","2","2","1","728341831389020160","李","","","","nonmatch","","","","","","","","","","","","","","key","j","16.675847457627118","768","428","j","true","nonmatch","img/square.png","三角","方形","ALT1","formal_ALT1_1","","","","","","","","","",""
"null","<span style='color:GreenYellow; font-size: 70px;'>正确! </span>","null","html-keyboard-response","154","272704","0.0-7.0-0.0-4.0-0.0-1.23","4","4","4","4","4","4","4","4","4","4","5","5","4","5","5","5","5","4","5","5","1","1","1","1","1","1","2","5","1","0","1","0","0","0","0","0","1","0","0","-1","0","1","0","1","5","2","4","2","2","2","2","2","2","1","728341831389020160","李","","","","","","","","","","","","","","","","","","","","","","","","","","","","","","feedback_test","","","","","","","","","",""
"978","","f","psychophysics","155","274688","0.0-7.0-0.0-4.0-0.0-0.24","4","4","4","4","4","4","4","4","4","4","5","5","4","5","5","5","5","4","5","5","1","1","1","1","1","1","2","5","1","0","1","0","0","0","0","0","1","0","0","-1","0","1","0","1","5","2","4","2","2","2","2","2","2","1","728341831389020160","李","","","","match","","","","","","","","","","","","","","key","f","16.675623931624017","768","428","f","true","match","img/triangle.png","三角","三角","ALT1","formal_ALT1_1","","","","","","","","","",""
"null","<span style='color:GreenYellow; font-size: 70px;'>正确! </span>","null","html-keyboard-response","156","275189","0.0-7.0-0.0-4.0-0.0-1.24","4","4","4","4","4","4","4","4","4","4","5","5","4","5","5","5","5","4","5","5","1","1","1","1","1","1","2","5","1","0","1","0","0","0","0","0","1","0","0","-1","0","1","0","1","5","2","4","2","2","2","2","2","2","1","728341831389020160","李","","","","","","","","","","","","","","","","","","","","","","","","","","","","","","feedback_test","","","","","","","","","",""
"936","","f","psychophysics","157","277128","0.0-7.0-0.0-4.0-0.0-0.25","4","4","4","4","4","4","4","4","4","4","5","5","4","5","5","5","5","4","5","5","1","1","1","1","1","1","2","5","1","0","1","0","0","0","0","0","1","0","0","-1","0","1","0","1","5","2","4","2","2","2","2","2","2","1","728341831389020160","李","","","","match","","","","","","","","","","","","","","key","f","16.674495652174254","768","428","f","true","match","img/square.png","方形","方形","ALT1","formal_ALT1_1","","","","","","","","","",""
"null","<span style='color:GreenYellow; font-size: 70px;'>正确! </span>","null","html-keyboard-response","158","277630","0.0-7.0-0.0-4.0-0.0-1.25","4","4","4","4","4","4","4","4","4","4","5","5","4","5","5","5","5","4","5","5","1","1","1","1","1","1","2","5","1","0","1","0","0","0","0","0","1","0","0","-1","0","1","0","1","5","2","4","2","2","2","2","2","2","1","728341831389020160","李","","","","","","","","","","","","","","","","","","","","","","","","","","","","","","feedback_test","","","","","","","","","",""
"689","","j","psychophysics","159","279321","0.0-7.0-0.0-4.0-0.0-0.26","4","4","4","4","4","4","4","4","4","4","5","5","4","5","5","5","5","4","5","5","1","1","1","1","1","1","2","5","1","0","1","0","0","0","0","0","1","0","0","-1","0","1","0","1","5","2","4","2","2","2","2","2","2","1","728341831389020160","李","","","","nonmatch","","","","","","","","","","","","","","key","j","16.673369999999995","768","428","j","true","nonmatch","img/triangle.png","椭圆","三角","ALT1","formal_ALT1_1","","","","","","","","","",""
"null","<span style='color:GreenYellow; font-size: 70px;'>正确! </span>","null","html-keyboard-response","160","279822","0.0-7.0-0.0-4.0-0.0-1.26","4","4","4","4","4","4","4","4","4","4","5","5","4","5","5","5","5","4","5","5","1","1","1","1","1","1","2","5","1","0","1","0","0","0","0","0","1","0","0","-1","0","1","0","1","5","2","4","2","2","2","2","2","2","1","728341831389020160","李","","","","","","","","","","","","","","","","","","","","","","","","","","","","","","feedback_test","","","","","","","","","",""
"870","","f","psychophysics","161","281696","0.0-7.0-0.0-4.0-0.0-0.27","4","4","4","4","4","4","4","4","4","4","5","5","4","5","5","5","5","4","5","5","1","1","1","1","1","1","2","5","1","0","1","0","0","0","0","0","1","0","0","-1","0","1","0","1","5","2","4","2","2","2","2","2","2","1","728341831389020160","李","","","","match","","","","","","","","","","","","","","key","f","16.662348214285885","768","428","f","true","match","img/hexagon.png","六边","六边","ALT1","formal_ALT1_1","","","","","","","","","",""
"null","<span style='color:GreenYellow; font-size: 70px;'>正确! </span>","null","html-keyboard-response","162","282198","0.0-7.0-0.0-4.0-0.0-1.27","4","4","4","4","4","4","4","4","4","4","5","5","4","5","5","5","5","4","5","5","1","1","1","1","1","1","2","5","1","0","1","0","0","0","0","0","1","0","0","-1","0","1","0","1","5","2","4","2","2","2","2","2","2","1","728341831389020160","李","","","","","","","","","","","","","","","","","","","","","","","","","","","","","","feedback_test","","","","","","","","","",""
"null","","null","psychophysics","163","284401","0.0-7.0-0.0-4.0-0.0-0.28","4","4","4","4","4","4","4","4","4","4","5","5","4","5","5","5","5","4","5","5","1","1","1","1","1","1","2","5","1","0","1","0","0","0","0","0","1","0","0","-1","0","1","0","1","5","2","4","2","2","2","2","2","2","1","728341831389020160","李","","","","null","","","","","","","","","","","","","","key","null","16.67113740458011","768","428","j","false","nonmatch","img/ellipse.png","三角","椭圆","ALT1","formal_ALT1_1","","","","","","","","","",""
"null","<span class='add_' style='color:yellow; font-size: 70px;'> 太慢! </span>","null","html-keyboard-response","164","284903","0.0-7.0-0.0-4.0-0.0-1.28","4","4","4","4","4","4","4","4","4","4","5","5","4","5","5","5","5","4","5","5","1","1","1","1","1","1","2","5","1","0","1","0","0","0","0","0","1","0","0","-1","0","1","0","1","5","2","4","2","2","2","2","2","2","1","728341831389020160","李","","","","","","","","","","","","","","","","","","","","","","","","","","","","","","feedback_test","","","","","","","","","",""
"798","","j","psychophysics","165","286705","0.0-7.0-0.0-4.0-0.0-0.29","4","4","4","4","4","4","4","4","4","4","5","5","4","5","5","5","5","4","5","5","1","1","1","1","1","1","2","5","1","0","1","0","0","0","0","0","1","0","0","-1","0","1","0","1","5","2","4","2","2","2","2","2","2","1","728341831389020160","李","","","","nonmatch","","","","","","","","","","","","","","key","j","16.667542056074456","768","428","j","true","nonmatch","img/ellipse.png","方形","椭圆","ALT1","formal_ALT1_1","","","","","","","","","",""
"null","<span style='color:GreenYellow; font-size: 70px;'>正确! </span>","null","html-keyboard-response","166","287207","0.0-7.0-0.0-4.0-0.0-1.29","4","4","4","4","4","4","4","4","4","4","5","5","4","5","5","5","5","4","5","5","1","1","1","1","1","1","2","5","1","0","1","0","0","0","0","0","1","0","0","-1","0","1","0","1","5","2","4","2","2","2","2","2","2","1","728341831389020160","李","","","","","","","","","","","","","","","","","","","","","","","","","","","","","","feedback_test","","","","","","","","","",""
"724","","f","psychophysics","167","288932","0.0-7.0-0.0-4.0-0.0-0.30","4","4","4","4","4","4","4","4","4","4","5","5","4","5","5","5","5","4","5","5","1","1","1","1","1","1","2","5","1","0","1","0","0","0","0","0","1","0","0","-1","0","1","0","1","5","2","4","2","2","2","2","2","2","1","728341831389020160","李","","","","match","","","","","","","","","","","","","","key","f","16.679067961164655","768","428","f","true","match","img/hexagon.png","六边","六边","ALT1","formal_ALT1_1","","","","","","","","","",""
"null","<span style='color:GreenYellow; font-size: 70px;'>正确! </span>","null","html-keyboard-response","168","289435","0.0-7.0-0.0-4.0-0.0-1.30","4","4","4","4","4","4","4","4","4","4","5","5","4","5","5","5","5","4","5","5","1","1","1","1","1","1","2","5","1","0","1","0","0","0","0","0","1","0","0","-1","0","1","0","1","5","2","4","2","2","2","2","2","2","1","728341831389020160","李","","","","","","","","","","","","","","","","","","","","","","","","","","","","","","feedback_test","","","","","","","","","",""
"828","","j","psychophysics","169","291266","0.0-7.0-0.0-4.0-0.0-0.31","4","4","4","4","4","4","4","4","4","4","5","5","4","5","5","5","5","4","5","5","1","1","1","1","1","1","2","5","1","0","1","0","0","0","0","0","1","0","0","-1","0","1","0","1","5","2","4","2","2","2","2","2","2","1","728341831389020160","李","","","","nonmatch","","","","","","","","","","","","","","key","j","16.673522935779722","768","428","j","true","nonmatch","img/hexagon.png","三角","六边","ALT1","formal_ALT1_1","","","","","","","","","",""
"null","<span style='color:GreenYellow; font-size: 70px;'>正确! </span>","null","html-keyboard-response","170","291767","0.0-7.0-0.0-4.0-0.0-1.31","4","4","4","4","4","4","4","4","4","4","5","5","4","5","5","5","5","4","5","5","1","1","1","1","1","1","2","5","1","0","1","0","0","0","0","0","1","0","0","-1","0","1","0","1","5","2","4","2","2","2","2","2","2","1","728341831389020160","李","","","","","","","","","","","","","","","","","","","","","","","","","","","","","","feedback_test","","","","","","","","","",""
"797","","j","psychophysics","171","293566","0.0-7.0-0.0-4.0-0.0-0.32","4","4","4","4","4","4","4","4","4","4","5","5","4","5","5","5","5","4","5","5","1","1","1","1","1","1","2","5","1","0","1","0","0","0","0","0","1","0","0","-1","0","1","0","1","5","2","4","2","2","2","2","2","2","1","728341831389020160","李","","","","nonmatch","","","","","","","","","","","","","","key","j","16.673523364485803","768","428","j","true","nonmatch","img/square.png","椭圆","方形","ALT1","formal_ALT1_1","","","","","","","","","",""
"null","<span style='color:GreenYellow; font-size: 70px;'>正确! </span>","null","html-keyboard-response","172","294067","0.0-7.0-0.0-4.0-0.0-1.32","4","4","4","4","4","4","4","4","4","4","5","5","4","5","5","5","5","4","5","5","1","1","1","1","1","1","2","5","1","0","1","0","0","0","0","0","1","0","0","-1","0","1","0","1","5","2","4","2","2","2","2","2","2","1","728341831389020160","李","","","","","","","","","","","","","","","","","","","","","","","","","","","","","","feedback_test","","","","","","","","","",""
"805","","f","psychophysics","173","295874","0.0-7.0-0.0-4.0-0.0-0.33","4","4","4","4","4","4","4","4","4","4","5","5","4","5","5","5","5","4","5","5","1","1","1","1","1","1","2","5","1","0","1","0","0","0","0","0","1","0","0","-1","0","1","0","1","5","2","4","2","2","2","2","2","2","1","728341831389020160","李","","","","match","","","","","","","","","","","","","","key","f","16.674317757009362","768","428","f","true","match","img/triangle.png","三角","三角","ALT1","formal_ALT1_1","","","","","","","","","",""
"null","<span style='color:GreenYellow; font-size: 70px;'>正确! </span>","null","html-keyboard-response","174","296375","0.0-7.0-0.0-4.0-0.0-1.33","4","4","4","4","4","4","4","4","4","4","5","5","4","5","5","5","5","4","5","5","1","1","1","1","1","1","2","5","1","0","1","0","0","0","0","0","1","0","0","-1","0","1","0","1","5","2","4","2","2","2","2","2","2","1","728341831389020160","李","","","","","","","","","","","","","","","","","","","","","","","","","","","","","","feedback_test","","","","","","","","","",""
"895","","f","psychophysics","175","298272","0.0-7.0-0.0-4.0-0.0-0.34","4","4","4","4","4","4","4","4","4","4","5","5","4","5","5","5","5","4","5","5","1","1","1","1","1","1","2","5","1","0","1","0","0","0","0","0","1","0","0","-1","0","1","0","1","5","2","4","2","2","2","2","2","2","1","728341831389020160","李","","","","match","","","","","","","","","","","","","","key","f","16.657265486725734","768","428","f","true","match","img/ellipse.png","椭圆","椭圆","ALT1","formal_ALT1_1","","","","","","","","","",""
"null","<span style='color:GreenYellow; font-size: 70px;'>正确! </span>","null","html-keyboard-response","176","298774","0.0-7.0-0.0-4.0-0.0-1.34","4","4","4","4","4","4","4","4","4","4","5","5","4","5","5","5","5","4","5","5","1","1","1","1","1","1","2","5","1","0","1","0","0","0","0","0","1","0","0","-1","0","1","0","1","5","2","4","2","2","2","2","2","2","1","728341831389020160","李","","","","","","","","","","","","","","","","","","","","","","","","","","","","","","feedback_test","","","","","","","","","",""
"1009","","j","psychophysics","177","300785","0.0-7.0-0.0-4.0-0.0-0.35","4","4","4","4","4","4","4","4","4","4","5","5","4","5","5","5","5","4","5","5","1","1","1","1","1","1","2","5","1","0","1","0","0","0","0","0","1","0","0","-1","0","1","0","1","5","2","4","2","2","2","2","2","2","1","728341831389020160","李","","","","nonmatch","","","","","","","","","","","","","","key","j","16.67610833333359","768","428","j","true","nonmatch","img/hexagon.png","椭圆","六边","ALT1","formal_ALT1_1","","","","","","","","","",""
"null","<span style='color:GreenYellow; font-size: 70px;'>正确! </span>","null","html-keyboard-response","178","301285","0.0-7.0-0.0-4.0-0.0-1.35","4","4","4","4","4","4","4","4","4","4","5","5","4","5","5","5","5","4","5","5","1","1","1","1","1","1","2","5","1","0","1","0","0","0","0","0","1","0","0","-1","0","1","0","1","5","2","4","2","2","2","2","2","2","1","728341831389020160","李","","","","","","","","","","","","","","","","","","","","","","","","","","","","","","feedback_test","","","","","","","","","",""
"605","","f","psychophysics","179","302892","0.0-7.0-0.0-4.0-0.0-0.36","4","4","4","4","4","4","4","4","4","4","5","5","4","5","5","5","5","4","5","5","1","1","1","1","1","1","2","5","1","0","1","0","0","0","0","0","1","0","0","-1","0","1","0","1","5","2","4","2","2","2","2","2","2","1","728341831389020160","李","","","","match","","","","","","","","","","","","","","key","f","16.66729473684253","768","428","f","true","match","img/square.png","方形","方形","ALT1","formal_ALT1_1","","","","","","","","","",""
"null","<span style='color:GreenYellow; font-size: 70px;'>正确! </span>","null","html-keyboard-response","180","303395","0.0-7.0-0.0-4.0-0.0-1.36","4","4","4","4","4","4","4","4","4","4","5","5","4","5","5","5","5","4","5","5","1","1","1","1","1","1","2","5","1","0","1","0","0","0","0","0","1","0","0","-1","0","1","0","1","5","2","4","2","2","2","2","2","2","1","728341831389020160","李","","","","","","","","","","","","","","","","","","","","","","","","","","","","","","feedback_test","","","","","","","","","",""
"948","","j","psychophysics","181","305346","0.0-7.0-0.0-4.0-0.0-0.37","4","4","4","4","4","4","4","4","4","4","5","5","4","5","5","5","5","4","5","5","1","1","1","1","1","1","2","5","1","0","1","0","0","0","0","0","1","0","0","-1","0","1","0","1","5","2","4","2","2","2","2","2","2","1","728341831389020160","李","","","","nonmatch","","","","","","","","","","","","","","key","j","16.667181034482603","768","428","f","false","match","img/ellipse.png","椭圆","椭圆","ALT1","formal_ALT1_1","","","","","","","","","",""
"null","<span style='color:red; font-size: 70px;'>错误! </span>","null","html-keyboard-response","182","305847","0.0-7.0-0.0-4.0-0.0-1.37","4","4","4","4","4","4","4","4","4","4","5","5","4","5","5","5","5","4","5","5","1","1","1","1","1","1","2","5","1","0","1","0","0","0","0","0","1","0","0","-1","0","1","0","1","5","2","4","2","2","2","2","2","2","1","728341831389020160","李","","","","","","","","","","","","","","","","","","","","","","","","","","","","","","feedback_test","","","","","","","","","",""
"724","","j","psychophysics","183","307574","0.0-7.0-0.0-4.0-0.0-0.38","4","4","4","4","4","4","4","4","4","4","5","5","4","5","5","5","5","4","5","5","1","1","1","1","1","1","2","5","1","0","1","0","0","0","0","0","1","0","0","-1","0","1","0","1","5","2","4","2","2","2","2","2","2","1","728341831389020160","李","","","","nonmatch","","","","","","","","","","","","","","key","j","16.67131067961183","768","428","j","true","nonmatch","img/triangle.png","方形","三角","ALT1","formal_ALT1_1","","","","","","","","","",""
"null","<span style='color:GreenYellow; font-size: 70px;'>正确! </span>","null","html-keyboard-response","184","308087","0.0-7.0-0.0-4.0-0.0-1.38","4","4","4","4","4","4","4","4","4","4","5","5","4","5","5","5","5","4","5","5","1","1","1","1","1","1","2","5","1","0","1","0","0","0","0","0","1","0","0","-1","0","1","0","1","5","2","4","2","2","2","2","2","2","1","728341831389020160","李","","","","","","","","","","","","","","","","","","","","","","","","","","","","","","feedback_test","","","","","","","","","",""
"676","","f","psychophysics","185","309765","0.0-7.0-0.0-4.0-0.0-0.39","4","4","4","4","4","4","4","4","4","4","5","5","4","5","5","5","5","4","5","5","1","1","1","1","1","1","2","5","1","0","1","0","0","0","0","0","1","0","0","-1","0","1","0","1","5","2","4","2","2","2","2","2","2","1","728341831389020160","李","","","","match","","","","","","","","","","","","","","key","f","16.67541414141394","768","428","f","true","match","img/ellipse.png","椭圆","椭圆","ALT1","formal_ALT1_1","","","","","","","","","",""
"null","<span style='color:GreenYellow; font-size: 70px;'>正确! </span>","null","html-keyboard-response","186","310266","0.0-7.0-0.0-4.0-0.0-1.39","4","4","4","4","4","4","4","4","4","4","5","5","4","5","5","5","5","4","5","5","1","1","1","1","1","1","2","5","1","0","1","0","0","0","0","0","1","0","0","-1","0","1","0","1","5","2","4","2","2","2","2","2","2","1","728341831389020160","李","","","","","","","","","","","","","","","","","","","","","","","","","","","","","","feedback_test","","","","","","","","","",""
