"rt","stimulus","response","trial_type","trial_index","time_elapsed","internal_node_id","ses_1","ses_2","ses_3","ses_4","ses_5","ses_6","ses_7","ses_8","ses_9","ses_10","coreself_1","coreself_2","coreself_3","coreself_4","coreself_5","coreself_6","coreself_7","coreself_8","coreself_9","coreself_10","SGPS_1","SGPS_2","SGPS_3","SGPS_4","SGPS_5","SGPS_6","SGPS_7","SGPS_8","SGPS_9","NPI1","NPI2","NPI3","NPI4","NPI5","NPI6","NPI7","NPI8","NPI9","NPI10","NPI11","NPI12","NPI13","NPI14","NPI15","hsns_1","hsns_2","hsns_3","hsns_4","hsns_5","hsns_6","hsns_7","hsns_8","hsns_9","hsns_10","subj_idx","friend_name","value","success","user_agent","responses","item_order","radio_event_ids","radio_event_times","key_event_times","mouse_event_times","straightlining","zigzagging","honeypot","timeout","failed_images","failed_audio","failed_video","view_history","response_type","key_press","avg_frame_time","center_x","center_y","correct_response","correct","identity","Image","word","condition","task_id","screen_id","time_stamp","version_attrib2","version_target2","IAT","RT","varname","summary","version_attrib","version_target","question_order"
"11685","
   <p><div style = ""color: white;font-size:25px;"">您好，欢迎参加本次实验。</div> </p>
   <p><div style = ""color: white;font-size:25px;"">为充分保障您的权利，请确保您已经知晓并同意《参与实验同意书》以及《数据公开知情同意书》。</div></p>
   <p><div style = ""color: white;font-size:25px;"">如果您未见过上述内容，请咨询实验员。</div></p>
   <p><div style = ""color: white;font-size:25px;"">如果您选择继续实验，则表示您已经清楚两份知情同意书的内容并同意。</div></p>
   <p> <div style = ""color: green;font-size:25px;""><按空格键至下页></div> </p>
   "," ","html-keyboard-response","0","11690","0.0-0.0","3","3","3","3","3","4","3","3","4","3","4","3","2","4","2","4","3","3","4","4","2","2","2","2","2","2","2","2","1","1","0","1","0","0","1","0","1","1","1","-1","0","0","0","0","4","2","2","1","4","2","3","4","4","2","568408786771902464","王","","","","","","","","","","","","","","","","","","","","","","","","","","","","","","","","","","","","","","","",""
"","","","call-function","1","11693","0.0-1.0-0.0","3","3","3","3","3","4","3","3","4","3","4","3","2","4","2","4","3","3","4","4","2","2","2","2","2","2","2","2","1","1","0","1","0","0","1","0","1","1","1","-1","0","0","0","0","4","2","2","1","4","2","3","4","4","2","568408786771902464","王","","","","","","","","","","","","","","","","","","","","","","","","","","","","","","","","","","","","","","","",""
"18552","","{""friend_name"":""王""}","survey-html-form","2","30246","0.0-1.0-1.0","3","3","3","3","3","4","3","3","4","3","4","3","2","4","2","4","3","3","4","4","2","2","2","2","2","2","2","2","1","1","0","1","0","0","1","0","1","1","1","-1","0","0","0","0","4","2","2","1","4","2","3","4","4","2","568408786771902464","王","","","","","","","","","","","","","","","","","","","","","","","","","","","","","","","","","","","","","","","",""
"","","","fullscreen","3","66962","0.0-2.0","3","3","3","3","3","4","3","3","4","3","4","3","2","4","2","4","3","3","4","4","2","2","2","2","2","2","2","2","1","1","0","1","0","0","1","0","1","1","1","-1","0","0","0","0","4","2","2","1","4","2","3","4","4","2","568408786771902464","王","","true","{}","","","","","","","","","","","","","","","","","","","","","","","","","","","","","","","","","","","","",""
"91866.80000000005","","{""Q01"":""3"",""Q02"":""3"",""Q03"":""3"",""Q04"":""3"",""Q05"":""3"",""Q06"":""4"",""Q07"":""3"",""Q08"":""3"",""Q09"":""4"",""Q10"":""3""}","survey-template","4","158833","0.0-3.0","3","3","3","3","3","4","3","3","4","3","4","3","2","4","2","4","3","3","4","4","2","2","2","2","2","2","2","2","1","1","0","1","0","0","1","0","1","1","1","-1","0","0","0","0","4","2","2","1","4","2","3","4","4","2","568408786771902464","王","","","","{""Q01"":""3"",""Q02"":""3"",""Q03"":""3"",""Q04"":""3"",""Q05"":""3"",""Q06"":""4"",""Q07"":""3"",""Q08"":""3"",""Q09"":""4"",""Q10"":""3""}","[0,1,2,3,4,5,6,7,8,9]","[""Q01"",""Q02"",""Q03"",""Q04"",""Q05"",""Q06"",""Q06"",""Q07"",""Q08"",""Q09"",""Q10""]","[10589.700000000012,12753.300000000047,17652,25551.800000000047,29296.400000000023,36283.20000000007,37650.30000000005,42592.80000000005,52873.80000000005,67399.5,78807.20000000007]","[]","[10589.700000000012,12753.300000000047,17652,25551.800000000047,29296.400000000023,36283.20000000007,37650.30000000005,42592.80000000005,50043.30000000005,52873.80000000005,67399.5,78807.20000000007,91864.70000000007]","0.4","0.7777777777777778","0","","","","","","","","","","","","","","","","","","","","","","","","","","","",""
"69466.79999999993","","{""Q01"":""4"",""Q02"":""3"",""Q03"":""2"",""Q04"":""4"",""Q05"":""2"",""Q06"":""4"",""Q07"":""3"",""Q08"":""3"",""Q09"":""4"",""Q10"":""4""}","survey-template","5","228296","0.0-4.0","3","3","3","3","3","4","3","3","4","3","4","3","2","4","2","4","3","3","4","4","2","2","2","2","2","2","2","2","1","1","0","1","0","0","1","0","1","1","1","-1","0","0","0","0","4","2","2","1","4","2","3","4","4","2","568408786771902464","王","","","","{""Q01"":""4"",""Q02"":""3"",""Q03"":""2"",""Q04"":""4"",""Q05"":""2"",""Q06"":""4"",""Q07"":""3"",""Q08"":""3"",""Q09"":""4"",""Q10"":""4""}","[0,1,2,3,4,5,6,7,8,9]","[""Q01"",""Q02"",""Q03"",""Q04"",""Q05"",""Q06"",""Q07"",""Q08"",""Q08"",""Q09"",""Q10""]","[15191.199999999953,24233.899999999907,27796.5,30588.5,34147.89999999991,47603.89999999991,52280.29999999993,60548,63507.89999999991,65643.09999999998,67550.19999999995]","[]","[15191.199999999953,22872.199999999953,24233.899999999907,25570.899999999907,27796.5,30588.5,32248.399999999907,34147.89999999991,47603.89999999991,52280.29999999993,58890.09999999998,60548,62190.69999999995,63507.89999999991,65643.09999999998,67550.19999999995,69464.69999999995]","0.6","0.4444444444444444","0","","","","","","","","","","","","","","","","","","","","","","","","","","","",""
"","","","preload","6","228682","0.0-5.0","3","3","3","3","3","4","3","3","4","3","4","3","2","4","2","4","3","3","4","4","2","2","2","2","2","2","2","2","1","1","0","1","0","0","1","0","1","1","1","-1","0","0","0","0","4","2","2","1","4","2","3","4","4","2","568408786771902464","王","","true","","","","","","","","","","","false","[]","[]","[]","","","","","","","","","","","","","","","","","","","","","","","",""
"33993","","","instructions","7","262677","0.0-6.0","3","3","3","3","3","4","3","3","4","3","4","3","2","4","2","4","3","3","4","4","2","2","2","2","2","2","2","2","1","1","0","1","0","0","1","0","1","1","1","-1","0","0","0","0","4","2","2","1","4","2","3","4","4","2","568408786771902464","王","","","","","","","","","","","","","","","","","[{""page_index"":0,""viewing_time"":33993}]","","","","","","","","","","","","","","","","","","","","","","",""
"36949","","","instructions","8","299643","0.0-7.0-0.0-0.0","3","3","3","3","3","4","3","3","4","3","4","3","2","4","2","4","3","3","4","4","2","2","2","2","2","2","2","2","1","1","0","1","0","0","1","0","1","1","1","-1","0","0","0","0","4","2","2","1","4","2","3","4","4","2","568408786771902464","王","","","","","","","","","","","","","","","","","[{""page_index"":0,""viewing_time"":23930},{""page_index"":1,""viewing_time"":10050},{""page_index"":2,""viewing_time"":2968}]","","","","","","","","","","","","","","","","","","","","","","",""
"746","","j","psychophysics","9","301394","0.0-7.0-0.0-1.0-0.0-0.0","3","3","3","3","3","4","3","3","4","3","4","3","2","4","2","4","3","3","4","4","2","2","2","2","2","2","2","2","1","1","0","1","0","0","1","0","1","1","1","-1","0","0","0","0","4","2","2","1","4","2","3","4","4","2","568408786771902464","王","","","","nonmatch","","","","","","","","","","","","","","key","j","16.654336538461322","799.9999682108573","445.8333156175091","f","false","match","img/pentagon.png","五边","五边","ALT1_1","prac_ALT1_1","","","","","","","","","",""
"null","<span style='color:red; font-size: 70px;'>错误! </span>","null","html-keyboard-response","10","301903","0.0-7.0-0.0-1.0-0.0-1.0","3","3","3","3","3","4","3","3","4","3","4","3","2","4","2","4","3","3","4","4","2","2","2","2","2","2","2","2","1","1","0","1","0","0","1","0","1","1","1","-1","0","0","0","0","4","2","2","1","4","2","3","4","4","2","568408786771902464","王","","","","","","","","","","","","","","","","","","","","","","","","","","","","","","feedback_test","","","","","","","","","",""
"986","","f","psychophysics","11","303896","0.0-7.0-0.0-1.0-0.0-0.1","3","3","3","3","3","4","3","3","4","3","4","3","2","4","2","4","3","3","4","4","2","2","2","2","2","2","2","2","1","1","0","1","0","0","1","0","1","1","1","-1","0","0","0","0","4","2","2","1","4","2","3","4","4","2","568408786771902464","王","","","","match","","","","","","","","","","","","","","key","f","16.654008403361264","799.9999682108573","445.8333156175091","f","true","match","img/ellipse.png","椭圆","椭圆","ALT1_1","prac_ALT1_1","","","","","","","","","",""
"null","<span style='color:GreenYellow; font-size: 70px;'>正确! </span>","null","html-keyboard-response","12","304407","0.0-7.0-0.0-1.0-0.0-1.1","3","3","3","3","3","4","3","3","4","3","4","3","2","4","2","4","3","3","4","4","2","2","2","2","2","2","2","2","1","1","0","1","0","0","1","0","1","1","1","-1","0","0","0","0","4","2","2","1","4","2","3","4","4","2","568408786771902464","王","","","","","","","","","","","","","","","","","","","","","","","","","","","","","","feedback_test","","","","","","","","","",""
"802","","j","psychophysics","13","306211","0.0-7.0-0.0-1.0-0.0-0.2","3","3","3","3","3","4","3","3","4","3","4","3","2","4","2","4","3","3","4","4","2","2","2","2","2","2","2","2","1","1","0","1","0","0","1","0","1","1","1","-1","0","0","0","0","4","2","2","1","4","2","3","4","4","2","568408786771902464","王","","","","nonmatch","","","","","","","","","","","","","","key","j","16.650435185184943","799.9999682108573","445.8333156175091","j","true","nonmatch","img/triangle.png","五边","三角","ALT1_1","prac_ALT1_1","","","","","","","","","",""
"null","<span style='color:GreenYellow; font-size: 70px;'>正确! </span>","null","html-keyboard-response","14","306749","0.0-7.0-0.0-1.0-0.0-1.2","3","3","3","3","3","4","3","3","4","3","4","3","2","4","2","4","3","3","4","4","2","2","2","2","2","2","2","2","1","1","0","1","0","0","1","0","1","1","1","-1","0","0","0","0","4","2","2","1","4","2","3","4","4","2","568408786771902464","王","","","","","","","","","","","","","","","","","","","","","","","","","","","","","","feedback_test","","","","","","","","","",""
"695","","j","psychophysics","15","308460","0.0-7.0-0.0-1.0-0.0-0.3","3","3","3","3","3","4","3","3","4","3","4","3","2","4","2","4","3","3","4","4","2","2","2","2","2","2","2","2","1","1","0","1","0","0","1","0","1","1","1","-1","0","0","0","0","4","2","2","1","4","2","3","4","4","2","568408786771902464","王","","","","nonmatch","","","","","","","","","","","","","","key","j","16.653705882353083","799.9999682108573","445.8333156175091","j","true","nonmatch","img/pentagon.png","方形","五边","ALT1_1","prac_ALT1_1","","","","","","","","","",""
"null","<span style='color:GreenYellow; font-size: 70px;'>正确! </span>","null","html-keyboard-response","16","308964","0.0-7.0-0.0-1.0-0.0-1.3","3","3","3","3","3","4","3","3","4","3","4","3","2","4","2","4","3","3","4","4","2","2","2","2","2","2","2","2","1","1","0","1","0","0","1","0","1","1","1","-1","0","0","0","0","4","2","2","1","4","2","3","4","4","2","568408786771902464","王","","","","","","","","","","","","","","","","","","","","","","","","","","","","","","feedback_test","","","","","","","","","",""
"696","","j","psychophysics","17","310666","0.0-7.0-0.0-1.0-0.0-0.4","3","3","3","3","3","4","3","3","4","3","4","3","2","4","2","4","3","3","4","4","2","2","2","2","2","2","2","2","1","1","0","1","0","0","1","0","1","1","1","-1","0","0","0","0","4","2","2","1","4","2","3","4","4","2","568408786771902464","王","","","","nonmatch","","","","","","","","","","","","","","key","j","16.650782178217742","799.9999682108573","445.8333156175091","j","true","nonmatch","img/square.png","椭圆","方形","ALT1_1","prac_ALT1_1","","","","","","","","","",""
"null","<span style='color:GreenYellow; font-size: 70px;'>正确! </span>","null","html-keyboard-response","18","311172","0.0-7.0-0.0-1.0-0.0-1.4","3","3","3","3","3","4","3","3","4","3","4","3","2","4","2","4","3","3","4","4","2","2","2","2","2","2","2","2","1","1","0","1","0","0","1","0","1","1","1","-1","0","0","0","0","4","2","2","1","4","2","3","4","4","2","568408786771902464","王","","","","","","","","","","","","","","","","","","","","","","","","","","","","","","feedback_test","","","","","","","","","",""
"792","","j","psychophysics","19","312976","0.0-7.0-0.0-1.0-0.0-0.5","3","3","3","3","3","4","3","3","4","3","4","3","2","4","2","4","3","3","4","4","2","2","2","2","2","2","2","2","1","1","0","1","0","0","1","0","1","1","1","-1","0","0","0","0","4","2","2","1","4","2","3","4","4","2","568408786771902464","王","","","","nonmatch","","","","","","","","","","","","","","key","j","16.65436448598124","799.9999682108573","445.8333156175091","j","true","nonmatch","img/triangle.png","方形","三角","ALT1_1","prac_ALT1_1","","","","","","","","","",""
"null","<span style='color:GreenYellow; font-size: 70px;'>正确! </span>","null","html-keyboard-response","20","313493","0.0-7.0-0.0-1.0-0.0-1.5","3","3","3","3","3","4","3","3","4","3","4","3","2","4","2","4","3","3","4","4","2","2","2","2","2","2","2","2","1","1","0","1","0","0","1","0","1","1","1","-1","0","0","0","0","4","2","2","1","4","2","3","4","4","2","568408786771902464","王","","","","","","","","","","","","","","","","","","","","","","","","","","","","","","feedback_test","","","","","","","","","",""
"800","","f","psychophysics","21","315313","0.0-7.0-0.0-1.0-0.0-0.6","3","3","3","3","3","4","3","3","4","3","4","3","2","4","2","4","3","3","4","4","2","2","2","2","2","2","2","2","1","1","0","1","0","0","1","0","1","1","1","-1","0","0","0","0","4","2","2","1","4","2","3","4","4","2","568408786771902464","王","","","","match","","","","","","","","","","","","","","key","f","16.65365740740715","799.9999682108573","445.8333156175091","f","true","match","img/square.png","方形","方形","ALT1_1","prac_ALT1_1","","","","","","","","","",""
"null","<span style='color:GreenYellow; font-size: 70px;'>正确! </span>","null","html-keyboard-response","22","315822","0.0-7.0-0.0-1.0-0.0-1.6","3","3","3","3","3","4","3","3","4","3","4","3","2","4","2","4","3","3","4","4","2","2","2","2","2","2","2","2","1","1","0","1","0","0","1","0","1","1","1","-1","0","0","0","0","4","2","2","1","4","2","3","4","4","2","568408786771902464","王","","","","","","","","","","","","","","","","","","","","","","","","","","","","","","feedback_test","","","","","","","","","",""
"753","","f","psychophysics","23","317584","0.0-7.0-0.0-1.0-0.0-0.7","3","3","3","3","3","4","3","3","4","3","4","3","2","4","2","4","3","3","4","4","2","2","2","2","2","2","2","2","1","1","0","1","0","0","1","0","1","1","1","-1","0","0","0","0","4","2","2","1","4","2","3","4","4","2","568408786771902464","王","","","","match","","","","","","","","","","","","","","key","f","16.653314285714266","799.9999682108573","445.8333156175091","f","true","match","img/triangle.png","三角","三角","ALT1_1","prac_ALT1_1","","","","","","","","","",""
"null","<span style='color:GreenYellow; font-size: 70px;'>正确! </span>","null","html-keyboard-response","24","318093","0.0-7.0-0.0-1.0-0.0-1.7","3","3","3","3","3","4","3","3","4","3","4","3","2","4","2","4","3","3","4","4","2","2","2","2","2","2","2","2","1","1","0","1","0","0","1","0","1","1","1","-1","0","0","0","0","4","2","2","1","4","2","3","4","4","2","568408786771902464","王","","","","","","","","","","","","","","","","","","","","","","","","","","","","","","feedback_test","","","","","","","","","",""
"681","","j","psychophysics","25","319776","0.0-7.0-0.0-1.0-0.0-0.8","3","3","3","3","3","4","3","3","4","3","4","3","2","4","2","4","3","3","4","4","2","2","2","2","2","2","2","2","1","1","0","1","0","0","1","0","1","1","1","-1","0","0","0","0","4","2","2","1","4","2","3","4","4","2","568408786771902464","王","","","","nonmatch","","","","","","","","","","","","","","key","j","16.654739999999876","799.9999682108573","445.8333156175091","j","true","nonmatch","img/square.png","三角","方形","ALT1_1","prac_ALT1_1","","","","","","","","","",""
"null","<span style='color:GreenYellow; font-size: 70px;'>正确! </span>","null","html-keyboard-response","26","320283","0.0-7.0-0.0-1.0-0.0-1.8","3","3","3","3","3","4","3","3","4","3","4","3","2","4","2","4","3","3","4","4","2","2","2","2","2","2","2","2","1","1","0","1","0","0","1","0","1","1","1","-1","0","0","0","0","4","2","2","1","4","2","3","4","4","2","568408786771902464","王","","","","","","","","","","","","","","","","","","","","","","","","","","","","","","feedback_test","","","","","","","","","",""
"571","","j","psychophysics","27","321864","0.0-7.0-0.0-1.0-0.0-0.9","3","3","3","3","3","4","3","3","4","3","4","3","2","4","2","4","3","3","4","4","2","2","2","2","2","2","2","2","1","1","0","1","0","0","1","0","1","1","1","-1","0","0","0","0","4","2","2","1","4","2","3","4","4","2","568408786771902464","王","","","","nonmatch","","","","","","","","","","","","","","key","j","16.65044680851056","799.9999682108573","445.8333156175091","j","true","nonmatch","img/pentagon.png","椭圆","五边","ALT1_1","prac_ALT1_1","","","","","","","","","",""
"null","<span style='color:GreenYellow; font-size: 70px;'>正确! </span>","null","html-keyboard-response","28","322370","0.0-7.0-0.0-1.0-0.0-1.9","3","3","3","3","3","4","3","3","4","3","4","3","2","4","2","4","3","3","4","4","2","2","2","2","2","2","2","2","1","1","0","1","0","0","1","0","1","1","1","-1","0","0","0","0","4","2","2","1","4","2","3","4","4","2","568408786771902464","王","","","","","","","","","","","","","","","","","","","","","","","","","","","","","","feedback_test","","","","","","","","","",""
"761","","f","psychophysics","29","324135","0.0-7.0-0.0-1.0-0.0-0.10","3","3","3","3","3","4","3","3","4","3","4","3","2","4","2","4","3","3","4","4","2","2","2","2","2","2","2","2","1","1","0","1","0","0","1","0","1","1","1","-1","0","0","0","0","4","2","2","1","4","2","3","4","4","2","568408786771902464","王","","","","match","","","","","","","","","","","","","","key","f","16.651942857143116","799.9999682108573","445.8333156175091","f","true","match","img/square.png","方形","方形","ALT1_1","prac_ALT1_1","","","","","","","","","",""
"null","<span style='color:GreenYellow; font-size: 70px;'>正确! </span>","null","html-keyboard-response","30","324645","0.0-7.0-0.0-1.0-0.0-1.10","3","3","3","3","3","4","3","3","4","3","4","3","2","4","2","4","3","3","4","4","2","2","2","2","2","2","2","2","1","1","0","1","0","0","1","0","1","1","1","-1","0","0","0","0","4","2","2","1","4","2","3","4","4","2","568408786771902464","王","","","","","","","","","","","","","","","","","","","","","","","","","","","","","","feedback_test","","","","","","","","","",""
"597","","j","psychophysics","31","326250","0.0-7.0-0.0-1.0-0.0-0.11","3","3","3","3","3","4","3","3","4","3","4","3","2","4","2","4","3","3","4","4","2","2","2","2","2","2","2","2","1","1","0","1","0","0","1","0","1","1","1","-1","0","0","0","0","4","2","2","1","4","2","3","4","4","2","568408786771902464","王","","","","nonmatch","","","","","","","","","","","","","","key","j","16.654221052631712","799.9999682108573","445.8333156175091","j","true","nonmatch","img/ellipse.png","五边","椭圆","ALT1_1","prac_ALT1_1","","","","","","","","","",""
"null","<span style='color:GreenYellow; font-size: 70px;'>正确! </span>","null","html-keyboard-response","32","326764","0.0-7.0-0.0-1.0-0.0-1.11","3","3","3","3","3","4","3","3","4","3","4","3","2","4","2","4","3","3","4","4","2","2","2","2","2","2","2","2","1","1","0","1","0","0","1","0","1","1","1","-1","0","0","0","0","4","2","2","1","4","2","3","4","4","2","568408786771902464","王","","","","","","","","","","","","","","","","","","","","","","","","","","","","","","feedback_test","","","","","","","","","",""
"815","","f","psychophysics","33","328585","0.0-7.0-0.0-1.0-0.0-0.12","3","3","3","3","3","4","3","3","4","3","4","3","2","4","2","4","3","3","4","4","2","2","2","2","2","2","2","2","1","1","0","1","0","0","1","0","1","1","1","-1","0","0","0","0","4","2","2","1","4","2","3","4","4","2","568408786771902464","王","","","","match","","","","","","","","","","","","","","key","f","16.652833333333277","799.9999682108573","445.8333156175091","f","true","match","img/pentagon.png","五边","五边","ALT1_1","prac_ALT1_1","","","","","","","","","",""
"null","<span style='color:GreenYellow; font-size: 70px;'>正确! </span>","null","html-keyboard-response","34","329092","0.0-7.0-0.0-1.0-0.0-1.12","3","3","3","3","3","4","3","3","4","3","4","3","2","4","2","4","3","3","4","4","2","2","2","2","2","2","2","2","1","1","0","1","0","0","1","0","1","1","1","-1","0","0","0","0","4","2","2","1","4","2","3","4","4","2","568408786771902464","王","","","","","","","","","","","","","","","","","","","","","","","","","","","","","","feedback_test","","","","","","","","","",""
"537","","f","psychophysics","35","330638","0.0-7.0-0.0-1.0-0.0-0.13","3","3","3","3","3","4","3","3","4","3","4","3","2","4","2","4","3","3","4","4","2","2","2","2","2","2","2","2","1","1","0","1","0","0","1","0","1","1","1","-1","0","0","0","0","4","2","2","1","4","2","3","4","4","2","568408786771902464","王","","","","match","","","","","","","","","","","","","","key","f","16.65508695652154","799.9999682108573","445.8333156175091","f","true","match","img/triangle.png","三角","三角","ALT1_1","prac_ALT1_1","","","","","","","","","",""
"null","<span style='color:GreenYellow; font-size: 70px;'>正确! </span>","null","html-keyboard-response","36","331141","0.0-7.0-0.0-1.0-0.0-1.13","3","3","3","3","3","4","3","3","4","3","4","3","2","4","2","4","3","3","4","4","2","2","2","2","2","2","2","2","1","1","0","1","0","0","1","0","1","1","1","-1","0","0","0","0","4","2","2","1","4","2","3","4","4","2","568408786771902464","王","","","","","","","","","","","","","","","","","","","","","","","","","","","","","","feedback_test","","","","","","","","","",""
"652","","f","psychophysics","37","332801","0.0-7.0-0.0-1.0-0.0-0.14","3","3","3","3","3","4","3","3","4","3","4","3","2","4","2","4","3","3","4","4","2","2","2","2","2","2","2","2","1","1","0","1","0","0","1","0","1","1","1","-1","0","0","0","0","4","2","2","1","4","2","3","4","4","2","568408786771902464","王","","","","match","","","","","","","","","","","","","","key","f","16.654737373737554","799.9999682108573","445.8333156175091","f","true","match","img/square.png","方形","方形","ALT1_1","prac_ALT1_1","","","","","","","","","",""
"null","<span style='color:GreenYellow; font-size: 70px;'>正确! </span>","null","html-keyboard-response","38","333305","0.0-7.0-0.0-1.0-0.0-1.14","3","3","3","3","3","4","3","3","4","3","4","3","2","4","2","4","3","3","4","4","2","2","2","2","2","2","2","2","1","1","0","1","0","0","1","0","1","1","1","-1","0","0","0","0","4","2","2","1","4","2","3","4","4","2","568408786771902464","王","","","","","","","","","","","","","","","","","","","","","","","","","","","","","","feedback_test","","","","","","","","","",""
"664","","j","psychophysics","39","334978","0.0-7.0-0.0-1.0-0.0-0.15","3","3","3","3","3","4","3","3","4","3","4","3","2","4","2","4","3","3","4","4","2","2","2","2","2","2","2","2","1","1","0","1","0","0","1","0","1","1","1","-1","0","0","0","0","4","2","2","1","4","2","3","4","4","2","568408786771902464","王","","","","nonmatch","","","","","","","","","","","","","","key","j","16.651191919191852","799.9999682108573","445.8333156175091","j","true","nonmatch","img/pentagon.png","三角","五边","ALT1_1","prac_ALT1_1","","","","","","","","","",""
"null","<span style='color:GreenYellow; font-size: 70px;'>正确! </span>","null","html-keyboard-response","40","335479","0.0-7.0-0.0-1.0-0.0-1.15","3","3","3","3","3","4","3","3","4","3","4","3","2","4","2","4","3","3","4","4","2","2","2","2","2","2","2","2","1","1","0","1","0","0","1","0","1","1","1","-1","0","0","0","0","4","2","2","1","4","2","3","4","4","2","568408786771902464","王","","","","","","","","","","","","","","","","","","","","","","","","","","","","","","feedback_test","","","","","","","","","",""
"649","","f","psychophysics","41","337136","0.0-7.0-0.0-1.0-0.0-0.16","3","3","3","3","3","4","3","3","4","3","4","3","2","4","2","4","3","3","4","4","2","2","2","2","2","2","2","2","1","1","0","1","0","0","1","0","1","1","1","-1","0","0","0","0","4","2","2","1","4","2","3","4","4","2","568408786771902464","王","","","","match","","","","","","","","","","","","","","key","f","16.654112244897988","799.9999682108573","445.8333156175091","f","true","match","img/pentagon.png","五边","五边","ALT1_1","prac_ALT1_1","","","","","","","","","",""
"null","<span style='color:GreenYellow; font-size: 70px;'>正确! </span>","null","html-keyboard-response","42","337646","0.0-7.0-0.0-1.0-0.0-1.16","3","3","3","3","3","4","3","3","4","3","4","3","2","4","2","4","3","3","4","4","2","2","2","2","2","2","2","2","1","1","0","1","0","0","1","0","1","1","1","-1","0","0","0","0","4","2","2","1","4","2","3","4","4","2","568408786771902464","王","","","","","","","","","","","","","","","","","","","","","","","","","","","","","","feedback_test","","","","","","","","","",""
"664","","j","psychophysics","43","339319","0.0-7.0-0.0-1.0-0.0-0.17","3","3","3","3","3","4","3","3","4","3","4","3","2","4","2","4","3","3","4","4","2","2","2","2","2","2","2","2","1","1","0","1","0","0","1","0","1","1","1","-1","0","0","0","0","4","2","2","1","4","2","3","4","4","2","568408786771902464","王","","","","nonmatch","","","","","","","","","","","","","","key","j","16.654575757575902","799.9999682108573","445.8333156175091","j","true","nonmatch","img/ellipse.png","方形","椭圆","ALT1_1","prac_ALT1_1","","","","","","","","","",""
"null","<span style='color:GreenYellow; font-size: 70px;'>正确! </span>","null","html-keyboard-response","44","339830","0.0-7.0-0.0-1.0-0.0-1.17","3","3","3","3","3","4","3","3","4","3","4","3","2","4","2","4","3","3","4","4","2","2","2","2","2","2","2","2","1","1","0","1","0","0","1","0","1","1","1","-1","0","0","0","0","4","2","2","1","4","2","3","4","4","2","568408786771902464","王","","","","","","","","","","","","","","","","","","","","","","","","","","","","","","feedback_test","","","","","","","","","",""
"754","","f","psychophysics","45","341607","0.0-7.0-0.0-1.0-0.0-0.18","3","3","3","3","3","4","3","3","4","3","4","3","2","4","2","4","3","3","4","4","2","2","2","2","2","2","2","2","1","1","0","1","0","0","1","0","1","1","1","-1","0","0","0","0","4","2","2","1","4","2","3","4","4","2","568408786771902464","王","","","","match","","","","","","","","","","","","","","key","f","16.650999999999943","799.9999682108573","445.8333156175091","f","true","match","img/ellipse.png","椭圆","椭圆","ALT1_1","prac_ALT1_1","","","","","","","","","",""
"null","<span style='color:GreenYellow; font-size: 70px;'>正确! </span>","null","html-keyboard-response","46","342121","0.0-7.0-0.0-1.0-0.0-1.18","3","3","3","3","3","4","3","3","4","3","4","3","2","4","2","4","3","3","4","4","2","2","2","2","2","2","2","2","1","1","0","1","0","0","1","0","1","1","1","-1","0","0","0","0","4","2","2","1","4","2","3","4","4","2","568408786771902464","王","","","","","","","","","","","","","","","","","","","","","","","","","","","","","","feedback_test","","","","","","","","","",""
"719","","j","psychophysics","47","343841","0.0-7.0-0.0-1.0-0.0-0.19","3","3","3","3","3","4","3","3","4","3","4","3","2","4","2","4","3","3","4","4","2","2","2","2","2","2","2","2","1","1","0","1","0","0","1","0","1","1","1","-1","0","0","0","0","4","2","2","1","4","2","3","4","4","2","568408786771902464","王","","","","nonmatch","","","","","","","","","","","","","","key","j","16.57828431372535","799.9999682108573","445.8333156175091","j","true","nonmatch","img/square.png","五边","方形","ALT1_1","prac_ALT1_1","","","","","","","","","",""
"null","<span style='color:GreenYellow; font-size: 70px;'>正确! </span>","null","html-keyboard-response","48","344350","0.0-7.0-0.0-1.0-0.0-1.19","3","3","3","3","3","4","3","3","4","3","4","3","2","4","2","4","3","3","4","4","2","2","2","2","2","2","2","2","1","1","0","1","0","0","1","0","1","1","1","-1","0","0","0","0","4","2","2","1","4","2","3","4","4","2","568408786771902464","王","","","","","","","","","","","","","","","","","","","","","","","","","","","","","","feedback_test","","","","","","","","","",""
"627","","j","psychophysics","49","345980","0.0-7.0-0.0-1.0-0.0-0.20","3","3","3","3","3","4","3","3","4","3","4","3","2","4","2","4","3","3","4","4","2","2","2","2","2","2","2","2","1","1","0","1","0","0","1","0","1","1","1","-1","0","0","0","0","4","2","2","1","4","2","3","4","4","2","568408786771902464","王","","","","nonmatch","","","","","","","","","","","","","","key","j","16.65430927835045","799.9999682108573","445.8333156175091","j","true","nonmatch","img/ellipse.png","三角","椭圆","ALT1_1","prac_ALT1_1","","","","","","","","","",""
"null","<span style='color:GreenYellow; font-size: 70px;'>正确! </span>","null","html-keyboard-response","50","346487","0.0-7.0-0.0-1.0-0.0-1.20","3","3","3","3","3","4","3","3","4","3","4","3","2","4","2","4","3","3","4","4","2","2","2","2","2","2","2","2","1","1","0","1","0","0","1","0","1","1","1","-1","0","0","0","0","4","2","2","1","4","2","3","4","4","2","568408786771902464","王","","","","","","","","","","","","","","","","","","","","","","","","","","","","","","feedback_test","","","","","","","","","",""
"721","","j","psychophysics","51","348235","0.0-7.0-0.0-1.0-0.0-0.21","3","3","3","3","3","4","3","3","4","3","4","3","2","4","2","4","3","3","4","4","2","2","2","2","2","2","2","2","1","1","0","1","0","0","1","0","1","1","1","-1","0","0","0","0","4","2","2","1","4","2","3","4","4","2","568408786771902464","王","","","","nonmatch","","","","","","","","","","","","","","key","j","16.655442307692002","799.9999682108573","445.8333156175091","j","true","nonmatch","img/triangle.png","椭圆","三角","ALT1_1","prac_ALT1_1","","","","","","","","","",""
"null","<span style='color:GreenYellow; font-size: 70px;'>正确! </span>","null","html-keyboard-response","52","348739","0.0-7.0-0.0-1.0-0.0-1.21","3","3","3","3","3","4","3","3","4","3","4","3","2","4","2","4","3","3","4","4","2","2","2","2","2","2","2","2","1","1","0","1","0","0","1","0","1","1","1","-1","0","0","0","0","4","2","2","1","4","2","3","4","4","2","568408786771902464","王","","","","","","","","","","","","","","","","","","","","","","","","","","","","","","feedback_test","","","","","","","","","",""
"621","","f","psychophysics","53","350369","0.0-7.0-0.0-1.0-0.0-0.22","3","3","3","3","3","4","3","3","4","3","4","3","2","4","2","4","3","3","4","4","2","2","2","2","2","2","2","2","1","1","0","1","0","0","1","0","1","1","1","-1","0","0","0","0","4","2","2","1","4","2","3","4","4","2","568408786771902464","王","","","","match","","","","","","","","","","","","","","key","f","16.654711340206013","799.9999682108573","445.8333156175091","f","true","match","img/ellipse.png","椭圆","椭圆","ALT1_1","prac_ALT1_1","","","","","","","","","",""
"null","<span style='color:GreenYellow; font-size: 70px;'>正确! </span>","null","html-keyboard-response","54","350884","0.0-7.0-0.0-1.0-0.0-1.22","3","3","3","3","3","4","3","3","4","3","4","3","2","4","2","4","3","3","4","4","2","2","2","2","2","2","2","2","1","1","0","1","0","0","1","0","1","1","1","-1","0","0","0","0","4","2","2","1","4","2","3","4","4","2","568408786771902464","王","","","","","","","","","","","","","","","","","","","","","","","","","","","","","","feedback_test","","","","","","","","","",""
"553","","f","psychophysics","55","352449","0.0-7.0-0.0-1.0-0.0-0.23","3","3","3","3","3","4","3","3","4","3","4","3","2","4","2","4","3","3","4","4","2","2","2","2","2","2","2","2","1","1","0","1","0","0","1","0","1","1","1","-1","0","0","0","0","4","2","2","1","4","2","3","4","4","2","568408786771902464","王","","","","match","","","","","","","","","","","","","","key","f","16.65492473118275","799.9999682108573","445.8333156175091","f","true","match","img/triangle.png","三角","三角","ALT1_1","prac_ALT1_1","","","","","","","","","",""
"null","<span style='color:GreenYellow; font-size: 70px;'>正确! </span>","null","html-keyboard-response","56","352956","0.0-7.0-0.0-1.0-0.0-1.23","3","3","3","3","3","4","3","3","4","3","4","3","2","4","2","4","3","3","4","4","2","2","2","2","2","2","2","2","1","1","0","1","0","0","1","0","1","1","1","-1","0","0","0","0","4","2","2","1","4","2","3","4","4","2","568408786771902464","王","","","","","","","","","","","","","","","","","","","","","","","","","","","","","","feedback_test","","","","","","","","","",""
"504","","f","psychophysics","57","354499","0.0-7.0-0.0-1.0-0.0-0.24","3","3","3","3","3","4","3","3","4","3","4","3","2","4","2","4","3","3","4","4","2","2","2","2","2","2","2","2","1","1","0","1","0","0","1","0","1","1","1","-1","0","0","0","0","4","2","2","1","4","2","3","4","4","2","568408786771902464","王","","","","match","","","","","","","","","","","","","","key","f","16.654586956521204","799.9999682108573","445.8333156175091","j","false","nonmatch","img/pentagon.png","三角","五边","ALT1_1","prac_ALT1_1","","","","","","","","","",""
"null","<span style='color:red; font-size: 70px;'>错误! </span>","null","html-keyboard-response","58","355007","0.0-7.0-0.0-1.0-0.0-1.24","3","3","3","3","3","4","3","3","4","3","4","3","2","4","2","4","3","3","4","4","2","2","2","2","2","2","2","2","1","1","0","1","0","0","1","0","1","1","1","-1","0","0","0","0","4","2","2","1","4","2","3","4","4","2","568408786771902464","王","","","","","","","","","","","","","","","","","","","","","","","","","","","","","","feedback_test","","","","","","","","","",""
"673","","f","psychophysics","59","356682","0.0-7.0-0.0-1.0-0.0-0.25","3","3","3","3","3","4","3","3","4","3","4","3","2","4","2","4","3","3","4","4","2","2","2","2","2","2","2","2","1","1","0","1","0","0","1","0","1","1","1","-1","0","0","0","0","4","2","2","1","4","2","3","4","4","2","568408786771902464","王","","","","match","","","","","","","","","","","","","","key","f","16.654400000000024","799.9999682108573","445.8333156175091","f","true","match","img/square.png","方形","方形","ALT1_1","prac_ALT1_1","","","","","","","","","",""
"null","<span style='color:GreenYellow; font-size: 70px;'>正确! </span>","null","html-keyboard-response","60","357196","0.0-7.0-0.0-1.0-0.0-1.25","3","3","3","3","3","4","3","3","4","3","4","3","2","4","2","4","3","3","4","4","2","2","2","2","2","2","2","2","1","1","0","1","0","0","1","0","1","1","1","-1","0","0","0","0","4","2","2","1","4","2","3","4","4","2","568408786771902464","王","","","","","","","","","","","","","","","","","","","","","","","","","","","","","","feedback_test","","","","","","","","","",""
"631","","f","psychophysics","61","358837","0.0-7.0-0.0-1.0-0.0-0.26","3","3","3","3","3","4","3","3","4","3","4","3","2","4","2","4","3","3","4","4","2","2","2","2","2","2","2","2","1","1","0","1","0","0","1","0","1","1","1","-1","0","0","0","0","4","2","2","1","4","2","3","4","4","2","568408786771902464","王","","","","match","","","","","","","","","","","","","","key","f","16.65455670103121","799.9999682108573","445.8333156175091","f","true","match","img/square.png","方形","方形","ALT1_1","prac_ALT1_1","","","","","","","","","",""
"null","<span style='color:GreenYellow; font-size: 70px;'>正确! </span>","null","html-keyboard-response","62","359343","0.0-7.0-0.0-1.0-0.0-1.26","3","3","3","3","3","4","3","3","4","3","4","3","2","4","2","4","3","3","4","4","2","2","2","2","2","2","2","2","1","1","0","1","0","0","1","0","1","1","1","-1","0","0","0","0","4","2","2","1","4","2","3","4","4","2","568408786771902464","王","","","","","","","","","","","","","","","","","","","","","","","","","","","","","","feedback_test","","","","","","","","","",""
"603","","j","psychophysics","63","360958","0.0-7.0-0.0-1.0-0.0-0.27","3","3","3","3","3","4","3","3","4","3","4","3","2","4","2","4","3","3","4","4","2","2","2","2","2","2","2","2","1","1","0","1","0","0","1","0","1","1","1","-1","0","0","0","0","4","2","2","1","4","2","3","4","4","2","568408786771902464","王","","","","nonmatch","","","","","","","","","","","","","","key","j","16.65488541666673","799.9999682108573","445.8333156175091","j","true","nonmatch","img/triangle.png","椭圆","三角","ALT1_1","prac_ALT1_1","","","","","","","","","",""
"null","<span style='color:GreenYellow; font-size: 70px;'>正确! </span>","null","html-keyboard-response","64","361467","0.0-7.0-0.0-1.0-0.0-1.27","3","3","3","3","3","4","3","3","4","3","4","3","2","4","2","4","3","3","4","4","2","2","2","2","2","2","2","2","1","1","0","1","0","0","1","0","1","1","1","-1","0","0","0","0","4","2","2","1","4","2","3","4","4","2","568408786771902464","王","","","","","","","","","","","","","","","","","","","","","","","","","","","","","","feedback_test","","","","","","","","","",""
"1134","","j","psychophysics","65","363603","0.0-7.0-0.0-1.0-0.0-0.28","3","3","3","3","3","4","3","3","4","3","4","3","2","4","2","4","3","3","4","4","2","2","2","2","2","2","2","2","1","1","0","1","0","0","1","0","1","1","1","-1","0","0","0","0","4","2","2","1","4","2","3","4","4","2","568408786771902464","王","","","","nonmatch","","","","","","","","","","","","","","key","j","16.65057031250035","799.9999682108573","445.8333156175091","j","true","nonmatch","img/ellipse.png","五边","椭圆","ALT1_1","prac_ALT1_1","","","","","","","","","",""
"null","<span style='color:GreenYellow; font-size: 70px;'>正确! </span>","null","html-keyboard-response","66","364107","0.0-7.0-0.0-1.0-0.0-1.28","3","3","3","3","3","4","3","3","4","3","4","3","2","4","2","4","3","3","4","4","2","2","2","2","2","2","2","2","1","1","0","1","0","0","1","0","1","1","1","-1","0","0","0","0","4","2","2","1","4","2","3","4","4","2","568408786771902464","王","","","","","","","","","","","","","","","","","","","","","","","","","","","","","","feedback_test","","","","","","","","","",""
"635","","f","psychophysics","67","365751","0.0-7.0-0.0-1.0-0.0-0.29","3","3","3","3","3","4","3","3","4","3","4","3","2","4","2","4","3","3","4","4","2","2","2","2","2","2","2","2","1","1","0","1","0","0","1","0","1","1","1","-1","0","0","0","0","4","2","2","1","4","2","3","4","4","2","568408786771902464","王","","","","match","","","","","","","","","","","","","","key","f","16.652285714285703","799.9999682108573","445.8333156175091","f","true","match","img/triangle.png","三角","三角","ALT1_1","prac_ALT1_1","","","","","","","","","",""
"null","<span style='color:GreenYellow; font-size: 70px;'>正确! </span>","null","html-keyboard-response","68","366265","0.0-7.0-0.0-1.0-0.0-1.29","3","3","3","3","3","4","3","3","4","3","4","3","2","4","2","4","3","3","4","4","2","2","2","2","2","2","2","2","1","1","0","1","0","0","1","0","1","1","1","-1","0","0","0","0","4","2","2","1","4","2","3","4","4","2","568408786771902464","王","","","","","","","","","","","","","","","","","","","","","","","","","","","","","","feedback_test","","","","","","","","","",""
"771","","f","psychophysics","69","368047","0.0-7.0-0.0-1.0-0.0-0.30","3","3","3","3","3","4","3","3","4","3","4","3","2","4","2","4","3","3","4","4","2","2","2","2","2","2","2","2","1","1","0","1","0","0","1","0","1","1","1","-1","0","0","0","0","4","2","2","1","4","2","3","4","4","2","568408786771902464","王","","","","match","","","","","","","","","","","","","","key","f","16.65396190476216","799.9999682108573","445.8333156175091","f","true","match","img/pentagon.png","五边","五边","ALT1_1","prac_ALT1_1","","","","","","","","","",""
"null","<span style='color:GreenYellow; font-size: 70px;'>正确! </span>","null","html-keyboard-response","70","368552","0.0-7.0-0.0-1.0-0.0-1.30","3","3","3","3","3","4","3","3","4","3","4","3","2","4","2","4","3","3","4","4","2","2","2","2","2","2","2","2","1","1","0","1","0","0","1","0","1","1","1","-1","0","0","0","0","4","2","2","1","4","2","3","4","4","2","568408786771902464","王","","","","","","","","","","","","","","","","","","","","","","","","","","","","","","feedback_test","","","","","","","","","",""
"654","","f","psychophysics","71","370209","0.0-7.0-0.0-1.0-0.0-0.31","3","3","3","3","3","4","3","3","4","3","4","3","2","4","2","4","3","3","4","4","2","2","2","2","2","2","2","2","1","1","0","1","0","0","1","0","1","1","1","-1","0","0","0","0","4","2","2","1","4","2","3","4","4","2","568408786771902464","王","","","","match","","","","","","","","","","","","","","key","f","16.655673469387693","799.9999682108573","445.8333156175091","f","true","match","img/triangle.png","三角","三角","ALT1_1","prac_ALT1_1","","","","","","","","","",""
"null","<span style='color:GreenYellow; font-size: 70px;'>正确! </span>","null","html-keyboard-response","72","370711","0.0-7.0-0.0-1.0-0.0-1.31","3","3","3","3","3","4","3","3","4","3","4","3","2","4","2","4","3","3","4","4","2","2","2","2","2","2","2","2","1","1","0","1","0","0","1","0","1","1","1","-1","0","0","0","0","4","2","2","1","4","2","3","4","4","2","568408786771902464","王","","","","","","","","","","","","","","","","","","","","","","","","","","","","","","feedback_test","","","","","","","","","",""
"618","","j","psychophysics","73","372341","0.0-7.0-0.0-1.0-0.0-0.32","3","3","3","3","3","4","3","3","4","3","4","3","2","4","2","4","3","3","4","4","2","2","2","2","2","2","2","2","1","1","0","1","0","0","1","0","1","1","1","-1","0","0","0","0","4","2","2","1","4","2","3","4","4","2","568408786771902464","王","","","","nonmatch","","","","","","","","","","","","","","key","j","16.653958333333623","799.9999682108573","445.8333156175091","j","true","nonmatch","img/square.png","三角","方形","ALT1_1","prac_ALT1_1","","","","","","","","","",""
"null","<span style='color:GreenYellow; font-size: 70px;'>正确! </span>","null","html-keyboard-response","74","372849","0.0-7.0-0.0-1.0-0.0-1.32","3","3","3","3","3","4","3","3","4","3","4","3","2","4","2","4","3","3","4","4","2","2","2","2","2","2","2","2","1","1","0","1","0","0","1","0","1","1","1","-1","0","0","0","0","4","2","2","1","4","2","3","4","4","2","568408786771902464","王","","","","","","","","","","","","","","","","","","","","","","","","","","","","","","feedback_test","","","","","","","","","",""
"787","","f","psychophysics","75","374645","0.0-7.0-0.0-1.0-0.0-0.33","3","3","3","3","3","4","3","3","4","3","4","3","2","4","2","4","3","3","4","4","2","2","2","2","2","2","2","2","1","1","0","1","0","0","1","0","1","1","1","-1","0","0","0","0","4","2","2","1","4","2","3","4","4","2","568408786771902464","王","","","","match","","","","","","","","","","","","","","key","f","16.654401869158953","799.9999682108573","445.8333156175091","j","false","nonmatch","img/pentagon.png","方形","五边","ALT1_1","prac_ALT1_1","","","","","","","","","",""
"null","<span style='color:red; font-size: 70px;'>错误! </span>","null","html-keyboard-response","76","375148","0.0-7.0-0.0-1.0-0.0-1.33","3","3","3","3","3","4","3","3","4","3","4","3","2","4","2","4","3","3","4","4","2","2","2","2","2","2","2","2","1","1","0","1","0","0","1","0","1","1","1","-1","0","0","0","0","4","2","2","1","4","2","3","4","4","2","568408786771902464","王","","","","","","","","","","","","","","","","","","","","","","","","","","","","","","feedback_test","","","","","","","","","",""
"641","","f","psychophysics","77","376790","0.0-7.0-0.0-1.0-0.0-0.34","3","3","3","3","3","4","3","3","4","3","4","3","2","4","2","4","3","3","4","4","2","2","2","2","2","2","2","2","1","1","0","1","0","0","1","0","1","1","1","-1","0","0","0","0","4","2","2","1","4","2","3","4","4","2","568408786771902464","王","","","","match","","","","","","","","","","","","","","key","f","16.654530612244603","799.9999682108573","445.8333156175091","f","true","match","img/ellipse.png","椭圆","椭圆","ALT1_1","prac_ALT1_1","","","","","","","","","",""
"null","<span style='color:GreenYellow; font-size: 70px;'>正确! </span>","null","html-keyboard-response","78","377303","0.0-7.0-0.0-1.0-0.0-1.34","3","3","3","3","3","4","3","3","4","3","4","3","2","4","2","4","3","3","4","4","2","2","2","2","2","2","2","2","1","1","0","1","0","0","1","0","1","1","1","-1","0","0","0","0","4","2","2","1","4","2","3","4","4","2","568408786771902464","王","","","","","","","","","","","","","","","","","","","","","","","","","","","","","","feedback_test","","","","","","","","","",""
"906","","f","psychophysics","79","379227","0.0-7.0-0.0-1.0-0.0-0.35","3","3","3","3","3","4","3","3","4","3","4","3","2","4","2","4","3","3","4","4","2","2","2","2","2","2","2","2","1","1","0","1","0","0","1","0","1","1","1","-1","0","0","0","0","4","2","2","1","4","2","3","4","4","2","568408786771902464","王","","","","match","","","","","","","","","","","","","","key","f","16.652043859648984","799.9999682108573","445.8333156175091","f","true","match","img/pentagon.png","五边","五边","ALT1_1","prac_ALT1_1","","","","","","","","","",""
"null","<span style='color:GreenYellow; font-size: 70px;'>正确! </span>","null","html-keyboard-response","80","379735","0.0-7.0-0.0-1.0-0.0-1.35","3","3","3","3","3","4","3","3","4","3","4","3","2","4","2","4","3","3","4","4","2","2","2","2","2","2","2","2","1","1","0","1","0","0","1","0","1","1","1","-1","0","0","0","0","4","2","2","1","4","2","3","4","4","2","568408786771902464","王","","","","","","","","","","","","","","","","","","","","","","","","","","","","","","feedback_test","","","","","","","","","",""
"732","","f","psychophysics","81","381471","0.0-7.0-0.0-1.0-0.0-0.36","3","3","3","3","3","4","3","3","4","3","4","3","2","4","2","4","3","3","4","4","2","2","2","2","2","2","2","2","1","1","0","1","0","0","1","0","1","1","1","-1","0","0","0","0","4","2","2","1","4","2","3","4","4","2","568408786771902464","王","","","","match","","","","","","","","","","","","","","key","f","16.65439805825234","799.9999682108573","445.8333156175091","f","true","match","img/pentagon.png","五边","五边","ALT1_1","prac_ALT1_1","","","","","","","","","",""
"null","<span style='color:GreenYellow; font-size: 70px;'>正确! </span>","null","html-keyboard-response","82","381975","0.0-7.0-0.0-1.0-0.0-1.36","3","3","3","3","3","4","3","3","4","3","4","3","2","4","2","4","3","3","4","4","2","2","2","2","2","2","2","2","1","1","0","1","0","0","1","0","1","1","1","-1","0","0","0","0","4","2","2","1","4","2","3","4","4","2","568408786771902464","王","","","","","","","","","","","","","","","","","","","","","","","","","","","","","","feedback_test","","","","","","","","","",""
"612","","j","psychophysics","83","383593","0.0-7.0-0.0-1.0-0.0-0.37","3","3","3","3","3","4","3","3","4","3","4","3","2","4","2","4","3","3","4","4","2","2","2","2","2","2","2","2","1","1","0","1","0","0","1","0","1","1","1","-1","0","0","0","0","4","2","2","1","4","2","3","4","4","2","568408786771902464","王","","","","nonmatch","","","","","","","","","","","","","","key","j","16.651322916666686","799.9999682108573","445.8333156175091","j","true","nonmatch","img/ellipse.png","三角","椭圆","ALT1_1","prac_ALT1_1","","","","","","","","","",""
"null","<span style='color:GreenYellow; font-size: 70px;'>正确! </span>","null","html-keyboard-response","84","384103","0.0-7.0-0.0-1.0-0.0-1.37","3","3","3","3","3","4","3","3","4","3","4","3","2","4","2","4","3","3","4","4","2","2","2","2","2","2","2","2","1","1","0","1","0","0","1","0","1","1","1","-1","0","0","0","0","4","2","2","1","4","2","3","4","4","2","568408786771902464","王","","","","","","","","","","","","","","","","","","","","","","","","","","","","","","feedback_test","","","","","","","","","",""
"670","","j","psychophysics","85","385800","0.0-7.0-0.0-1.0-0.0-0.38","3","3","3","3","3","4","3","3","4","3","4","3","2","4","2","4","3","3","4","4","2","2","2","2","2","2","2","2","1","1","0","1","0","0","1","0","1","1","1","-1","0","0","0","0","4","2","2","1","4","2","3","4","4","2","568408786771902464","王","","","","nonmatch","","","","","","","","","","","","","","key","j","16.646940594059554","799.9999682108573","445.8333156175091","j","true","nonmatch","img/ellipse.png","方形","椭圆","ALT1_1","prac_ALT1_1","","","","","","","","","",""
"null","<span style='color:GreenYellow; font-size: 70px;'>正确! </span>","null","html-keyboard-response","86","386318","0.0-7.0-0.0-1.0-0.0-1.38","3","3","3","3","3","4","3","3","4","3","4","3","2","4","2","4","3","3","4","4","2","2","2","2","2","2","2","2","1","1","0","1","0","0","1","0","1","1","1","-1","0","0","0","0","4","2","2","1","4","2","3","4","4","2","568408786771902464","王","","","","","","","","","","","","","","","","","","","","","","","","","","","","","","feedback_test","","","","","","","","","",""
"727","","j","psychophysics","87","388054","0.0-7.0-0.0-1.0-0.0-0.39","3","3","3","3","3","4","3","3","4","3","4","3","2","4","2","4","3","3","4","4","2","2","2","2","2","2","2","2","1","1","0","1","0","0","1","0","1","1","1","-1","0","0","0","0","4","2","2","1","4","2","3","4","4","2","568408786771902464","王","","","","nonmatch","","","","","","","","","","","","","","key","j","16.654038834951262","799.9999682108573","445.8333156175091","j","true","nonmatch","img/square.png","五边","方形","ALT1_1","prac_ALT1_1","","","","","","","","","",""
"null","<span style='color:GreenYellow; font-size: 70px;'>正确! </span>","null","html-keyboard-response","88","388569","0.0-7.0-0.0-1.0-0.0-1.39","3","3","3","3","3","4","3","3","4","3","4","3","2","4","2","4","3","3","4","4","2","2","2","2","2","2","2","2","1","1","0","1","0","0","1","0","1","1","1","-1","0","0","0","0","4","2","2","1","4","2","3","4","4","2","568408786771902464","王","","","","","","","","","","","","","","","","","","","","","","","","","","","","","","feedback_test","","","","","","","","","",""
"640","","j","psychophysics","89","390216","0.0-7.0-0.0-1.0-0.0-0.40","3","3","3","3","3","4","3","3","4","3","4","3","2","4","2","4","3","3","4","4","2","2","2","2","2","2","2","2","1","1","0","1","0","0","1","0","1","1","1","-1","0","0","0","0","4","2","2","1","4","2","3","4","4","2","568408786771902464","王","","","","nonmatch","","","","","","","","","","","","","","key","j","16.654510204081557","799.9999682108573","445.8333156175091","j","true","nonmatch","img/triangle.png","五边","三角","ALT1_1","prac_ALT1_1","","","","","","","","","",""
"null","<span style='color:GreenYellow; font-size: 70px;'>正确! </span>","null","html-keyboard-response","90","390718","0.0-7.0-0.0-1.0-0.0-1.40","3","3","3","3","3","4","3","3","4","3","4","3","2","4","2","4","3","3","4","4","2","2","2","2","2","2","2","2","1","1","0","1","0","0","1","0","1","1","1","-1","0","0","0","0","4","2","2","1","4","2","3","4","4","2","568408786771902464","王","","","","","","","","","","","","","","","","","","","","","","","","","","","","","","feedback_test","","","","","","","","","",""
"655","","f","psychophysics","91","392387","0.0-7.0-0.0-1.0-0.0-0.41","3","3","3","3","3","4","3","3","4","3","4","3","2","4","2","4","3","3","4","4","2","2","2","2","2","2","2","2","1","1","0","1","0","0","1","0","1","1","1","-1","0","0","0","0","4","2","2","1","4","2","3","4","4","2","568408786771902464","王","","","","match","","","","","","","","","","","","","","key","f","16.654555555555916","799.9999682108573","445.8333156175091","f","true","match","img/ellipse.png","椭圆","椭圆","ALT1_1","prac_ALT1_1","","","","","","","","","",""
"null","<span style='color:GreenYellow; font-size: 70px;'>正确! </span>","null","html-keyboard-response","92","392896","0.0-7.0-0.0-1.0-0.0-1.41","3","3","3","3","3","4","3","3","4","3","4","3","2","4","2","4","3","3","4","4","2","2","2","2","2","2","2","2","1","1","0","1","0","0","1","0","1","1","1","-1","0","0","0","0","4","2","2","1","4","2","3","4","4","2","568408786771902464","王","","","","","","","","","","","","","","","","","","","","","","","","","","","","","","feedback_test","","","","","","","","","",""
"651","","j","psychophysics","93","394556","0.0-7.0-0.0-1.0-0.0-0.42","3","3","3","3","3","4","3","3","4","3","4","3","2","4","2","4","3","3","4","4","2","2","2","2","2","2","2","2","1","1","0","1","0","0","1","0","1","1","1","-1","0","0","0","0","4","2","2","1","4","2","3","4","4","2","568408786771902464","王","","","","nonmatch","","","","","","","","","","","","","","key","j","16.655222222221912","799.9999682108573","445.8333156175091","j","true","nonmatch","img/square.png","椭圆","方形","ALT1_1","prac_ALT1_1","","","","","","","","","",""
"null","<span style='color:GreenYellow; font-size: 70px;'>正确! </span>","null","html-keyboard-response","94","395062","0.0-7.0-0.0-1.0-0.0-1.42","3","3","3","3","3","4","3","3","4","3","4","3","2","4","2","4","3","3","4","4","2","2","2","2","2","2","2","2","1","1","0","1","0","0","1","0","1","1","1","-1","0","0","0","0","4","2","2","1","4","2","3","4","4","2","568408786771902464","王","","","","","","","","","","","","","","","","","","","","","","","","","","","","","","feedback_test","","","","","","","","","",""
"845","","j","psychophysics","95","396914","0.0-7.0-0.0-1.0-0.0-0.43","3","3","3","3","3","4","3","3","4","3","4","3","2","4","2","4","3","3","4","4","2","2","2","2","2","2","2","2","1","1","0","1","0","0","1","0","1","1","1","-1","0","0","0","0","4","2","2","1","4","2","3","4","4","2","568408786771902464","王","","","","nonmatch","","","","","","","","","","","","","","key","j","16.652990909091155","799.9999682108573","445.8333156175091","j","true","nonmatch","img/pentagon.png","椭圆","五边","ALT1_1","prac_ALT1_1","","","","","","","","","",""
"null","<span style='color:GreenYellow; font-size: 70px;'>正确! </span>","null","html-keyboard-response","96","397440","0.0-7.0-0.0-1.0-0.0-1.43","3","3","3","3","3","4","3","3","4","3","4","3","2","4","2","4","3","3","4","4","2","2","2","2","2","2","2","2","1","1","0","1","0","0","1","0","1","1","1","-1","0","0","0","0","4","2","2","1","4","2","3","4","4","2","568408786771902464","王","","","","","","","","","","","","","","","","","","","","","","","","","","","","","","feedback_test","","","","","","","","","",""
"750","","j","psychophysics","97","399201","0.0-7.0-0.0-1.0-0.0-0.44","3","3","3","3","3","4","3","3","4","3","4","3","2","4","2","4","3","3","4","4","2","2","2","2","2","2","2","2","1","1","0","1","0","0","1","0","1","1","1","-1","0","0","0","0","4","2","2","1","4","2","3","4","4","2","568408786771902464","王","","","","nonmatch","","","","","","","","","","","","","","key","j","16.650942857142738","799.9999682108573","445.8333156175091","j","true","nonmatch","img/triangle.png","方形","三角","ALT1_1","prac_ALT1_1","","","","","","","","","",""
"null","<span style='color:GreenYellow; font-size: 70px;'>正确! </span>","null","html-keyboard-response","98","399707","0.0-7.0-0.0-1.0-0.0-1.44","3","3","3","3","3","4","3","3","4","3","4","3","2","4","2","4","3","3","4","4","2","2","2","2","2","2","2","2","1","1","0","1","0","0","1","0","1","1","1","-1","0","0","0","0","4","2","2","1","4","2","3","4","4","2","568408786771902464","王","","","","","","","","","","","","","","","","","","","","","","","","","","","","","","feedback_test","","","","","","","","","",""
"681","","f","psychophysics","99","401396","0.0-7.0-0.0-1.0-0.0-0.45","3","3","3","3","3","4","3","3","4","3","4","3","2","4","2","4","3","3","4","4","2","2","2","2","2","2","2","2","1","1","0","1","0","0","1","0","1","1","1","-1","0","0","0","0","4","2","2","1","4","2","3","4","4","2","568408786771902464","王","","","","match","","","","","","","","","","","","","","key","f","16.650419999999578","799.9999682108573","445.8333156175091","f","true","match","img/square.png","方形","方形","ALT1_1","prac_ALT1_1","","","","","","","","","",""
"null","<span style='color:GreenYellow; font-size: 70px;'>正确! </span>","null","html-keyboard-response","100","401907","0.0-7.0-0.0-1.0-0.0-1.45","3","3","3","3","3","4","3","3","4","3","4","3","2","4","2","4","3","3","4","4","2","2","2","2","2","2","2","2","1","1","0","1","0","0","1","0","1","1","1","-1","0","0","0","0","4","2","2","1","4","2","3","4","4","2","568408786771902464","王","","","","","","","","","","","","","","","","","","","","","","","","","","","","","","feedback_test","","","","","","","","","",""
"692","","f","psychophysics","101","403605","0.0-7.0-0.0-1.0-0.0-0.46","3","3","3","3","3","4","3","3","4","3","4","3","2","4","2","4","3","3","4","4","2","2","2","2","2","2","2","2","1","1","0","1","0","0","1","0","1","1","1","-1","0","0","0","0","4","2","2","1","4","2","3","4","4","2","568408786771902464","王","","","","match","","","","","","","","","","","","","","key","f","16.653732673267346","799.9999682108573","445.8333156175091","f","true","match","img/triangle.png","三角","三角","ALT1_1","prac_ALT1_1","","","","","","","","","",""
"null","<span style='color:GreenYellow; font-size: 70px;'>正确! </span>","null","html-keyboard-response","102","404118","0.0-7.0-0.0-1.0-0.0-1.46","3","3","3","3","3","4","3","3","4","3","4","3","2","4","2","4","3","3","4","4","2","2","2","2","2","2","2","2","1","1","0","1","0","0","1","0","1","1","1","-1","0","0","0","0","4","2","2","1","4","2","3","4","4","2","568408786771902464","王","","","","","","","","","","","","","","","","","","","","","","","","","","","","","","feedback_test","","","","","","","","","",""
"784","","f","psychophysics","103","405928","0.0-7.0-0.0-1.0-0.0-0.47","3","3","3","3","3","4","3","3","4","3","4","3","2","4","2","4","3","3","4","4","2","2","2","2","2","2","2","2","1","1","0","1","0","0","1","0","1","1","1","-1","0","0","0","0","4","2","2","1","4","2","3","4","4","2","568408786771902464","王","","","","match","","","","","","","","","","","","","","key","f","16.652879629629616","799.9999682108573","445.8333156175091","f","true","match","img/ellipse.png","椭圆","椭圆","ALT1_1","prac_ALT1_1","","","","","","","","","",""
"null","<span style='color:GreenYellow; font-size: 70px;'>正确! </span>","null","html-keyboard-response","104","406438","0.0-7.0-0.0-1.0-0.0-1.47","3","3","3","3","3","4","3","3","4","3","4","3","2","4","2","4","3","3","4","4","2","2","2","2","2","2","2","2","1","1","0","1","0","0","1","0","1","1","1","-1","0","0","0","0","4","2","2","1","4","2","3","4","4","2","568408786771902464","王","","","","","","","","","","","","","","","","","","","","","","","","","","","","","","feedback_test","","","","","","","","","",""
"44137","<style>.context{color:white; font-size: 35px; line-height:40px}</style>                            <div><p class='context'>您正确回答了94% 的试次。</p><p class='context'>您的平均反应时为707毫秒。</p><p class='context'>恭喜您完成练习。按空格键进入正式实验。</p><p class='footer' style='font-size: 35px; line-height:40px;'>请在进入正式实验实验之前将您的<span style='color: lightgreen;'>食指</span>放在电脑键盘的相应键位上进行按键。</p>"," ","html-keyboard-response","105","450579","0.0-7.0-0.0-2.0","3","3","3","3","3","4","3","3","4","3","4","3","2","4","2","4","3","3","4","4","2","2","2","2","2","2","2","2","1","1","0","1","0","0","1","0","1","1","1","-1","0","0","0","0","4","2","2","1","4","2","3","4","4","2","568408786771902464","王","","","","","","","","","","","","","","","","","","","","","","","","","","","","","","","","","","","","","","","",""
"3822","
    <p>请您将手指放在按键上，准备进入正式的匹配任务。</p>
    <p> <div style = ""color: green""><按空格键进入下一阶段的匹配任务></div></p>
    "," ","html-keyboard-response","106","454406","0.0-7.0-0.0-3.0","3","3","3","3","3","4","3","3","4","3","4","3","2","4","2","4","3","3","4","4","2","2","2","2","2","2","2","2","1","1","0","1","0","0","1","0","1","1","1","-1","0","0","0","0","4","2","2","1","4","2","3","4","4","2","568408786771902464","王","","","","","","","","","","","","","","","","","","","","","","","","","","","","","","","","","","","","","","","",""
"703","","j","psychophysics","107","456115","0.0-7.0-0.0-4.0-0.0-0.0","3","3","3","3","3","4","3","3","4","3","4","3","2","4","2","4","3","3","4","4","2","2","2","2","2","2","2","2","1","1","0","1","0","0","1","0","1","1","1","-1","0","0","0","0","4","2","2","1","4","2","3","4","4","2","568408786771902464","王","","","","nonmatch","","","","","","","","","","","","","","key","j","16.654421568627345","799.9999682108573","445.8333156175091","j","true","nonmatch","img/square.png","椭圆","方形","ALT1","formal_ALT1_1","","","","","","","","","",""
"null","<span style='color:GreenYellow; font-size: 70px;'>正确! </span>","null","html-keyboard-response","108","456625","0.0-7.0-0.0-4.0-0.0-1.0","3","3","3","3","3","4","3","3","4","3","4","3","2","4","2","4","3","3","4","4","2","2","2","2","2","2","2","2","1","1","0","1","0","0","1","0","1","1","1","-1","0","0","0","0","4","2","2","1","4","2","3","4","4","2","568408786771902464","王","","","","","","","","","","","","","","","","","","","","","","","","","","","","","","feedback_test","","","","","","","","","",""
"691","","f","psychophysics","109","458318","0.0-7.0-0.0-4.0-0.0-0.1","3","3","3","3","3","4","3","3","4","3","4","3","2","4","2","4","3","3","4","4","2","2","2","2","2","2","2","2","1","1","0","1","0","0","1","0","1","1","1","-1","0","0","0","0","4","2","2","1","4","2","3","4","4","2","568408786771902464","王","","","","match","","","","","","","","","","","","","","key","f","16.578000000000465","799.9999682108573","445.8333156175091","f","true","match","img/triangle.png","三角","三角","ALT1","formal_ALT1_1","","","","","","","","","",""
"null","<span style='color:GreenYellow; font-size: 70px;'>正确! </span>","null","html-keyboard-response","110","458820","0.0-7.0-0.0-4.0-0.0-1.1","3","3","3","3","3","4","3","3","4","3","4","3","2","4","2","4","3","3","4","4","2","2","2","2","2","2","2","2","1","1","0","1","0","0","1","0","1","1","1","-1","0","0","0","0","4","2","2","1","4","2","3","4","4","2","568408786771902464","王","","","","","","","","","","","","","","","","","","","","","","","","","","","","","","feedback_test","","","","","","","","","",""
"614","","j","psychophysics","111","460438","0.0-7.0-0.0-4.0-0.0-0.2","3","3","3","3","3","4","3","3","4","3","4","3","2","4","2","4","3","3","4","4","2","2","2","2","2","2","2","2","1","1","0","1","0","0","1","0","1","1","1","-1","0","0","0","0","4","2","2","1","4","2","3","4","4","2","568408786771902464","王","","","","nonmatch","","","","","","","","","","","","","","key","j","16.65482291666679","799.9999682108573","445.8333156175091","j","true","nonmatch","img/pentagon.png","方形","五边","ALT1","formal_ALT1_1","","","","","","","","","",""
"null","<span style='color:GreenYellow; font-size: 70px;'>正确! </span>","null","html-keyboard-response","112","460946","0.0-7.0-0.0-4.0-0.0-1.2","3","3","3","3","3","4","3","3","4","3","4","3","2","4","2","4","3","3","4","4","2","2","2","2","2","2","2","2","1","1","0","1","0","0","1","0","1","1","1","-1","0","0","0","0","4","2","2","1","4","2","3","4","4","2","568408786771902464","王","","","","","","","","","","","","","","","","","","","","","","","","","","","","","","feedback_test","","","","","","","","","",""
"586","","f","psychophysics","113","462547","0.0-7.0-0.0-4.0-0.0-0.3","3","3","3","3","3","4","3","3","4","3","4","3","2","4","2","4","3","3","4","4","2","2","2","2","2","2","2","2","1","1","0","1","0","0","1","0","1","1","1","-1","0","0","0","0","4","2","2","1","4","2","3","4","4","2","568408786771902464","王","","","","match","","","","","","","","","","","","","","key","f","16.65055789473638","799.9999682108573","445.8333156175091","f","true","match","img/ellipse.png","椭圆","椭圆","ALT1","formal_ALT1_1","","","","","","","","","",""
"null","<span style='color:GreenYellow; font-size: 70px;'>正确! </span>","null","html-keyboard-response","114","463059","0.0-7.0-0.0-4.0-0.0-1.3","3","3","3","3","3","4","3","3","4","3","4","3","2","4","2","4","3","3","4","4","2","2","2","2","2","2","2","2","1","1","0","1","0","0","1","0","1","1","1","-1","0","0","0","0","4","2","2","1","4","2","3","4","4","2","568408786771902464","王","","","","","","","","","","","","","","","","","","","","","","","","","","","","","","feedback_test","","","","","","","","","",""
"667","","f","psychophysics","115","464737","0.0-7.0-0.0-4.0-0.0-0.4","3","3","3","3","3","4","3","3","4","3","4","3","2","4","2","4","3","3","4","4","2","2","2","2","2","2","2","2","1","1","0","1","0","0","1","0","1","1","1","-1","0","0","0","0","4","2","2","1","4","2","3","4","4","2","568408786771902464","王","","","","match","","","","","","","","","","","","","","key","f","16.65176999999967","799.9999682108573","445.8333156175091","f","true","match","img/square.png","方形","方形","ALT1","formal_ALT1_1","","","","","","","","","",""
"null","<span style='color:GreenYellow; font-size: 70px;'>正确! </span>","null","html-keyboard-response","116","465244","0.0-7.0-0.0-4.0-0.0-1.4","3","3","3","3","3","4","3","3","4","3","4","3","2","4","2","4","3","3","4","4","2","2","2","2","2","2","2","2","1","1","0","1","0","0","1","0","1","1","1","-1","0","0","0","0","4","2","2","1","4","2","3","4","4","2","568408786771902464","王","","","","","","","","","","","","","","","","","","","","","","","","","","","","","","feedback_test","","","","","","","","","",""
"647","","j","psychophysics","117","466898","0.0-7.0-0.0-4.0-0.0-0.5","3","3","3","3","3","4","3","3","4","3","4","3","2","4","2","4","3","3","4","4","2","2","2","2","2","2","2","2","1","1","0","1","0","0","1","0","1","1","1","-1","0","0","0","0","4","2","2","1","4","2","3","4","4","2","568408786771902464","王","","","","nonmatch","","","","","","","","","","","","","","key","j","16.655724489795904","799.9999682108573","445.8333156175091","f","false","match","img/pentagon.png","五边","五边","ALT1","formal_ALT1_1","","","","","","","","","",""
"null","<span style='color:red; font-size: 70px;'>错误! </span>","null","html-keyboard-response","118","467412","0.0-7.0-0.0-4.0-0.0-1.5","3","3","3","3","3","4","3","3","4","3","4","3","2","4","2","4","3","3","4","4","2","2","2","2","2","2","2","2","1","1","0","1","0","0","1","0","1","1","1","-1","0","0","0","0","4","2","2","1","4","2","3","4","4","2","568408786771902464","王","","","","","","","","","","","","","","","","","","","","","","","","","","","","","","feedback_test","","","","","","","","","",""
"654","","j","psychophysics","119","469104","0.0-7.0-0.0-4.0-0.0-0.6","3","3","3","3","3","4","3","3","4","3","4","3","2","4","2","4","3","3","4","4","2","2","2","2","2","2","2","2","1","1","0","1","0","0","1","0","1","1","1","-1","0","0","0","0","4","2","2","1","4","2","3","4","4","2","568408786771902464","王","","","","nonmatch","","","","","","","","","","","","","","key","j","16.653178217821974","799.9999682108573","445.8333156175091","j","true","nonmatch","img/ellipse.png","三角","椭圆","ALT1","formal_ALT1_1","","","","","","","","","",""
"null","<span style='color:GreenYellow; font-size: 70px;'>正确! </span>","null","html-keyboard-response","120","469619","0.0-7.0-0.0-4.0-0.0-1.6","3","3","3","3","3","4","3","3","4","3","4","3","2","4","2","4","3","3","4","4","2","2","2","2","2","2","2","2","1","1","0","1","0","0","1","0","1","1","1","-1","0","0","0","0","4","2","2","1","4","2","3","4","4","2","568408786771902464","王","","","","","","","","","","","","","","","","","","","","","","","","","","","","","","feedback_test","","","","","","","","","",""
"644","","j","psychophysics","121","471271","0.0-7.0-0.0-4.0-0.0-0.7","3","3","3","3","3","4","3","3","4","3","4","3","2","4","2","4","3","3","4","4","2","2","2","2","2","2","2","2","1","1","0","1","0","0","1","0","1","1","1","-1","0","0","0","0","4","2","2","1","4","2","3","4","4","2","568408786771902464","王","","","","nonmatch","","","","","","","","","","","","","","key","j","16.653510204081577","799.9999682108573","445.8333156175091","j","true","nonmatch","img/pentagon.png","三角","五边","ALT1","formal_ALT1_1","","","","","","","","","",""
"null","<span style='color:GreenYellow; font-size: 70px;'>正确! </span>","null","html-keyboard-response","122","471783","0.0-7.0-0.0-4.0-0.0-1.7","3","3","3","3","3","4","3","3","4","3","4","3","2","4","2","4","3","3","4","4","2","2","2","2","2","2","2","2","1","1","0","1","0","0","1","0","1","1","1","-1","0","0","0","0","4","2","2","1","4","2","3","4","4","2","568408786771902464","王","","","","","","","","","","","","","","","","","","","","","","","","","","","","","","feedback_test","","","","","","","","","",""
"814","","f","psychophysics","123","473607","0.0-7.0-0.0-4.0-0.0-0.8","3","3","3","3","3","4","3","3","4","3","4","3","2","4","2","4","3","3","4","4","2","2","2","2","2","2","2","2","1","1","0","1","0","0","1","0","1","1","1","-1","0","0","0","0","4","2","2","1","4","2","3","4","4","2","568408786771902464","王","","","","match","","","","","","","","","","","","","","key","f","16.65433333333338","799.9999682108573","445.8333156175091","f","true","match","img/triangle.png","三角","三角","ALT1","formal_ALT1_1","","","","","","","","","",""
"null","<span style='color:GreenYellow; font-size: 70px;'>正确! </span>","null","html-keyboard-response","124","474109","0.0-7.0-0.0-4.0-0.0-1.8","3","3","3","3","3","4","3","3","4","3","4","3","2","4","2","4","3","3","4","4","2","2","2","2","2","2","2","2","1","1","0","1","0","0","1","0","1","1","1","-1","0","0","0","0","4","2","2","1","4","2","3","4","4","2","568408786771902464","王","","","","","","","","","","","","","","","","","","","","","","","","","","","","","","feedback_test","","","","","","","","","",""
"679","","j","psychophysics","125","475813","0.0-7.0-0.0-4.0-0.0-0.9","3","3","3","3","3","4","3","3","4","3","4","3","2","4","2","4","3","3","4","4","2","2","2","2","2","2","2","2","1","1","0","1","0","0","1","0","1","1","1","-1","0","0","0","0","4","2","2","1","4","2","3","4","4","2","568408786771902464","王","","","","nonmatch","","","","","","","","","","","","","","key","j","16.650732673267203","799.9999682108573","445.8333156175091","j","true","nonmatch","img/ellipse.png","方形","椭圆","ALT1","formal_ALT1_1","","","","","","","","","",""
"null","<span style='color:GreenYellow; font-size: 70px;'>正确! </span>","null","html-keyboard-response","126","476323","0.0-7.0-0.0-4.0-0.0-1.9","3","3","3","3","3","4","3","3","4","3","4","3","2","4","2","4","3","3","4","4","2","2","2","2","2","2","2","2","1","1","0","1","0","0","1","0","1","1","1","-1","0","0","0","0","4","2","2","1","4","2","3","4","4","2","568408786771902464","王","","","","","","","","","","","","","","","","","","","","","","","","","","","","","","feedback_test","","","","","","","","","",""
"750","","j","psychophysics","127","478075","0.0-7.0-0.0-4.0-0.0-0.10","3","3","3","3","3","4","3","3","4","3","4","3","2","4","2","4","3","3","4","4","2","2","2","2","2","2","2","2","1","1","0","1","0","0","1","0","1","1","1","-1","0","0","0","0","4","2","2","1","4","2","3","4","4","2","568408786771902464","王","","","","nonmatch","","","","","","","","","","","","","","key","j","16.571673076922778","799.9999682108573","445.8333156175091","j","true","nonmatch","img/triangle.png","方形","三角","ALT1","formal_ALT1_1","","","","","","","","","",""
"null","<span style='color:GreenYellow; font-size: 70px;'>正确! </span>","null","html-keyboard-response","128","478585","0.0-7.0-0.0-4.0-0.0-1.10","3","3","3","3","3","4","3","3","4","3","4","3","2","4","2","4","3","3","4","4","2","2","2","2","2","2","2","2","1","1","0","1","0","0","1","0","1","1","1","-1","0","0","0","0","4","2","2","1","4","2","3","4","4","2","568408786771902464","王","","","","","","","","","","","","","","","","","","","","","","","","","","","","","","feedback_test","","","","","","","","","",""
"765","","j","psychophysics","129","480353","0.0-7.0-0.0-4.0-0.0-0.11","3","3","3","3","3","4","3","3","4","3","4","3","2","4","2","4","3","3","4","4","2","2","2","2","2","2","2","2","1","1","0","1","0","0","1","0","1","1","1","-1","0","0","0","0","4","2","2","1","4","2","3","4","4","2","568408786771902464","王","","","","nonmatch","","","","","","","","","","","","","","key","j","16.654104761904595","799.9999682108573","445.8333156175091","j","true","nonmatch","img/pentagon.png","椭圆","五边","ALT1","formal_ALT1_1","","","","","","","","","",""
"null","<span style='color:GreenYellow; font-size: 70px;'>正确! </span>","null","html-keyboard-response","130","480862","0.0-7.0-0.0-4.0-0.0-1.11","3","3","3","3","3","4","3","3","4","3","4","3","2","4","2","4","3","3","4","4","2","2","2","2","2","2","2","2","1","1","0","1","0","0","1","0","1","1","1","-1","0","0","0","0","4","2","2","1","4","2","3","4","4","2","568408786771902464","王","","","","","","","","","","","","","","","","","","","","","","","","","","","","","","feedback_test","","","","","","","","","",""
"625","","f","psychophysics","131","482506","0.0-7.0-0.0-4.0-0.0-0.12","3","3","3","3","3","4","3","3","4","3","4","3","2","4","2","4","3","3","4","4","2","2","2","2","2","2","2","2","1","1","0","1","0","0","1","0","1","1","1","-1","0","0","0","0","4","2","2","1","4","2","3","4","4","2","568408786771902464","王","","","","match","","","","","","","","","","","","","","key","f","16.652765306122056","799.9999682108573","445.8333156175091","f","true","match","img/ellipse.png","椭圆","椭圆","ALT1","formal_ALT1_1","","","","","","","","","",""
"null","<span style='color:GreenYellow; font-size: 70px;'>正确! </span>","null","html-keyboard-response","132","483019","0.0-7.0-0.0-4.0-0.0-1.12","3","3","3","3","3","4","3","3","4","3","4","3","2","4","2","4","3","3","4","4","2","2","2","2","2","2","2","2","1","1","0","1","0","0","1","0","1","1","1","-1","0","0","0","0","4","2","2","1","4","2","3","4","4","2","568408786771902464","王","","","","","","","","","","","","","","","","","","","","","","","","","","","","","","feedback_test","","","","","","","","","",""
"644","","f","psychophysics","133","484675","0.0-7.0-0.0-4.0-0.0-0.13","3","3","3","3","3","4","3","3","4","3","4","3","2","4","2","4","3","3","4","4","2","2","2","2","2","2","2","2","1","1","0","1","0","0","1","0","1","1","1","-1","0","0","0","0","4","2","2","1","4","2","3","4","4","2","568408786771902464","王","","","","match","","","","","","","","","","","","","","key","f","16.654408163265135","799.9999682108573","445.8333156175091","f","true","match","img/pentagon.png","五边","五边","ALT1","formal_ALT1_1","","","","","","","","","",""
"null","<span style='color:GreenYellow; font-size: 70px;'>正确! </span>","null","html-keyboard-response","134","485183","0.0-7.0-0.0-4.0-0.0-1.13","3","3","3","3","3","4","3","3","4","3","4","3","2","4","2","4","3","3","4","4","2","2","2","2","2","2","2","2","1","1","0","1","0","0","1","0","1","1","1","-1","0","0","0","0","4","2","2","1","4","2","3","4","4","2","568408786771902464","王","","","","","","","","","","","","","","","","","","","","","","","","","","","","","","feedback_test","","","","","","","","","",""
"612","","j","psychophysics","135","486805","0.0-7.0-0.0-4.0-0.0-0.14","3","3","3","3","3","4","3","3","4","3","4","3","2","4","2","4","3","3","4","4","2","2","2","2","2","2","2","2","1","1","0","1","0","0","1","0","1","1","1","-1","0","0","0","0","4","2","2","1","4","2","3","4","4","2","568408786771902464","王","","","","nonmatch","","","","","","","","","","","","","","key","j","16.65445833333312","799.9999682108573","445.8333156175091","j","true","nonmatch","img/ellipse.png","五边","椭圆","ALT1","formal_ALT1_1","","","","","","","","","",""
"null","<span style='color:GreenYellow; font-size: 70px;'>正确! </span>","null","html-keyboard-response","136","487320","0.0-7.0-0.0-4.0-0.0-1.14","3","3","3","3","3","4","3","3","4","3","4","3","2","4","2","4","3","3","4","4","2","2","2","2","2","2","2","2","1","1","0","1","0","0","1","0","1","1","1","-1","0","0","0","0","4","2","2","1","4","2","3","4","4","2","568408786771902464","王","","","","","","","","","","","","","","","","","","","","","","","","","","","","","","feedback_test","","","","","","","","","",""
"571","","f","psychophysics","137","488901","0.0-7.0-0.0-4.0-0.0-0.15","3","3","3","3","3","4","3","3","4","3","4","3","2","4","2","4","3","3","4","4","2","2","2","2","2","2","2","2","1","1","0","1","0","0","1","0","1","1","1","-1","0","0","0","0","4","2","2","1","4","2","3","4","4","2","568408786771902464","王","","","","match","","","","","","","","","","","","","","key","f","16.65092553191526","799.9999682108573","445.8333156175091","f","true","match","img/square.png","方形","方形","ALT1","formal_ALT1_1","","","","","","","","","",""
"null","<span style='color:GreenYellow; font-size: 70px;'>正确! </span>","null","html-keyboard-response","138","489409","0.0-7.0-0.0-4.0-0.0-1.15","3","3","3","3","3","4","3","3","4","3","4","3","2","4","2","4","3","3","4","4","2","2","2","2","2","2","2","2","1","1","0","1","0","0","1","0","1","1","1","-1","0","0","0","0","4","2","2","1","4","2","3","4","4","2","568408786771902464","王","","","","","","","","","","","","","","","","","","","","","","","","","","","","","","feedback_test","","","","","","","","","",""
"687","","j","psychophysics","139","491098","0.0-7.0-0.0-4.0-0.0-0.16","3","3","3","3","3","4","3","3","4","3","4","3","2","4","2","4","3","3","4","4","2","2","2","2","2","2","2","2","1","1","0","1","0","0","1","0","1","1","1","-1","0","0","0","0","4","2","2","1","4","2","3","4","4","2","568408786771902464","王","","","","nonmatch","","","","","","","","","","","","","","key","j","16.65413861386167","799.9999682108573","445.8333156175091","j","true","nonmatch","img/square.png","五边","方形","ALT1","formal_ALT1_1","","","","","","","","","",""
"null","<span style='color:GreenYellow; font-size: 70px;'>正确! </span>","null","html-keyboard-response","140","491601","0.0-7.0-0.0-4.0-0.0-1.16","3","3","3","3","3","4","3","3","4","3","4","3","2","4","2","4","3","3","4","4","2","2","2","2","2","2","2","2","1","1","0","1","0","0","1","0","1","1","1","-1","0","0","0","0","4","2","2","1","4","2","3","4","4","2","568408786771902464","王","","","","","","","","","","","","","","","","","","","","","","","","","","","","","","feedback_test","","","","","","","","","",""
"780","","f","psychophysics","141","493386","0.0-7.0-0.0-4.0-0.0-0.17","3","3","3","3","3","4","3","3","4","3","4","3","2","4","2","4","3","3","4","4","2","2","2","2","2","2","2","2","1","1","0","1","0","0","1","0","1","1","1","-1","0","0","0","0","4","2","2","1","4","2","3","4","4","2","568408786771902464","王","","","","match","","","","","","","","","","","","","","key","f","16.653688679244983","799.9999682108573","445.8333156175091","f","true","match","img/square.png","方形","方形","ALT1","formal_ALT1_1","","","","","","","","","",""
"null","<span style='color:GreenYellow; font-size: 70px;'>正确! </span>","null","html-keyboard-response","142","493895","0.0-7.0-0.0-4.0-0.0-1.17","3","3","3","3","3","4","3","3","4","3","4","3","2","4","2","4","3","3","4","4","2","2","2","2","2","2","2","2","1","1","0","1","0","0","1","0","1","1","1","-1","0","0","0","0","4","2","2","1","4","2","3","4","4","2","568408786771902464","王","","","","","","","","","","","","","","","","","","","","","","","","","","","","","","feedback_test","","","","","","","","","",""
"1006","","j","psychophysics","143","495906","0.0-7.0-0.0-4.0-0.0-0.18","3","3","3","3","3","4","3","3","4","3","4","3","2","4","2","4","3","3","4","4","2","2","2","2","2","2","2","2","1","1","0","1","0","0","1","0","1","1","1","-1","0","0","0","0","4","2","2","1","4","2","3","4","4","2","568408786771902464","王","","","","nonmatch","","","","","","","","","","","","","","key","j","16.651325000000362","799.9999682108573","445.8333156175091","f","false","match","img/triangle.png","三角","三角","ALT1","formal_ALT1_1","","","","","","","","","",""
"null","<span style='color:red; font-size: 70px;'>错误! </span>","null","html-keyboard-response","144","496422","0.0-7.0-0.0-4.0-0.0-1.18","3","3","3","3","3","4","3","3","4","3","4","3","2","4","2","4","3","3","4","4","2","2","2","2","2","2","2","2","1","1","0","1","0","0","1","0","1","1","1","-1","0","0","0","0","4","2","2","1","4","2","3","4","4","2","568408786771902464","王","","","","","","","","","","","","","","","","","","","","","","","","","","","","","","feedback_test","","","","","","","","","",""
"666","","j","psychophysics","145","498103","0.0-7.0-0.0-4.0-0.0-0.19","3","3","3","3","3","4","3","3","4","3","4","3","2","4","2","4","3","3","4","4","2","2","2","2","2","2","2","2","1","1","0","1","0","0","1","0","1","1","1","-1","0","0","0","0","4","2","2","1","4","2","3","4","4","2","568408786771902464","王","","","","nonmatch","","","","","","","","","","","","","","key","j","16.650616161616384","799.9999682108573","445.8333156175091","j","true","nonmatch","img/triangle.png","五边","三角","ALT1","formal_ALT1_1","","","","","","","","","",""
"null","<span style='color:GreenYellow; font-size: 70px;'>正确! </span>","null","html-keyboard-response","146","498619","0.0-7.0-0.0-4.0-0.0-1.19","3","3","3","3","3","4","3","3","4","3","4","3","2","4","2","4","3","3","4","4","2","2","2","2","2","2","2","2","1","1","0","1","0","0","1","0","1","1","1","-1","0","0","0","0","4","2","2","1","4","2","3","4","4","2","568408786771902464","王","","","","","","","","","","","","","","","","","","","","","","","","","","","","","","feedback_test","","","","","","","","","",""
"922","","j","psychophysics","147","500542","0.0-7.0-0.0-4.0-0.0-0.20","3","3","3","3","3","4","3","3","4","3","4","3","2","4","2","4","3","3","4","4","2","2","2","2","2","2","2","2","1","1","0","1","0","0","1","0","1","1","1","-1","0","0","0","0","4","2","2","1","4","2","3","4","4","2","568408786771902464","王","","","","nonmatch","","","","","","","","","","","","","","key","j","16.653500000000093","799.9999682108573","445.8333156175091","j","true","nonmatch","img/square.png","三角","方形","ALT1","formal_ALT1_1","","","","","","","","","",""
"null","<span style='color:GreenYellow; font-size: 70px;'>正确! </span>","null","html-keyboard-response","148","501049","0.0-7.0-0.0-4.0-0.0-1.20","3","3","3","3","3","4","3","3","4","3","4","3","2","4","2","4","3","3","4","4","2","2","2","2","2","2","2","2","1","1","0","1","0","0","1","0","1","1","1","-1","0","0","0","0","4","2","2","1","4","2","3","4","4","2","568408786771902464","王","","","","","","","","","","","","","","","","","","","","","","","","","","","","","","feedback_test","","","","","","","","","",""
"688","","f","psychophysics","149","502767","0.0-7.0-0.0-4.0-0.0-0.21","3","3","3","3","3","4","3","3","4","3","4","3","2","4","2","4","3","3","4","4","2","2","2","2","2","2","2","2","1","1","0","1","0","0","1","0","1","1","1","-1","0","0","0","0","4","2","2","1","4","2","3","4","4","2","568408786771902464","王","","","","match","","","","","","","","","","","","","","key","f","16.648421568627693","799.9999682108573","445.8333156175091","f","true","match","img/pentagon.png","五边","五边","ALT1","formal_ALT1_1","","","","","","","","","",""
"null","<span style='color:GreenYellow; font-size: 70px;'>正确! </span>","null","html-keyboard-response","150","503274","0.0-7.0-0.0-4.0-0.0-1.21","3","3","3","3","3","4","3","3","4","3","4","3","2","4","2","4","3","3","4","4","2","2","2","2","2","2","2","2","1","1","0","1","0","0","1","0","1","1","1","-1","0","0","0","0","4","2","2","1","4","2","3","4","4","2","568408786771902464","王","","","","","","","","","","","","","","","","","","","","","","","","","","","","","","feedback_test","","","","","","","","","",""
"648","","j","psychophysics","151","504930","0.0-7.0-0.0-4.0-0.0-0.22","3","3","3","3","3","4","3","3","4","3","4","3","2","4","2","4","3","3","4","4","2","2","2","2","2","2","2","2","1","1","0","1","0","0","1","0","1","1","1","-1","0","0","0","0","4","2","2","1","4","2","3","4","4","2","568408786771902464","王","","","","nonmatch","","","","","","","","","","","","","","key","j","16.655642857142528","799.9999682108573","445.8333156175091","j","true","nonmatch","img/triangle.png","椭圆","三角","ALT1","formal_ALT1_1","","","","","","","","","",""
"null","<span style='color:GreenYellow; font-size: 70px;'>正确! </span>","null","html-keyboard-response","152","505437","0.0-7.0-0.0-4.0-0.0-1.22","3","3","3","3","3","4","3","3","4","3","4","3","2","4","2","4","3","3","4","4","2","2","2","2","2","2","2","2","1","1","0","1","0","0","1","0","1","1","1","-1","0","0","0","0","4","2","2","1","4","2","3","4","4","2","568408786771902464","王","","","","","","","","","","","","","","","","","","","","","","","","","","","","","","feedback_test","","","","","","","","","",""
"680","","f","psychophysics","153","507125","0.0-7.0-0.0-4.0-0.0-0.23","3","3","3","3","3","4","3","3","4","3","4","3","2","4","2","4","3","3","4","4","2","2","2","2","2","2","2","2","1","1","0","1","0","0","1","0","1","1","1","-1","0","0","0","0","4","2","2","1","4","2","3","4","4","2","568408786771902464","王","","","","match","","","","","","","","","","","","","","key","f","16.65463999999978","799.9999682108573","445.8333156175091","f","true","match","img/ellipse.png","椭圆","椭圆","ALT1","formal_ALT1_1","","","","","","","","","",""
"null","<span style='color:GreenYellow; font-size: 70px;'>正确! </span>","null","html-keyboard-response","154","507634","0.0-7.0-0.0-4.0-0.0-1.23","3","3","3","3","3","4","3","3","4","3","4","3","2","4","2","4","3","3","4","4","2","2","2","2","2","2","2","2","1","1","0","1","0","0","1","0","1","1","1","-1","0","0","0","0","4","2","2","1","4","2","3","4","4","2","568408786771902464","王","","","","","","","","","","","","","","","","","","","","","","","","","","","","","","feedback_test","","","","","","","","","",""
"588","","j","psychophysics","155","509227","0.0-7.0-0.0-4.0-0.0-0.24","3","3","3","3","3","4","3","3","4","3","4","3","2","4","2","4","3","3","4","4","2","2","2","2","2","2","2","2","1","1","0","1","0","0","1","0","1","1","1","-1","0","0","0","0","4","2","2","1","4","2","3","4","4","2","568408786771902464","王","","","","nonmatch","","","","","","","","","","","","","","key","j","16.65163157894705","799.9999682108573","445.8333156175091","j","true","nonmatch","img/triangle.png","方形","三角","ALT1","formal_ALT1_1","","","","","","","","","",""
"null","<span style='color:GreenYellow; font-size: 70px;'>正确! </span>","null","html-keyboard-response","156","509738","0.0-7.0-0.0-4.0-0.0-1.24","3","3","3","3","3","4","3","3","4","3","4","3","2","4","2","4","3","3","4","4","2","2","2","2","2","2","2","2","1","1","0","1","0","0","1","0","1","1","1","-1","0","0","0","0","4","2","2","1","4","2","3","4","4","2","568408786771902464","王","","","","","","","","","","","","","","","","","","","","","","","","","","","","","","feedback_test","","","","","","","","","",""
"719","","j","psychophysics","157","511460","0.0-7.0-0.0-4.0-0.0-0.25","3","3","3","3","3","4","3","3","4","3","4","3","2","4","2","4","3","3","4","4","2","2","2","2","2","2","2","2","1","1","0","1","0","0","1","0","1","1","1","-1","0","0","0","0","4","2","2","1","4","2","3","4","4","2","568408786771902464","王","","","","nonmatch","","","","","","","","","","","","","","key","j","16.654359223300737","799.9999682108573","445.8333156175091","j","true","nonmatch","img/square.png","三角","方形","ALT1","formal_ALT1_1","","","","","","","","","",""
"null","<span style='color:GreenYellow; font-size: 70px;'>正确! </span>","null","html-keyboard-response","158","511964","0.0-7.0-0.0-4.0-0.0-1.25","3","3","3","3","3","4","3","3","4","3","4","3","2","4","2","4","3","3","4","4","2","2","2","2","2","2","2","2","1","1","0","1","0","0","1","0","1","1","1","-1","0","0","0","0","4","2","2","1","4","2","3","4","4","2","568408786771902464","王","","","","","","","","","","","","","","","","","","","","","","","","","","","","","","feedback_test","","","","","","","","","",""
"703","","f","psychophysics","159","513674","0.0-7.0-0.0-4.0-0.0-0.26","3","3","3","3","3","4","3","3","4","3","4","3","2","4","2","4","3","3","4","4","2","2","2","2","2","2","2","2","1","1","0","1","0","0","1","0","1","1","1","-1","0","0","0","0","4","2","2","1","4","2","3","4","4","2","568408786771902464","王","","","","match","","","","","","","","","","","","","","key","f","16.64977450980394","799.9999682108573","445.8333156175091","f","true","match","img/square.png","方形","方形","ALT1","formal_ALT1_1","","","","","","","","","",""
"null","<span style='color:GreenYellow; font-size: 70px;'>正确! </span>","null","html-keyboard-response","160","514185","0.0-7.0-0.0-4.0-0.0-1.26","3","3","3","3","3","4","3","3","4","3","4","3","2","4","2","4","3","3","4","4","2","2","2","2","2","2","2","2","1","1","0","1","0","0","1","0","1","1","1","-1","0","0","0","0","4","2","2","1","4","2","3","4","4","2","568408786771902464","王","","","","","","","","","","","","","","","","","","","","","","","","","","","","","","feedback_test","","","","","","","","","",""
"608","","f","psychophysics","161","515821","0.0-7.0-0.0-4.0-0.0-0.27","3","3","3","3","3","4","3","3","4","3","4","3","2","4","2","4","3","3","4","4","2","2","2","2","2","2","2","2","1","1","0","1","0","0","1","0","1","1","1","-1","0","0","0","0","4","2","2","1","4","2","3","4","4","2","568408786771902464","王","","","","match","","","","","","","","","","","","","","key","f","16.576701030927858","799.9999682108573","445.8333156175091","f","true","match","img/triangle.png","三角","三角","ALT1","formal_ALT1_1","","","","","","","","","",""
"null","<span style='color:GreenYellow; font-size: 70px;'>正确! </span>","null","html-keyboard-response","162","516331","0.0-7.0-0.0-4.0-0.0-1.27","3","3","3","3","3","4","3","3","4","3","4","3","2","4","2","4","3","3","4","4","2","2","2","2","2","2","2","2","1","1","0","1","0","0","1","0","1","1","1","-1","0","0","0","0","4","2","2","1","4","2","3","4","4","2","568408786771902464","王","","","","","","","","","","","","","","","","","","","","","","","","","","","","","","feedback_test","","","","","","","","","",""
"596","","j","psychophysics","163","517931","0.0-7.0-0.0-4.0-0.0-0.28","3","3","3","3","3","4","3","3","4","3","4","3","2","4","2","4","3","3","4","4","2","2","2","2","2","2","2","2","1","1","0","1","0","0","1","0","1","1","1","-1","0","0","0","0","4","2","2","1","4","2","3","4","4","2","568408786771902464","王","","","","nonmatch","","","","","","","","","","","","","","key","j","16.655473684210722","799.9999682108573","445.8333156175091","j","true","nonmatch","img/pentagon.png","方形","五边","ALT1","formal_ALT1_1","","","","","","","","","",""
"null","<span style='color:GreenYellow; font-size: 70px;'>正确! </span>","null","html-keyboard-response","164","518441","0.0-7.0-0.0-4.0-0.0-1.28","3","3","3","3","3","4","3","3","4","3","4","3","2","4","2","4","3","3","4","4","2","2","2","2","2","2","2","2","1","1","0","1","0","0","1","0","1","1","1","-1","0","0","0","0","4","2","2","1","4","2","3","4","4","2","568408786771902464","王","","","","","","","","","","","","","","","","","","","","","","","","","","","","","","feedback_test","","","","","","","","","",""
"654","","f","psychophysics","165","520097","0.0-7.0-0.0-4.0-0.0-0.29","3","3","3","3","3","4","3","3","4","3","4","3","2","4","2","4","3","3","4","4","2","2","2","2","2","2","2","2","1","1","0","1","0","0","1","0","1","1","1","-1","0","0","0","0","4","2","2","1","4","2","3","4","4","2","568408786771902464","王","","","","match","","","","","","","","","","","","","","key","f","16.652438775510337","799.9999682108573","445.8333156175091","f","true","match","img/ellipse.png","椭圆","椭圆","ALT1","formal_ALT1_1","","","","","","","","","",""
"null","<span style='color:GreenYellow; font-size: 70px;'>正确! </span>","null","html-keyboard-response","166","520608","0.0-7.0-0.0-4.0-0.0-1.29","3","3","3","3","3","4","3","3","4","3","4","3","2","4","2","4","3","3","4","4","2","2","2","2","2","2","2","2","1","1","0","1","0","0","1","0","1","1","1","-1","0","0","0","0","4","2","2","1","4","2","3","4","4","2","568408786771902464","王","","","","","","","","","","","","","","","","","","","","","","","","","","","","","","feedback_test","","","","","","","","","",""
"648","","f","psychophysics","167","522277","0.0-7.0-0.0-4.0-0.0-0.30","3","3","3","3","3","4","3","3","4","3","4","3","2","4","2","4","3","3","4","4","2","2","2","2","2","2","2","2","1","1","0","1","0","0","1","0","1","1","1","-1","0","0","0","0","4","2","2","1","4","2","3","4","4","2","568408786771902464","王","","","","match","","","","","","","","","","","","","","key","f","16.652313131313406","799.9999682108573","445.8333156175091","f","true","match","img/ellipse.png","椭圆","椭圆","ALT1","formal_ALT1_1","","","","","","","","","",""
"null","<span style='color:GreenYellow; font-size: 70px;'>正确! </span>","null","html-keyboard-response","168","522789","0.0-7.0-0.0-4.0-0.0-1.30","3","3","3","3","3","4","3","3","4","3","4","3","2","4","2","4","3","3","4","4","2","2","2","2","2","2","2","2","1","1","0","1","0","0","1","0","1","1","1","-1","0","0","0","0","4","2","2","1","4","2","3","4","4","2","568408786771902464","王","","","","","","","","","","","","","","","","","","","","","","","","","","","","","","feedback_test","","","","","","","","","",""
"749","","j","psychophysics","169","524544","0.0-7.0-0.0-4.0-0.0-0.31","3","3","3","3","3","4","3","3","4","3","4","3","2","4","2","4","3","3","4","4","2","2","2","2","2","2","2","2","1","1","0","1","0","0","1","0","1","1","1","-1","0","0","0","0","4","2","2","1","4","2","3","4","4","2","568408786771902464","王","","","","nonmatch","","","","","","","","","","","","","","key","j","16.65485576923059","799.9999682108573","445.8333156175091","j","true","nonmatch","img/pentagon.png","椭圆","五边","ALT1","formal_ALT1_1","","","","","","","","","",""
"null","<span style='color:GreenYellow; font-size: 70px;'>正确! </span>","null","html-keyboard-response","170","525056","0.0-7.0-0.0-4.0-0.0-1.31","3","3","3","3","3","4","3","3","4","3","4","3","2","4","2","4","3","3","4","4","2","2","2","2","2","2","2","2","1","1","0","1","0","0","1","0","1","1","1","-1","0","0","0","0","4","2","2","1","4","2","3","4","4","2","568408786771902464","王","","","","","","","","","","","","","","","","","","","","","","","","","","","","","","feedback_test","","","","","","","","","",""
"801","","f","psychophysics","171","526860","0.0-7.0-0.0-4.0-0.0-0.32","3","3","3","3","3","4","3","3","4","3","4","3","2","4","2","4","3","3","4","4","2","2","2","2","2","2","2","2","1","1","0","1","0","0","1","0","1","1","1","-1","0","0","0","0","4","2","2","1","4","2","3","4","4","2","568408786771902464","王","","","","match","","","","","","","","","","","","","","key","f","16.650527777777622","799.9999682108573","445.8333156175091","f","true","match","img/pentagon.png","五边","五边","ALT1","formal_ALT1_1","","","","","","","","","",""
"null","<span style='color:GreenYellow; font-size: 70px;'>正确! </span>","null","html-keyboard-response","172","527394","0.0-7.0-0.0-4.0-0.0-1.32","3","3","3","3","3","4","3","3","4","3","4","3","2","4","2","4","3","3","4","4","2","2","2","2","2","2","2","2","1","1","0","1","0","0","1","0","1","1","1","-1","0","0","0","0","4","2","2","1","4","2","3","4","4","2","568408786771902464","王","","","","","","","","","","","","","","","","","","","","","","","","","","","","","","feedback_test","","","","","","","","","",""
"881","","j","psychophysics","173","529290","0.0-7.0-0.0-4.0-0.0-0.33","3","3","3","3","3","4","3","3","4","3","4","3","2","4","2","4","3","3","4","4","2","2","2","2","2","2","2","2","1","1","0","1","0","0","1","0","1","1","1","-1","0","0","0","0","4","2","2","1","4","2","3","4","4","2","568408786771902464","王","","","","nonmatch","","","","","","","","","","","","","","key","j","16.64746902654858","799.9999682108573","445.8333156175091","f","false","match","img/square.png","方形","方形","ALT1","formal_ALT1_1","","","","","","","","","",""
"null","<span style='color:red; font-size: 70px;'>错误! </span>","null","html-keyboard-response","174","529804","0.0-7.0-0.0-4.0-0.0-1.33","3","3","3","3","3","4","3","3","4","3","4","3","2","4","2","4","3","3","4","4","2","2","2","2","2","2","2","2","1","1","0","1","0","0","1","0","1","1","1","-1","0","0","0","0","4","2","2","1","4","2","3","4","4","2","568408786771902464","王","","","","","","","","","","","","","","","","","","","","","","","","","","","","","","feedback_test","","","","","","","","","",""
"700","","f","psychophysics","175","531506","0.0-7.0-0.0-4.0-0.0-0.34","3","3","3","3","3","4","3","3","4","3","4","3","2","4","2","4","3","3","4","4","2","2","2","2","2","2","2","2","1","1","0","1","0","0","1","0","1","1","1","-1","0","0","0","0","4","2","2","1","4","2","3","4","4","2","568408786771902464","王","","","","match","","","","","","","","","","","","","","key","f","16.6542772277233","799.9999682108573","445.8333156175091","j","false","nonmatch","img/square.png","五边","方形","ALT1","formal_ALT1_1","","","","","","","","","",""
"null","<span style='color:red; font-size: 70px;'>错误! </span>","null","html-keyboard-response","176","532021","0.0-7.0-0.0-4.0-0.0-1.34","3","3","3","3","3","4","3","3","4","3","4","3","2","4","2","4","3","3","4","4","2","2","2","2","2","2","2","2","1","1","0","1","0","0","1","0","1","1","1","-1","0","0","0","0","4","2","2","1","4","2","3","4","4","2","568408786771902464","王","","","","","","","","","","","","","","","","","","","","","","","","","","","","","","feedback_test","","","","","","","","","",""
"656","","f","psychophysics","177","533687","0.0-7.0-0.0-4.0-0.0-0.35","3","3","3","3","3","4","3","3","4","3","4","3","2","4","2","4","3","3","4","4","2","2","2","2","2","2","2","2","1","1","0","1","0","0","1","0","1","1","1","-1","0","0","0","0","4","2","2","1","4","2","3","4","4","2","568408786771902464","王","","","","match","","","","","","","","","","","","","","key","f","16.652020202020672","799.9999682108573","445.8333156175091","j","false","nonmatch","img/triangle.png","五边","三角","ALT1","formal_ALT1_1","","","","","","","","","",""
"null","<span style='color:red; font-size: 70px;'>错误! </span>","null","html-keyboard-response","178","534189","0.0-7.0-0.0-4.0-0.0-1.35","3","3","3","3","3","4","3","3","4","3","4","3","2","4","2","4","3","3","4","4","2","2","2","2","2","2","2","2","1","1","0","1","0","0","1","0","1","1","1","-1","0","0","0","0","4","2","2","1","4","2","3","4","4","2","568408786771902464","王","","","","","","","","","","","","","","","","","","","","","","","","","","","","","","feedback_test","","","","","","","","","",""
"760","","j","psychophysics","179","535979","0.0-7.0-0.0-4.0-0.0-0.36","3","3","3","3","3","4","3","3","4","3","4","3","2","4","2","4","3","3","4","4","2","2","2","2","2","2","2","2","1","1","0","1","0","0","1","0","1","1","1","-1","0","0","0","0","4","2","2","1","4","2","3","4","4","2","568408786771902464","王","","","","nonmatch","","","","","","","","","","","","","","key","j","16.65350943396224","799.9999682108573","445.8333156175091","j","true","nonmatch","img/ellipse.png","方形","椭圆","ALT1","formal_ALT1_1","","","","","","","","","",""
"null","<span style='color:GreenYellow; font-size: 70px;'>正确! </span>","null","html-keyboard-response","180","536490","0.0-7.0-0.0-4.0-0.0-1.36","3","3","3","3","3","4","3","3","4","3","4","3","2","4","2","4","3","3","4","4","2","2","2","2","2","2","2","2","1","1","0","1","0","0","1","0","1","1","1","-1","0","0","0","0","4","2","2","1","4","2","3","4","4","2","568408786771902464","王","","","","","","","","","","","","","","","","","","","","","","","","","","","","","","feedback_test","","","","","","","","","",""
"735","","j","psychophysics","181","538234","0.0-7.0-0.0-4.0-0.0-0.37","3","3","3","3","3","4","3","3","4","3","4","3","2","4","2","4","3","3","4","4","2","2","2","2","2","2","2","2","1","1","0","1","0","0","1","0","1","1","1","-1","0","0","0","0","4","2","2","1","4","2","3","4","4","2","568408786771902464","王","","","","nonmatch","","","","","","","","","","","","","","key","j","16.65050961538509","799.9999682108573","445.8333156175091","j","true","nonmatch","img/ellipse.png","五边","椭圆","ALT1","formal_ALT1_1","","","","","","","","","",""
