"rt","stimulus","response","trial_type","trial_index","time_elapsed","internal_node_id","ses_1","ses_2","ses_3","ses_4","ses_5","ses_6","ses_7","ses_8","ses_9","ses_10","coreself_1","coreself_2","coreself_3","coreself_4","coreself_5","coreself_6","coreself_7","coreself_8","coreself_9","coreself_10","SGPS_1","SGPS_2","SGPS_3","SGPS_4","SGPS_5","SGPS_6","SGPS_7","SGPS_8","SGPS_9","NPI1","NPI2","NPI3","NPI4","NPI5","NPI6","NPI7","NPI8","NPI9","NPI10","NPI11","NPI12","NPI13","NPI14","NPI15","hsns_1","hsns_2","hsns_3","hsns_4","hsns_5","hsns_6","hsns_7","hsns_8","hsns_9","hsns_10","subj_idx","friend_name","value","success","user_agent","responses","item_order","radio_event_ids","radio_event_times","key_event_times","mouse_event_times","straightlining","zigzagging","honeypot","timeout","failed_images","failed_audio","failed_video","version_attrib2","version_target2","correct","IAT","screen_id","task_id","RT","condition","word","varname","summary","version_attrib","version_target","time_stamp","view_history","response_type","key_press","avg_frame_time","center_x","center_y","correct_response","identity","Image","question_order"
"7719","
   <p><div style = ""color: white;font-size:25px;"">您好，欢迎参加本次实验。</div> </p>
   <p><div style = ""color: white;font-size:25px;"">为充分保障您的权利，请确保您已经知晓并同意《参与实验同意书》以及《数据公开知情同意书》。</div></p>
   <p><div style = ""color: white;font-size:25px;"">如果您未见过上述内容，请咨询实验员。</div></p>
   <p><div style = ""color: white;font-size:25px;"">如果您选择继续实验，则表示您已经清楚两份知情同意书的内容并同意。</div></p>
   <p> <div style = ""color: green;font-size:25px;""><按空格键至下页></div> </p>
   "," ","html-keyboard-response","0","7721","0.0-0.0","3","3","3","3","2","3","3","3","2","3","3","4","2","3","3","4","3","3","3","4","2","2","3","2","2","3","2","2","1","1","0","1","1","0","0","0","1","0","1","-1","0","1","0","1","3","5","4","3","4","2","3","4","3","2","742402460798423042","何","","","","","","","","","","","","","","","","","","","","","","","","","","","","","","","","","","","","","","","",""
"","","","call-function","1","7722","0.0-1.0-0.0","3","3","3","3","2","3","3","3","2","3","3","4","2","3","3","4","3","3","3","4","2","2","3","2","2","3","2","2","1","1","0","1","1","0","0","0","1","0","1","-1","0","1","0","1","3","5","4","3","4","2","3","4","3","2","742402460798423042","何","","","","","","","","","","","","","","","","","","","","","","","","","","","","","","","","","","","","","","","",""
"30771","","{""friend_name"":""何""}","survey-html-form","2","38494","0.0-1.0-1.0","3","3","3","3","2","3","3","3","2","3","3","4","2","3","3","4","3","3","3","4","2","2","3","2","2","3","2","2","1","1","0","1","1","0","0","0","1","0","1","-1","0","1","0","1","3","5","4","3","4","2","3","4","3","2","742402460798423042","何","","","","","","","","","","","","","","","","","","","","","","","","","","","","","","","","","","","","","","","",""
"","","","fullscreen","3","59229","0.0-2.0","3","3","3","3","2","3","3","3","2","3","3","4","2","3","3","4","3","3","3","4","2","2","3","2","2","3","2","2","1","1","0","1","1","0","0","0","1","0","1","-1","0","1","0","1","3","5","4","3","4","2","3","4","3","2","742402460798423042","何","","true","{}","","","","","","","","","","","","","","","","","","","","","","","","","","","","","","","","","","","","",""
"47063","","{""Q01"":""3"",""Q02"":""3"",""Q03"":""3"",""Q04"":""3"",""Q05"":""2"",""Q06"":""3"",""Q07"":""3"",""Q08"":""3"",""Q09"":""2"",""Q10"":""3""}","survey-template","4","106295","0.0-3.0","3","3","3","3","2","3","3","3","2","3","3","4","2","3","3","4","3","3","3","4","2","2","3","2","2","3","2","2","1","1","0","1","1","0","0","0","1","0","1","-1","0","1","0","1","3","5","4","3","4","2","3","4","3","2","742402460798423042","何","","","","{""Q01"":""3"",""Q02"":""3"",""Q03"":""3"",""Q04"":""3"",""Q05"":""2"",""Q06"":""3"",""Q07"":""3"",""Q08"":""3"",""Q09"":""2"",""Q10"":""3""}","[0,1,2,3,4,5,6,7,8,9]","[""Q01"",""Q02"",""Q03"",""Q03"",""Q04"",""Q03"",""Q04"",""Q05"",""Q06"",""Q07"",""Q08"",""Q09"",""Q10""]","[6944.700000047684,8494,10843.200000047684,13667.600000023842,16626.5,24020.399999976158,25533.600000023842,31880,34082.5,36070.10000002384,39704.89999997616,44140,45624.10000002384]","[]","[6944.700000047684,8494,10843.200000047684,13667.600000023842,15048.799999952316,16626.5,24020.399999976158,25533.600000023842,31880,34082.5,36070.10000002384,39704.89999997616,42354,44140,45624.10000002384,47061.700000047684]","0.7","0.5555555555555556","0","","","","","","","","","","","","","","","","","","","","","","","","","","","",""
"25709.299999952316","","{""Q01"":""3"",""Q02"":""4"",""Q03"":""2"",""Q04"":""3"",""Q05"":""3"",""Q06"":""4"",""Q07"":""3"",""Q08"":""3"",""Q09"":""3"",""Q10"":""4""}","survey-template","5","132008","0.0-4.0","3","3","3","3","2","3","3","3","2","3","3","4","2","3","3","4","3","3","3","4","2","2","3","2","2","3","2","2","1","1","0","1","1","0","0","0","1","0","1","-1","0","1","0","1","3","5","4","3","4","2","3","4","3","2","742402460798423042","何","","","","{""Q01"":""3"",""Q02"":""4"",""Q03"":""2"",""Q04"":""3"",""Q05"":""3"",""Q06"":""4"",""Q07"":""3"",""Q08"":""3"",""Q09"":""3"",""Q10"":""4""}","[0,1,2,3,4,5,6,7,8,9]","[""Q01"",""Q02"",""Q03"",""Q04"",""Q05"",""Q06"",""Q07"",""Q08"",""Q09"",""Q10""]","[6007.099999904633,7437,9772.699999928474,11820,14238.599999904633,16083.299999952316,17438.5,19156.699999928474,21223.899999976158,24020.799999952316]","[]","[6007.099999904633,7437,9772.699999928474,11820,14238.599999904633,16083.299999952316,17438.5,19156.699999928474,21223.899999976158,24020.799999952316,25708.399999976158]","0.6","0.5555555555555556","0","","","","","","","","","","","","","","","","","","","","","","","","","","","",""
"","","","preload","6","132143","0.0-5.0","3","3","3","3","2","3","3","3","2","3","3","4","2","3","3","4","3","3","3","4","2","2","3","2","2","3","2","2","1","1","0","1","1","0","0","0","1","0","1","-1","0","1","0","1","3","5","4","3","4","2","3","4","3","2","742402460798423042","何","","true","","","","","","","","","","","false","[]","[]","[]","","","","","","","","","","","","","","","","","","","","","","","",""
"22837","
    <h3>词语分类任务</h3>
    <p>在接下来的任务中，你需要对一系列词语进行分类。<p/>
    请先熟悉这些词语，这有利于你完成接下来的任务。</p>
    <table align=""center"" border=1 cellpadding=3 cellspacing=0>
    <tr> <th>类别</th> <th>词语</th> </tr>
    <tr> <td>&emsp;积极&emsp;</td> <td>&emsp;高尚、诚信、善良、君子、廉正、正直&emsp;</td> </tr>
    <tr> <td>&emsp;消极&emsp;</td> <td>&emsp;缺德、卑鄙、不孝、不仁、小人、黑心&emsp;</td> </tr>
    <tr> <td>&emsp;自我&emsp;</td> <td>&emsp;我、我的、自己、自己的、本人、本人的&emsp;</td> </tr>
    <tr> <td>&emsp;他人&emsp;</td> <td>&emsp;他、他的、别人、别人的、他人、他人的&emsp;</td> </tr>
    </table><br/>","0","html-button-response","7","154981","0.0-6.0-1.0-0.0","3","3","3","3","2","3","3","3","2","3","3","4","2","3","3","4","3","3","3","4","2","2","3","2","2","3","2","2","1","1","0","1","1","0","0","0","1","0","1","-1","0","1","0","1","3","5","4","3","4","2","3","4","3","2","742402460798423042","何","","","","","","","","","","","","","","","","","2","2","","","","","","","","","","","","","","","","","","","","","",""
"25671","
    <div class=""tag-bottom""><p>
    ―― 任务1：对“他人”词和“自我”词分类 ――<p/>
    不同词语会出现在屏幕中央，类别标签将始终显示在屏幕上方<p/>   
    <span style=""color:#FFD866""><b>请根据上方标签的提示，尽可能正确并且快速地做出按键反应</b></span><p/>
    当按键错误时屏幕中会出现<span style=""color:red""> X </span>，需要按另一个键纠正才能继续<br/><p/>
    请把双手食指分别放在键盘的“E”键和“I”键上<p/>
    按<空格键>开始
    </p></div>"," ","html-keyboard-response","8","180654","0.0-6.0-1.0-1.0","3","3","3","3","2","3","3","3","2","3","3","4","2","3","3","4","3","3","3","4","2","2","3","2","2","3","2","2","1","1","0","1","1","0","0","0","1","0","1","-1","0","1","0","1","3","5","4","3","4","2","3","4","3","2","742402460798423042","何","","","","","","","","","","","","","","","","","","","","","","","","","","","","","","","","","","","","","","","",""
"null","","null","html-keyboard-response","9","180912","0.0-6.0-1.0-2.0-0.0","3","3","3","3","2","3","3","3","2","3","3","4","2","3","3","4","3","3","3","4","2","2","3","2","2","3","2","2","1","1","0","1","1","0","0","0","1","0","1","-1","0","1","0","1","3","5","4","3","4","2","3","4","3","2","742402460798423042","何","","","","","","","","","","","","","","","","","","","","","","","","","","","","","","","","","","","","","","","",""
"2204","<p style=""color:rgb(150, 250, 100); font-size: 35px;"">别人</p>","e","categorize-html","10","183118","0.0-6.0-1.0-2.0-1.0","3","3","3","3","2","3","3","3","2","3","3","4","2","3","3","4","3","3","3","4","2","2","3","2","2","3","2","2","1","1","0","1","1","0","0","0","1","0","1","-1","0","1","0","1","3","5","4","3","4","2","3","4","3","2","742402460798423042","何","","","","","","","","","","","","","","","","","","","true","11","1","moral","2204","other","别人","","","","","","","","","","","","","","",""
"null","","null","html-keyboard-response","11","183380","0.0-6.0-1.0-2.0-0.1","3","3","3","3","2","3","3","3","2","3","3","4","2","3","3","4","3","3","3","4","2","2","3","2","2","3","2","2","1","1","0","1","1","0","0","0","1","0","1","-1","0","1","0","1","3","5","4","3","4","2","3","4","3","2","742402460798423042","何","","","","","","","","","","","","","","","","","","","","","","","","","","","","","","","","","","","","","","","",""
"968","<p style=""color:rgb(150, 250, 100); font-size: 35px;"">自己</p>","i","categorize-html","12","184350","0.0-6.0-1.0-2.0-1.1","3","3","3","3","2","3","3","3","2","3","3","4","2","3","3","4","3","3","3","4","2","2","3","2","2","3","2","2","1","1","0","1","1","0","0","0","1","0","1","-1","0","1","0","1","3","5","4","3","4","2","3","4","3","2","742402460798423042","何","","","","","","","","","","","","","","","","","","","true","11","1","moral","968","self","自己","","","","","","","","","","","","","","",""
"null","","null","html-keyboard-response","13","184610","0.0-6.0-1.0-2.0-0.2","3","3","3","3","2","3","3","3","2","3","3","4","2","3","3","4","3","3","3","4","2","2","3","2","2","3","2","2","1","1","0","1","1","0","0","0","1","0","1","-1","0","1","0","1","3","5","4","3","4","2","3","4","3","2","742402460798423042","何","","","","","","","","","","","","","","","","","","","","","","","","","","","","","","","","","","","","","","","",""
"797","<p style=""color:rgb(150, 250, 100); font-size: 35px;"">他人</p>","e","categorize-html","14","185409","0.0-6.0-1.0-2.0-1.2","3","3","3","3","2","3","3","3","2","3","3","4","2","3","3","4","3","3","3","4","2","2","3","2","2","3","2","2","1","1","0","1","1","0","0","0","1","0","1","-1","0","1","0","1","3","5","4","3","4","2","3","4","3","2","742402460798423042","何","","","","","","","","","","","","","","","","","","","true","11","1","moral","797","other","他人","","","","","","","","","","","","","","",""
"null","","null","html-keyboard-response","15","185664","0.0-6.0-1.0-2.0-0.3","3","3","3","3","2","3","3","3","2","3","3","4","2","3","3","4","3","3","3","4","2","2","3","2","2","3","2","2","1","1","0","1","1","0","0","0","1","0","1","-1","0","1","0","1","3","5","4","3","4","2","3","4","3","2","742402460798423042","何","","","","","","","","","","","","","","","","","","","","","","","","","","","","","","","","","","","","","","","",""
"841","<p style=""color:rgb(150, 250, 100); font-size: 35px;"">本人</p>","i","categorize-html","16","186507","0.0-6.0-1.0-2.0-1.3","3","3","3","3","2","3","3","3","2","3","3","4","2","3","3","4","3","3","3","4","2","2","3","2","2","3","2","2","1","1","0","1","1","0","0","0","1","0","1","-1","0","1","0","1","3","5","4","3","4","2","3","4","3","2","742402460798423042","何","","","","","","","","","","","","","","","","","","","true","11","1","moral","841","self","本人","","","","","","","","","","","","","","",""
"null","","null","html-keyboard-response","17","186769","0.0-6.0-1.0-2.0-0.4","3","3","3","3","2","3","3","3","2","3","3","4","2","3","3","4","3","3","3","4","2","2","3","2","2","3","2","2","1","1","0","1","1","0","0","0","1","0","1","-1","0","1","0","1","3","5","4","3","4","2","3","4","3","2","742402460798423042","何","","","","","","","","","","","","","","","","","","","","","","","","","","","","","","","","","","","","","","","",""
"683","<p style=""color:rgb(150, 250, 100); font-size: 35px;"">本人的</p>","i","categorize-html","18","187454","0.0-6.0-1.0-2.0-1.4","3","3","3","3","2","3","3","3","2","3","3","4","2","3","3","4","3","3","3","4","2","2","3","2","2","3","2","2","1","1","0","1","1","0","0","0","1","0","1","-1","0","1","0","1","3","5","4","3","4","2","3","4","3","2","742402460798423042","何","","","","","","","","","","","","","","","","","","","true","11","1","moral","683","self","本人的","","","","","","","","","","","","","","",""
"null","","null","html-keyboard-response","19","187714","0.0-6.0-1.0-2.0-0.5","3","3","3","3","2","3","3","3","2","3","3","4","2","3","3","4","3","3","3","4","2","2","3","2","2","3","2","2","1","1","0","1","1","0","0","0","1","0","1","-1","0","1","0","1","3","5","4","3","4","2","3","4","3","2","742402460798423042","何","","","","","","","","","","","","","","","","","","","","","","","","","","","","","","","","","","","","","","","",""
"893","<p style=""color:rgb(150, 250, 100); font-size: 35px;"">他人的</p>","e","categorize-html","20","188609","0.0-6.0-1.0-2.0-1.5","3","3","3","3","2","3","3","3","2","3","3","4","2","3","3","4","3","3","3","4","2","2","3","2","2","3","2","2","1","1","0","1","1","0","0","0","1","0","1","-1","0","1","0","1","3","5","4","3","4","2","3","4","3","2","742402460798423042","何","","","","","","","","","","","","","","","","","","","true","11","1","moral","893","other","他人的","","","","","","","","","","","","","","",""
"null","","null","html-keyboard-response","21","188872","0.0-6.0-1.0-2.0-0.6","3","3","3","3","2","3","3","3","2","3","3","4","2","3","3","4","3","3","3","4","2","2","3","2","2","3","2","2","1","1","0","1","1","0","0","0","1","0","1","-1","0","1","0","1","3","5","4","3","4","2","3","4","3","2","742402460798423042","何","","","","","","","","","","","","","","","","","","","","","","","","","","","","","","","","","","","","","","","",""
"942","<p style=""color:rgb(150, 250, 100); font-size: 35px;"">别人的</p>","e","categorize-html","22","189816","0.0-6.0-1.0-2.0-1.6","3","3","3","3","2","3","3","3","2","3","3","4","2","3","3","4","3","3","3","4","2","2","3","2","2","3","2","2","1","1","0","1","1","0","0","0","1","0","1","-1","0","1","0","1","3","5","4","3","4","2","3","4","3","2","742402460798423042","何","","","","","","","","","","","","","","","","","","","true","11","1","moral","942","other","别人的","","","","","","","","","","","","","","",""
"null","","null","html-keyboard-response","23","190077","0.0-6.0-1.0-2.0-0.7","3","3","3","3","2","3","3","3","2","3","3","4","2","3","3","4","3","3","3","4","2","2","3","2","2","3","2","2","1","1","0","1","1","0","0","0","1","0","1","-1","0","1","0","1","3","5","4","3","4","2","3","4","3","2","742402460798423042","何","","","","","","","","","","","","","","","","","","","","","","","","","","","","","","","","","","","","","","","",""
"762","<p style=""color:rgb(150, 250, 100); font-size: 35px;"">他的</p>","e","categorize-html","24","190840","0.0-6.0-1.0-2.0-1.7","3","3","3","3","2","3","3","3","2","3","3","4","2","3","3","4","3","3","3","4","2","2","3","2","2","3","2","2","1","1","0","1","1","0","0","0","1","0","1","-1","0","1","0","1","3","5","4","3","4","2","3","4","3","2","742402460798423042","何","","","","","","","","","","","","","","","","","","","true","11","1","moral","762","other","他的","","","","","","","","","","","","","","",""
"null","","null","html-keyboard-response","25","191106","0.0-6.0-1.0-2.0-0.8","3","3","3","3","2","3","3","3","2","3","3","4","2","3","3","4","3","3","3","4","2","2","3","2","2","3","2","2","1","1","0","1","1","0","0","0","1","0","1","-1","0","1","0","1","3","5","4","3","4","2","3","4","3","2","742402460798423042","何","","","","","","","","","","","","","","","","","","","","","","","","","","","","","","","","","","","","","","","",""
"438","<p style=""color:rgb(150, 250, 100); font-size: 35px;"">我</p>","i","categorize-html","26","191546","0.0-6.0-1.0-2.0-1.8","3","3","3","3","2","3","3","3","2","3","3","4","2","3","3","4","3","3","3","4","2","2","3","2","2","3","2","2","1","1","0","1","1","0","0","0","1","0","1","-1","0","1","0","1","3","5","4","3","4","2","3","4","3","2","742402460798423042","何","","","","","","","","","","","","","","","","","","","true","11","1","moral","438","self","我","","","","","","","","","","","","","","",""
"null","","null","html-keyboard-response","27","191812","0.0-6.0-1.0-2.0-0.9","3","3","3","3","2","3","3","3","2","3","3","4","2","3","3","4","3","3","3","4","2","2","3","2","2","3","2","2","1","1","0","1","1","0","0","0","1","0","1","-1","0","1","0","1","3","5","4","3","4","2","3","4","3","2","742402460798423042","何","","","","","","","","","","","","","","","","","","","","","","","","","","","","","","","","","","","","","","","",""
"686","<p style=""color:rgb(150, 250, 100); font-size: 35px;"">他</p>","e","categorize-html","28","192500","0.0-6.0-1.0-2.0-1.9","3","3","3","3","2","3","3","3","2","3","3","4","2","3","3","4","3","3","3","4","2","2","3","2","2","3","2","2","1","1","0","1","1","0","0","0","1","0","1","-1","0","1","0","1","3","5","4","3","4","2","3","4","3","2","742402460798423042","何","","","","","","","","","","","","","","","","","","","true","11","1","moral","686","other","他","","","","","","","","","","","","","","",""
"null","","null","html-keyboard-response","29","192752","0.0-6.0-1.0-2.0-0.10","3","3","3","3","2","3","3","3","2","3","3","4","2","3","3","4","3","3","3","4","2","2","3","2","2","3","2","2","1","1","0","1","1","0","0","0","1","0","1","-1","0","1","0","1","3","5","4","3","4","2","3","4","3","2","742402460798423042","何","","","","","","","","","","","","","","","","","","","","","","","","","","","","","","","","","","","","","","","",""
"603","<p style=""color:rgb(150, 250, 100); font-size: 35px;"">我的</p>","i","categorize-html","30","193357","0.0-6.0-1.0-2.0-1.10","3","3","3","3","2","3","3","3","2","3","3","4","2","3","3","4","3","3","3","4","2","2","3","2","2","3","2","2","1","1","0","1","1","0","0","0","1","0","1","-1","0","1","0","1","3","5","4","3","4","2","3","4","3","2","742402460798423042","何","","","","","","","","","","","","","","","","","","","true","11","1","moral","603","self","我的","","","","","","","","","","","","","","",""
"null","","null","html-keyboard-response","31","193617","0.0-6.0-1.0-2.0-0.11","3","3","3","3","2","3","3","3","2","3","3","4","2","3","3","4","3","3","3","4","2","2","3","2","2","3","2","2","1","1","0","1","1","0","0","0","1","0","1","-1","0","1","0","1","3","5","4","3","4","2","3","4","3","2","742402460798423042","何","","","","","","","","","","","","","","","","","","","","","","","","","","","","","","","","","","","","","","","",""
"716","<p style=""color:rgb(150, 250, 100); font-size: 35px;"">自己的</p>","i","categorize-html","32","194336","0.0-6.0-1.0-2.0-1.11","3","3","3","3","2","3","3","3","2","3","3","4","2","3","3","4","3","3","3","4","2","2","3","2","2","3","2","2","1","1","0","1","1","0","0","0","1","0","1","-1","0","1","0","1","3","5","4","3","4","2","3","4","3","2","742402460798423042","何","","","","","","","","","","","","","","","","","","","true","11","1","moral","716","self","自己的","","","","","","","","","","","","","","",""
"6959","
    <div class=""tag-bottom""><p>
    ―― 任务2：对“消极”词和“积极”词分类 ――<p/>   
    <span style=""color:#78DCE8""><b>注意上方，类别标签和需要分类的词语都已经改变</b></span><p/>
    <span style=""color:#FFD866""><b>请根据上方标签的提示，尽可能正确并且快速地做出按键反应</b></span><p/>
    当按键错误时屏幕中会出现<span style=""color:red""> X </span>，需要按另一个键纠正才能继续<br/><p/>
    请把双手食指分别放在键盘的“E”键和“I”键上<p/>
    按<空格键>开始
    </p></div>"," ","html-keyboard-response","33","201295","0.0-6.0-1.0-3.0","3","3","3","3","2","3","3","3","2","3","3","4","2","3","3","4","3","3","3","4","2","2","3","2","2","3","2","2","1","1","0","1","1","0","0","0","1","0","1","-1","0","1","0","1","3","5","4","3","4","2","3","4","3","2","742402460798423042","何","","","","","","","","","","","","","","","","","","","","","","","","","","","","","","","","","","","","","","","",""
"null","","null","html-keyboard-response","34","201558","0.0-6.0-1.0-4.0-0.0","3","3","3","3","2","3","3","3","2","3","3","4","2","3","3","4","3","3","3","4","2","2","3","2","2","3","2","2","1","1","0","1","1","0","0","0","1","0","1","-1","0","1","0","1","3","5","4","3","4","2","3","4","3","2","742402460798423042","何","","","","","","","","","","","","","","","","","","","","","","","","","","","","","","","","","","","","","","","",""
"806","<p style=""color:white; font-size: 35px;"">黑心</p>","e","categorize-html","35","202367","0.0-6.0-1.0-4.0-1.0","3","3","3","3","2","3","3","3","2","3","3","4","2","3","3","4","3","3","3","4","2","2","3","2","2","3","2","2","1","1","0","1","1","0","0","0","1","0","1","-1","0","1","0","1","3","5","4","3","4","2","3","4","3","2","742402460798423042","何","","","","","","","","","","","","","","","","","","","true","12","2","moral","806","negative","黑心","","","","","","","","","","","","","","",""
"null","","null","html-keyboard-response","36","202619","0.0-6.0-1.0-4.0-0.1","3","3","3","3","2","3","3","3","2","3","3","4","2","3","3","4","3","3","3","4","2","2","3","2","2","3","2","2","1","1","0","1","1","0","0","0","1","0","1","-1","0","1","0","1","3","5","4","3","4","2","3","4","3","2","742402460798423042","何","","","","","","","","","","","","","","","","","","","","","","","","","","","","","","","","","","","","","","","",""
"746","<p style=""color:white; font-size: 35px;"">小人</p>","e","categorize-html","37","203366","0.0-6.0-1.0-4.0-1.1","3","3","3","3","2","3","3","3","2","3","3","4","2","3","3","4","3","3","3","4","2","2","3","2","2","3","2","2","1","1","0","1","1","0","0","0","1","0","1","-1","0","1","0","1","3","5","4","3","4","2","3","4","3","2","742402460798423042","何","","","","","","","","","","","","","","","","","","","true","12","2","moral","746","negative","小人","","","","","","","","","","","","","","",""
"null","","null","html-keyboard-response","38","203618","0.0-6.0-1.0-4.0-0.2","3","3","3","3","2","3","3","3","2","3","3","4","2","3","3","4","3","3","3","4","2","2","3","2","2","3","2","2","1","1","0","1","1","0","0","0","1","0","1","-1","0","1","0","1","3","5","4","3","4","2","3","4","3","2","742402460798423042","何","","","","","","","","","","","","","","","","","","","","","","","","","","","","","","","","","","","","","","","",""
"782","<p style=""color:white; font-size: 35px;"">君子</p>","i","categorize-html","39","204403","0.0-6.0-1.0-4.0-1.2","3","3","3","3","2","3","3","3","2","3","3","4","2","3","3","4","3","3","3","4","2","2","3","2","2","3","2","2","1","1","0","1","1","0","0","0","1","0","1","-1","0","1","0","1","3","5","4","3","4","2","3","4","3","2","742402460798423042","何","","","","","","","","","","","","","","","","","","","true","12","2","moral","782","positive","君子","","","","","","","","","","","","","","",""
"null","","null","html-keyboard-response","40","204658","0.0-6.0-1.0-4.0-0.3","3","3","3","3","2","3","3","3","2","3","3","4","2","3","3","4","3","3","3","4","2","2","3","2","2","3","2","2","1","1","0","1","1","0","0","0","1","0","1","-1","0","1","0","1","3","5","4","3","4","2","3","4","3","2","742402460798423042","何","","","","","","","","","","","","","","","","","","","","","","","","","","","","","","","","","","","","","","","",""
"525","<p style=""color:white; font-size: 35px;"">正直</p>","i","categorize-html","41","205184","0.0-6.0-1.0-4.0-1.3","3","3","3","3","2","3","3","3","2","3","3","4","2","3","3","4","3","3","3","4","2","2","3","2","2","3","2","2","1","1","0","1","1","0","0","0","1","0","1","-1","0","1","0","1","3","5","4","3","4","2","3","4","3","2","742402460798423042","何","","","","","","","","","","","","","","","","","","","true","12","2","moral","525","positive","正直","","","","","","","","","","","","","","",""
"null","","null","html-keyboard-response","42","205445","0.0-6.0-1.0-4.0-0.4","3","3","3","3","2","3","3","3","2","3","3","4","2","3","3","4","3","3","3","4","2","2","3","2","2","3","2","2","1","1","0","1","1","0","0","0","1","0","1","-1","0","1","0","1","3","5","4","3","4","2","3","4","3","2","742402460798423042","何","","","","","","","","","","","","","","","","","","","","","","","","","","","","","","","","","","","","","","","",""
"926","<p style=""color:white; font-size: 35px;"">廉正</p>","i","categorize-html","43","206373","0.0-6.0-1.0-4.0-1.4","3","3","3","3","2","3","3","3","2","3","3","4","2","3","3","4","3","3","3","4","2","2","3","2","2","3","2","2","1","1","0","1","1","0","0","0","1","0","1","-1","0","1","0","1","3","5","4","3","4","2","3","4","3","2","742402460798423042","何","","","","","","","","","","","","","","","","","","","true","12","2","moral","926","positive","廉正","","","","","","","","","","","","","","",""
"null","","null","html-keyboard-response","44","206631","0.0-6.0-1.0-4.0-0.5","3","3","3","3","2","3","3","3","2","3","3","4","2","3","3","4","3","3","3","4","2","2","3","2","2","3","2","2","1","1","0","1","1","0","0","0","1","0","1","-1","0","1","0","1","3","5","4","3","4","2","3","4","3","2","742402460798423042","何","","","","","","","","","","","","","","","","","","","","","","","","","","","","","","","","","","","","","","","",""
"497","<p style=""color:white; font-size: 35px;"">高尚</p>","i","categorize-html","45","207130","0.0-6.0-1.0-4.0-1.5","3","3","3","3","2","3","3","3","2","3","3","4","2","3","3","4","3","3","3","4","2","2","3","2","2","3","2","2","1","1","0","1","1","0","0","0","1","0","1","-1","0","1","0","1","3","5","4","3","4","2","3","4","3","2","742402460798423042","何","","","","","","","","","","","","","","","","","","","true","12","2","moral","497","positive","高尚","","","","","","","","","","","","","","",""
"null","","null","html-keyboard-response","46","207392","0.0-6.0-1.0-4.0-0.6","3","3","3","3","2","3","3","3","2","3","3","4","2","3","3","4","3","3","3","4","2","2","3","2","2","3","2","2","1","1","0","1","1","0","0","0","1","0","1","-1","0","1","0","1","3","5","4","3","4","2","3","4","3","2","742402460798423042","何","","","","","","","","","","","","","","","","","","","","","","","","","","","","","","","","","","","","","","","",""
"453","<p style=""color:white; font-size: 35px;"">诚信</p>","i","categorize-html","47","207847","0.0-6.0-1.0-4.0-1.6","3","3","3","3","2","3","3","3","2","3","3","4","2","3","3","4","3","3","3","4","2","2","3","2","2","3","2","2","1","1","0","1","1","0","0","0","1","0","1","-1","0","1","0","1","3","5","4","3","4","2","3","4","3","2","742402460798423042","何","","","","","","","","","","","","","","","","","","","true","12","2","moral","453","positive","诚信","","","","","","","","","","","","","","",""
"null","","null","html-keyboard-response","48","208109","0.0-6.0-1.0-4.0-0.7","3","3","3","3","2","3","3","3","2","3","3","4","2","3","3","4","3","3","3","4","2","2","3","2","2","3","2","2","1","1","0","1","1","0","0","0","1","0","1","-1","0","1","0","1","3","5","4","3","4","2","3","4","3","2","742402460798423042","何","","","","","","","","","","","","","","","","","","","","","","","","","","","","","","","","","","","","","","","",""
"620","<p style=""color:white; font-size: 35px;"">不孝</p>","e","categorize-html","49","208730","0.0-6.0-1.0-4.0-1.7","3","3","3","3","2","3","3","3","2","3","3","4","2","3","3","4","3","3","3","4","2","2","3","2","2","3","2","2","1","1","0","1","1","0","0","0","1","0","1","-1","0","1","0","1","3","5","4","3","4","2","3","4","3","2","742402460798423042","何","","","","","","","","","","","","","","","","","","","true","12","2","moral","620","negative","不孝","","","","","","","","","","","","","","",""
"null","","null","html-keyboard-response","50","208983","0.0-6.0-1.0-4.0-0.8","3","3","3","3","2","3","3","3","2","3","3","4","2","3","3","4","3","3","3","4","2","2","3","2","2","3","2","2","1","1","0","1","1","0","0","0","1","0","1","-1","0","1","0","1","3","5","4","3","4","2","3","4","3","2","742402460798423042","何","","","","","","","","","","","","","","","","","","","","","","","","","","","","","","","","","","","","","","","",""
"708","<p style=""color:white; font-size: 35px;"">缺德</p>","e","categorize-html","51","209693","0.0-6.0-1.0-4.0-1.8","3","3","3","3","2","3","3","3","2","3","3","4","2","3","3","4","3","3","3","4","2","2","3","2","2","3","2","2","1","1","0","1","1","0","0","0","1","0","1","-1","0","1","0","1","3","5","4","3","4","2","3","4","3","2","742402460798423042","何","","","","","","","","","","","","","","","","","","","true","12","2","moral","708","negative","缺德","","","","","","","","","","","","","","",""
"null","","null","html-keyboard-response","52","209944","0.0-6.0-1.0-4.0-0.9","3","3","3","3","2","3","3","3","2","3","3","4","2","3","3","4","3","3","3","4","2","2","3","2","2","3","2","2","1","1","0","1","1","0","0","0","1","0","1","-1","0","1","0","1","3","5","4","3","4","2","3","4","3","2","742402460798423042","何","","","","","","","","","","","","","","","","","","","","","","","","","","","","","","","","","","","","","","","",""
"668","<p style=""color:white; font-size: 35px;"">善良</p>","i","categorize-html","53","210614","0.0-6.0-1.0-4.0-1.9","3","3","3","3","2","3","3","3","2","3","3","4","2","3","3","4","3","3","3","4","2","2","3","2","2","3","2","2","1","1","0","1","1","0","0","0","1","0","1","-1","0","1","0","1","3","5","4","3","4","2","3","4","3","2","742402460798423042","何","","","","","","","","","","","","","","","","","","","true","12","2","moral","668","positive","善良","","","","","","","","","","","","","","",""
"null","","null","html-keyboard-response","54","210872","0.0-6.0-1.0-4.0-0.10","3","3","3","3","2","3","3","3","2","3","3","4","2","3","3","4","3","3","3","4","2","2","3","2","2","3","2","2","1","1","0","1","1","0","0","0","1","0","1","-1","0","1","0","1","3","5","4","3","4","2","3","4","3","2","742402460798423042","何","","","","","","","","","","","","","","","","","","","","","","","","","","","","","","","","","","","","","","","",""
"691","<p style=""color:white; font-size: 35px;"">卑鄙</p>","e","categorize-html","55","211566","0.0-6.0-1.0-4.0-1.10","3","3","3","3","2","3","3","3","2","3","3","4","2","3","3","4","3","3","3","4","2","2","3","2","2","3","2","2","1","1","0","1","1","0","0","0","1","0","1","-1","0","1","0","1","3","5","4","3","4","2","3","4","3","2","742402460798423042","何","","","","","","","","","","","","","","","","","","","true","12","2","moral","691","negative","卑鄙","","","","","","","","","","","","","","",""
"null","","null","html-keyboard-response","56","211829","0.0-6.0-1.0-4.0-0.11","3","3","3","3","2","3","3","3","2","3","3","4","2","3","3","4","3","3","3","4","2","2","3","2","2","3","2","2","1","1","0","1","1","0","0","0","1","0","1","-1","0","1","0","1","3","5","4","3","4","2","3","4","3","2","742402460798423042","何","","","","","","","","","","","","","","","","","","","","","","","","","","","","","","","","","","","","","","","",""
"630","<p style=""color:white; font-size: 35px;"">不仁</p>","e","categorize-html","57","212461","0.0-6.0-1.0-4.0-1.11","3","3","3","3","2","3","3","3","2","3","3","4","2","3","3","4","3","3","3","4","2","2","3","2","2","3","2","2","1","1","0","1","1","0","0","0","1","0","1","-1","0","1","0","1","3","5","4","3","4","2","3","4","3","2","742402460798423042","何","","","","","","","","","","","","","","","","","","","true","12","2","moral","630","negative","不仁","","","","","","","","","","","","","","",""
"14366","
    <div class=""tag-bottom""><p>
    ―― 任务3：对“他人/消极”词和“自我/积极”词分类 ――<p/>
    <span style=""color:#78DCE8""><b>注意上方，之前的四类词语将混合在一起交替呈现</b></span><p/>
    <span style=""color:#FFD866""><b>请根据上方标签的提示，尽可能正确并且快速地做出按键反应</b></span><p/>
    当按键错误时屏幕中会出现<span style=""color:red""> X </span>，需要按另一个键纠正才能继续<br/><p/>
    请把双手食指分别放在键盘的“E”键和“I”键上<p/>
    按<空格键>开始
    </p></div>"," ","html-keyboard-response","58","226828","0.0-6.0-1.0-5.0","3","3","3","3","2","3","3","3","2","3","3","4","2","3","3","4","3","3","3","4","2","2","3","2","2","3","2","2","1","1","0","1","1","0","0","0","1","0","1","-1","0","1","0","1","3","5","4","3","4","2","3","4","3","2","742402460798423042","何","","","","","","","","","","","","","","","","","","","","","","","","","","","","","","","","","","","","","","","",""
"null","","null","html-keyboard-response","59","227085","0.0-6.0-1.0-6.0-0.0","3","3","3","3","2","3","3","3","2","3","3","4","2","3","3","4","3","3","3","4","2","2","3","2","2","3","2","2","1","1","0","1","1","0","0","0","1","0","1","-1","0","1","0","1","3","5","4","3","4","2","3","4","3","2","742402460798423042","何","","","","","","","","","","","","","","","","","","","","","","","","","","","","","","","","","","","","","","","",""
"763","<p style=""color:rgb(150, 250, 100); font-size: 35px;"">他人的</p>","e","categorize-html","60","227851","0.0-6.0-1.0-6.0-1.0","3","3","3","3","2","3","3","3","2","3","3","4","2","3","3","4","3","3","3","4","2","2","3","2","2","3","2","2","1","1","0","1","1","0","0","0","1","0","1","-1","0","1","0","1","3","5","4","3","4","2","3","4","3","2","742402460798423042","何","","","","","","","","","","","","","","","","","","","true","13","3","moral","763","other","他人的","","","","","","","","","","","","","","",""
"null","","null","html-keyboard-response","61","228112","0.0-6.0-1.0-6.0-0.1","3","3","3","3","2","3","3","3","2","3","3","4","2","3","3","4","3","3","3","4","2","2","3","2","2","3","2","2","1","1","0","1","1","0","0","0","1","0","1","-1","0","1","0","1","3","5","4","3","4","2","3","4","3","2","742402460798423042","何","","","","","","","","","","","","","","","","","","","","","","","","","","","","","","","","","","","","","","","",""
"688","<p style=""color:white; font-size: 35px;"">不孝</p>","e","categorize-html","62","228802","0.0-6.0-1.0-6.0-1.1","3","3","3","3","2","3","3","3","2","3","3","4","2","3","3","4","3","3","3","4","2","2","3","2","2","3","2","2","1","1","0","1","1","0","0","0","1","0","1","-1","0","1","0","1","3","5","4","3","4","2","3","4","3","2","742402460798423042","何","","","","","","","","","","","","","","","","","","","true","13","3","moral","688","negative","不孝","","","","","","","","","","","","","","",""
"null","","null","html-keyboard-response","63","229063","0.0-6.0-1.0-6.0-0.2","3","3","3","3","2","3","3","3","2","3","3","4","2","3","3","4","3","3","3","4","2","2","3","2","2","3","2","2","1","1","0","1","1","0","0","0","1","0","1","-1","0","1","0","1","3","5","4","3","4","2","3","4","3","2","742402460798423042","何","","","","","","","","","","","","","","","","","","","","","","","","","","","","","","","","","","","","","","","",""
"645","<p style=""color:rgb(150, 250, 100); font-size: 35px;"">自己</p>","i","categorize-html","64","229709","0.0-6.0-1.0-6.0-1.2","3","3","3","3","2","3","3","3","2","3","3","4","2","3","3","4","3","3","3","4","2","2","3","2","2","3","2","2","1","1","0","1","1","0","0","0","1","0","1","-1","0","1","0","1","3","5","4","3","4","2","3","4","3","2","742402460798423042","何","","","","","","","","","","","","","","","","","","","true","13","3","moral","645","self","自己","","","","","","","","","","","","","","",""
"null","","null","html-keyboard-response","65","229968","0.0-6.0-1.0-6.0-0.3","3","3","3","3","2","3","3","3","2","3","3","4","2","3","3","4","3","3","3","4","2","2","3","2","2","3","2","2","1","1","0","1","1","0","0","0","1","0","1","-1","0","1","0","1","3","5","4","3","4","2","3","4","3","2","742402460798423042","何","","","","","","","","","","","","","","","","","","","","","","","","","","","","","","","","","","","","","","","",""
"916","<p style=""color:white; font-size: 35px;"">高尚</p>","i","categorize-html","66","230885","0.0-6.0-1.0-6.0-1.3","3","3","3","3","2","3","3","3","2","3","3","4","2","3","3","4","3","3","3","4","2","2","3","2","2","3","2","2","1","1","0","1","1","0","0","0","1","0","1","-1","0","1","0","1","3","5","4","3","4","2","3","4","3","2","742402460798423042","何","","","","","","","","","","","","","","","","","","","true","13","3","moral","916","positive","高尚","","","","","","","","","","","","","","",""
"null","","null","html-keyboard-response","67","231152","0.0-6.0-1.0-6.0-0.4","3","3","3","3","2","3","3","3","2","3","3","4","2","3","3","4","3","3","3","4","2","2","3","2","2","3","2","2","1","1","0","1","1","0","0","0","1","0","1","-1","0","1","0","1","3","5","4","3","4","2","3","4","3","2","742402460798423042","何","","","","","","","","","","","","","","","","","","","","","","","","","","","","","","","","","","","","","","","",""
"1070","<p style=""color:rgb(150, 250, 100); font-size: 35px;"">我的</p>","i","categorize-html","68","232223","0.0-6.0-1.0-6.0-1.4","3","3","3","3","2","3","3","3","2","3","3","4","2","3","3","4","3","3","3","4","2","2","3","2","2","3","2","2","1","1","0","1","1","0","0","0","1","0","1","-1","0","1","0","1","3","5","4","3","4","2","3","4","3","2","742402460798423042","何","","","","","","","","","","","","","","","","","","","true","13","3","moral","1070","self","我的","","","","","","","","","","","","","","",""
"null","","null","html-keyboard-response","69","232482","0.0-6.0-1.0-6.0-0.5","3","3","3","3","2","3","3","3","2","3","3","4","2","3","3","4","3","3","3","4","2","2","3","2","2","3","2","2","1","1","0","1","1","0","0","0","1","0","1","-1","0","1","0","1","3","5","4","3","4","2","3","4","3","2","742402460798423042","何","","","","","","","","","","","","","","","","","","","","","","","","","","","","","","","","","","","","","","","",""
"649","<p style=""color:white; font-size: 35px;"">不仁</p>","e","categorize-html","70","233132","0.0-6.0-1.0-6.0-1.5","3","3","3","3","2","3","3","3","2","3","3","4","2","3","3","4","3","3","3","4","2","2","3","2","2","3","2","2","1","1","0","1","1","0","0","0","1","0","1","-1","0","1","0","1","3","5","4","3","4","2","3","4","3","2","742402460798423042","何","","","","","","","","","","","","","","","","","","","true","13","3","moral","649","negative","不仁","","","","","","","","","","","","","","",""
"null","","null","html-keyboard-response","71","233398","0.0-6.0-1.0-6.0-0.6","3","3","3","3","2","3","3","3","2","3","3","4","2","3","3","4","3","3","3","4","2","2","3","2","2","3","2","2","1","1","0","1","1","0","0","0","1","0","1","-1","0","1","0","1","3","5","4","3","4","2","3","4","3","2","742402460798423042","何","","","","","","","","","","","","","","","","","","","","","","","","","","","","","","","","","","","","","","","",""
"627","<p style=""color:rgb(150, 250, 100); font-size: 35px;"">别人</p>","e","categorize-html","72","234028","0.0-6.0-1.0-6.0-1.6","3","3","3","3","2","3","3","3","2","3","3","4","2","3","3","4","3","3","3","4","2","2","3","2","2","3","2","2","1","1","0","1","1","0","0","0","1","0","1","-1","0","1","0","1","3","5","4","3","4","2","3","4","3","2","742402460798423042","何","","","","","","","","","","","","","","","","","","","true","13","3","moral","627","other","别人","","","","","","","","","","","","","","",""
"null","","null","html-keyboard-response","73","234284","0.0-6.0-1.0-6.0-0.7","3","3","3","3","2","3","3","3","2","3","3","4","2","3","3","4","3","3","3","4","2","2","3","2","2","3","2","2","1","1","0","1","1","0","0","0","1","0","1","-1","0","1","0","1","3","5","4","3","4","2","3","4","3","2","742402460798423042","何","","","","","","","","","","","","","","","","","","","","","","","","","","","","","","","","","","","","","","","",""
"1005","<p style=""color:white; font-size: 35px;"">廉正</p>","i","categorize-html","74","235291","0.0-6.0-1.0-6.0-1.7","3","3","3","3","2","3","3","3","2","3","3","4","2","3","3","4","3","3","3","4","2","2","3","2","2","3","2","2","1","1","0","1","1","0","0","0","1","0","1","-1","0","1","0","1","3","5","4","3","4","2","3","4","3","2","742402460798423042","何","","","","","","","","","","","","","","","","","","","true","13","3","moral","1005","positive","廉正","","","","","","","","","","","","","","",""
"null","","null","html-keyboard-response","75","235555","0.0-6.0-1.0-6.0-0.8","3","3","3","3","2","3","3","3","2","3","3","4","2","3","3","4","3","3","3","4","2","2","3","2","2","3","2","2","1","1","0","1","1","0","0","0","1","0","1","-1","0","1","0","1","3","5","4","3","4","2","3","4","3","2","742402460798423042","何","","","","","","","","","","","","","","","","","","","","","","","","","","","","","","","","","","","","","","","",""
"608","<p style=""color:rgb(150, 250, 100); font-size: 35px;"">他</p>","e","categorize-html","76","236165","0.0-6.0-1.0-6.0-1.8","3","3","3","3","2","3","3","3","2","3","3","4","2","3","3","4","3","3","3","4","2","2","3","2","2","3","2","2","1","1","0","1","1","0","0","0","1","0","1","-1","0","1","0","1","3","5","4","3","4","2","3","4","3","2","742402460798423042","何","","","","","","","","","","","","","","","","","","","true","13","3","moral","608","other","他","","","","","","","","","","","","","","",""
"null","","null","html-keyboard-response","77","236421","0.0-6.0-1.0-6.0-0.9","3","3","3","3","2","3","3","3","2","3","3","4","2","3","3","4","3","3","3","4","2","2","3","2","2","3","2","2","1","1","0","1","1","0","0","0","1","0","1","-1","0","1","0","1","3","5","4","3","4","2","3","4","3","2","742402460798423042","何","","","","","","","","","","","","","","","","","","","","","","","","","","","","","","","","","","","","","","","",""
"661","<p style=""color:white; font-size: 35px;"">诚信</p>","i","categorize-html","78","237085","0.0-6.0-1.0-6.0-1.9","3","3","3","3","2","3","3","3","2","3","3","4","2","3","3","4","3","3","3","4","2","2","3","2","2","3","2","2","1","1","0","1","1","0","0","0","1","0","1","-1","0","1","0","1","3","5","4","3","4","2","3","4","3","2","742402460798423042","何","","","","","","","","","","","","","","","","","","","true","13","3","moral","661","positive","诚信","","","","","","","","","","","","","","",""
"null","","null","html-keyboard-response","79","237337","0.0-6.0-1.0-6.0-0.10","3","3","3","3","2","3","3","3","2","3","3","4","2","3","3","4","3","3","3","4","2","2","3","2","2","3","2","2","1","1","0","1","1","0","0","0","1","0","1","-1","0","1","0","1","3","5","4","3","4","2","3","4","3","2","742402460798423042","何","","","","","","","","","","","","","","","","","","","","","","","","","","","","","","","","","","","","","","","",""
"775","<p style=""color:rgb(150, 250, 100); font-size: 35px;"">本人的</p>","i","categorize-html","80","238113","0.0-6.0-1.0-6.0-1.10","3","3","3","3","2","3","3","3","2","3","3","4","2","3","3","4","3","3","3","4","2","2","3","2","2","3","2","2","1","1","0","1","1","0","0","0","1","0","1","-1","0","1","0","1","3","5","4","3","4","2","3","4","3","2","742402460798423042","何","","","","","","","","","","","","","","","","","","","true","13","3","moral","775","self","本人的","","","","","","","","","","","","","","",""
"null","","null","html-keyboard-response","81","238378","0.0-6.0-1.0-6.0-0.11","3","3","3","3","2","3","3","3","2","3","3","4","2","3","3","4","3","3","3","4","2","2","3","2","2","3","2","2","1","1","0","1","1","0","0","0","1","0","1","-1","0","1","0","1","3","5","4","3","4","2","3","4","3","2","742402460798423042","何","","","","","","","","","","","","","","","","","","","","","","","","","","","","","","","","","","","","","","","",""
"515","<p style=""color:white; font-size: 35px;"">黑心</p>","e","categorize-html","82","238896","0.0-6.0-1.0-6.0-1.11","3","3","3","3","2","3","3","3","2","3","3","4","2","3","3","4","3","3","3","4","2","2","3","2","2","3","2","2","1","1","0","1","1","0","0","0","1","0","1","-1","0","1","0","1","3","5","4","3","4","2","3","4","3","2","742402460798423042","何","","","","","","","","","","","","","","","","","","","true","13","3","moral","515","negative","黑心","","","","","","","","","","","","","","",""
"null","","null","html-keyboard-response","83","239150","0.0-6.0-1.0-6.0-0.12","3","3","3","3","2","3","3","3","2","3","3","4","2","3","3","4","3","3","3","4","2","2","3","2","2","3","2","2","1","1","0","1","1","0","0","0","1","0","1","-1","0","1","0","1","3","5","4","3","4","2","3","4","3","2","742402460798423042","何","","","","","","","","","","","","","","","","","","","","","","","","","","","","","","","","","","","","","","","",""
"887","<p style=""color:rgb(150, 250, 100); font-size: 35px;"">他的</p>","e","categorize-html","84","240038","0.0-6.0-1.0-6.0-1.12","3","3","3","3","2","3","3","3","2","3","3","4","2","3","3","4","3","3","3","4","2","2","3","2","2","3","2","2","1","1","0","1","1","0","0","0","1","0","1","-1","0","1","0","1","3","5","4","3","4","2","3","4","3","2","742402460798423042","何","","","","","","","","","","","","","","","","","","","true","13","3","moral","887","other","他的","","","","","","","","","","","","","","",""
"null","","null","html-keyboard-response","85","240294","0.0-6.0-1.0-6.0-0.13","3","3","3","3","2","3","3","3","2","3","3","4","2","3","3","4","3","3","3","4","2","2","3","2","2","3","2","2","1","1","0","1","1","0","0","0","1","0","1","-1","0","1","0","1","3","5","4","3","4","2","3","4","3","2","742402460798423042","何","","","","","","","","","","","","","","","","","","","","","","","","","","","","","","","","","","","","","","","",""
"669","<p style=""color:white; font-size: 35px;"">卑鄙</p>","e","categorize-html","86","240964","0.0-6.0-1.0-6.0-1.13","3","3","3","3","2","3","3","3","2","3","3","4","2","3","3","4","3","3","3","4","2","2","3","2","2","3","2","2","1","1","0","1","1","0","0","0","1","0","1","-1","0","1","0","1","3","5","4","3","4","2","3","4","3","2","742402460798423042","何","","","","","","","","","","","","","","","","","","","true","13","3","moral","669","negative","卑鄙","","","","","","","","","","","","","","",""
"null","","null","html-keyboard-response","87","241224","0.0-6.0-1.0-6.0-0.14","3","3","3","3","2","3","3","3","2","3","3","4","2","3","3","4","3","3","3","4","2","2","3","2","2","3","2","2","1","1","0","1","1","0","0","0","1","0","1","-1","0","1","0","1","3","5","4","3","4","2","3","4","3","2","742402460798423042","何","","","","","","","","","","","","","","","","","","","","","","","","","","","","","","","","","","","","","","","",""
"620","<p style=""color:rgb(150, 250, 100); font-size: 35px;"">本人</p>","i","categorize-html","88","241847","0.0-6.0-1.0-6.0-1.14","3","3","3","3","2","3","3","3","2","3","3","4","2","3","3","4","3","3","3","4","2","2","3","2","2","3","2","2","1","1","0","1","1","0","0","0","1","0","1","-1","0","1","0","1","3","5","4","3","4","2","3","4","3","2","742402460798423042","何","","","","","","","","","","","","","","","","","","","true","13","3","moral","620","self","本人","","","","","","","","","","","","","","",""
"null","","null","html-keyboard-response","89","242109","0.0-6.0-1.0-6.0-0.15","3","3","3","3","2","3","3","3","2","3","3","4","2","3","3","4","3","3","3","4","2","2","3","2","2","3","2","2","1","1","0","1","1","0","0","0","1","0","1","-1","0","1","0","1","3","5","4","3","4","2","3","4","3","2","742402460798423042","何","","","","","","","","","","","","","","","","","","","","","","","","","","","","","","","","","","","","","","","",""
"521","<p style=""color:white; font-size: 35px;"">善良</p>","i","categorize-html","90","242632","0.0-6.0-1.0-6.0-1.15","3","3","3","3","2","3","3","3","2","3","3","4","2","3","3","4","3","3","3","4","2","2","3","2","2","3","2","2","1","1","0","1","1","0","0","0","1","0","1","-1","0","1","0","1","3","5","4","3","4","2","3","4","3","2","742402460798423042","何","","","","","","","","","","","","","","","","","","","true","13","3","moral","521","positive","善良","","","","","","","","","","","","","","",""
"null","","null","html-keyboard-response","91","242883","0.0-6.0-1.0-6.0-0.16","3","3","3","3","2","3","3","3","2","3","3","4","2","3","3","4","3","3","3","4","2","2","3","2","2","3","2","2","1","1","0","1","1","0","0","0","1","0","1","-1","0","1","0","1","3","5","4","3","4","2","3","4","3","2","742402460798423042","何","","","","","","","","","","","","","","","","","","","","","","","","","","","","","","","","","","","","","","","",""
"605","<p style=""color:rgb(150, 250, 100); font-size: 35px;"">我</p>","i","categorize-html","92","243490","0.0-6.0-1.0-6.0-1.16","3","3","3","3","2","3","3","3","2","3","3","4","2","3","3","4","3","3","3","4","2","2","3","2","2","3","2","2","1","1","0","1","1","0","0","0","1","0","1","-1","0","1","0","1","3","5","4","3","4","2","3","4","3","2","742402460798423042","何","","","","","","","","","","","","","","","","","","","true","13","3","moral","605","self","我","","","","","","","","","","","","","","",""
"null","","null","html-keyboard-response","93","243751","0.0-6.0-1.0-6.0-0.17","3","3","3","3","2","3","3","3","2","3","3","4","2","3","3","4","3","3","3","4","2","2","3","2","2","3","2","2","1","1","0","1","1","0","0","0","1","0","1","-1","0","1","0","1","3","5","4","3","4","2","3","4","3","2","742402460798423042","何","","","","","","","","","","","","","","","","","","","","","","","","","","","","","","","","","","","","","","","",""
"609","<p style=""color:white; font-size: 35px;"">君子</p>","i","categorize-html","94","244362","0.0-6.0-1.0-6.0-1.17","3","3","3","3","2","3","3","3","2","3","3","4","2","3","3","4","3","3","3","4","2","2","3","2","2","3","2","2","1","1","0","1","1","0","0","0","1","0","1","-1","0","1","0","1","3","5","4","3","4","2","3","4","3","2","742402460798423042","何","","","","","","","","","","","","","","","","","","","true","13","3","moral","609","positive","君子","","","","","","","","","","","","","","",""
"null","","null","html-keyboard-response","95","244617","0.0-6.0-1.0-6.0-0.18","3","3","3","3","2","3","3","3","2","3","3","4","2","3","3","4","3","3","3","4","2","2","3","2","2","3","2","2","1","1","0","1","1","0","0","0","1","0","1","-1","0","1","0","1","3","5","4","3","4","2","3","4","3","2","742402460798423042","何","","","","","","","","","","","","","","","","","","","","","","","","","","","","","","","","","","","","","","","",""
"678","<p style=""color:rgb(150, 250, 100); font-size: 35px;"">他人</p>","e","categorize-html","96","245296","0.0-6.0-1.0-6.0-1.18","3","3","3","3","2","3","3","3","2","3","3","4","2","3","3","4","3","3","3","4","2","2","3","2","2","3","2","2","1","1","0","1","1","0","0","0","1","0","1","-1","0","1","0","1","3","5","4","3","4","2","3","4","3","2","742402460798423042","何","","","","","","","","","","","","","","","","","","","true","13","3","moral","678","other","他人","","","","","","","","","","","","","","",""
"null","","null","html-keyboard-response","97","245547","0.0-6.0-1.0-6.0-0.19","3","3","3","3","2","3","3","3","2","3","3","4","2","3","3","4","3","3","3","4","2","2","3","2","2","3","2","2","1","1","0","1","1","0","0","0","1","0","1","-1","0","1","0","1","3","5","4","3","4","2","3","4","3","2","742402460798423042","何","","","","","","","","","","","","","","","","","","","","","","","","","","","","","","","","","","","","","","","",""
"1070","<p style=""color:white; font-size: 35px;"">小人</p>","e","categorize-html","98","246619","0.0-6.0-1.0-6.0-1.19","3","3","3","3","2","3","3","3","2","3","3","4","2","3","3","4","3","3","3","4","2","2","3","2","2","3","2","2","1","1","0","1","1","0","0","0","1","0","1","-1","0","1","0","1","3","5","4","3","4","2","3","4","3","2","742402460798423042","何","","","","","","","","","","","","","","","","","","","true","13","3","moral","1070","negative","小人","","","","","","","","","","","","","","",""
"null","","null","html-keyboard-response","99","246876","0.0-6.0-1.0-6.0-0.20","3","3","3","3","2","3","3","3","2","3","3","4","2","3","3","4","3","3","3","4","2","2","3","2","2","3","2","2","1","1","0","1","1","0","0","0","1","0","1","-1","0","1","0","1","3","5","4","3","4","2","3","4","3","2","742402460798423042","何","","","","","","","","","","","","","","","","","","","","","","","","","","","","","","","","","","","","","","","",""
"535","<p style=""color:rgb(150, 250, 100); font-size: 35px;"">自己的</p>","i","categorize-html","100","247414","0.0-6.0-1.0-6.0-1.20","3","3","3","3","2","3","3","3","2","3","3","4","2","3","3","4","3","3","3","4","2","2","3","2","2","3","2","2","1","1","0","1","1","0","0","0","1","0","1","-1","0","1","0","1","3","5","4","3","4","2","3","4","3","2","742402460798423042","何","","","","","","","","","","","","","","","","","","","true","13","3","moral","535","self","自己的","","","","","","","","","","","","","","",""
"null","","null","html-keyboard-response","101","247682","0.0-6.0-1.0-6.0-0.21","3","3","3","3","2","3","3","3","2","3","3","4","2","3","3","4","3","3","3","4","2","2","3","2","2","3","2","2","1","1","0","1","1","0","0","0","1","0","1","-1","0","1","0","1","3","5","4","3","4","2","3","4","3","2","742402460798423042","何","","","","","","","","","","","","","","","","","","","","","","","","","","","","","","","","","","","","","","","",""
"510","<p style=""color:white; font-size: 35px;"">正直</p>","i","categorize-html","102","248194","0.0-6.0-1.0-6.0-1.21","3","3","3","3","2","3","3","3","2","3","3","4","2","3","3","4","3","3","3","4","2","2","3","2","2","3","2","2","1","1","0","1","1","0","0","0","1","0","1","-1","0","1","0","1","3","5","4","3","4","2","3","4","3","2","742402460798423042","何","","","","","","","","","","","","","","","","","","","true","13","3","moral","510","positive","正直","","","","","","","","","","","","","","",""
"null","","null","html-keyboard-response","103","248448","0.0-6.0-1.0-6.0-0.22","3","3","3","3","2","3","3","3","2","3","3","4","2","3","3","4","3","3","3","4","2","2","3","2","2","3","2","2","1","1","0","1","1","0","0","0","1","0","1","-1","0","1","0","1","3","5","4","3","4","2","3","4","3","2","742402460798423042","何","","","","","","","","","","","","","","","","","","","","","","","","","","","","","","","","","","","","","","","",""
"623","<p style=""color:rgb(150, 250, 100); font-size: 35px;"">别人的</p>","e","categorize-html","104","249073","0.0-6.0-1.0-6.0-1.22","3","3","3","3","2","3","3","3","2","3","3","4","2","3","3","4","3","3","3","4","2","2","3","2","2","3","2","2","1","1","0","1","1","0","0","0","1","0","1","-1","0","1","0","1","3","5","4","3","4","2","3","4","3","2","742402460798423042","何","","","","","","","","","","","","","","","","","","","true","13","3","moral","623","other","别人的","","","","","","","","","","","","","","",""
"null","","null","html-keyboard-response","105","249336","0.0-6.0-1.0-6.0-0.23","3","3","3","3","2","3","3","3","2","3","3","4","2","3","3","4","3","3","3","4","2","2","3","2","2","3","2","2","1","1","0","1","1","0","0","0","1","0","1","-1","0","1","0","1","3","5","4","3","4","2","3","4","3","2","742402460798423042","何","","","","","","","","","","","","","","","","","","","","","","","","","","","","","","","","","","","","","","","",""
"616","<p style=""color:white; font-size: 35px;"">缺德</p>","e","categorize-html","106","249953","0.0-6.0-1.0-6.0-1.23","3","3","3","3","2","3","3","3","2","3","3","4","2","3","3","4","3","3","3","4","2","2","3","2","2","3","2","2","1","1","0","1","1","0","0","0","1","0","1","-1","0","1","0","1","3","5","4","3","4","2","3","4","3","2","742402460798423042","何","","","","","","","","","","","","","","","","","","","true","13","3","moral","616","negative","缺德","","","","","","","","","","","","","","",""
"15220","
    <div class=""tag-bottom""><p>
    ―― 任务4：对“他人/消极”词和“自我/积极”词分类 ――<p/>
    <span style=""color:#78DCE8""><b>与刚才的任务完全相同，请再次对这四类词语分类</b></span><p/>
    <span style=""color:#FFD866""><b>请根据上方标签的提示，尽可能正确并且快速地做出按键反应</b></span><p/>
    当按键错误时屏幕中会出现<span style=""color:red""> X </span>，需要按另一个键纠正才能继续<br/><p/>
    请把双手食指分别放在键盘的“E”键和“I”键上<p/>
    按<空格键>开始
    </p></div>"," ","html-keyboard-response","107","265174","0.0-6.0-1.0-7.0","3","3","3","3","2","3","3","3","2","3","3","4","2","3","3","4","3","3","3","4","2","2","3","2","2","3","2","2","1","1","0","1","1","0","0","0","1","0","1","-1","0","1","0","1","3","5","4","3","4","2","3","4","3","2","742402460798423042","何","","","","","","","","","","","","","","","","","","","","","","","","","","","","","","","","","","","","","","","",""
"null","","null","html-keyboard-response","108","265428","0.0-6.0-1.0-8.0-0.0","3","3","3","3","2","3","3","3","2","3","3","4","2","3","3","4","3","3","3","4","2","2","3","2","2","3","2","2","1","1","0","1","1","0","0","0","1","0","1","-1","0","1","0","1","3","5","4","3","4","2","3","4","3","2","742402460798423042","何","","","","","","","","","","","","","","","","","","","","","","","","","","","","","","","","","","","","","","","",""
"543","<p style=""color:rgb(150, 250, 100); font-size: 35px;"">自己</p>","i","categorize-html","109","265975","0.0-6.0-1.0-8.0-1.0","3","3","3","3","2","3","3","3","2","3","3","4","2","3","3","4","3","3","3","4","2","2","3","2","2","3","2","2","1","1","0","1","1","0","0","0","1","0","1","-1","0","1","0","1","3","5","4","3","4","2","3","4","3","2","742402460798423042","何","","","","","","","","","","","","","","","","","","","true","14","4","moral","543","self","自己","","","","","","","","","","","","","","",""
"null","","null","html-keyboard-response","110","266233","0.0-6.0-1.0-8.0-0.1","3","3","3","3","2","3","3","3","2","3","3","4","2","3","3","4","3","3","3","4","2","2","3","2","2","3","2","2","1","1","0","1","1","0","0","0","1","0","1","-1","0","1","0","1","3","5","4","3","4","2","3","4","3","2","742402460798423042","何","","","","","","","","","","","","","","","","","","","","","","","","","","","","","","","","","","","","","","","",""
"559","<p style=""color:white; font-size: 35px;"">善良</p>","i","categorize-html","111","266794","0.0-6.0-1.0-8.0-1.1","3","3","3","3","2","3","3","3","2","3","3","4","2","3","3","4","3","3","3","4","2","2","3","2","2","3","2","2","1","1","0","1","1","0","0","0","1","0","1","-1","0","1","0","1","3","5","4","3","4","2","3","4","3","2","742402460798423042","何","","","","","","","","","","","","","","","","","","","true","14","4","moral","559","positive","善良","","","","","","","","","","","","","","",""
"null","","null","html-keyboard-response","112","267059","0.0-6.0-1.0-8.0-0.2","3","3","3","3","2","3","3","3","2","3","3","4","2","3","3","4","3","3","3","4","2","2","3","2","2","3","2","2","1","1","0","1","1","0","0","0","1","0","1","-1","0","1","0","1","3","5","4","3","4","2","3","4","3","2","742402460798423042","何","","","","","","","","","","","","","","","","","","","","","","","","","","","","","","","","","","","","","","","",""
"571","<p style=""color:rgb(150, 250, 100); font-size: 35px;"">别人的</p>","e","categorize-html","113","267632","0.0-6.0-1.0-8.0-1.2","3","3","3","3","2","3","3","3","2","3","3","4","2","3","3","4","3","3","3","4","2","2","3","2","2","3","2","2","1","1","0","1","1","0","0","0","1","0","1","-1","0","1","0","1","3","5","4","3","4","2","3","4","3","2","742402460798423042","何","","","","","","","","","","","","","","","","","","","true","14","4","moral","571","other","别人的","","","","","","","","","","","","","","",""
"null","","null","html-keyboard-response","114","267897","0.0-6.0-1.0-8.0-0.3","3","3","3","3","2","3","3","3","2","3","3","4","2","3","3","4","3","3","3","4","2","2","3","2","2","3","2","2","1","1","0","1","1","0","0","0","1","0","1","-1","0","1","0","1","3","5","4","3","4","2","3","4","3","2","742402460798423042","何","","","","","","","","","","","","","","","","","","","","","","","","","","","","","","","","","","","","","","","",""
"1042","<p style=""color:white; font-size: 35px;"">小人</p>","e","categorize-html","115","268941","0.0-6.0-1.0-8.0-1.3","3","3","3","3","2","3","3","3","2","3","3","4","2","3","3","4","3","3","3","4","2","2","3","2","2","3","2","2","1","1","0","1","1","0","0","0","1","0","1","-1","0","1","0","1","3","5","4","3","4","2","3","4","3","2","742402460798423042","何","","","","","","","","","","","","","","","","","","","true","14","4","moral","1042","negative","小人","","","","","","","","","","","","","","",""
"null","","null","html-keyboard-response","116","269195","0.0-6.0-1.0-8.0-0.4","3","3","3","3","2","3","3","3","2","3","3","4","2","3","3","4","3","3","3","4","2","2","3","2","2","3","2","2","1","1","0","1","1","0","0","0","1","0","1","-1","0","1","0","1","3","5","4","3","4","2","3","4","3","2","742402460798423042","何","","","","","","","","","","","","","","","","","","","","","","","","","","","","","","","","","","","","","","","",""
"628","<p style=""color:rgb(150, 250, 100); font-size: 35px;"">别人</p>","e","categorize-html","117","269824","0.0-6.0-1.0-8.0-1.4","3","3","3","3","2","3","3","3","2","3","3","4","2","3","3","4","3","3","3","4","2","2","3","2","2","3","2","2","1","1","0","1","1","0","0","0","1","0","1","-1","0","1","0","1","3","5","4","3","4","2","3","4","3","2","742402460798423042","何","","","","","","","","","","","","","","","","","","","true","14","4","moral","628","other","别人","","","","","","","","","","","","","","",""
"null","","null","html-keyboard-response","118","270077","0.0-6.0-1.0-8.0-0.5","3","3","3","3","2","3","3","3","2","3","3","4","2","3","3","4","3","3","3","4","2","2","3","2","2","3","2","2","1","1","0","1","1","0","0","0","1","0","1","-1","0","1","0","1","3","5","4","3","4","2","3","4","3","2","742402460798423042","何","","","","","","","","","","","","","","","","","","","","","","","","","","","","","","","","","","","","","","","",""
"581","<p style=""color:white; font-size: 35px;"">小人</p>","e","categorize-html","119","270660","0.0-6.0-1.0-8.0-1.5","3","3","3","3","2","3","3","3","2","3","3","4","2","3","3","4","3","3","3","4","2","2","3","2","2","3","2","2","1","1","0","1","1","0","0","0","1","0","1","-1","0","1","0","1","3","5","4","3","4","2","3","4","3","2","742402460798423042","何","","","","","","","","","","","","","","","","","","","true","14","4","moral","581","negative","小人","","","","","","","","","","","","","","",""
"null","","null","html-keyboard-response","120","270926","0.0-6.0-1.0-8.0-0.6","3","3","3","3","2","3","3","3","2","3","3","4","2","3","3","4","3","3","3","4","2","2","3","2","2","3","2","2","1","1","0","1","1","0","0","0","1","0","1","-1","0","1","0","1","3","5","4","3","4","2","3","4","3","2","742402460798423042","何","","","","","","","","","","","","","","","","","","","","","","","","","","","","","","","","","","","","","","","",""
"699","<p style=""color:rgb(150, 250, 100); font-size: 35px;"">本人的</p>","i","categorize-html","121","271627","0.0-6.0-1.0-8.0-1.6","3","3","3","3","2","3","3","3","2","3","3","4","2","3","3","4","3","3","3","4","2","2","3","2","2","3","2","2","1","1","0","1","1","0","0","0","1","0","1","-1","0","1","0","1","3","5","4","3","4","2","3","4","3","2","742402460798423042","何","","","","","","","","","","","","","","","","","","","true","14","4","moral","699","self","本人的","","","","","","","","","","","","","","",""
"null","","null","html-keyboard-response","122","271890","0.0-6.0-1.0-8.0-0.7","3","3","3","3","2","3","3","3","2","3","3","4","2","3","3","4","3","3","3","4","2","2","3","2","2","3","2","2","1","1","0","1","1","0","0","0","1","0","1","-1","0","1","0","1","3","5","4","3","4","2","3","4","3","2","742402460798423042","何","","","","","","","","","","","","","","","","","","","","","","","","","","","","","","","","","","","","","","","",""
"520","<p style=""color:white; font-size: 35px;"">正直</p>","i","categorize-html","123","272411","0.0-6.0-1.0-8.0-1.7","3","3","3","3","2","3","3","3","2","3","3","4","2","3","3","4","3","3","3","4","2","2","3","2","2","3","2","2","1","1","0","1","1","0","0","0","1","0","1","-1","0","1","0","1","3","5","4","3","4","2","3","4","3","2","742402460798423042","何","","","","","","","","","","","","","","","","","","","true","14","4","moral","520","positive","正直","","","","","","","","","","","","","","",""
"null","","null","html-keyboard-response","124","272670","0.0-6.0-1.0-8.0-0.8","3","3","3","3","2","3","3","3","2","3","3","4","2","3","3","4","3","3","3","4","2","2","3","2","2","3","2","2","1","1","0","1","1","0","0","0","1","0","1","-1","0","1","0","1","3","5","4","3","4","2","3","4","3","2","742402460798423042","何","","","","","","","","","","","","","","","","","","","","","","","","","","","","","","","","","","","","","","","",""
"606","<p style=""color:rgb(150, 250, 100); font-size: 35px;"">自己的</p>","i","categorize-html","125","273279","0.0-6.0-1.0-8.0-1.8","3","3","3","3","2","3","3","3","2","3","3","4","2","3","3","4","3","3","3","4","2","2","3","2","2","3","2","2","1","1","0","1","1","0","0","0","1","0","1","-1","0","1","0","1","3","5","4","3","4","2","3","4","3","2","742402460798423042","何","","","","","","","","","","","","","","","","","","","true","14","4","moral","606","self","自己的","","","","","","","","","","","","","","",""
"null","","null","html-keyboard-response","126","273541","0.0-6.0-1.0-8.0-0.9","3","3","3","3","2","3","3","3","2","3","3","4","2","3","3","4","3","3","3","4","2","2","3","2","2","3","2","2","1","1","0","1","1","0","0","0","1","0","1","-1","0","1","0","1","3","5","4","3","4","2","3","4","3","2","742402460798423042","何","","","","","","","","","","","","","","","","","","","","","","","","","","","","","","","","","","","","","","","",""
"642","<p style=""color:white; font-size: 35px;"">君子</p>","i","categorize-html","127","274186","0.0-6.0-1.0-8.0-1.9","3","3","3","3","2","3","3","3","2","3","3","4","2","3","3","4","3","3","3","4","2","2","3","2","2","3","2","2","1","1","0","1","1","0","0","0","1","0","1","-1","0","1","0","1","3","5","4","3","4","2","3","4","3","2","742402460798423042","何","","","","","","","","","","","","","","","","","","","true","14","4","moral","642","positive","君子","","","","","","","","","","","","","","",""
"null","","null","html-keyboard-response","128","274442","0.0-6.0-1.0-8.0-0.10","3","3","3","3","2","3","3","3","2","3","3","4","2","3","3","4","3","3","3","4","2","2","3","2","2","3","2","2","1","1","0","1","1","0","0","0","1","0","1","-1","0","1","0","1","3","5","4","3","4","2","3","4","3","2","742402460798423042","何","","","","","","","","","","","","","","","","","","","","","","","","","","","","","","","","","","","","","","","",""
"509","<p style=""color:rgb(150, 250, 100); font-size: 35px;"">他</p>","e","categorize-html","129","274953","0.0-6.0-1.0-8.0-1.10","3","3","3","3","2","3","3","3","2","3","3","4","2","3","3","4","3","3","3","4","2","2","3","2","2","3","2","2","1","1","0","1","1","0","0","0","1","0","1","-1","0","1","0","1","3","5","4","3","4","2","3","4","3","2","742402460798423042","何","","","","","","","","","","","","","","","","","","","true","14","4","moral","509","other","他","","","","","","","","","","","","","","",""
"null","","null","html-keyboard-response","130","275214","0.0-6.0-1.0-8.0-0.11","3","3","3","3","2","3","3","3","2","3","3","4","2","3","3","4","3","3","3","4","2","2","3","2","2","3","2","2","1","1","0","1","1","0","0","0","1","0","1","-1","0","1","0","1","3","5","4","3","4","2","3","4","3","2","742402460798423042","何","","","","","","","","","","","","","","","","","","","","","","","","","","","","","","","","","","","","","","","",""
"880","<p style=""color:white; font-size: 35px;"">不孝</p>","e","categorize-html","131","276095","0.0-6.0-1.0-8.0-1.11","3","3","3","3","2","3","3","3","2","3","3","4","2","3","3","4","3","3","3","4","2","2","3","2","2","3","2","2","1","1","0","1","1","0","0","0","1","0","1","-1","0","1","0","1","3","5","4","3","4","2","3","4","3","2","742402460798423042","何","","","","","","","","","","","","","","","","","","","true","14","4","moral","880","negative","不孝","","","","","","","","","","","","","","",""
"null","","null","html-keyboard-response","132","276351","0.0-6.0-1.0-8.0-0.12","3","3","3","3","2","3","3","3","2","3","3","4","2","3","3","4","3","3","3","4","2","2","3","2","2","3","2","2","1","1","0","1","1","0","0","0","1","0","1","-1","0","1","0","1","3","5","4","3","4","2","3","4","3","2","742402460798423042","何","","","","","","","","","","","","","","","","","","","","","","","","","","","","","","","","","","","","","","","",""
"510","<p style=""color:rgb(150, 250, 100); font-size: 35px;"">自己的</p>","i","categorize-html","133","276864","0.0-6.0-1.0-8.0-1.12","3","3","3","3","2","3","3","3","2","3","3","4","2","3","3","4","3","3","3","4","2","2","3","2","2","3","2","2","1","1","0","1","1","0","0","0","1","0","1","-1","0","1","0","1","3","5","4","3","4","2","3","4","3","2","742402460798423042","何","","","","","","","","","","","","","","","","","","","true","14","4","moral","510","self","自己的","","","","","","","","","","","","","","",""
"null","","null","html-keyboard-response","134","277126","0.0-6.0-1.0-8.0-0.13","3","3","3","3","2","3","3","3","2","3","3","4","2","3","3","4","3","3","3","4","2","2","3","2","2","3","2","2","1","1","0","1","1","0","0","0","1","0","1","-1","0","1","0","1","3","5","4","3","4","2","3","4","3","2","742402460798423042","何","","","","","","","","","","","","","","","","","","","","","","","","","","","","","","","","","","","","","","","",""
"792","<p style=""color:white; font-size: 35px;"">黑心</p>","e","categorize-html","135","277919","0.0-6.0-1.0-8.0-1.13","3","3","3","3","2","3","3","3","2","3","3","4","2","3","3","4","3","3","3","4","2","2","3","2","2","3","2","2","1","1","0","1","1","0","0","0","1","0","1","-1","0","1","0","1","3","5","4","3","4","2","3","4","3","2","742402460798423042","何","","","","","","","","","","","","","","","","","","","true","14","4","moral","792","negative","黑心","","","","","","","","","","","","","","",""
"null","","null","html-keyboard-response","136","278182","0.0-6.0-1.0-8.0-0.14","3","3","3","3","2","3","3","3","2","3","3","4","2","3","3","4","3","3","3","4","2","2","3","2","2","3","2","2","1","1","0","1","1","0","0","0","1","0","1","-1","0","1","0","1","3","5","4","3","4","2","3","4","3","2","742402460798423042","何","","","","","","","","","","","","","","","","","","","","","","","","","","","","","","","","","","","","","","","",""
"1047","<p style=""color:rgb(150, 250, 100); font-size: 35px;"">他的</p>","e","categorize-html","137","279231","0.0-6.0-1.0-8.0-1.14","3","3","3","3","2","3","3","3","2","3","3","4","2","3","3","4","3","3","3","4","2","2","3","2","2","3","2","2","1","1","0","1","1","0","0","0","1","0","1","-1","0","1","0","1","3","5","4","3","4","2","3","4","3","2","742402460798423042","何","","","","","","","","","","","","","","","","","","","true","14","4","moral","1047","other","他的","","","","","","","","","","","","","","",""
"null","","null","html-keyboard-response","138","279497","0.0-6.0-1.0-8.0-0.15","3","3","3","3","2","3","3","3","2","3","3","4","2","3","3","4","3","3","3","4","2","2","3","2","2","3","2","2","1","1","0","1","1","0","0","0","1","0","1","-1","0","1","0","1","3","5","4","3","4","2","3","4","3","2","742402460798423042","何","","","","","","","","","","","","","","","","","","","","","","","","","","","","","","","","","","","","","","","",""
"640","<p style=""color:white; font-size: 35px;"">廉正</p>","i","categorize-html","139","280138","0.0-6.0-1.0-8.0-1.15","3","3","3","3","2","3","3","3","2","3","3","4","2","3","3","4","3","3","3","4","2","2","3","2","2","3","2","2","1","1","0","1","1","0","0","0","1","0","1","-1","0","1","0","1","3","5","4","3","4","2","3","4","3","2","742402460798423042","何","","","","","","","","","","","","","","","","","","","true","14","4","moral","640","positive","廉正","","","","","","","","","","","","","","",""
"null","","null","html-keyboard-response","140","280400","0.0-6.0-1.0-8.0-0.16","3","3","3","3","2","3","3","3","2","3","3","4","2","3","3","4","3","3","3","4","2","2","3","2","2","3","2","2","1","1","0","1","1","0","0","0","1","0","1","-1","0","1","0","1","3","5","4","3","4","2","3","4","3","2","742402460798423042","何","","","","","","","","","","","","","","","","","","","","","","","","","","","","","","","","","","","","","","","",""
"820","<p style=""color:rgb(150, 250, 100); font-size: 35px;"">别人</p>","e","categorize-html","141","281222","0.0-6.0-1.0-8.0-1.16","3","3","3","3","2","3","3","3","2","3","3","4","2","3","3","4","3","3","3","4","2","2","3","2","2","3","2","2","1","1","0","1","1","0","0","0","1","0","1","-1","0","1","0","1","3","5","4","3","4","2","3","4","3","2","742402460798423042","何","","","","","","","","","","","","","","","","","","","true","14","4","moral","820","other","别人","","","","","","","","","","","","","","",""
"null","","null","html-keyboard-response","142","281480","0.0-6.0-1.0-8.0-0.17","3","3","3","3","2","3","3","3","2","3","3","4","2","3","3","4","3","3","3","4","2","2","3","2","2","3","2","2","1","1","0","1","1","0","0","0","1","0","1","-1","0","1","0","1","3","5","4","3","4","2","3","4","3","2","742402460798423042","何","","","","","","","","","","","","","","","","","","","","","","","","","","","","","","","","","","","","","","","",""
"997","<p style=""color:white; font-size: 35px;"">诚信</p>","i","categorize-html","143","282479","0.0-6.0-1.0-8.0-1.17","3","3","3","3","2","3","3","3","2","3","3","4","2","3","3","4","3","3","3","4","2","2","3","2","2","3","2","2","1","1","0","1","1","0","0","0","1","0","1","-1","0","1","0","1","3","5","4","3","4","2","3","4","3","2","742402460798423042","何","","","","","","","","","","","","","","","","","","","true","14","4","moral","997","positive","诚信","","","","","","","","","","","","","","",""
"null","","null","html-keyboard-response","144","282743","0.0-6.0-1.0-8.0-0.18","3","3","3","3","2","3","3","3","2","3","3","4","2","3","3","4","3","3","3","4","2","2","3","2","2","3","2","2","1","1","0","1","1","0","0","0","1","0","1","-1","0","1","0","1","3","5","4","3","4","2","3","4","3","2","742402460798423042","何","","","","","","","","","","","","","","","","","","","","","","","","","","","","","","","","","","","","","","","",""
"768","<p style=""color:rgb(150, 250, 100); font-size: 35px;"">我的</p>","i","categorize-html","145","283514","0.0-6.0-1.0-8.0-1.18","3","3","3","3","2","3","3","3","2","3","3","4","2","3","3","4","3","3","3","4","2","2","3","2","2","3","2","2","1","1","0","1","1","0","0","0","1","0","1","-1","0","1","0","1","3","5","4","3","4","2","3","4","3","2","742402460798423042","何","","","","","","","","","","","","","","","","","","","true","14","4","moral","768","self","我的","","","","","","","","","","","","","","",""
"null","","null","html-keyboard-response","146","283773","0.0-6.0-1.0-8.0-0.19","3","3","3","3","2","3","3","3","2","3","3","4","2","3","3","4","3","3","3","4","2","2","3","2","2","3","2","2","1","1","0","1","1","0","0","0","1","0","1","-1","0","1","0","1","3","5","4","3","4","2","3","4","3","2","742402460798423042","何","","","","","","","","","","","","","","","","","","","","","","","","","","","","","","","","","","","","","","","",""
"664","<p style=""color:white; font-size: 35px;"">不仁</p>","e","categorize-html","147","284438","0.0-6.0-1.0-8.0-1.19","3","3","3","3","2","3","3","3","2","3","3","4","2","3","3","4","3","3","3","4","2","2","3","2","2","3","2","2","1","1","0","1","1","0","0","0","1","0","1","-1","0","1","0","1","3","5","4","3","4","2","3","4","3","2","742402460798423042","何","","","","","","","","","","","","","","","","","","","true","14","4","moral","664","negative","不仁","","","","","","","","","","","","","","",""
"null","","null","html-keyboard-response","148","284697","0.0-6.0-1.0-8.0-0.20","3","3","3","3","2","3","3","3","2","3","3","4","2","3","3","4","3","3","3","4","2","2","3","2","2","3","2","2","1","1","0","1","1","0","0","0","1","0","1","-1","0","1","0","1","3","5","4","3","4","2","3","4","3","2","742402460798423042","何","","","","","","","","","","","","","","","","","","","","","","","","","","","","","","","","","","","","","","","",""
"615","<p style=""color:rgb(150, 250, 100); font-size: 35px;"">自己</p>","i","categorize-html","149","285315","0.0-6.0-1.0-8.0-1.20","3","3","3","3","2","3","3","3","2","3","3","4","2","3","3","4","3","3","3","4","2","2","3","2","2","3","2","2","1","1","0","1","1","0","0","0","1","0","1","-1","0","1","0","1","3","5","4","3","4","2","3","4","3","2","742402460798423042","何","","","","","","","","","","","","","","","","","","","true","14","4","moral","615","self","自己","","","","","","","","","","","","","","",""
"null","","null","html-keyboard-response","150","285579","0.0-6.0-1.0-8.0-0.21","3","3","3","3","2","3","3","3","2","3","3","4","2","3","3","4","3","3","3","4","2","2","3","2","2","3","2","2","1","1","0","1","1","0","0","0","1","0","1","-1","0","1","0","1","3","5","4","3","4","2","3","4","3","2","742402460798423042","何","","","","","","","","","","","","","","","","","","","","","","","","","","","","","","","","","","","","","","","",""
"903","<p style=""color:white; font-size: 35px;"">君子</p>","i","categorize-html","151","286484","0.0-6.0-1.0-8.0-1.21","3","3","3","3","2","3","3","3","2","3","3","4","2","3","3","4","3","3","3","4","2","2","3","2","2","3","2","2","1","1","0","1","1","0","0","0","1","0","1","-1","0","1","0","1","3","5","4","3","4","2","3","4","3","2","742402460798423042","何","","","","","","","","","","","","","","","","","","","true","14","4","moral","903","positive","君子","","","","","","","","","","","","","","",""
"null","","null","html-keyboard-response","152","286745","0.0-6.0-1.0-8.0-0.22","3","3","3","3","2","3","3","3","2","3","3","4","2","3","3","4","3","3","3","4","2","2","3","2","2","3","2","2","1","1","0","1","1","0","0","0","1","0","1","-1","0","1","0","1","3","5","4","3","4","2","3","4","3","2","742402460798423042","何","","","","","","","","","","","","","","","","","","","","","","","","","","","","","","","","","","","","","","","",""
"689","<p style=""color:rgb(150, 250, 100); font-size: 35px;"">他的</p>","e","categorize-html","153","287437","0.0-6.0-1.0-8.0-1.22","3","3","3","3","2","3","3","3","2","3","3","4","2","3","3","4","3","3","3","4","2","2","3","2","2","3","2","2","1","1","0","1","1","0","0","0","1","0","1","-1","0","1","0","1","3","5","4","3","4","2","3","4","3","2","742402460798423042","何","","","","","","","","","","","","","","","","","","","true","14","4","moral","689","other","他的","","","","","","","","","","","","","","",""
"null","","null","html-keyboard-response","154","287688","0.0-6.0-1.0-8.0-0.23","3","3","3","3","2","3","3","3","2","3","3","4","2","3","3","4","3","3","3","4","2","2","3","2","2","3","2","2","1","1","0","1","1","0","0","0","1","0","1","-1","0","1","0","1","3","5","4","3","4","2","3","4","3","2","742402460798423042","何","","","","","","","","","","","","","","","","","","","","","","","","","","","","","","","","","","","","","","","",""
"560","<p style=""color:white; font-size: 35px;"">缺德</p>","e","categorize-html","155","288250","0.0-6.0-1.0-8.0-1.23","3","3","3","3","2","3","3","3","2","3","3","4","2","3","3","4","3","3","3","4","2","2","3","2","2","3","2","2","1","1","0","1","1","0","0","0","1","0","1","-1","0","1","0","1","3","5","4","3","4","2","3","4","3","2","742402460798423042","何","","","","","","","","","","","","","","","","","","","true","14","4","moral","560","negative","缺德","","","","","","","","","","","","","","",""
"null","","null","html-keyboard-response","156","288512","0.0-6.0-1.0-8.0-0.24","3","3","3","3","2","3","3","3","2","3","3","4","2","3","3","4","3","3","3","4","2","2","3","2","2","3","2","2","1","1","0","1","1","0","0","0","1","0","1","-1","0","1","0","1","3","5","4","3","4","2","3","4","3","2","742402460798423042","何","","","","","","","","","","","","","","","","","","","","","","","","","","","","","","","","","","","","","","","",""
"510","<p style=""color:rgb(150, 250, 100); font-size: 35px;"">他人的</p>","e","categorize-html","157","289024","0.0-6.0-1.0-8.0-1.24","3","3","3","3","2","3","3","3","2","3","3","4","2","3","3","4","3","3","3","4","2","2","3","2","2","3","2","2","1","1","0","1","1","0","0","0","1","0","1","-1","0","1","0","1","3","5","4","3","4","2","3","4","3","2","742402460798423042","何","","","","","","","","","","","","","","","","","","","true","14","4","moral","510","other","他人的","","","","","","","","","","","","","","",""
"null","","null","html-keyboard-response","158","289288","0.0-6.0-1.0-8.0-0.25","3","3","3","3","2","3","3","3","2","3","3","4","2","3","3","4","3","3","3","4","2","2","3","2","2","3","2","2","1","1","0","1","1","0","0","0","1","0","1","-1","0","1","0","1","3","5","4","3","4","2","3","4","3","2","742402460798423042","何","","","","","","","","","","","","","","","","","","","","","","","","","","","","","","","","","","","","","","","",""
"710","<p style=""color:white; font-size: 35px;"">不仁</p>","e","categorize-html","159","289999","0.0-6.0-1.0-8.0-1.25","3","3","3","3","2","3","3","3","2","3","3","4","2","3","3","4","3","3","3","4","2","2","3","2","2","3","2","2","1","1","0","1","1","0","0","0","1","0","1","-1","0","1","0","1","3","5","4","3","4","2","3","4","3","2","742402460798423042","何","","","","","","","","","","","","","","","","","","","true","14","4","moral","710","negative","不仁","","","","","","","","","","","","","","",""
"null","","null","html-keyboard-response","160","290256","0.0-6.0-1.0-8.0-0.26","3","3","3","3","2","3","3","3","2","3","3","4","2","3","3","4","3","3","3","4","2","2","3","2","2","3","2","2","1","1","0","1","1","0","0","0","1","0","1","-1","0","1","0","1","3","5","4","3","4","2","3","4","3","2","742402460798423042","何","","","","","","","","","","","","","","","","","","","","","","","","","","","","","","","","","","","","","","","",""
"492","<p style=""color:rgb(150, 250, 100); font-size: 35px;"">我的</p>","i","categorize-html","161","290751","0.0-6.0-1.0-8.0-1.26","3","3","3","3","2","3","3","3","2","3","3","4","2","3","3","4","3","3","3","4","2","2","3","2","2","3","2","2","1","1","0","1","1","0","0","0","1","0","1","-1","0","1","0","1","3","5","4","3","4","2","3","4","3","2","742402460798423042","何","","","","","","","","","","","","","","","","","","","true","14","4","moral","492","self","我的","","","","","","","","","","","","","","",""
"null","","null","html-keyboard-response","162","291012","0.0-6.0-1.0-8.0-0.27","3","3","3","3","2","3","3","3","2","3","3","4","2","3","3","4","3","3","3","4","2","2","3","2","2","3","2","2","1","1","0","1","1","0","0","0","1","0","1","-1","0","1","0","1","3","5","4","3","4","2","3","4","3","2","742402460798423042","何","","","","","","","","","","","","","","","","","","","","","","","","","","","","","","","","","","","","","","","",""
"676","<p style=""color:white; font-size: 35px;"">高尚</p>","i","categorize-html","163","291691","0.0-6.0-1.0-8.0-1.27","3","3","3","3","2","3","3","3","2","3","3","4","2","3","3","4","3","3","3","4","2","2","3","2","2","3","2","2","1","1","0","1","1","0","0","0","1","0","1","-1","0","1","0","1","3","5","4","3","4","2","3","4","3","2","742402460798423042","何","","","","","","","","","","","","","","","","","","","true","14","4","moral","676","positive","高尚","","","","","","","","","","","","","","",""
"null","","null","html-keyboard-response","164","291947","0.0-6.0-1.0-8.0-0.28","3","3","3","3","2","3","3","3","2","3","3","4","2","3","3","4","3","3","3","4","2","2","3","2","2","3","2","2","1","1","0","1","1","0","0","0","1","0","1","-1","0","1","0","1","3","5","4","3","4","2","3","4","3","2","742402460798423042","何","","","","","","","","","","","","","","","","","","","","","","","","","","","","","","","","","","","","","","","",""
"547","<p style=""color:rgb(150, 250, 100); font-size: 35px;"">我</p>","i","categorize-html","165","292497","0.0-6.0-1.0-8.0-1.28","3","3","3","3","2","3","3","3","2","3","3","4","2","3","3","4","3","3","3","4","2","2","3","2","2","3","2","2","1","1","0","1","1","0","0","0","1","0","1","-1","0","1","0","1","3","5","4","3","4","2","3","4","3","2","742402460798423042","何","","","","","","","","","","","","","","","","","","","true","14","4","moral","547","self","我","","","","","","","","","","","","","","",""
"null","","null","html-keyboard-response","166","292749","0.0-6.0-1.0-8.0-0.29","3","3","3","3","2","3","3","3","2","3","3","4","2","3","3","4","3","3","3","4","2","2","3","2","2","3","2","2","1","1","0","1","1","0","0","0","1","0","1","-1","0","1","0","1","3","5","4","3","4","2","3","4","3","2","742402460798423042","何","","","","","","","","","","","","","","","","","","","","","","","","","","","","","","","","","","","","","","","",""
"499","<p style=""color:white; font-size: 35px;"">卑鄙</p>","e","categorize-html","167","293249","0.0-6.0-1.0-8.0-1.29","3","3","3","3","2","3","3","3","2","3","3","4","2","3","3","4","3","3","3","4","2","2","3","2","2","3","2","2","1","1","0","1","1","0","0","0","1","0","1","-1","0","1","0","1","3","5","4","3","4","2","3","4","3","2","742402460798423042","何","","","","","","","","","","","","","","","","","","","true","14","4","moral","499","negative","卑鄙","","","","","","","","","","","","","","",""
"null","","null","html-keyboard-response","168","293510","0.0-6.0-1.0-8.0-0.30","3","3","3","3","2","3","3","3","2","3","3","4","2","3","3","4","3","3","3","4","2","2","3","2","2","3","2","2","1","1","0","1","1","0","0","0","1","0","1","-1","0","1","0","1","3","5","4","3","4","2","3","4","3","2","742402460798423042","何","","","","","","","","","","","","","","","","","","","","","","","","","","","","","","","","","","","","","","","",""
"579","<p style=""color:rgb(150, 250, 100); font-size: 35px;"">他</p>","e","categorize-html","169","294091","0.0-6.0-1.0-8.0-1.30","3","3","3","3","2","3","3","3","2","3","3","4","2","3","3","4","3","3","3","4","2","2","3","2","2","3","2","2","1","1","0","1","1","0","0","0","1","0","1","-1","0","1","0","1","3","5","4","3","4","2","3","4","3","2","742402460798423042","何","","","","","","","","","","","","","","","","","","","true","14","4","moral","579","other","他","","","","","","","","","","","","","","",""
"null","","null","html-keyboard-response","170","294351","0.0-6.0-1.0-8.0-0.31","3","3","3","3","2","3","3","3","2","3","3","4","2","3","3","4","3","3","3","4","2","2","3","2","2","3","2","2","1","1","0","1","1","0","0","0","1","0","1","-1","0","1","0","1","3","5","4","3","4","2","3","4","3","2","742402460798423042","何","","","","","","","","","","","","","","","","","","","","","","","","","","","","","","","","","","","","","","","",""
"483","<p style=""color:white; font-size: 35px;"">善良</p>","i","categorize-html","171","294835","0.0-6.0-1.0-8.0-1.31","3","3","3","3","2","3","3","3","2","3","3","4","2","3","3","4","3","3","3","4","2","2","3","2","2","3","2","2","1","1","0","1","1","0","0","0","1","0","1","-1","0","1","0","1","3","5","4","3","4","2","3","4","3","2","742402460798423042","何","","","","","","","","","","","","","","","","","","","true","14","4","moral","483","positive","善良","","","","","","","","","","","","","","",""
"null","","null","html-keyboard-response","172","295094","0.0-6.0-1.0-8.0-0.32","3","3","3","3","2","3","3","3","2","3","3","4","2","3","3","4","3","3","3","4","2","2","3","2","2","3","2","2","1","1","0","1","1","0","0","0","1","0","1","-1","0","1","0","1","3","5","4","3","4","2","3","4","3","2","742402460798423042","何","","","","","","","","","","","","","","","","","","","","","","","","","","","","","","","","","","","","","","","",""
"752","<p style=""color:rgb(150, 250, 100); font-size: 35px;"">他人</p>","e","categorize-html","173","295849","0.0-6.0-1.0-8.0-1.32","3","3","3","3","2","3","3","3","2","3","3","4","2","3","3","4","3","3","3","4","2","2","3","2","2","3","2","2","1","1","0","1","1","0","0","0","1","0","1","-1","0","1","0","1","3","5","4","3","4","2","3","4","3","2","742402460798423042","何","","","","","","","","","","","","","","","","","","","true","14","4","moral","752","other","他人","","","","","","","","","","","","","","",""
"null","","null","html-keyboard-response","174","296107","0.0-6.0-1.0-8.0-0.33","3","3","3","3","2","3","3","3","2","3","3","4","2","3","3","4","3","3","3","4","2","2","3","2","2","3","2","2","1","1","0","1","1","0","0","0","1","0","1","-1","0","1","0","1","3","5","4","3","4","2","3","4","3","2","742402460798423042","何","","","","","","","","","","","","","","","","","","","","","","","","","","","","","","","","","","","","","","","",""
"735","<p style=""color:white; font-size: 35px;"">卑鄙</p>","e","categorize-html","175","296844","0.0-6.0-1.0-8.0-1.33","3","3","3","3","2","3","3","3","2","3","3","4","2","3","3","4","3","3","3","4","2","2","3","2","2","3","2","2","1","1","0","1","1","0","0","0","1","0","1","-1","0","1","0","1","3","5","4","3","4","2","3","4","3","2","742402460798423042","何","","","","","","","","","","","","","","","","","","","true","14","4","moral","735","negative","卑鄙","","","","","","","","","","","","","","",""
"null","","null","html-keyboard-response","176","297102","0.0-6.0-1.0-8.0-0.34","3","3","3","3","2","3","3","3","2","3","3","4","2","3","3","4","3","3","3","4","2","2","3","2","2","3","2","2","1","1","0","1","1","0","0","0","1","0","1","-1","0","1","0","1","3","5","4","3","4","2","3","4","3","2","742402460798423042","何","","","","","","","","","","","","","","","","","","","","","","","","","","","","","","","","","","","","","","","",""
"561","<p style=""color:rgb(150, 250, 100); font-size: 35px;"">本人的</p>","i","categorize-html","177","297665","0.0-6.0-1.0-8.0-1.34","3","3","3","3","2","3","3","3","2","3","3","4","2","3","3","4","3","3","3","4","2","2","3","2","2","3","2","2","1","1","0","1","1","0","0","0","1","0","1","-1","0","1","0","1","3","5","4","3","4","2","3","4","3","2","742402460798423042","何","","","","","","","","","","","","","","","","","","","true","14","4","moral","561","self","本人的","","","","","","","","","","","","","","",""
"null","","null","html-keyboard-response","178","297925","0.0-6.0-1.0-8.0-0.35","3","3","3","3","2","3","3","3","2","3","3","4","2","3","3","4","3","3","3","4","2","2","3","2","2","3","2","2","1","1","0","1","1","0","0","0","1","0","1","-1","0","1","0","1","3","5","4","3","4","2","3","4","3","2","742402460798423042","何","","","","","","","","","","","","","","","","","","","","","","","","","","","","","","","","","","","","","","","",""
"637","<p style=""color:white; font-size: 35px;"">诚信</p>","i","categorize-html","179","298563","0.0-6.0-1.0-8.0-1.35","3","3","3","3","2","3","3","3","2","3","3","4","2","3","3","4","3","3","3","4","2","2","3","2","2","3","2","2","1","1","0","1","1","0","0","0","1","0","1","-1","0","1","0","1","3","5","4","3","4","2","3","4","3","2","742402460798423042","何","","","","","","","","","","","","","","","","","","","true","14","4","moral","637","positive","诚信","","","","","","","","","","","","","","",""
"null","","null","html-keyboard-response","180","298826","0.0-6.0-1.0-8.0-0.36","3","3","3","3","2","3","3","3","2","3","3","4","2","3","3","4","3","3","3","4","2","2","3","2","2","3","2","2","1","1","0","1","1","0","0","0","1","0","1","-1","0","1","0","1","3","5","4","3","4","2","3","4","3","2","742402460798423042","何","","","","","","","","","","","","","","","","","","","","","","","","","","","","","","","","","","","","","","","",""
"735","<p style=""color:rgb(150, 250, 100); font-size: 35px;"">他人的</p>","e","categorize-html","181","299563","0.0-6.0-1.0-8.0-1.36","3","3","3","3","2","3","3","3","2","3","3","4","2","3","3","4","3","3","3","4","2","2","3","2","2","3","2","2","1","1","0","1","1","0","0","0","1","0","1","-1","0","1","0","1","3","5","4","3","4","2","3","4","3","2","742402460798423042","何","","","","","","","","","","","","","","","","","","","true","14","4","moral","735","other","他人的","","","","","","","","","","","","","","",""
"null","","null","html-keyboard-response","182","299820","0.0-6.0-1.0-8.0-0.37","3","3","3","3","2","3","3","3","2","3","3","4","2","3","3","4","3","3","3","4","2","2","3","2","2","3","2","2","1","1","0","1","1","0","0","0","1","0","1","-1","0","1","0","1","3","5","4","3","4","2","3","4","3","2","742402460798423042","何","","","","","","","","","","","","","","","","","","","","","","","","","","","","","","","","","","","","","","","",""
"670","<p style=""color:white; font-size: 35px;"">廉正</p>","i","categorize-html","183","300492","0.0-6.0-1.0-8.0-1.37","3","3","3","3","2","3","3","3","2","3","3","4","2","3","3","4","3","3","3","4","2","2","3","2","2","3","2","2","1","1","0","1","1","0","0","0","1","0","1","-1","0","1","0","1","3","5","4","3","4","2","3","4","3","2","742402460798423042","何","","","","","","","","","","","","","","","","","","","true","14","4","moral","670","positive","廉正","","","","","","","","","","","","","","",""
"null","","null","html-keyboard-response","184","300753","0.0-6.0-1.0-8.0-0.38","3","3","3","3","2","3","3","3","2","3","3","4","2","3","3","4","3","3","3","4","2","2","3","2","2","3","2","2","1","1","0","1","1","0","0","0","1","0","1","-1","0","1","0","1","3","5","4","3","4","2","3","4","3","2","742402460798423042","何","","","","","","","","","","","","","","","","","","","","","","","","","","","","","","","","","","","","","","","",""
"741","<p style=""color:rgb(150, 250, 100); font-size: 35px;"">本人</p>","i","categorize-html","185","301496","0.0-6.0-1.0-8.0-1.38","3","3","3","3","2","3","3","3","2","3","3","4","2","3","3","4","3","3","3","4","2","2","3","2","2","3","2","2","1","1","0","1","1","0","0","0","1","0","1","-1","0","1","0","1","3","5","4","3","4","2","3","4","3","2","742402460798423042","何","","","","","","","","","","","","","","","","","","","true","14","4","moral","741","self","本人","","","","","","","","","","","","","","",""
"null","","null","html-keyboard-response","186","301747","0.0-6.0-1.0-8.0-0.39","3","3","3","3","2","3","3","3","2","3","3","4","2","3","3","4","3","3","3","4","2","2","3","2","2","3","2","2","1","1","0","1","1","0","0","0","1","0","1","-1","0","1","0","1","3","5","4","3","4","2","3","4","3","2","742402460798423042","何","","","","","","","","","","","","","","","","","","","","","","","","","","","","","","","","","","","","","","","",""
"553","<p style=""color:white; font-size: 35px;"">黑心</p>","e","categorize-html","187","302303","0.0-6.0-1.0-8.0-1.39","3","3","3","3","2","3","3","3","2","3","3","4","2","3","3","4","3","3","3","4","2","2","3","2","2","3","2","2","1","1","0","1","1","0","0","0","1","0","1","-1","0","1","0","1","3","5","4","3","4","2","3","4","3","2","742402460798423042","何","","","","","","","","","","","","","","","","","","","true","14","4","moral","553","negative","黑心","","","","","","","","","","","","","","",""
"null","","null","html-keyboard-response","188","302556","0.0-6.0-1.0-8.0-0.40","3","3","3","3","2","3","3","3","2","3","3","4","2","3","3","4","3","3","3","4","2","2","3","2","2","3","2","2","1","1","0","1","1","0","0","0","1","0","1","-1","0","1","0","1","3","5","4","3","4","2","3","4","3","2","742402460798423042","何","","","","","","","","","","","","","","","","","","","","","","","","","","","","","","","","","","","","","","","",""
"548","<p style=""color:rgb(150, 250, 100); font-size: 35px;"">本人</p>","i","categorize-html","189","303104","0.0-6.0-1.0-8.0-1.40","3","3","3","3","2","3","3","3","2","3","3","4","2","3","3","4","3","3","3","4","2","2","3","2","2","3","2","2","1","1","0","1","1","0","0","0","1","0","1","-1","0","1","0","1","3","5","4","3","4","2","3","4","3","2","742402460798423042","何","","","","","","","","","","","","","","","","","","","true","14","4","moral","548","self","本人","","","","","","","","","","","","","","",""
"null","","null","html-keyboard-response","190","303358","0.0-6.0-1.0-8.0-0.41","3","3","3","3","2","3","3","3","2","3","3","4","2","3","3","4","3","3","3","4","2","2","3","2","2","3","2","2","1","1","0","1","1","0","0","0","1","0","1","-1","0","1","0","1","3","5","4","3","4","2","3","4","3","2","742402460798423042","何","","","","","","","","","","","","","","","","","","","","","","","","","","","","","","","","","","","","","","","",""
"591","<p style=""color:white; font-size: 35px;"">缺德</p>","e","categorize-html","191","303952","0.0-6.0-1.0-8.0-1.41","3","3","3","3","2","3","3","3","2","3","3","4","2","3","3","4","3","3","3","4","2","2","3","2","2","3","2","2","1","1","0","1","1","0","0","0","1","0","1","-1","0","1","0","1","3","5","4","3","4","2","3","4","3","2","742402460798423042","何","","","","","","","","","","","","","","","","","","","true","14","4","moral","591","negative","缺德","","","","","","","","","","","","","","",""
"null","","null","html-keyboard-response","192","304211","0.0-6.0-1.0-8.0-0.42","3","3","3","3","2","3","3","3","2","3","3","4","2","3","3","4","3","3","3","4","2","2","3","2","2","3","2","2","1","1","0","1","1","0","0","0","1","0","1","-1","0","1","0","1","3","5","4","3","4","2","3","4","3","2","742402460798423042","何","","","","","","","","","","","","","","","","","","","","","","","","","","","","","","","","","","","","","","","",""
"1126","<p style=""color:rgb(150, 250, 100); font-size: 35px;"">他人</p>","e","categorize-html","193","305339","0.0-6.0-1.0-8.0-1.42","3","3","3","3","2","3","3","3","2","3","3","4","2","3","3","4","3","3","3","4","2","2","3","2","2","3","2","2","1","1","0","1","1","0","0","0","1","0","1","-1","0","1","0","1","3","5","4","3","4","2","3","4","3","2","742402460798423042","何","","","","","","","","","","","","","","","","","","","true","14","4","moral","1126","other","他人","","","","","","","","","","","","","","",""
"null","","null","html-keyboard-response","194","305601","0.0-6.0-1.0-8.0-0.43","3","3","3","3","2","3","3","3","2","3","3","4","2","3","3","4","3","3","3","4","2","2","3","2","2","3","2","2","1","1","0","1","1","0","0","0","1","0","1","-1","0","1","0","1","3","5","4","3","4","2","3","4","3","2","742402460798423042","何","","","","","","","","","","","","","","","","","","","","","","","","","","","","","","","","","","","","","","","",""
"598","<p style=""color:white; font-size: 35px;"">高尚</p>","i","categorize-html","195","306201","0.0-6.0-1.0-8.0-1.43","3","3","3","3","2","3","3","3","2","3","3","4","2","3","3","4","3","3","3","4","2","2","3","2","2","3","2","2","1","1","0","1","1","0","0","0","1","0","1","-1","0","1","0","1","3","5","4","3","4","2","3","4","3","2","742402460798423042","何","","","","","","","","","","","","","","","","","","","true","14","4","moral","598","positive","高尚","","","","","","","","","","","","","","",""
"null","","null","html-keyboard-response","196","306454","0.0-6.0-1.0-8.0-0.44","3","3","3","3","2","3","3","3","2","3","3","4","2","3","3","4","3","3","3","4","2","2","3","2","2","3","2","2","1","1","0","1","1","0","0","0","1","0","1","-1","0","1","0","1","3","5","4","3","4","2","3","4","3","2","742402460798423042","何","","","","","","","","","","","","","","","","","","","","","","","","","","","","","","","","","","","","","","","",""
"911","<p style=""color:rgb(150, 250, 100); font-size: 35px;"">我</p>","i","categorize-html","197","307368","0.0-6.0-1.0-8.0-1.44","3","3","3","3","2","3","3","3","2","3","3","4","2","3","3","4","3","3","3","4","2","2","3","2","2","3","2","2","1","1","0","1","1","0","0","0","1","0","1","-1","0","1","0","1","3","5","4","3","4","2","3","4","3","2","742402460798423042","何","","","","","","","","","","","","","","","","","","","true","14","4","moral","911","self","我","","","","","","","","","","","","","","",""
"null","","null","html-keyboard-response","198","307620","0.0-6.0-1.0-8.0-0.45","3","3","3","3","2","3","3","3","2","3","3","4","2","3","3","4","3","3","3","4","2","2","3","2","2","3","2","2","1","1","0","1","1","0","0","0","1","0","1","-1","0","1","0","1","3","5","4","3","4","2","3","4","3","2","742402460798423042","何","","","","","","","","","","","","","","","","","","","","","","","","","","","","","","","","","","","","","","","",""
"552","<p style=""color:white; font-size: 35px;"">不孝</p>","e","categorize-html","199","308173","0.0-6.0-1.0-8.0-1.45","3","3","3","3","2","3","3","3","2","3","3","4","2","3","3","4","3","3","3","4","2","2","3","2","2","3","2","2","1","1","0","1","1","0","0","0","1","0","1","-1","0","1","0","1","3","5","4","3","4","2","3","4","3","2","742402460798423042","何","","","","","","","","","","","","","","","","","","","true","14","4","moral","552","negative","不孝","","","","","","","","","","","","","","",""
