"rt","stimulus","response","trial_type","trial_index","time_elapsed","internal_node_id","ses_1","ses_2","ses_3","ses_4","ses_5","ses_6","ses_7","ses_8","ses_9","ses_10","coreself_1","coreself_2","coreself_3","coreself_4","coreself_5","coreself_6","coreself_7","coreself_8","coreself_9","coreself_10","SGPS_1","SGPS_2","SGPS_3","SGPS_4","SGPS_5","SGPS_6","SGPS_7","SGPS_8","SGPS_9","NPI1","NPI2","NPI3","NPI4","NPI5","NPI6","NPI7","NPI8","NPI9","NPI10","NPI11","NPI12","NPI13","NPI14","NPI15","hsns_1","hsns_2","hsns_3","hsns_4","hsns_5","hsns_6","hsns_7","hsns_8","hsns_9","hsns_10","subj_idx","friend_name","value","success","user_agent","responses","item_order","radio_event_ids","radio_event_times","key_event_times","mouse_event_times","straightlining","zigzagging","honeypot","timeout","failed_images","failed_audio","failed_video","view_history","response_type","key_press","avg_frame_time","center_x","center_y","correct_response","correct","identity","Image","word","condition","task_id","screen_id","time_stamp","version_attrib","version_target","IAT","RT","varname","summary","version_attrib2","version_target2","question_order"
"3241","
   <p><div style = ""color: white;font-size:25px;"">您好，欢迎参加本次实验。</div> </p>
   <p><div style = ""color: white;font-size:25px;"">为充分保障您的权利，请确保您已经知晓并同意《参与实验同意书》以及《数据公开知情同意书》。</div></p>
   <p><div style = ""color: white;font-size:25px;"">如果您未见过上述内容，请咨询实验员。</div></p>
   <p><div style = ""color: white;font-size:25px;"">如果您选择继续实验，则表示您已经清楚两份知情同意书的内容并同意。</div></p>
   <p> <div style = ""color: green;font-size:25px;""><按空格键至下页></div> </p>
   "," ","html-keyboard-response","0","3244","0.0-0.0","2","2","3","2","2","2","2","2","2","2","3","4","3","2","3","2","2","2","3","3","4","5","1","2","3","3","5","5","5","1","0","1","1","0","1","1","1","1","1","-1","0","1","0","1","2","5","5","1","3","2","4","4","3","2","558365014109454336","杜","","","","","","","","","","","","","","","","","","","","","","","","","","","","","","","","","","","","","","","",""
"","","","call-function","1","3245","0.0-1.0-0.0","2","2","3","2","2","2","2","2","2","2","3","4","3","2","3","2","2","2","3","3","4","5","1","2","3","3","5","5","5","1","0","1","1","0","1","1","1","1","1","-1","0","1","0","1","2","5","5","1","3","2","4","4","3","2","558365014109454336","杜","","","","","","","","","","","","","","","","","","","","","","","","","","","","","","","","","","","","","","","",""
"10577","","{""friend_name"":""杜""}","survey-html-form","2","13825","0.0-1.0-1.0","2","2","3","2","2","2","2","2","2","2","3","4","3","2","3","2","2","2","3","3","4","5","1","2","3","3","5","5","5","1","0","1","1","0","1","1","1","1","1","-1","0","1","0","1","2","5","5","1","3","2","4","4","3","2","558365014109454336","杜","","","","","","","","","","","","","","","","","","","","","","","","","","","","","","","","","","","","","","","",""
"","","","fullscreen","3","19953","0.0-2.0","2","2","3","2","2","2","2","2","2","2","3","4","3","2","3","2","2","2","3","3","4","5","1","2","3","3","5","5","5","1","0","1","1","0","1","1","1","1","1","-1","0","1","0","1","2","5","5","1","3","2","4","4","3","2","558365014109454336","杜","","true","{}","","","","","","","","","","","","","","","","","","","","","","","","","","","","","","","","","","","","",""
"46708.40000000596","","{""Q01"":""2"",""Q02"":""2"",""Q03"":""3"",""Q04"":""2"",""Q05"":""2"",""Q06"":""2"",""Q07"":""2"",""Q08"":""2"",""Q09"":""2"",""Q10"":""2""}","survey-template","4","66666","0.0-3.0","2","2","3","2","2","2","2","2","2","2","3","4","3","2","3","2","2","2","3","3","4","5","1","2","3","3","5","5","5","1","0","1","1","0","1","1","1","1","1","-1","0","1","0","1","2","5","5","1","3","2","4","4","3","2","558365014109454336","杜","","","","{""Q01"":""2"",""Q02"":""2"",""Q03"":""3"",""Q04"":""2"",""Q05"":""2"",""Q06"":""2"",""Q07"":""2"",""Q08"":""2"",""Q09"":""2"",""Q10"":""2""}","[0,1,2,3,4,5,6,7,8,9]","[""Q01"",""Q02"",""Q03"",""Q03"",""Q04"",""Q05"",""Q06"",""Q07"",""Q08"",""Q09"",""Q10""]","[9387.60000000894,12744.5,16035.70000000298,17063.40000000596,19923.40000000596,27006.10000000894,30813.90000000596,33829.60000000894,39881.20000000298,43732.5,45241.10000000894]","[]","[9387.60000000894,12744.5,16035.70000000298,17063.40000000596,19923.40000000596,25792.90000000596,27006.10000000894,30813.90000000596,33829.60000000894,39881.20000000298,42038.60000000894,43732.5,45241.10000000894,46704.60000000894]","0.6","0.3333333333333333","0","","","","","","","","","","","","","","","","","","","","","","","","","","","",""
"28433.90000000596","","{""Q01"":""3"",""Q02"":""4"",""Q03"":""3"",""Q04"":""2"",""Q05"":""3"",""Q06"":""2"",""Q07"":""2"",""Q08"":""2"",""Q09"":""3"",""Q10"":""3""}","survey-template","5","95118","0.0-4.0","2","2","3","2","2","2","2","2","2","2","3","4","3","2","3","2","2","2","3","3","4","5","1","2","3","3","5","5","5","1","0","1","1","0","1","1","1","1","1","-1","0","1","0","1","2","5","5","1","3","2","4","4","3","2","558365014109454336","杜","","","","{""Q01"":""3"",""Q02"":""4"",""Q03"":""3"",""Q04"":""2"",""Q05"":""3"",""Q06"":""2"",""Q07"":""2"",""Q08"":""2"",""Q09"":""3"",""Q10"":""3""}","[0,1,2,3,4,5,6,7,8,9]","[""Q01"",""Q02"",""Q03"",""Q04"",""Q05"",""Q06"",""Q07"",""Q08"",""Q09"",""Q10""]","[10306.60000000894,12546.29999999702,14493.40000000596,16215.90000000596,18281.20000000298,19801.60000000894,21073.70000000298,23218.10000000894,26170.10000000894,27493.60000000894]","[]","[10306.60000000894,12546.29999999702,14493.40000000596,16215.90000000596,18281.20000000298,19801.60000000894,21073.70000000298,23218.10000000894,26170.10000000894,27493.60000000894,28429.79999999702]","0.5","0.6666666666666666","0","","","","","","","","","","","","","","","","","","","","","","","","","","","",""
"","","","preload","6","95394","0.0-5.0","2","2","3","2","2","2","2","2","2","2","3","4","3","2","3","2","2","2","3","3","4","5","1","2","3","3","5","5","5","1","0","1","1","0","1","1","1","1","1","-1","0","1","0","1","2","5","5","1","3","2","4","4","3","2","558365014109454336","杜","","true","","","","","","","","","","","false","[]","[]","[]","","","","","","","","","","","","","","","","","","","","","","","",""
"13842","","","instructions","7","109237","0.0-6.0","2","2","3","2","2","2","2","2","2","2","3","4","3","2","3","2","2","2","3","3","4","5","1","2","3","3","5","5","5","1","0","1","1","0","1","1","1","1","1","-1","0","1","0","1","2","5","5","1","3","2","4","4","3","2","558365014109454336","杜","","","","","","","","","","","","","","","","","[{""page_index"":0,""viewing_time"":13841}]","","","","","","","","","","","","","","","","","","","","","","",""
"56181","","","instructions","8","165423","0.0-7.0-0.0-0.0","2","2","3","2","2","2","2","2","2","2","3","4","3","2","3","2","2","2","3","3","4","5","1","2","3","3","5","5","5","1","0","1","1","0","1","1","1","1","1","-1","0","1","0","1","2","5","5","1","3","2","4","4","3","2","558365014109454336","杜","","","","","","","","","","","","","","","","","[{""page_index"":0,""viewing_time"":40979},{""page_index"":1,""viewing_time"":11647},{""page_index"":2,""viewing_time"":3554}]","","","","","","","","","","","","","","","","","","","","","","",""
"null","","null","psychophysics","9","167648","0.0-7.0-0.0-1.0-0.0-0.0","2","2","3","2","2","2","2","2","2","2","3","4","3","2","3","2","2","2","3","3","4","5","1","2","3","3","5","5","5","1","0","1","1","0","1","1","1","1","1","-1","0","1","0","1","2","5","5","1","3","2","4","4","3","2","558365014109454336","杜","","","","null","","","","","","","","","","","","","","key","null","16.659999999999965","768","428","j","false","nonmatch","img/trapezoid.png","圆形","梯形","ALT1_1","prac_ALT1_1","","","","","","","","","",""
"null","<span class='add_' style='color:yellow; font-size: 70px;'> 太慢! </span>","null","html-keyboard-response","10","168152","0.0-7.0-0.0-1.0-0.0-1.0","2","2","3","2","2","2","2","2","2","2","3","4","3","2","3","2","2","2","3","3","4","5","1","2","3","3","5","5","5","1","0","1","1","0","1","1","1","1","1","-1","0","1","0","1","2","5","5","1","3","2","4","4","3","2","558365014109454336","杜","","","","","","","","","","","","","","","","","","","","","","","","","","","","","","feedback_test","","","","","","","","","",""
"525","","f","psychophysics","11","169678","0.0-7.0-0.0-1.0-0.0-0.1","2","2","3","2","2","2","2","2","2","2","3","4","3","2","3","2","2","2","3","3","4","5","1","2","3","3","5","5","5","1","0","1","1","0","1","1","1","1","1","-1","0","1","0","1","2","5","5","1","3","2","4","4","3","2","558365014109454336","杜","","","","match","","","","","","","","","","","","","","key","f","16.66119780219774","768","428","f","true","match","img/diamond.png","菱形","菱形","ALT1_1","prac_ALT1_1","","","","","","","","","",""
"null","<span style='color:GreenYellow; font-size: 70px;'>正确! </span>","null","html-keyboard-response","12","170181","0.0-7.0-0.0-1.0-0.0-1.1","2","2","3","2","2","2","2","2","2","2","3","4","3","2","3","2","2","2","3","3","4","5","1","2","3","3","5","5","5","1","0","1","1","0","1","1","1","1","1","-1","0","1","0","1","2","5","5","1","3","2","4","4","3","2","558365014109454336","杜","","","","","","","","","","","","","","","","","","","","","","","","","","","","","","feedback_test","","","","","","","","","",""
"418","","f","psychophysics","13","171602","0.0-7.0-0.0-1.0-0.0-0.2","2","2","3","2","2","2","2","2","2","2","3","4","3","2","3","2","2","2","3","3","4","5","1","2","3","3","5","5","5","1","0","1","1","0","1","1","1","1","1","-1","0","1","0","1","2","5","5","1","3","2","4","4","3","2","558365014109454336","杜","","","","match","","","","","","","","","","","","","","key","f","16.662809523809603","768","428","f","true","match","img/diamond.png","菱形","菱形","ALT1_1","prac_ALT1_1","","","","","","","","","",""
"null","<span style='color:GreenYellow; font-size: 70px;'>正确! </span>","null","html-keyboard-response","14","172105","0.0-7.0-0.0-1.0-0.0-1.2","2","2","3","2","2","2","2","2","2","2","3","4","3","2","3","2","2","2","3","3","4","5","1","2","3","3","5","5","5","1","0","1","1","0","1","1","1","1","1","-1","0","1","0","1","2","5","5","1","3","2","4","4","3","2","558365014109454336","杜","","","","","","","","","","","","","","","","","","","","","","","","","","","","","","feedback_test","","","","","","","","","",""
"628","","f","psychophysics","15","173735","0.0-7.0-0.0-1.0-0.0-0.3","2","2","3","2","2","2","2","2","2","2","3","4","3","2","3","2","2","2","3","3","4","5","1","2","3","3","5","5","5","1","0","1","1","0","1","1","1","1","1","-1","0","1","0","1","2","5","5","1","3","2","4","4","3","2","558365014109454336","杜","","","","match","","","","","","","","","","","","","","key","f","16.660197916666522","768","428","j","false","nonmatch","img/circle.png","菱形","圆形","ALT1_1","prac_ALT1_1","","","","","","","","","",""
"null","<span style='color:red; font-size: 70px;'>错误! </span>","null","html-keyboard-response","16","174238","0.0-7.0-0.0-1.0-0.0-1.3","2","2","3","2","2","2","2","2","2","2","3","4","3","2","3","2","2","2","3","3","4","5","1","2","3","3","5","5","5","1","0","1","1","0","1","1","1","1","1","-1","0","1","0","1","2","5","5","1","3","2","4","4","3","2","558365014109454336","杜","","","","","","","","","","","","","","","","","","","","","","","","","","","","","","feedback_test","","","","","","","","","",""
"715","","f","psychophysics","17","175958","0.0-7.0-0.0-1.0-0.0-0.4","2","2","3","2","2","2","2","2","2","2","3","4","3","2","3","2","2","2","3","3","4","5","1","2","3","3","5","5","5","1","0","1","1","0","1","1","1","1","1","-1","0","1","0","1","2","5","5","1","3","2","4","4","3","2","558365014109454336","杜","","","","match","","","","","","","","","","","","","","key","f","16.663794117647008","768","428","f","true","match","img/hexagon.png","六边","六边","ALT1_1","prac_ALT1_1","","","","","","","","","",""
"null","<span style='color:GreenYellow; font-size: 70px;'>正确! </span>","null","html-keyboard-response","18","176474","0.0-7.0-0.0-1.0-0.0-1.4","2","2","3","2","2","2","2","2","2","2","3","4","3","2","3","2","2","2","3","3","4","5","1","2","3","3","5","5","5","1","0","1","1","0","1","1","1","1","1","-1","0","1","0","1","2","5","5","1","3","2","4","4","3","2","558365014109454336","杜","","","","","","","","","","","","","","","","","","","","","","","","","","","","","","feedback_test","","","","","","","","","",""
"717","","f","psychophysics","19","178194","0.0-7.0-0.0-1.0-0.0-0.5","2","2","3","2","2","2","2","2","2","2","3","4","3","2","3","2","2","2","3","3","4","5","1","2","3","3","5","5","5","1","0","1","1","0","1","1","1","1","1","-1","0","1","0","1","2","5","5","1","3","2","4","4","3","2","558365014109454336","杜","","","","match","","","","","","","","","","","","","","key","f","16.66181372549024","768","428","f","true","match","img/circle.png","圆形","圆形","ALT1_1","prac_ALT1_1","","","","","","","","","",""
"null","<span style='color:GreenYellow; font-size: 70px;'>正确! </span>","null","html-keyboard-response","20","178695","0.0-7.0-0.0-1.0-0.0-1.5","2","2","3","2","2","2","2","2","2","2","3","4","3","2","3","2","2","2","3","3","4","5","1","2","3","3","5","5","5","1","0","1","1","0","1","1","1","1","1","-1","0","1","0","1","2","5","5","1","3","2","4","4","3","2","558365014109454336","杜","","","","","","","","","","","","","","","","","","","","","","","","","","","","","","feedback_test","","","","","","","","","",""
"507","","j","psychophysics","21","180206","0.0-7.0-0.0-1.0-0.0-0.6","2","2","3","2","2","2","2","2","2","2","3","4","3","2","3","2","2","2","3","3","4","5","1","2","3","3","5","5","5","1","0","1","1","0","1","1","1","1","1","-1","0","1","0","1","2","5","5","1","3","2","4","4","3","2","558365014109454336","杜","","","","nonmatch","","","","","","","","","","","","","","key","j","16.66056666666668","768","428","j","true","nonmatch","img/circle.png","六边","圆形","ALT1_1","prac_ALT1_1","","","","","","","","","",""
"null","<span style='color:GreenYellow; font-size: 70px;'>正确! </span>","null","html-keyboard-response","22","180710","0.0-7.0-0.0-1.0-0.0-1.6","2","2","3","2","2","2","2","2","2","2","3","4","3","2","3","2","2","2","3","3","4","5","1","2","3","3","5","5","5","1","0","1","1","0","1","1","1","1","1","-1","0","1","0","1","2","5","5","1","3","2","4","4","3","2","558365014109454336","杜","","","","","","","","","","","","","","","","","","","","","","","","","","","","","","feedback_test","","","","","","","","","",""
"764","","j","psychophysics","23","182477","0.0-7.0-0.0-1.0-0.0-0.7","2","2","3","2","2","2","2","2","2","2","3","4","3","2","3","2","2","2","3","3","4","5","1","2","3","3","5","5","5","1","0","1","1","0","1","1","1","1","1","-1","0","1","0","1","2","5","5","1","3","2","4","4","3","2","558365014109454336","杜","","","","nonmatch","","","","","","","","","","","","","","key","j","16.659714285714188","768","428","j","true","nonmatch","img/diamond.png","梯形","菱形","ALT1_1","prac_ALT1_1","","","","","","","","","",""
"null","<span style='color:GreenYellow; font-size: 70px;'>正确! </span>","null","html-keyboard-response","24","182979","0.0-7.0-0.0-1.0-0.0-1.7","2","2","3","2","2","2","2","2","2","2","3","4","3","2","3","2","2","2","3","3","4","5","1","2","3","3","5","5","5","1","0","1","1","0","1","1","1","1","1","-1","0","1","0","1","2","5","5","1","3","2","4","4","3","2","558365014109454336","杜","","","","","","","","","","","","","","","","","","","","","","","","","","","","","","feedback_test","","","","","","","","","",""
"626","","f","psychophysics","25","184608","0.0-7.0-0.0-1.0-0.0-0.8","2","2","3","2","2","2","2","2","2","2","3","4","3","2","3","2","2","2","3","3","4","5","1","2","3","3","5","5","5","1","0","1","1","0","1","1","1","1","1","-1","0","1","0","1","2","5","5","1","3","2","4","4","3","2","558365014109454336","杜","","","","match","","","","","","","","","","","","","","key","f","16.659226804123485","768","428","j","false","nonmatch","img/hexagon.png","圆形","六边","ALT1_1","prac_ALT1_1","","","","","","","","","",""
"null","<span style='color:red; font-size: 70px;'>错误! </span>","null","html-keyboard-response","26","185111","0.0-7.0-0.0-1.0-0.0-1.8","2","2","3","2","2","2","2","2","2","2","3","4","3","2","3","2","2","2","3","3","4","5","1","2","3","3","5","5","5","1","0","1","1","0","1","1","1","1","1","-1","0","1","0","1","2","5","5","1","3","2","4","4","3","2","558365014109454336","杜","","","","","","","","","","","","","","","","","","","","","","","","","","","","","","feedback_test","","","","","","","","","",""
"689","","f","psychophysics","27","186802","0.0-7.0-0.0-1.0-0.0-0.9","2","2","3","2","2","2","2","2","2","2","3","4","3","2","3","2","2","2","3","3","4","5","1","2","3","3","5","5","5","1","0","1","1","0","1","1","1","1","1","-1","0","1","0","1","2","5","5","1","3","2","4","4","3","2","558365014109454336","杜","","","","match","","","","","","","","","","","","","","key","f","16.65998019801976","768","428","j","false","nonmatch","img/diamond.png","六边","菱形","ALT1_1","prac_ALT1_1","","","","","","","","","",""
"null","<span style='color:red; font-size: 70px;'>错误! </span>","null","html-keyboard-response","28","187303","0.0-7.0-0.0-1.0-0.0-1.9","2","2","3","2","2","2","2","2","2","2","3","4","3","2","3","2","2","2","3","3","4","5","1","2","3","3","5","5","5","1","0","1","1","0","1","1","1","1","1","-1","0","1","0","1","2","5","5","1","3","2","4","4","3","2","558365014109454336","杜","","","","","","","","","","","","","","","","","","","","","","","","","","","","","","feedback_test","","","","","","","","","",""
"872","","f","psychophysics","29","189179","0.0-7.0-0.0-1.0-0.0-0.10","2","2","3","2","2","2","2","2","2","2","3","4","3","2","3","2","2","2","3","3","4","5","1","2","3","3","5","5","5","1","0","1","1","0","1","1","1","1","1","-1","0","1","0","1","2","5","5","1","3","2","4","4","3","2","558365014109454336","杜","","","","match","","","","","","","","","","","","","","key","f","16.66023423423417","768","428","f","true","match","img/diamond.png","菱形","菱形","ALT1_1","prac_ALT1_1","","","","","","","","","",""
"null","<span style='color:GreenYellow; font-size: 70px;'>正确! </span>","null","html-keyboard-response","30","189681","0.0-7.0-0.0-1.0-0.0-1.10","2","2","3","2","2","2","2","2","2","2","3","4","3","2","3","2","2","2","3","3","4","5","1","2","3","3","5","5","5","1","0","1","1","0","1","1","1","1","1","-1","0","1","0","1","2","5","5","1","3","2","4","4","3","2","558365014109454336","杜","","","","","","","","","","","","","","","","","","","","","","","","","","","","","","feedback_test","","","","","","","","","",""
"575","","f","psychophysics","31","191257","0.0-7.0-0.0-1.0-0.0-0.11","2","2","3","2","2","2","2","2","2","2","3","4","3","2","3","2","2","2","3","3","4","5","1","2","3","3","5","5","5","1","0","1","1","0","1","1","1","1","1","-1","0","1","0","1","2","5","5","1","3","2","4","4","3","2","558365014109454336","杜","","","","match","","","","","","","","","","","","","","key","f","16.66427956989238","768","428","j","false","nonmatch","img/circle.png","梯形","圆形","ALT1_1","prac_ALT1_1","","","","","","","","","",""
"null","<span style='color:red; font-size: 70px;'>错误! </span>","null","html-keyboard-response","32","191767","0.0-7.0-0.0-1.0-0.0-1.11","2","2","3","2","2","2","2","2","2","2","3","4","3","2","3","2","2","2","3","3","4","5","1","2","3","3","5","5","5","1","0","1","1","0","1","1","1","1","1","-1","0","1","0","1","2","5","5","1","3","2","4","4","3","2","558365014109454336","杜","","","","","","","","","","","","","","","","","","","","","","","","","","","","","","feedback_test","","","","","","","","","",""
"687","","f","psychophysics","33","193457","0.0-7.0-0.0-1.0-0.0-0.12","2","2","3","2","2","2","2","2","2","2","3","4","3","2","3","2","2","2","3","3","4","5","1","2","3","3","5","5","5","1","0","1","1","0","1","1","1","1","1","-1","0","1","0","1","2","5","5","1","3","2","4","4","3","2","558365014109454336","杜","","","","match","","","","","","","","","","","","","","key","f","16.661840000000083","768","428","f","true","match","img/circle.png","圆形","圆形","ALT1_1","prac_ALT1_1","","","","","","","","","",""
"null","<span style='color:GreenYellow; font-size: 70px;'>正确! </span>","null","html-keyboard-response","34","193960","0.0-7.0-0.0-1.0-0.0-1.12","2","2","3","2","2","2","2","2","2","2","3","4","3","2","3","2","2","2","3","3","4","5","1","2","3","3","5","5","5","1","0","1","1","0","1","1","1","1","1","-1","0","1","0","1","2","5","5","1","3","2","4","4","3","2","558365014109454336","杜","","","","","","","","","","","","","","","","","","","","","","","","","","","","","","feedback_test","","","","","","","","","",""
"797","","f","psychophysics","35","195759","0.0-7.0-0.0-1.0-0.0-0.13","2","2","3","2","2","2","2","2","2","2","3","4","3","2","3","2","2","2","3","3","4","5","1","2","3","3","5","5","5","1","0","1","1","0","1","1","1","1","1","-1","0","1","0","1","2","5","5","1","3","2","4","4","3","2","558365014109454336","杜","","","","match","","","","","","","","","","","","","","key","f","16.66188679245286","768","428","f","true","match","img/circle.png","圆形","圆形","ALT1_1","prac_ALT1_1","","","","","","","","","",""
"null","<span style='color:GreenYellow; font-size: 70px;'>正确! </span>","null","html-keyboard-response","36","196262","0.0-7.0-0.0-1.0-0.0-1.13","2","2","3","2","2","2","2","2","2","2","3","4","3","2","3","2","2","2","3","3","4","5","1","2","3","3","5","5","5","1","0","1","1","0","1","1","1","1","1","-1","0","1","0","1","2","5","5","1","3","2","4","4","3","2","558365014109454336","杜","","","","","","","","","","","","","","","","","","","","","","","","","","","","","","feedback_test","","","","","","","","","",""
"424","","j","psychophysics","37","197688","0.0-7.0-0.0-1.0-0.0-0.14","2","2","3","2","2","2","2","2","2","2","3","4","3","2","3","2","2","2","3","3","4","5","1","2","3","3","5","5","5","1","0","1","1","0","1","1","1","1","1","-1","0","1","0","1","2","5","5","1","3","2","4","4","3","2","558365014109454336","杜","","","","nonmatch","","","","","","","","","","","","","","key","j","16.663869047619215","768","428","j","true","nonmatch","img/trapezoid.png","六边","梯形","ALT1_1","prac_ALT1_1","","","","","","","","","",""
"null","<span style='color:GreenYellow; font-size: 70px;'>正确! </span>","null","html-keyboard-response","38","198205","0.0-7.0-0.0-1.0-0.0-1.14","2","2","3","2","2","2","2","2","2","2","3","4","3","2","3","2","2","2","3","3","4","5","1","2","3","3","5","5","5","1","0","1","1","0","1","1","1","1","1","-1","0","1","0","1","2","5","5","1","3","2","4","4","3","2","558365014109454336","杜","","","","","","","","","","","","","","","","","","","","","","","","","","","","","","feedback_test","","","","","","","","","",""
"775","","j","psychophysics","39","199982","0.0-7.0-0.0-1.0-0.0-0.15","2","2","3","2","2","2","2","2","2","2","3","4","3","2","3","2","2","2","3","3","4","5","1","2","3","3","5","5","5","1","0","1","1","0","1","1","1","1","1","-1","0","1","0","1","2","5","5","1","3","2","4","4","3","2","558365014109454336","杜","","","","nonmatch","","","","","","","","","","","","","","key","j","16.662169811320776","768","428","j","true","nonmatch","img/diamond.png","圆形","菱形","ALT1_1","prac_ALT1_1","","","","","","","","","",""
"null","<span style='color:GreenYellow; font-size: 70px;'>正确! </span>","null","html-keyboard-response","40","200484","0.0-7.0-0.0-1.0-0.0-1.15","2","2","3","2","2","2","2","2","2","2","3","4","3","2","3","2","2","2","3","3","4","5","1","2","3","3","5","5","5","1","0","1","1","0","1","1","1","1","1","-1","0","1","0","1","2","5","5","1","3","2","4","4","3","2","558365014109454336","杜","","","","","","","","","","","","","","","","","","","","","","","","","","","","","","feedback_test","","","","","","","","","",""
"733","","f","psychophysics","41","202221","0.0-7.0-0.0-1.0-0.0-0.16","2","2","3","2","2","2","2","2","2","2","3","4","3","2","3","2","2","2","3","3","4","5","1","2","3","3","5","5","5","1","0","1","1","0","1","1","1","1","1","-1","0","1","0","1","2","5","5","1","3","2","4","4","3","2","558365014109454336","杜","","","","match","","","","","","","","","","","","","","key","f","16.661165048543463","768","428","j","false","nonmatch","img/hexagon.png","菱形","六边","ALT1_1","prac_ALT1_1","","","","","","","","","",""
"null","<span style='color:red; font-size: 70px;'>错误! </span>","null","html-keyboard-response","42","202723","0.0-7.0-0.0-1.0-0.0-1.16","2","2","3","2","2","2","2","2","2","2","3","4","3","2","3","2","2","2","3","3","4","5","1","2","3","3","5","5","5","1","0","1","1","0","1","1","1","1","1","-1","0","1","0","1","2","5","5","1","3","2","4","4","3","2","558365014109454336","杜","","","","","","","","","","","","","","","","","","","","","","","","","","","","","","feedback_test","","","","","","","","","",""
"659","","j","psychophysics","43","204385","0.0-7.0-0.0-1.0-0.0-0.17","2","2","3","2","2","2","2","2","2","2","3","4","3","2","3","2","2","2","3","3","4","5","1","2","3","3","5","5","5","1","0","1","1","0","1","1","1","1","1","-1","0","1","0","1","2","5","5","1","3","2","4","4","3","2","558365014109454336","杜","","","","nonmatch","","","","","","","","","","","","","","key","j","16.66038775510227","768","428","f","false","match","img/hexagon.png","六边","六边","ALT1_1","prac_ALT1_1","","","","","","","","","",""
"null","<span style='color:red; font-size: 70px;'>错误! </span>","null","html-keyboard-response","44","204888","0.0-7.0-0.0-1.0-0.0-1.17","2","2","3","2","2","2","2","2","2","2","3","4","3","2","3","2","2","2","3","3","4","5","1","2","3","3","5","5","5","1","0","1","1","0","1","1","1","1","1","-1","0","1","0","1","2","5","5","1","3","2","4","4","3","2","558365014109454336","杜","","","","","","","","","","","","","","","","","","","","","","","","","","","","","","feedback_test","","","","","","","","","",""
"765","","f","psychophysics","45","206654","0.0-7.0-0.0-1.0-0.0-0.18","2","2","3","2","2","2","2","2","2","2","3","4","3","2","3","2","2","2","3","3","4","5","1","2","3","3","5","5","5","1","0","1","1","0","1","1","1","1","1","-1","0","1","0","1","2","5","5","1","3","2","4","4","3","2","558365014109454336","杜","","","","match","","","","","","","","","","","","","","key","f","16.654673076922897","768","428","f","true","match","img/trapezoid.png","梯形","梯形","ALT1_1","prac_ALT1_1","","","","","","","","","",""
"null","<span style='color:GreenYellow; font-size: 70px;'>正确! </span>","null","html-keyboard-response","46","207157","0.0-7.0-0.0-1.0-0.0-1.18","2","2","3","2","2","2","2","2","2","2","3","4","3","2","3","2","2","2","3","3","4","5","1","2","3","3","5","5","5","1","0","1","1","0","1","1","1","1","1","-1","0","1","0","1","2","5","5","1","3","2","4","4","3","2","558365014109454336","杜","","","","","","","","","","","","","","","","","","","","","","","","","","","","","","feedback_test","","","","","","","","","",""
"783","","j","psychophysics","47","208944","0.0-7.0-0.0-1.0-0.0-0.19","2","2","3","2","2","2","2","2","2","2","3","4","3","2","3","2","2","2","3","3","4","5","1","2","3","3","5","5","5","1","0","1","1","0","1","1","1","1","1","-1","0","1","0","1","2","5","5","1","3","2","4","4","3","2","558365014109454336","杜","","","","nonmatch","","","","","","","","","","","","","","key","j","16.659547169811425","768","428","j","true","nonmatch","img/hexagon.png","梯形","六边","ALT1_1","prac_ALT1_1","","","","","","","","","",""
"null","<span style='color:GreenYellow; font-size: 70px;'>正确! </span>","null","html-keyboard-response","48","209447","0.0-7.0-0.0-1.0-0.0-1.19","2","2","3","2","2","2","2","2","2","2","3","4","3","2","3","2","2","2","3","3","4","5","1","2","3","3","5","5","5","1","0","1","1","0","1","1","1","1","1","-1","0","1","0","1","2","5","5","1","3","2","4","4","3","2","558365014109454336","杜","","","","","","","","","","","","","","","","","","","","","","","","","","","","","","feedback_test","","","","","","","","","",""
"724","","j","psychophysics","49","211175","0.0-7.0-0.0-1.0-0.0-0.20","2","2","3","2","2","2","2","2","2","2","3","4","3","2","3","2","2","2","3","3","4","5","1","2","3","3","5","5","5","1","0","1","1","0","1","1","1","1","1","-1","0","1","0","1","2","5","5","1","3","2","4","4","3","2","558365014109454336","杜","","","","nonmatch","","","","","","","","","","","","","","key","j","16.660388349514744","768","428","f","false","match","img/trapezoid.png","梯形","梯形","ALT1_1","prac_ALT1_1","","","","","","","","","",""
"null","<span style='color:red; font-size: 70px;'>错误! </span>","null","html-keyboard-response","50","211677","0.0-7.0-0.0-1.0-0.0-1.20","2","2","3","2","2","2","2","2","2","2","3","4","3","2","3","2","2","2","3","3","4","5","1","2","3","3","5","5","5","1","0","1","1","0","1","1","1","1","1","-1","0","1","0","1","2","5","5","1","3","2","4","4","3","2","558365014109454336","杜","","","","","","","","","","","","","","","","","","","","","","","","","","","","","","feedback_test","","","","","","","","","",""
"645","","f","psychophysics","51","213325","0.0-7.0-0.0-1.0-0.0-0.21","2","2","3","2","2","2","2","2","2","2","3","4","3","2","3","2","2","2","3","3","4","5","1","2","3","3","5","5","5","1","0","1","1","0","1","1","1","1","1","-1","0","1","0","1","2","5","5","1","3","2","4","4","3","2","558365014109454336","杜","","","","match","","","","","","","","","","","","","","key","f","16.658938775510215","768","428","f","true","match","img/trapezoid.png","梯形","梯形","ALT1_1","prac_ALT1_1","","","","","","","","","",""
"null","<span style='color:GreenYellow; font-size: 70px;'>正确! </span>","null","html-keyboard-response","52","213826","0.0-7.0-0.0-1.0-0.0-1.21","2","2","3","2","2","2","2","2","2","2","3","4","3","2","3","2","2","2","3","3","4","5","1","2","3","3","5","5","5","1","0","1","1","0","1","1","1","1","1","-1","0","1","0","1","2","5","5","1","3","2","4","4","3","2","558365014109454336","杜","","","","","","","","","","","","","","","","","","","","","","","","","","","","","","feedback_test","","","","","","","","","",""
"662","","j","psychophysics","53","215490","0.0-7.0-0.0-1.0-0.0-0.22","2","2","3","2","2","2","2","2","2","2","3","4","3","2","3","2","2","2","3","3","4","5","1","2","3","3","5","5","5","1","0","1","1","0","1","1","1","1","1","-1","0","1","0","1","2","5","5","1","3","2","4","4","3","2","558365014109454336","杜","","","","nonmatch","","","","","","","","","","","","","","key","j","16.660755102040675","768","428","f","false","match","img/hexagon.png","六边","六边","ALT1_1","prac_ALT1_1","","","","","","","","","",""
"null","<span style='color:red; font-size: 70px;'>错误! </span>","null","html-keyboard-response","54","215992","0.0-7.0-0.0-1.0-0.0-1.22","2","2","3","2","2","2","2","2","2","2","3","4","3","2","3","2","2","2","3","3","4","5","1","2","3","3","5","5","5","1","0","1","1","0","1","1","1","1","1","-1","0","1","0","1","2","5","5","1","3","2","4","4","3","2","558365014109454336","杜","","","","","","","","","","","","","","","","","","","","","","","","","","","","","","feedback_test","","","","","","","","","",""
"852","","j","psychophysics","55","217848","0.0-7.0-0.0-1.0-0.0-0.23","2","2","3","2","2","2","2","2","2","2","3","4","3","2","3","2","2","2","3","3","4","5","1","2","3","3","5","5","5","1","0","1","1","0","1","1","1","1","1","-1","0","1","0","1","2","5","5","1","3","2","4","4","3","2","558365014109454336","杜","","","","nonmatch","","","","","","","","","","","","","","key","j","16.662245454545534","768","428","j","true","nonmatch","img/trapezoid.png","菱形","梯形","ALT1_1","prac_ALT1_1","","","","","","","","","",""
"null","<span style='color:GreenYellow; font-size: 70px;'>正确! </span>","null","html-keyboard-response","56","218349","0.0-7.0-0.0-1.0-0.0-1.23","2","2","3","2","2","2","2","2","2","2","3","4","3","2","3","2","2","2","3","3","4","5","1","2","3","3","5","5","5","1","0","1","1","0","1","1","1","1","1","-1","0","1","0","1","2","5","5","1","3","2","4","4","3","2","558365014109454336","杜","","","","","","","","","","","","","","","","","","","","","","","","","","","","","","feedback_test","","","","","","","","","",""
"834","","f","psychophysics","57","220187","0.0-7.0-0.0-1.0-0.0-0.24","2","2","3","2","2","2","2","2","2","2","3","4","3","2","3","2","2","2","3","3","4","5","1","2","3","3","5","5","5","1","0","1","1","0","1","1","1","1","1","-1","0","1","0","1","2","5","5","1","3","2","4","4","3","2","558365014109454336","杜","","","","match","","","","","","","","","","","","","","key","f","16.66230275229377","768","428","f","true","match","img/hexagon.png","六边","六边","ALT1_1","prac_ALT1_1","","","","","","","","","",""
"null","<span style='color:GreenYellow; font-size: 70px;'>正确! </span>","null","html-keyboard-response","58","220699","0.0-7.0-0.0-1.0-0.0-1.24","2","2","3","2","2","2","2","2","2","2","3","4","3","2","3","2","2","2","3","3","4","5","1","2","3","3","5","5","5","1","0","1","1","0","1","1","1","1","1","-1","0","1","0","1","2","5","5","1","3","2","4","4","3","2","558365014109454336","杜","","","","","","","","","","","","","","","","","","","","","","","","","","","","","","feedback_test","","","","","","","","","",""
"821","","f","psychophysics","59","222523","0.0-7.0-0.0-1.0-0.0-0.25","2","2","3","2","2","2","2","2","2","2","3","4","3","2","3","2","2","2","3","3","4","5","1","2","3","3","5","5","5","1","0","1","1","0","1","1","1","1","1","-1","0","1","0","1","2","5","5","1","3","2","4","4","3","2","558365014109454336","杜","","","","match","","","","","","","","","","","","","","key","f","16.66007407407408","768","428","f","true","match","img/diamond.png","菱形","菱形","ALT1_1","prac_ALT1_1","","","","","","","","","",""
"null","<span style='color:GreenYellow; font-size: 70px;'>正确! </span>","null","html-keyboard-response","60","223029","0.0-7.0-0.0-1.0-0.0-1.25","2","2","3","2","2","2","2","2","2","2","3","4","3","2","3","2","2","2","3","3","4","5","1","2","3","3","5","5","5","1","0","1","1","0","1","1","1","1","1","-1","0","1","0","1","2","5","5","1","3","2","4","4","3","2","558365014109454336","杜","","","","","","","","","","","","","","","","","","","","","","","","","","","","","","feedback_test","","","","","","","","","",""
"522","","j","psychophysics","61","224555","0.0-7.0-0.0-1.0-0.0-0.26","2","2","3","2","2","2","2","2","2","2","3","4","3","2","3","2","2","2","3","3","4","5","1","2","3","3","5","5","5","1","0","1","1","0","1","1","1","1","1","-1","0","1","0","1","2","5","5","1","3","2","4","4","3","2","558365014109454336","杜","","","","nonmatch","","","","","","","","","","","","","","key","j","16.661692307692388","768","428","j","true","nonmatch","img/circle.png","梯形","圆形","ALT1_1","prac_ALT1_1","","","","","","","","","",""
"null","<span style='color:GreenYellow; font-size: 70px;'>正确! </span>","null","html-keyboard-response","62","225057","0.0-7.0-0.0-1.0-0.0-1.26","2","2","3","2","2","2","2","2","2","2","3","4","3","2","3","2","2","2","3","3","4","5","1","2","3","3","5","5","5","1","0","1","1","0","1","1","1","1","1","-1","0","1","0","1","2","5","5","1","3","2","4","4","3","2","558365014109454336","杜","","","","","","","","","","","","","","","","","","","","","","","","","","","","","","feedback_test","","","","","","","","","",""
"592","","j","psychophysics","63","226651","0.0-7.0-0.0-1.0-0.0-0.27","2","2","3","2","2","2","2","2","2","2","3","4","3","2","3","2","2","2","3","3","4","5","1","2","3","3","5","5","5","1","0","1","1","0","1","1","1","1","1","-1","0","1","0","1","2","5","5","1","3","2","4","4","3","2","558365014109454336","杜","","","","nonmatch","","","","","","","","","","","","","","key","j","16.660431578947158","768","428","j","true","nonmatch","img/hexagon.png","梯形","六边","ALT1_1","prac_ALT1_1","","","","","","","","","",""
"null","<span style='color:GreenYellow; font-size: 70px;'>正确! </span>","null","html-keyboard-response","64","227152","0.0-7.0-0.0-1.0-0.0-1.27","2","2","3","2","2","2","2","2","2","2","3","4","3","2","3","2","2","2","3","3","4","5","1","2","3","3","5","5","5","1","0","1","1","0","1","1","1","1","1","-1","0","1","0","1","2","5","5","1","3","2","4","4","3","2","558365014109454336","杜","","","","","","","","","","","","","","","","","","","","","","","","","","","","","","feedback_test","","","","","","","","","",""
"657","","j","psychophysics","65","228812","0.0-7.0-0.0-1.0-0.0-0.28","2","2","3","2","2","2","2","2","2","2","3","4","3","2","3","2","2","2","3","3","4","5","1","2","3","3","5","5","5","1","0","1","1","0","1","1","1","1","1","-1","0","1","0","1","2","5","5","1","3","2","4","4","3","2","558365014109454336","杜","","","","nonmatch","","","","","","","","","","","","","","key","j","16.66118367346941","768","428","j","true","nonmatch","img/hexagon.png","圆形","六边","ALT1_1","prac_ALT1_1","","","","","","","","","",""
"null","<span style='color:GreenYellow; font-size: 70px;'>正确! </span>","null","html-keyboard-response","66","229313","0.0-7.0-0.0-1.0-0.0-1.28","2","2","3","2","2","2","2","2","2","2","3","4","3","2","3","2","2","2","3","3","4","5","1","2","3","3","5","5","5","1","0","1","1","0","1","1","1","1","1","-1","0","1","0","1","2","5","5","1","3","2","4","4","3","2","558365014109454336","杜","","","","","","","","","","","","","","","","","","","","","","","","","","","","","","feedback_test","","","","","","","","","",""
"638","","f","psychophysics","67","230954","0.0-7.0-0.0-1.0-0.0-0.29","2","2","3","2","2","2","2","2","2","2","3","4","3","2","3","2","2","2","3","3","4","5","1","2","3","3","5","5","5","1","0","1","1","0","1","1","1","1","1","-1","0","1","0","1","2","5","5","1","3","2","4","4","3","2","558365014109454336","杜","","","","match","","","","","","","","","","","","","","key","f","16.66055670103086","768","428","f","true","match","img/diamond.png","菱形","菱形","ALT1_1","prac_ALT1_1","","","","","","","","","",""
"null","<span style='color:GreenYellow; font-size: 70px;'>正确! </span>","null","html-keyboard-response","68","231456","0.0-7.0-0.0-1.0-0.0-1.29","2","2","3","2","2","2","2","2","2","2","3","4","3","2","3","2","2","2","3","3","4","5","1","2","3","3","5","5","5","1","0","1","1","0","1","1","1","1","1","-1","0","1","0","1","2","5","5","1","3","2","4","4","3","2","558365014109454336","杜","","","","","","","","","","","","","","","","","","","","","","","","","","","","","","feedback_test","","","","","","","","","",""
"689","","j","psychophysics","69","233164","0.0-7.0-0.0-1.0-0.0-0.30","2","2","3","2","2","2","2","2","2","2","3","4","3","2","3","2","2","2","3","3","4","5","1","2","3","3","5","5","5","1","0","1","1","0","1","1","1","1","1","-1","0","1","0","1","2","5","5","1","3","2","4","4","3","2","558365014109454336","杜","","","","nonmatch","","","","","","","","","","","","","","key","j","16.659792079207875","768","428","f","false","match","img/diamond.png","菱形","菱形","ALT1_1","prac_ALT1_1","","","","","","","","","",""
"null","<span style='color:red; font-size: 70px;'>错误! </span>","null","html-keyboard-response","70","233665","0.0-7.0-0.0-1.0-0.0-1.30","2","2","3","2","2","2","2","2","2","2","3","4","3","2","3","2","2","2","3","3","4","5","1","2","3","3","5","5","5","1","0","1","1","0","1","1","1","1","1","-1","0","1","0","1","2","5","5","1","3","2","4","4","3","2","558365014109454336","杜","","","","","","","","","","","","","","","","","","","","","","","","","","","","","","feedback_test","","","","","","","","","",""
"747","","j","psychophysics","71","235415","0.0-7.0-0.0-1.0-0.0-0.31","2","2","3","2","2","2","2","2","2","2","3","4","3","2","3","2","2","2","3","3","4","5","1","2","3","3","5","5","5","1","0","1","1","0","1","1","1","1","1","-1","0","1","0","1","2","5","5","1","3","2","4","4","3","2","558365014109454336","杜","","","","nonmatch","","","","","","","","","","","","","","key","j","16.661317307692325","768","428","j","true","nonmatch","img/hexagon.png","菱形","六边","ALT1_1","prac_ALT1_1","","","","","","","","","",""
"null","<span style='color:GreenYellow; font-size: 70px;'>正确! </span>","null","html-keyboard-response","72","235918","0.0-7.0-0.0-1.0-0.0-1.31","2","2","3","2","2","2","2","2","2","2","3","4","3","2","3","2","2","2","3","3","4","5","1","2","3","3","5","5","5","1","0","1","1","0","1","1","1","1","1","-1","0","1","0","1","2","5","5","1","3","2","4","4","3","2","558365014109454336","杜","","","","","","","","","","","","","","","","","","","","","","","","","","","","","","feedback_test","","","","","","","","","",""
"657","","j","psychophysics","73","237578","0.0-7.0-0.0-1.0-0.0-0.32","2","2","3","2","2","2","2","2","2","2","3","4","3","2","3","2","2","2","3","3","4","5","1","2","3","3","5","5","5","1","0","1","1","0","1","1","1","1","1","-1","0","1","0","1","2","5","5","1","3","2","4","4","3","2","558365014109454336","杜","","","","nonmatch","","","","","","","","","","","","","","key","j","16.65815151515158","768","428","j","true","nonmatch","img/trapezoid.png","菱形","梯形","ALT1_1","prac_ALT1_1","","","","","","","","","",""
"null","<span style='color:GreenYellow; font-size: 70px;'>正确! </span>","null","html-keyboard-response","74","238083","0.0-7.0-0.0-1.0-0.0-1.32","2","2","3","2","2","2","2","2","2","2","3","4","3","2","3","2","2","2","3","3","4","5","1","2","3","3","5","5","5","1","0","1","1","0","1","1","1","1","1","-1","0","1","0","1","2","5","5","1","3","2","4","4","3","2","558365014109454336","杜","","","","","","","","","","","","","","","","","","","","","","","","","","","","","","feedback_test","","","","","","","","","",""
"570","","f","psychophysics","75","239655","0.0-7.0-0.0-1.0-0.0-0.33","2","2","3","2","2","2","2","2","2","2","3","4","3","2","3","2","2","2","3","3","4","5","1","2","3","3","5","5","5","1","0","1","1","0","1","1","1","1","1","-1","0","1","0","1","2","5","5","1","3","2","4","4","3","2","558365014109454336","杜","","","","match","","","","","","","","","","","","","","key","f","16.660537634408527","768","428","f","true","match","img/circle.png","圆形","圆形","ALT1_1","prac_ALT1_1","","","","","","","","","",""
"null","<span style='color:GreenYellow; font-size: 70px;'>正确! </span>","null","html-keyboard-response","76","240157","0.0-7.0-0.0-1.0-0.0-1.33","2","2","3","2","2","2","2","2","2","2","3","4","3","2","3","2","2","2","3","3","4","5","1","2","3","3","5","5","5","1","0","1","1","0","1","1","1","1","1","-1","0","1","0","1","2","5","5","1","3","2","4","4","3","2","558365014109454336","杜","","","","","","","","","","","","","","","","","","","","","","","","","","","","","","feedback_test","","","","","","","","","",""
"679","","f","psychophysics","77","241840","0.0-7.0-0.0-1.0-0.0-0.34","2","2","3","2","2","2","2","2","2","2","3","4","3","2","3","2","2","2","3","3","4","5","1","2","3","3","5","5","5","1","0","1","1","0","1","1","1","1","1","-1","0","1","0","1","2","5","5","1","3","2","4","4","3","2","558365014109454336","杜","","","","match","","","","","","","","","","","","","","key","f","16.660212121212165","768","428","f","true","match","img/hexagon.png","六边","六边","ALT1_1","prac_ALT1_1","","","","","","","","","",""
"null","<span style='color:GreenYellow; font-size: 70px;'>正确! </span>","null","html-keyboard-response","78","242342","0.0-7.0-0.0-1.0-0.0-1.34","2","2","3","2","2","2","2","2","2","2","3","4","3","2","3","2","2","2","3","3","4","5","1","2","3","3","5","5","5","1","0","1","1","0","1","1","1","1","1","-1","0","1","0","1","2","5","5","1","3","2","4","4","3","2","558365014109454336","杜","","","","","","","","","","","","","","","","","","","","","","","","","","","","","","feedback_test","","","","","","","","","",""
"596","","j","psychophysics","79","243942","0.0-7.0-0.0-1.0-0.0-0.35","2","2","3","2","2","2","2","2","2","2","3","4","3","2","3","2","2","2","3","3","4","5","1","2","3","3","5","5","5","1","0","1","1","0","1","1","1","1","1","-1","0","1","0","1","2","5","5","1","3","2","4","4","3","2","558365014109454336","杜","","","","nonmatch","","","","","","","","","","","","","","key","j","16.660115789473792","768","428","j","true","nonmatch","img/circle.png","菱形","圆形","ALT1_1","prac_ALT1_1","","","","","","","","","",""
"null","<span style='color:GreenYellow; font-size: 70px;'>正确! </span>","null","html-keyboard-response","80","244443","0.0-7.0-0.0-1.0-0.0-1.35","2","2","3","2","2","2","2","2","2","2","3","4","3","2","3","2","2","2","3","3","4","5","1","2","3","3","5","5","5","1","0","1","1","0","1","1","1","1","1","-1","0","1","0","1","2","5","5","1","3","2","4","4","3","2","558365014109454336","杜","","","","","","","","","","","","","","","","","","","","","","","","","","","","","","feedback_test","","","","","","","","","",""
"648","","j","psychophysics","81","246094","0.0-7.0-0.0-1.0-0.0-0.36","2","2","3","2","2","2","2","2","2","2","3","4","3","2","3","2","2","2","3","3","4","5","1","2","3","3","5","5","5","1","0","1","1","0","1","1","1","1","1","-1","0","1","0","1","2","5","5","1","3","2","4","4","3","2","558365014109454336","杜","","","","nonmatch","","","","","","","","","","","","","","key","j","16.66078571428584","768","428","j","true","nonmatch","img/diamond.png","圆形","菱形","ALT1_1","prac_ALT1_1","","","","","","","","","",""
"null","<span style='color:GreenYellow; font-size: 70px;'>正确! </span>","null","html-keyboard-response","82","246598","0.0-7.0-0.0-1.0-0.0-1.36","2","2","3","2","2","2","2","2","2","2","3","4","3","2","3","2","2","2","3","3","4","5","1","2","3","3","5","5","5","1","0","1","1","0","1","1","1","1","1","-1","0","1","0","1","2","5","5","1","3","2","4","4","3","2","558365014109454336","杜","","","","","","","","","","","","","","","","","","","","","","","","","","","","","","feedback_test","","","","","","","","","",""
"570","","j","psychophysics","83","248170","0.0-7.0-0.0-1.0-0.0-0.37","2","2","3","2","2","2","2","2","2","2","3","4","3","2","3","2","2","2","3","3","4","5","1","2","3","3","5","5","5","1","0","1","1","0","1","1","1","1","1","-1","0","1","0","1","2","5","5","1","3","2","4","4","3","2","558365014109454336","杜","","","","nonmatch","","","","","","","","","","","","","","key","j","16.662548387096756","768","428","j","true","nonmatch","img/diamond.png","六边","菱形","ALT1_1","prac_ALT1_1","","","","","","","","","",""
"null","<span style='color:GreenYellow; font-size: 70px;'>正确! </span>","null","html-keyboard-response","84","248672","0.0-7.0-0.0-1.0-0.0-1.37","2","2","3","2","2","2","2","2","2","2","3","4","3","2","3","2","2","2","3","3","4","5","1","2","3","3","5","5","5","1","0","1","1","0","1","1","1","1","1","-1","0","1","0","1","2","5","5","1","3","2","4","4","3","2","558365014109454336","杜","","","","","","","","","","","","","","","","","","","","","","","","","","","","","","feedback_test","","","","","","","","","",""
"574","","j","psychophysics","85","250249","0.0-7.0-0.0-1.0-0.0-0.38","2","2","3","2","2","2","2","2","2","2","3","4","3","2","3","2","2","2","3","3","4","5","1","2","3","3","5","5","5","1","0","1","1","0","1","1","1","1","1","-1","0","1","0","1","2","5","5","1","3","2","4","4","3","2","558365014109454336","杜","","","","nonmatch","","","","","","","","","","","","","","key","j","16.658967741935637","768","428","j","true","nonmatch","img/trapezoid.png","六边","梯形","ALT1_1","prac_ALT1_1","","","","","","","","","",""
"null","<span style='color:GreenYellow; font-size: 70px;'>正确! </span>","null","html-keyboard-response","86","250751","0.0-7.0-0.0-1.0-0.0-1.38","2","2","3","2","2","2","2","2","2","2","3","4","3","2","3","2","2","2","3","3","4","5","1","2","3","3","5","5","5","1","0","1","1","0","1","1","1","1","1","-1","0","1","0","1","2","5","5","1","3","2","4","4","3","2","558365014109454336","杜","","","","","","","","","","","","","","","","","","","","","","","","","","","","","","feedback_test","","","","","","","","","",""
"613","","f","psychophysics","87","252368","0.0-7.0-0.0-1.0-0.0-0.39","2","2","3","2","2","2","2","2","2","2","3","4","3","2","3","2","2","2","3","3","4","5","1","2","3","3","5","5","5","1","0","1","1","0","1","1","1","1","1","-1","0","1","0","1","2","5","5","1","3","2","4","4","3","2","558365014109454336","杜","","","","match","","","","","","","","","","","","","","key","f","16.66049473684183","768","428","j","false","nonmatch","img/diamond.png","梯形","菱形","ALT1_1","prac_ALT1_1","","","","","","","","","",""
"null","<span style='color:red; font-size: 70px;'>错误! </span>","null","html-keyboard-response","88","252871","0.0-7.0-0.0-1.0-0.0-1.39","2","2","3","2","2","2","2","2","2","2","3","4","3","2","3","2","2","2","3","3","4","5","1","2","3","3","5","5","5","1","0","1","1","0","1","1","1","1","1","-1","0","1","0","1","2","5","5","1","3","2","4","4","3","2","558365014109454336","杜","","","","","","","","","","","","","","","","","","","","","","","","","","","","","","feedback_test","","","","","","","","","",""
"568","","j","psychophysics","89","254442","0.0-7.0-0.0-1.0-0.0-0.40","2","2","3","2","2","2","2","2","2","2","3","4","3","2","3","2","2","2","3","3","4","5","1","2","3","3","5","5","5","1","0","1","1","0","1","1","1","1","1","-1","0","1","0","1","2","5","5","1","3","2","4","4","3","2","558365014109454336","杜","","","","nonmatch","","","","","","","","","","","","","","key","j","16.65958064516145","768","428","j","true","nonmatch","img/circle.png","六边","圆形","ALT1_1","prac_ALT1_1","","","","","","","","","",""
"null","<span style='color:GreenYellow; font-size: 70px;'>正确! </span>","null","html-keyboard-response","90","254945","0.0-7.0-0.0-1.0-0.0-1.40","2","2","3","2","2","2","2","2","2","2","3","4","3","2","3","2","2","2","3","3","4","5","1","2","3","3","5","5","5","1","0","1","1","0","1","1","1","1","1","-1","0","1","0","1","2","5","5","1","3","2","4","4","3","2","558365014109454336","杜","","","","","","","","","","","","","","","","","","","","","","","","","","","","","","feedback_test","","","","","","","","","",""
"599","","f","psychophysics","91","256546","0.0-7.0-0.0-1.0-0.0-0.41","2","2","3","2","2","2","2","2","2","2","3","4","3","2","3","2","2","2","3","3","4","5","1","2","3","3","5","5","5","1","0","1","1","0","1","1","1","1","1","-1","0","1","0","1","2","5","5","1","3","2","4","4","3","2","558365014109454336","杜","","","","match","","","","","","","","","","","","","","key","f","16.66044210526314","768","428","f","true","match","img/circle.png","圆形","圆形","ALT1_1","prac_ALT1_1","","","","","","","","","",""
"null","<span style='color:GreenYellow; font-size: 70px;'>正确! </span>","null","html-keyboard-response","92","257050","0.0-7.0-0.0-1.0-0.0-1.41","2","2","3","2","2","2","2","2","2","2","3","4","3","2","3","2","2","2","3","3","4","5","1","2","3","3","5","5","5","1","0","1","1","0","1","1","1","1","1","-1","0","1","0","1","2","5","5","1","3","2","4","4","3","2","558365014109454336","杜","","","","","","","","","","","","","","","","","","","","","","","","","","","","","","feedback_test","","","","","","","","","",""
"622","","f","psychophysics","93","258674","0.0-7.0-0.0-1.0-0.0-0.42","2","2","3","2","2","2","2","2","2","2","3","4","3","2","3","2","2","2","3","3","4","5","1","2","3","3","5","5","5","1","0","1","1","0","1","1","1","1","1","-1","0","1","0","1","2","5","5","1","3","2","4","4","3","2","558365014109454336","杜","","","","match","","","","","","","","","","","","","","key","f","16.658593750000062","768","428","f","true","match","img/circle.png","圆形","圆形","ALT1_1","prac_ALT1_1","","","","","","","","","",""
"null","<span style='color:GreenYellow; font-size: 70px;'>正确! </span>","null","html-keyboard-response","94","259175","0.0-7.0-0.0-1.0-0.0-1.42","2","2","3","2","2","2","2","2","2","2","3","4","3","2","3","2","2","2","3","3","4","5","1","2","3","3","5","5","5","1","0","1","1","0","1","1","1","1","1","-1","0","1","0","1","2","5","5","1","3","2","4","4","3","2","558365014109454336","杜","","","","","","","","","","","","","","","","","","","","","","","","","","","","","","feedback_test","","","","","","","","","",""
"509","","j","psychophysics","95","260688","0.0-7.0-0.0-1.0-0.0-0.43","2","2","3","2","2","2","2","2","2","2","3","4","3","2","3","2","2","2","3","3","4","5","1","2","3","3","5","5","5","1","0","1","1","0","1","1","1","1","1","-1","0","1","0","1","2","5","5","1","3","2","4","4","3","2","558365014109454336","杜","","","","nonmatch","","","","","","","","","","","","","","key","j","16.662797752809333","768","428","f","false","match","img/trapezoid.png","梯形","梯形","ALT1_1","prac_ALT1_1","","","","","","","","","",""
"null","<span style='color:red; font-size: 70px;'>错误! </span>","null","html-keyboard-response","96","261189","0.0-7.0-0.0-1.0-0.0-1.43","2","2","3","2","2","2","2","2","2","2","3","4","3","2","3","2","2","2","3","3","4","5","1","2","3","3","5","5","5","1","0","1","1","0","1","1","1","1","1","-1","0","1","0","1","2","5","5","1","3","2","4","4","3","2","558365014109454336","杜","","","","","","","","","","","","","","","","","","","","","","","","","","","","","","feedback_test","","","","","","","","","",""
"597","","j","psychophysics","97","262789","0.0-7.0-0.0-1.0-0.0-0.44","2","2","3","2","2","2","2","2","2","2","3","4","3","2","3","2","2","2","3","3","4","5","1","2","3","3","5","5","5","1","0","1","1","0","1","1","1","1","1","-1","0","1","0","1","2","5","5","1","3","2","4","4","3","2","558365014109454336","杜","","","","nonmatch","","","","","","","","","","","","","","key","j","16.659642105262826","768","428","f","false","match","img/hexagon.png","六边","六边","ALT1_1","prac_ALT1_1","","","","","","","","","",""
"null","<span style='color:red; font-size: 70px;'>错误! </span>","null","html-keyboard-response","98","263292","0.0-7.0-0.0-1.0-0.0-1.44","2","2","3","2","2","2","2","2","2","2","3","4","3","2","3","2","2","2","3","3","4","5","1","2","3","3","5","5","5","1","0","1","1","0","1","1","1","1","1","-1","0","1","0","1","2","5","5","1","3","2","4","4","3","2","558365014109454336","杜","","","","","","","","","","","","","","","","","","","","","","","","","","","","","","feedback_test","","","","","","","","","",""
"724","","f","psychophysics","99","265018","0.0-7.0-0.0-1.0-0.0-0.45","2","2","3","2","2","2","2","2","2","2","3","4","3","2","3","2","2","2","3","3","4","5","1","2","3","3","5","5","5","1","0","1","1","0","1","1","1","1","1","-1","0","1","0","1","2","5","5","1","3","2","4","4","3","2","558365014109454336","杜","","","","match","","","","","","","","","","","","","","key","f","16.663339805824894","768","428","f","true","match","img/trapezoid.png","梯形","梯形","ALT1_1","prac_ALT1_1","","","","","","","","","",""
"null","<span style='color:GreenYellow; font-size: 70px;'>正确! </span>","null","html-keyboard-response","100","265521","0.0-7.0-0.0-1.0-0.0-1.45","2","2","3","2","2","2","2","2","2","2","3","4","3","2","3","2","2","2","3","3","4","5","1","2","3","3","5","5","5","1","0","1","1","0","1","1","1","1","1","-1","0","1","0","1","2","5","5","1","3","2","4","4","3","2","558365014109454336","杜","","","","","","","","","","","","","","","","","","","","","","","","","","","","","","feedback_test","","","","","","","","","",""
"642","","j","psychophysics","101","267165","0.0-7.0-0.0-1.0-0.0-0.46","2","2","3","2","2","2","2","2","2","2","3","4","3","2","3","2","2","2","3","3","4","5","1","2","3","3","5","5","5","1","0","1","1","0","1","1","1","1","1","-1","0","1","0","1","2","5","5","1","3","2","4","4","3","2","558365014109454336","杜","","","","nonmatch","","","","","","","","","","","","","","key","j","16.66101020408203","768","428","j","true","nonmatch","img/trapezoid.png","圆形","梯形","ALT1_1","prac_ALT1_1","","","","","","","","","",""
"null","<span style='color:GreenYellow; font-size: 70px;'>正确! </span>","null","html-keyboard-response","102","267668","0.0-7.0-0.0-1.0-0.0-1.46","2","2","3","2","2","2","2","2","2","2","3","4","3","2","3","2","2","2","3","3","4","5","1","2","3","3","5","5","5","1","0","1","1","0","1","1","1","1","1","-1","0","1","0","1","2","5","5","1","3","2","4","4","3","2","558365014109454336","杜","","","","","","","","","","","","","","","","","","","","","","","","","","","","","","feedback_test","","","","","","","","","",""
"731","","f","psychophysics","103","269403","0.0-7.0-0.0-1.0-0.0-0.47","2","2","3","2","2","2","2","2","2","2","3","4","3","2","3","2","2","2","3","3","4","5","1","2","3","3","5","5","5","1","0","1","1","0","1","1","1","1","1","-1","0","1","0","1","2","5","5","1","3","2","4","4","3","2","558365014109454336","杜","","","","match","","","","","","","","","","","","","","key","f","16.662300970873826","768","428","f","true","match","img/trapezoid.png","梯形","梯形","ALT1_1","prac_ALT1_1","","","","","","","","","",""
"null","<span style='color:GreenYellow; font-size: 70px;'>正确! </span>","null","html-keyboard-response","104","269906","0.0-7.0-0.0-1.0-0.0-1.47","2","2","3","2","2","2","2","2","2","2","3","4","3","2","3","2","2","2","3","3","4","5","1","2","3","3","5","5","5","1","0","1","1","0","1","1","1","1","1","-1","0","1","0","1","2","5","5","1","3","2","4","4","3","2","558365014109454336","杜","","","","","","","","","","","","","","","","","","","","","","","","","","","","","","feedback_test","","","","","","","","","",""
"17857","<style>.context{color:white; font-size: 35px; line-height:40px}</style>                            <div><p class='context'>您正确回答了73% 的试次。</p><p class='context'>您的平均反应时为664毫秒。</p><p class='context'>恭喜您完成练习。按空格键进入正式实验。</p><p class='footer' style='font-size: 35px; line-height:40px;'>请在进入正式实验实验之前将您的<span style='color: lightgreen;'>食指</span>放在电脑键盘的相应键位上进行按键。</p>"," ","html-keyboard-response","105","287771","0.0-7.0-0.0-2.0","2","2","3","2","2","2","2","2","2","2","3","4","3","2","3","2","2","2","3","3","4","5","1","2","3","3","5","5","5","1","0","1","1","0","1","1","1","1","1","-1","0","1","0","1","2","5","5","1","3","2","4","4","3","2","558365014109454336","杜","","","","","","","","","","","","","","","","","","","","","","","","","","","","","","","","","","","","","","","",""
"1680","
    <p>请您将手指放在按键上，准备进入正式的匹配任务。</p>
    <p> <div style = ""color: green""><按空格键进入下一阶段的匹配任务></div></p>
    "," ","html-keyboard-response","106","289459","0.0-7.0-0.0-3.0","2","2","3","2","2","2","2","2","2","2","3","4","3","2","3","2","2","2","3","3","4","5","1","2","3","3","5","5","5","1","0","1","1","0","1","1","1","1","1","-1","0","1","0","1","2","5","5","1","3","2","4","4","3","2","558365014109454336","杜","","","","","","","","","","","","","","","","","","","","","","","","","","","","","","","","","","","","","","","",""
"676","","f","psychophysics","107","291138","0.0-7.0-0.0-4.0-0.0-0.0","2","2","3","2","2","2","2","2","2","2","3","4","3","2","3","2","2","2","3","3","4","5","1","2","3","3","5","5","5","1","0","1","1","0","1","1","1","1","1","-1","0","1","0","1","2","5","5","1","3","2","4","4","3","2","558365014109454336","杜","","","","match","","","","","","","","","","","","","","key","f","16.66039999999979","768","428","j","false","nonmatch","img/diamond.png","梯形","菱形","ALT1","formal_ALT1_1","","","","","","","","","",""
"null","<span style='color:red; font-size: 70px;'>错误! </span>","null","html-keyboard-response","108","291652","0.0-7.0-0.0-4.0-0.0-1.0","2","2","3","2","2","2","2","2","2","2","3","4","3","2","3","2","2","2","3","3","4","5","1","2","3","3","5","5","5","1","0","1","1","0","1","1","1","1","1","-1","0","1","0","1","2","5","5","1","3","2","4","4","3","2","558365014109454336","杜","","","","","","","","","","","","","","","","","","","","","","","","","","","","","","feedback_test","","","","","","","","","",""
"753","","j","psychophysics","109","293407","0.0-7.0-0.0-4.0-0.0-0.1","2","2","3","2","2","2","2","2","2","2","3","4","3","2","3","2","2","2","3","3","4","5","1","2","3","3","5","5","5","1","0","1","1","0","1","1","1","1","1","-1","0","1","0","1","2","5","5","1","3","2","4","4","3","2","558365014109454336","杜","","","","nonmatch","","","","","","","","","","","","","","key","j","16.658076923076944","768","428","j","true","nonmatch","img/diamond.png","圆形","菱形","ALT1","formal_ALT1_1","","","","","","","","","",""
"null","<span style='color:GreenYellow; font-size: 70px;'>正确! </span>","null","html-keyboard-response","110","293909","0.0-7.0-0.0-4.0-0.0-1.1","2","2","3","2","2","2","2","2","2","2","3","4","3","2","3","2","2","2","3","3","4","5","1","2","3","3","5","5","5","1","0","1","1","0","1","1","1","1","1","-1","0","1","0","1","2","5","5","1","3","2","4","4","3","2","558365014109454336","杜","","","","","","","","","","","","","","","","","","","","","","","","","","","","","","feedback_test","","","","","","","","","",""
"695","","j","psychophysics","111","295607","0.0-7.0-0.0-4.0-0.0-0.2","2","2","3","2","2","2","2","2","2","2","3","4","3","2","3","2","2","2","3","3","4","5","1","2","3","3","5","5","5","1","0","1","1","0","1","1","1","1","1","-1","0","1","0","1","2","5","5","1","3","2","4","4","3","2","558365014109454336","杜","","","","nonmatch","","","","","","","","","","","","","","key","j","16.65995049504978","768","428","j","true","nonmatch","img/hexagon.png","菱形","六边","ALT1","formal_ALT1_1","","","","","","","","","",""
"null","<span style='color:GreenYellow; font-size: 70px;'>正确! </span>","null","html-keyboard-response","112","296109","0.0-7.0-0.0-4.0-0.0-1.2","2","2","3","2","2","2","2","2","2","2","3","4","3","2","3","2","2","2","3","3","4","5","1","2","3","3","5","5","5","1","0","1","1","0","1","1","1","1","1","-1","0","1","0","1","2","5","5","1","3","2","4","4","3","2","558365014109454336","杜","","","","","","","","","","","","","","","","","","","","","","","","","","","","","","feedback_test","","","","","","","","","",""
"525","","f","psychophysics","113","297638","0.0-7.0-0.0-4.0-0.0-0.3","2","2","3","2","2","2","2","2","2","2","3","4","3","2","3","2","2","2","3","3","4","5","1","2","3","3","5","5","5","1","0","1","1","0","1","1","1","1","1","-1","0","1","0","1","2","5","5","1","3","2","4","4","3","2","558365014109454336","杜","","","","match","","","","","","","","","","","","","","key","f","16.659483516483267","768","428","f","true","match","img/circle.png","圆形","圆形","ALT1","formal_ALT1_1","","","","","","","","","",""
"null","<span style='color:GreenYellow; font-size: 70px;'>正确! </span>","null","html-keyboard-response","114","298148","0.0-7.0-0.0-4.0-0.0-1.3","2","2","3","2","2","2","2","2","2","2","3","4","3","2","3","2","2","2","3","3","4","5","1","2","3","3","5","5","5","1","0","1","1","0","1","1","1","1","1","-1","0","1","0","1","2","5","5","1","3","2","4","4","3","2","558365014109454336","杜","","","","","","","","","","","","","","","","","","","","","","","","","","","","","","feedback_test","","","","","","","","","",""
"567","","j","psychophysics","115","299719","0.0-7.0-0.0-4.0-0.0-0.4","2","2","3","2","2","2","2","2","2","2","3","4","3","2","3","2","2","2","3","3","4","5","1","2","3","3","5","5","5","1","0","1","1","0","1","1","1","1","1","-1","0","1","0","1","2","5","5","1","3","2","4","4","3","2","558365014109454336","杜","","","","nonmatch","","","","","","","","","","","","","","key","j","16.66327956989245","768","428","f","false","match","img/hexagon.png","六边","六边","ALT1","formal_ALT1_1","","","","","","","","","",""
"null","<span style='color:red; font-size: 70px;'>错误! </span>","null","html-keyboard-response","116","300221","0.0-7.0-0.0-4.0-0.0-1.4","2","2","3","2","2","2","2","2","2","2","3","4","3","2","3","2","2","2","3","3","4","5","1","2","3","3","5","5","5","1","0","1","1","0","1","1","1","1","1","-1","0","1","0","1","2","5","5","1","3","2","4","4","3","2","558365014109454336","杜","","","","","","","","","","","","","","","","","","","","","","","","","","","","","","feedback_test","","","","","","","","","",""
"582","","f","psychophysics","117","301805","0.0-7.0-0.0-4.0-0.0-0.5","2","2","3","2","2","2","2","2","2","2","3","4","3","2","3","2","2","2","3","3","4","5","1","2","3","3","5","5","5","1","0","1","1","0","1","1","1","1","1","-1","0","1","0","1","2","5","5","1","3","2","4","4","3","2","558365014109454336","杜","","","","match","","","","","","","","","","","","","","key","f","16.65950000000018","768","428","f","true","match","img/trapezoid.png","梯形","梯形","ALT1","formal_ALT1_1","","","","","","","","","",""
"null","<span style='color:GreenYellow; font-size: 70px;'>正确! </span>","null","html-keyboard-response","118","302307","0.0-7.0-0.0-4.0-0.0-1.5","2","2","3","2","2","2","2","2","2","2","3","4","3","2","3","2","2","2","3","3","4","5","1","2","3","3","5","5","5","1","0","1","1","0","1","1","1","1","1","-1","0","1","0","1","2","5","5","1","3","2","4","4","3","2","558365014109454336","杜","","","","","","","","","","","","","","","","","","","","","","","","","","","","","","feedback_test","","","","","","","","","",""
"550","","f","psychophysics","119","303860","0.0-7.0-0.0-4.0-0.0-0.6","2","2","3","2","2","2","2","2","2","2","3","4","3","2","3","2","2","2","3","3","4","5","1","2","3","3","5","5","5","1","0","1","1","0","1","1","1","1","1","-1","0","1","0","1","2","5","5","1","3","2","4","4","3","2","558365014109454336","杜","","","","match","","","","","","","","","","","","","","key","f","16.663478260869336","768","428","f","true","match","img/circle.png","圆形","圆形","ALT1","formal_ALT1_1","","","","","","","","","",""
"null","<span style='color:GreenYellow; font-size: 70px;'>正确! </span>","null","html-keyboard-response","120","304362","0.0-7.0-0.0-4.0-0.0-1.6","2","2","3","2","2","2","2","2","2","2","3","4","3","2","3","2","2","2","3","3","4","5","1","2","3","3","5","5","5","1","0","1","1","0","1","1","1","1","1","-1","0","1","0","1","2","5","5","1","3","2","4","4","3","2","558365014109454336","杜","","","","","","","","","","","","","","","","","","","","","","","","","","","","","","feedback_test","","","","","","","","","",""
"658","","f","psychophysics","121","306021","0.0-7.0-0.0-4.0-0.0-0.7","2","2","3","2","2","2","2","2","2","2","3","4","3","2","3","2","2","2","3","3","4","5","1","2","3","3","5","5","5","1","0","1","1","0","1","1","1","1","1","-1","0","1","0","1","2","5","5","1","3","2","4","4","3","2","558365014109454336","杜","","","","match","","","","","","","","","","","","","","key","f","16.660122448979397","768","428","f","true","match","img/trapezoid.png","梯形","梯形","ALT1","formal_ALT1_1","","","","","","","","","",""
"null","<span style='color:GreenYellow; font-size: 70px;'>正确! </span>","null","html-keyboard-response","122","306523","0.0-7.0-0.0-4.0-0.0-1.7","2","2","3","2","2","2","2","2","2","2","3","4","3","2","3","2","2","2","3","3","4","5","1","2","3","3","5","5","5","1","0","1","1","0","1","1","1","1","1","-1","0","1","0","1","2","5","5","1","3","2","4","4","3","2","558365014109454336","杜","","","","","","","","","","","","","","","","","","","","","","","","","","","","","","feedback_test","","","","","","","","","",""
"498","","j","psychophysics","123","308024","0.0-7.0-0.0-4.0-0.0-0.8","2","2","3","2","2","2","2","2","2","2","3","4","3","2","3","2","2","2","3","3","4","5","1","2","3","3","5","5","5","1","0","1","1","0","1","1","1","1","1","-1","0","1","0","1","2","5","5","1","3","2","4","4","3","2","558365014109454336","杜","","","","nonmatch","","","","","","","","","","","","","","key","j","16.661865168538867","768","428","j","true","nonmatch","img/diamond.png","六边","菱形","ALT1","formal_ALT1_1","","","","","","","","","",""
"null","<span style='color:GreenYellow; font-size: 70px;'>正确! </span>","null","html-keyboard-response","124","308527","0.0-7.0-0.0-4.0-0.0-1.8","2","2","3","2","2","2","2","2","2","2","3","4","3","2","3","2","2","2","3","3","4","5","1","2","3","3","5","5","5","1","0","1","1","0","1","1","1","1","1","-1","0","1","0","1","2","5","5","1","3","2","4","4","3","2","558365014109454336","杜","","","","","","","","","","","","","","","","","","","","","","","","","","","","","","feedback_test","","","","","","","","","",""
"718","","j","psychophysics","125","310248","0.0-7.0-0.0-4.0-0.0-0.9","2","2","3","2","2","2","2","2","2","2","3","4","3","2","3","2","2","2","3","3","4","5","1","2","3","3","5","5","5","1","0","1","1","0","1","1","1","1","1","-1","0","1","0","1","2","5","5","1","3","2","4","4","3","2","558365014109454336","杜","","","","nonmatch","","","","","","","","","","","","","","key","j","16.658960784314083","768","428","j","true","nonmatch","img/circle.png","梯形","圆形","ALT1","formal_ALT1_1","","","","","","","","","",""
"null","<span style='color:GreenYellow; font-size: 70px;'>正确! </span>","null","html-keyboard-response","126","310750","0.0-7.0-0.0-4.0-0.0-1.9","2","2","3","2","2","2","2","2","2","2","3","4","3","2","3","2","2","2","3","3","4","5","1","2","3","3","5","5","5","1","0","1","1","0","1","1","1","1","1","-1","0","1","0","1","2","5","5","1","3","2","4","4","3","2","558365014109454336","杜","","","","","","","","","","","","","","","","","","","","","","","","","","","","","","feedback_test","","","","","","","","","",""
"571","","f","psychophysics","127","312326","0.0-7.0-0.0-4.0-0.0-0.10","2","2","3","2","2","2","2","2","2","2","3","4","3","2","3","2","2","2","3","3","4","5","1","2","3","3","5","5","5","1","0","1","1","0","1","1","1","1","1","-1","0","1","0","1","2","5","5","1","3","2","4","4","3","2","558365014109454336","杜","","","","match","","","","","","","","","","","","","","key","f","16.659333333333638","768","428","j","false","nonmatch","img/trapezoid.png","圆形","梯形","ALT1","formal_ALT1_1","","","","","","","","","",""
"null","<span style='color:red; font-size: 70px;'>错误! </span>","null","html-keyboard-response","128","312829","0.0-7.0-0.0-4.0-0.0-1.10","2","2","3","2","2","2","2","2","2","2","3","4","3","2","3","2","2","2","3","3","4","5","1","2","3","3","5","5","5","1","0","1","1","0","1","1","1","1","1","-1","0","1","0","1","2","5","5","1","3","2","4","4","3","2","558365014109454336","杜","","","","","","","","","","","","","","","","","","","","","","","","","","","","","","feedback_test","","","","","","","","","",""
"745","","f","psychophysics","129","314578","0.0-7.0-0.0-4.0-0.0-0.11","2","2","3","2","2","2","2","2","2","2","3","4","3","2","3","2","2","2","3","3","4","5","1","2","3","3","5","5","5","1","0","1","1","0","1","1","1","1","1","-1","0","1","0","1","2","5","5","1","3","2","4","4","3","2","558365014109454336","杜","","","","match","","","","","","","","","","","","","","key","f","16.66138461538447","768","428","f","true","match","img/diamond.png","菱形","菱形","ALT1","formal_ALT1_1","","","","","","","","","",""
"null","<span style='color:GreenYellow; font-size: 70px;'>正确! </span>","null","html-keyboard-response","130","315081","0.0-7.0-0.0-4.0-0.0-1.11","2","2","3","2","2","2","2","2","2","2","3","4","3","2","3","2","2","2","3","3","4","5","1","2","3","3","5","5","5","1","0","1","1","0","1","1","1","1","1","-1","0","1","0","1","2","5","5","1","3","2","4","4","3","2","558365014109454336","杜","","","","","","","","","","","","","","","","","","","","","","","","","","","","","","feedback_test","","","","","","","","","",""
"771","","f","psychophysics","131","316855","0.0-7.0-0.0-4.0-0.0-0.12","2","2","3","2","2","2","2","2","2","2","3","4","3","2","3","2","2","2","3","3","4","5","1","2","3","3","5","5","5","1","0","1","1","0","1","1","1","1","1","-1","0","1","0","1","2","5","5","1","3","2","4","4","3","2","558365014109454336","杜","","","","match","","","","","","","","","","","","","","key","f","16.662685714285665","768","428","f","true","match","img/hexagon.png","六边","六边","ALT1","formal_ALT1_1","","","","","","","","","",""
"null","<span style='color:GreenYellow; font-size: 70px;'>正确! </span>","null","html-keyboard-response","132","317358","0.0-7.0-0.0-4.0-0.0-1.12","2","2","3","2","2","2","2","2","2","2","3","4","3","2","3","2","2","2","3","3","4","5","1","2","3","3","5","5","5","1","0","1","1","0","1","1","1","1","1","-1","0","1","0","1","2","5","5","1","3","2","4","4","3","2","558365014109454336","杜","","","","","","","","","","","","","","","","","","","","","","","","","","","","","","feedback_test","","","","","","","","","",""
"558","","f","psychophysics","133","318919","0.0-7.0-0.0-4.0-0.0-0.13","2","2","3","2","2","2","2","2","2","2","3","4","3","2","3","2","2","2","3","3","4","5","1","2","3","3","5","5","5","1","0","1","1","0","1","1","1","1","1","-1","0","1","0","1","2","5","5","1","3","2","4","4","3","2","558365014109454336","杜","","","","match","","","","","","","","","","","","","","key","f","16.660076086956668","768","428","j","false","nonmatch","img/hexagon.png","圆形","六边","ALT1","formal_ALT1_1","","","","","","","","","",""
"null","<span style='color:red; font-size: 70px;'>错误! </span>","null","html-keyboard-response","134","319421","0.0-7.0-0.0-4.0-0.0-1.13","2","2","3","2","2","2","2","2","2","2","3","4","3","2","3","2","2","2","3","3","4","5","1","2","3","3","5","5","5","1","0","1","1","0","1","1","1","1","1","-1","0","1","0","1","2","5","5","1","3","2","4","4","3","2","558365014109454336","杜","","","","","","","","","","","","","","","","","","","","","","","","","","","","","","feedback_test","","","","","","","","","",""
"779","","j","psychophysics","135","321202","0.0-7.0-0.0-4.0-0.0-0.14","2","2","3","2","2","2","2","2","2","2","3","4","3","2","3","2","2","2","3","3","4","5","1","2","3","3","5","5","5","1","0","1","1","0","1","1","1","1","1","-1","0","1","0","1","2","5","5","1","3","2","4","4","3","2","558365014109454336","杜","","","","nonmatch","","","","","","","","","","","","","","key","j","16.659380952381373","768","428","j","true","nonmatch","img/hexagon.png","梯形","六边","ALT1","formal_ALT1_1","","","","","","","","","",""
"null","<span style='color:GreenYellow; font-size: 70px;'>正确! </span>","null","html-keyboard-response","136","321703","0.0-7.0-0.0-4.0-0.0-1.14","2","2","3","2","2","2","2","2","2","2","3","4","3","2","3","2","2","2","3","3","4","5","1","2","3","3","5","5","5","1","0","1","1","0","1","1","1","1","1","-1","0","1","0","1","2","5","5","1","3","2","4","4","3","2","558365014109454336","杜","","","","","","","","","","","","","","","","","","","","","","","","","","","","","","feedback_test","","","","","","","","","",""
"679","","j","psychophysics","137","323386","0.0-7.0-0.0-4.0-0.0-0.15","2","2","3","2","2","2","2","2","2","2","3","4","3","2","3","2","2","2","3","3","4","5","1","2","3","3","5","5","5","1","0","1","1","0","1","1","1","1","1","-1","0","1","0","1","2","5","5","1","3","2","4","4","3","2","558365014109454336","杜","","","","nonmatch","","","","","","","","","","","","","","key","j","16.661050505050685","768","428","j","true","nonmatch","img/circle.png","六边","圆形","ALT1","formal_ALT1_1","","","","","","","","","",""
"null","<span style='color:GreenYellow; font-size: 70px;'>正确! </span>","null","html-keyboard-response","138","323887","0.0-7.0-0.0-4.0-0.0-1.15","2","2","3","2","2","2","2","2","2","2","3","4","3","2","3","2","2","2","3","3","4","5","1","2","3","3","5","5","5","1","0","1","1","0","1","1","1","1","1","-1","0","1","0","1","2","5","5","1","3","2","4","4","3","2","558365014109454336","杜","","","","","","","","","","","","","","","","","","","","","","","","","","","","","","feedback_test","","","","","","","","","",""
"825","","f","psychophysics","139","325728","0.0-7.0-0.0-4.0-0.0-0.16","2","2","3","2","2","2","2","2","2","2","3","4","3","2","3","2","2","2","3","3","4","5","1","2","3","3","5","5","5","1","0","1","1","0","1","1","1","1","1","-1","0","1","0","1","2","5","5","1","3","2","4","4","3","2","558365014109454336","杜","","","","match","","","","","","","","","","","","","","key","f","16.66226605504619","768","428","f","true","match","img/circle.png","圆形","圆形","ALT1","formal_ALT1_1","","","","","","","","","",""
"null","<span style='color:GreenYellow; font-size: 70px;'>正确! </span>","null","html-keyboard-response","140","326231","0.0-7.0-0.0-4.0-0.0-1.16","2","2","3","2","2","2","2","2","2","2","3","4","3","2","3","2","2","2","3","3","4","5","1","2","3","3","5","5","5","1","0","1","1","0","1","1","1","1","1","-1","0","1","0","1","2","5","5","1","3","2","4","4","3","2","558365014109454336","杜","","","","","","","","","","","","","","","","","","","","","","","","","","","","","","feedback_test","","","","","","","","","",""
"566","","j","psychophysics","141","327801","0.0-7.0-0.0-4.0-0.0-0.17","2","2","3","2","2","2","2","2","2","2","3","4","3","2","3","2","2","2","3","3","4","5","1","2","3","3","5","5","5","1","0","1","1","0","1","1","1","1","1","-1","0","1","0","1","2","5","5","1","3","2","4","4","3","2","558365014109454336","杜","","","","nonmatch","","","","","","","","","","","","","","key","j","16.66015217391301","768","428","j","true","nonmatch","img/circle.png","菱形","圆形","ALT1","formal_ALT1_1","","","","","","","","","",""
"null","<span style='color:GreenYellow; font-size: 70px;'>正确! </span>","null","html-keyboard-response","142","328304","0.0-7.0-0.0-4.0-0.0-1.17","2","2","3","2","2","2","2","2","2","2","3","4","3","2","3","2","2","2","3","3","4","5","1","2","3","3","5","5","5","1","0","1","1","0","1","1","1","1","1","-1","0","1","0","1","2","5","5","1","3","2","4","4","3","2","558365014109454336","杜","","","","","","","","","","","","","","","","","","","","","","","","","","","","","","feedback_test","","","","","","","","","",""
"901","","f","psychophysics","143","330208","0.0-7.0-0.0-4.0-0.0-0.18","2","2","3","2","2","2","2","2","2","2","3","4","3","2","3","2","2","2","3","3","4","5","1","2","3","3","5","5","5","1","0","1","1","0","1","1","1","1","1","-1","0","1","0","1","2","5","5","1","3","2","4","4","3","2","558365014109454336","杜","","","","match","","","","","","","","","","","","","","key","f","16.659858407079245","768","428","f","true","match","img/trapezoid.png","梯形","梯形","ALT1","formal_ALT1_1","","","","","","","","","",""
"null","<span style='color:GreenYellow; font-size: 70px;'>正确! </span>","null","html-keyboard-response","144","330708","0.0-7.0-0.0-4.0-0.0-1.18","2","2","3","2","2","2","2","2","2","2","3","4","3","2","3","2","2","2","3","3","4","5","1","2","3","3","5","5","5","1","0","1","1","0","1","1","1","1","1","-1","0","1","0","1","2","5","5","1","3","2","4","4","3","2","558365014109454336","杜","","","","","","","","","","","","","","","","","","","","","","","","","","","","","","feedback_test","","","","","","","","","",""
"682","","f","psychophysics","145","332393","0.0-7.0-0.0-4.0-0.0-0.19","2","2","3","2","2","2","2","2","2","2","3","4","3","2","3","2","2","2","3","3","4","5","1","2","3","3","5","5","5","1","0","1","1","0","1","1","1","1","1","-1","0","1","0","1","2","5","5","1","3","2","4","4","3","2","558365014109454336","杜","","","","match","","","","","","","","","","","","","","key","f","16.65847000000009","768","428","f","true","match","img/diamond.png","菱形","菱形","ALT1","formal_ALT1_1","","","","","","","","","",""
"null","<span style='color:GreenYellow; font-size: 70px;'>正确! </span>","null","html-keyboard-response","146","332895","0.0-7.0-0.0-4.0-0.0-1.19","2","2","3","2","2","2","2","2","2","2","3","4","3","2","3","2","2","2","3","3","4","5","1","2","3","3","5","5","5","1","0","1","1","0","1","1","1","1","1","-1","0","1","0","1","2","5","5","1","3","2","4","4","3","2","558365014109454336","杜","","","","","","","","","","","","","","","","","","","","","","","","","","","","","","feedback_test","","","","","","","","","",""
"679","","j","psychophysics","147","334576","0.0-7.0-0.0-4.0-0.0-0.20","2","2","3","2","2","2","2","2","2","2","3","4","3","2","3","2","2","2","3","3","4","5","1","2","3","3","5","5","5","1","0","1","1","0","1","1","1","1","1","-1","0","1","0","1","2","5","5","1","3","2","4","4","3","2","558365014109454336","杜","","","","nonmatch","","","","","","","","","","","","","","key","j","16.659857142857415","768","428","j","true","nonmatch","img/trapezoid.png","六边","梯形","ALT1","formal_ALT1_1","","","","","","","","","",""
"null","<span style='color:GreenYellow; font-size: 70px;'>正确! </span>","null","html-keyboard-response","148","335079","0.0-7.0-0.0-4.0-0.0-1.20","2","2","3","2","2","2","2","2","2","2","3","4","3","2","3","2","2","2","3","3","4","5","1","2","3","3","5","5","5","1","0","1","1","0","1","1","1","1","1","-1","0","1","0","1","2","5","5","1","3","2","4","4","3","2","558365014109454336","杜","","","","","","","","","","","","","","","","","","","","","","","","","","","","","","feedback_test","","","","","","","","","",""
"628","","j","psychophysics","149","336709","0.0-7.0-0.0-4.0-0.0-0.21","2","2","3","2","2","2","2","2","2","2","3","4","3","2","3","2","2","2","3","3","4","5","1","2","3","3","5","5","5","1","0","1","1","0","1","1","1","1","1","-1","0","1","0","1","2","5","5","1","3","2","4","4","3","2","558365014109454336","杜","","","","nonmatch","","","","","","","","","","","","","","key","j","16.659298969072065","768","428","f","false","match","img/hexagon.png","六边","六边","ALT1","formal_ALT1_1","","","","","","","","","",""
"null","<span style='color:red; font-size: 70px;'>错误! </span>","null","html-keyboard-response","150","337211","0.0-7.0-0.0-4.0-0.0-1.21","2","2","3","2","2","2","2","2","2","2","3","4","3","2","3","2","2","2","3","3","4","5","1","2","3","3","5","5","5","1","0","1","1","0","1","1","1","1","1","-1","0","1","0","1","2","5","5","1","3","2","4","4","3","2","558365014109454336","杜","","","","","","","","","","","","","","","","","","","","","","","","","","","","","","feedback_test","","","","","","","","","",""
"571","","f","psychophysics","151","338784","0.0-7.0-0.0-4.0-0.0-0.22","2","2","3","2","2","2","2","2","2","2","3","4","3","2","3","2","2","2","3","3","4","5","1","2","3","3","5","5","5","1","0","1","1","0","1","1","1","1","1","-1","0","1","0","1","2","5","5","1","3","2","4","4","3","2","558365014109454336","杜","","","","match","","","","","","","","","","","","","","key","f","16.65882978723397","768","428","f","true","match","img/diamond.png","菱形","菱形","ALT1","formal_ALT1_1","","","","","","","","","",""
"null","<span style='color:GreenYellow; font-size: 70px;'>正确! </span>","null","html-keyboard-response","152","339285","0.0-7.0-0.0-4.0-0.0-1.22","2","2","3","2","2","2","2","2","2","2","3","4","3","2","3","2","2","2","3","3","4","5","1","2","3","3","5","5","5","1","0","1","1","0","1","1","1","1","1","-1","0","1","0","1","2","5","5","1","3","2","4","4","3","2","558365014109454336","杜","","","","","","","","","","","","","","","","","","","","","","","","","","","","","","feedback_test","","","","","","","","","",""
"717","","j","psychophysics","153","341003","0.0-7.0-0.0-4.0-0.0-0.23","2","2","3","2","2","2","2","2","2","2","3","4","3","2","3","2","2","2","3","3","4","5","1","2","3","3","5","5","5","1","0","1","1","0","1","1","1","1","1","-1","0","1","0","1","2","5","5","1","3","2","4","4","3","2","558365014109454336","杜","","","","nonmatch","","","","","","","","","","","","","","key","j","16.659186274510027","768","428","j","true","nonmatch","img/trapezoid.png","菱形","梯形","ALT1","formal_ALT1_1","","","","","","","","","",""
"null","<span style='color:GreenYellow; font-size: 70px;'>正确! </span>","null","html-keyboard-response","154","341504","0.0-7.0-0.0-4.0-0.0-1.23","2","2","3","2","2","2","2","2","2","2","3","4","3","2","3","2","2","2","3","3","4","5","1","2","3","3","5","5","5","1","0","1","1","0","1","1","1","1","1","-1","0","1","0","1","2","5","5","1","3","2","4","4","3","2","558365014109454336","杜","","","","","","","","","","","","","","","","","","","","","","","","","","","","","","feedback_test","","","","","","","","","",""
"517","","f","psychophysics","155","343024","0.0-7.0-0.0-4.0-0.0-0.24","2","2","3","2","2","2","2","2","2","2","3","4","3","2","3","2","2","2","3","3","4","5","1","2","3","3","5","5","5","1","0","1","1","0","1","1","1","1","1","-1","0","1","0","1","2","5","5","1","3","2","4","4","3","2","558365014109454336","杜","","","","match","","","","","","","","","","","","","","key","f","16.659699999999592","768","428","f","true","match","img/circle.png","圆形","圆形","ALT1","formal_ALT1_1","","","","","","","","","",""
"null","<span style='color:GreenYellow; font-size: 70px;'>正确! </span>","null","html-keyboard-response","156","343525","0.0-7.0-0.0-4.0-0.0-1.24","2","2","3","2","2","2","2","2","2","2","3","4","3","2","3","2","2","2","3","3","4","5","1","2","3","3","5","5","5","1","0","1","1","0","1","1","1","1","1","-1","0","1","0","1","2","5","5","1","3","2","4","4","3","2","558365014109454336","杜","","","","","","","","","","","","","","","","","","","","","","","","","","","","","","feedback_test","","","","","","","","","",""
"666","","j","psychophysics","157","345193","0.0-7.0-0.0-4.0-0.0-0.25","2","2","3","2","2","2","2","2","2","2","3","4","3","2","3","2","2","2","3","3","4","5","1","2","3","3","5","5","5","1","0","1","1","0","1","1","1","1","1","-1","0","1","0","1","2","5","5","1","3","2","4","4","3","2","558365014109454336","杜","","","","nonmatch","","","","","","","","","","","","","","key","j","16.661626262626744","768","428","j","true","nonmatch","img/circle.png","菱形","圆形","ALT1","formal_ALT1_1","","","","","","","","","",""
"null","<span style='color:GreenYellow; font-size: 70px;'>正确! </span>","null","html-keyboard-response","158","345695","0.0-7.0-0.0-4.0-0.0-1.25","2","2","3","2","2","2","2","2","2","2","3","4","3","2","3","2","2","2","3","3","4","5","1","2","3","3","5","5","5","1","0","1","1","0","1","1","1","1","1","-1","0","1","0","1","2","5","5","1","3","2","4","4","3","2","558365014109454336","杜","","","","","","","","","","","","","","","","","","","","","","","","","","","","","","feedback_test","","","","","","","","","",""
"790","","j","psychophysics","159","347486","0.0-7.0-0.0-4.0-0.0-0.26","2","2","3","2","2","2","2","2","2","2","3","4","3","2","3","2","2","2","3","3","4","5","1","2","3","3","5","5","5","1","0","1","1","0","1","1","1","1","1","-1","0","1","0","1","2","5","5","1","3","2","4","4","3","2","558365014109454336","杜","","","","nonmatch","","","","","","","","","","","","","","key","j","16.659518867924387","768","428","j","true","nonmatch","img/hexagon.png","梯形","六边","ALT1","formal_ALT1_1","","","","","","","","","",""
"null","<span style='color:GreenYellow; font-size: 70px;'>正确! </span>","null","html-keyboard-response","160","347987","0.0-7.0-0.0-4.0-0.0-1.26","2","2","3","2","2","2","2","2","2","2","3","4","3","2","3","2","2","2","3","3","4","5","1","2","3","3","5","5","5","1","0","1","1","0","1","1","1","1","1","-1","0","1","0","1","2","5","5","1","3","2","4","4","3","2","558365014109454336","杜","","","","","","","","","","","","","","","","","","","","","","","","","","","","","","feedback_test","","","","","","","","","",""
"641","","j","psychophysics","161","349630","0.0-7.0-0.0-4.0-0.0-0.27","2","2","3","2","2","2","2","2","2","2","3","4","3","2","3","2","2","2","3","3","4","5","1","2","3","3","5","5","5","1","0","1","1","0","1","1","1","1","1","-1","0","1","0","1","2","5","5","1","3","2","4","4","3","2","558365014109454336","杜","","","","nonmatch","","","","","","","","","","","","","","key","j","16.662663265306037","768","428","f","false","match","img/hexagon.png","六边","六边","ALT1","formal_ALT1_1","","","","","","","","","",""
"null","<span style='color:red; font-size: 70px;'>错误! </span>","null","html-keyboard-response","162","350131","0.0-7.0-0.0-4.0-0.0-1.27","2","2","3","2","2","2","2","2","2","2","3","4","3","2","3","2","2","2","3","3","4","5","1","2","3","3","5","5","5","1","0","1","1","0","1","1","1","1","1","-1","0","1","0","1","2","5","5","1","3","2","4","4","3","2","558365014109454336","杜","","","","","","","","","","","","","","","","","","","","","","","","","","","","","","feedback_test","","","","","","","","","",""
"746","","j","psychophysics","163","351880","0.0-7.0-0.0-4.0-0.0-0.28","2","2","3","2","2","2","2","2","2","2","3","4","3","2","3","2","2","2","3","3","4","5","1","2","3","3","5","5","5","1","0","1","1","0","1","1","1","1","1","-1","0","1","0","1","2","5","5","1","3","2","4","4","3","2","558365014109454336","杜","","","","nonmatch","","","","","","","","","","","","","","key","j","16.662509615384735","768","428","j","true","nonmatch","img/diamond.png","圆形","菱形","ALT1","formal_ALT1_1","","","","","","","","","",""
"null","<span style='color:GreenYellow; font-size: 70px;'>正确! </span>","null","html-keyboard-response","164","352382","0.0-7.0-0.0-4.0-0.0-1.28","2","2","3","2","2","2","2","2","2","2","3","4","3","2","3","2","2","2","3","3","4","5","1","2","3","3","5","5","5","1","0","1","1","0","1","1","1","1","1","-1","0","1","0","1","2","5","5","1","3","2","4","4","3","2","558365014109454336","杜","","","","","","","","","","","","","","","","","","","","","","","","","","","","","","feedback_test","","","","","","","","","",""
"896","","f","psychophysics","165","354281","0.0-7.0-0.0-4.0-0.0-0.29","2","2","3","2","2","2","2","2","2","2","3","4","3","2","3","2","2","2","3","3","4","5","1","2","3","3","5","5","5","1","0","1","1","0","1","1","1","1","1","-1","0","1","0","1","2","5","5","1","3","2","4","4","3","2","558365014109454336","杜","","","","match","","","","","","","","","","","","","","key","f","16.6609292035398","768","428","j","false","nonmatch","img/trapezoid.png","菱形","梯形","ALT1","formal_ALT1_1","","","","","","","","","",""
"null","<span style='color:red; font-size: 70px;'>错误! </span>","null","html-keyboard-response","166","354783","0.0-7.0-0.0-4.0-0.0-1.29","2","2","3","2","2","2","2","2","2","2","3","4","3","2","3","2","2","2","3","3","4","5","1","2","3","3","5","5","5","1","0","1","1","0","1","1","1","1","1","-1","0","1","0","1","2","5","5","1","3","2","4","4","3","2","558365014109454336","杜","","","","","","","","","","","","","","","","","","","","","","","","","","","","","","feedback_test","","","","","","","","","",""
"611","","f","psychophysics","167","356398","0.0-7.0-0.0-4.0-0.0-0.30","2","2","3","2","2","2","2","2","2","2","3","4","3","2","3","2","2","2","3","3","4","5","1","2","3","3","5","5","5","1","0","1","1","0","1","1","1","1","1","-1","0","1","0","1","2","5","5","1","3","2","4","4","3","2","558365014109454336","杜","","","","match","","","","","","","","","","","","","","key","f","16.660062499999793","768","428","f","true","match","img/circle.png","圆形","圆形","ALT1","formal_ALT1_1","","","","","","","","","",""
"null","<span style='color:GreenYellow; font-size: 70px;'>正确! </span>","null","html-keyboard-response","168","356900","0.0-7.0-0.0-4.0-0.0-1.30","2","2","3","2","2","2","2","2","2","2","3","4","3","2","3","2","2","2","3","3","4","5","1","2","3","3","5","5","5","1","0","1","1","0","1","1","1","1","1","-1","0","1","0","1","2","5","5","1","3","2","4","4","3","2","558365014109454336","杜","","","","","","","","","","","","","","","","","","","","","","","","","","","","","","feedback_test","","","","","","","","","",""
"720","","j","psychophysics","169","358623","0.0-7.0-0.0-4.0-0.0-0.31","2","2","3","2","2","2","2","2","2","2","3","4","3","2","3","2","2","2","3","3","4","5","1","2","3","3","5","5","5","1","0","1","1","0","1","1","1","1","1","-1","0","1","0","1","2","5","5","1","3","2","4","4","3","2","558365014109454336","杜","","","","nonmatch","","","","","","","","","","","","","","key","j","16.659578431372566","768","428","j","true","nonmatch","img/hexagon.png","圆形","六边","ALT1","formal_ALT1_1","","","","","","","","","",""
"null","<span style='color:GreenYellow; font-size: 70px;'>正确! </span>","null","html-keyboard-response","170","359125","0.0-7.0-0.0-4.0-0.0-1.31","2","2","3","2","2","2","2","2","2","2","3","4","3","2","3","2","2","2","3","3","4","5","1","2","3","3","5","5","5","1","0","1","1","0","1","1","1","1","1","-1","0","1","0","1","2","5","5","1","3","2","4","4","3","2","558365014109454336","杜","","","","","","","","","","","","","","","","","","","","","","","","","","","","","","feedback_test","","","","","","","","","",""
"688","","f","psychophysics","171","360816","0.0-7.0-0.0-4.0-0.0-0.32","2","2","3","2","2","2","2","2","2","2","3","4","3","2","3","2","2","2","3","3","4","5","1","2","3","3","5","5","5","1","0","1","1","0","1","1","1","1","1","-1","0","1","0","1","2","5","5","1","3","2","4","4","3","2","558365014109454336","杜","","","","match","","","","","","","","","","","","","","key","f","16.66255999999994","768","428","f","true","match","img/diamond.png","菱形","菱形","ALT1","formal_ALT1_1","","","","","","","","","",""
"null","<span style='color:GreenYellow; font-size: 70px;'>正确! </span>","null","html-keyboard-response","172","361319","0.0-7.0-0.0-4.0-0.0-1.32","2","2","3","2","2","2","2","2","2","2","3","4","3","2","3","2","2","2","3","3","4","5","1","2","3","3","5","5","5","1","0","1","1","0","1","1","1","1","1","-1","0","1","0","1","2","5","5","1","3","2","4","4","3","2","558365014109454336","杜","","","","","","","","","","","","","","","","","","","","","","","","","","","","","","feedback_test","","","","","","","","","",""
"644","","j","psychophysics","173","362966","0.0-7.0-0.0-4.0-0.0-0.33","2","2","3","2","2","2","2","2","2","2","3","4","3","2","3","2","2","2","3","3","4","5","1","2","3","3","5","5","5","1","0","1","1","0","1","1","1","1","1","-1","0","1","0","1","2","5","5","1","3","2","4","4","3","2","558365014109454336","杜","","","","nonmatch","","","","","","","","","","","","","","key","j","16.66246875000009","768","428","f","false","match","img/diamond.png","菱形","菱形","ALT1","formal_ALT1_1","","","","","","","","","",""
"null","<span style='color:red; font-size: 70px;'>错误! </span>","null","html-keyboard-response","174","363469","0.0-7.0-0.0-4.0-0.0-1.33","2","2","3","2","2","2","2","2","2","2","3","4","3","2","3","2","2","2","3","3","4","5","1","2","3","3","5","5","5","1","0","1","1","0","1","1","1","1","1","-1","0","1","0","1","2","5","5","1","3","2","4","4","3","2","558365014109454336","杜","","","","","","","","","","","","","","","","","","","","","","","","","","","","","","feedback_test","","","","","","","","","",""
"625","","j","psychophysics","175","365095","0.0-7.0-0.0-4.0-0.0-0.34","2","2","3","2","2","2","2","2","2","2","3","4","3","2","3","2","2","2","3","3","4","5","1","2","3","3","5","5","5","1","0","1","1","0","1","1","1","1","1","-1","0","1","0","1","2","5","5","1","3","2","4","4","3","2","558365014109454336","杜","","","","nonmatch","","","","","","","","","","","","","","key","j","16.65984374999971","768","428","f","false","match","img/hexagon.png","六边","六边","ALT1","formal_ALT1_1","","","","","","","","","",""
"null","<span style='color:red; font-size: 70px;'>错误! </span>","null","html-keyboard-response","176","365598","0.0-7.0-0.0-4.0-0.0-1.34","2","2","3","2","2","2","2","2","2","2","3","4","3","2","3","2","2","2","3","3","4","5","1","2","3","3","5","5","5","1","0","1","1","0","1","1","1","1","1","-1","0","1","0","1","2","5","5","1","3","2","4","4","3","2","558365014109454336","杜","","","","","","","","","","","","","","","","","","","","","","","","","","","","","","feedback_test","","","","","","","","","",""
"758","","f","psychophysics","177","367359","0.0-7.0-0.0-4.0-0.0-0.35","2","2","3","2","2","2","2","2","2","2","3","4","3","2","3","2","2","2","3","3","4","5","1","2","3","3","5","5","5","1","0","1","1","0","1","1","1","1","1","-1","0","1","0","1","2","5","5","1","3","2","4","4","3","2","558365014109454336","杜","","","","match","","","","","","","","","","","","","","key","f","16.660104761905192","768","428","f","true","match","img/hexagon.png","六边","六边","ALT1","formal_ALT1_1","","","","","","","","","",""
"null","<span style='color:GreenYellow; font-size: 70px;'>正确! </span>","null","html-keyboard-response","178","367860","0.0-7.0-0.0-4.0-0.0-1.35","2","2","3","2","2","2","2","2","2","2","3","4","3","2","3","2","2","2","3","3","4","5","1","2","3","3","5","5","5","1","0","1","1","0","1","1","1","1","1","-1","0","1","0","1","2","5","5","1","3","2","4","4","3","2","558365014109454336","杜","","","","","","","","","","","","","","","","","","","","","","","","","","","","","","feedback_test","","","","","","","","","",""
"691","","j","psychophysics","179","369553","0.0-7.0-0.0-4.0-0.0-0.36","2","2","3","2","2","2","2","2","2","2","3","4","3","2","3","2","2","2","3","3","4","5","1","2","3","3","5","5","5","1","0","1","1","0","1","1","1","1","1","-1","0","1","0","1","2","5","5","1","3","2","4","4","3","2","558365014109454336","杜","","","","nonmatch","","","","","","","","","","","","","","key","j","16.660559999999823","768","428","j","true","nonmatch","img/diamond.png","六边","菱形","ALT1","formal_ALT1_1","","","","","","","","","",""
"null","<span style='color:GreenYellow; font-size: 70px;'>正确! </span>","null","html-keyboard-response","180","370056","0.0-7.0-0.0-4.0-0.0-1.36","2","2","3","2","2","2","2","2","2","2","3","4","3","2","3","2","2","2","3","3","4","5","1","2","3","3","5","5","5","1","0","1","1","0","1","1","1","1","1","-1","0","1","0","1","2","5","5","1","3","2","4","4","3","2","558365014109454336","杜","","","","","","","","","","","","","","","","","","","","","","","","","","","","","","feedback_test","","","","","","","","","",""
"630","","f","psychophysics","181","371689","0.0-7.0-0.0-4.0-0.0-0.37","2","2","3","2","2","2","2","2","2","2","3","4","3","2","3","2","2","2","3","3","4","5","1","2","3","3","5","5","5","1","0","1","1","0","1","1","1","1","1","-1","0","1","0","1","2","5","5","1","3","2","4","4","3","2","558365014109454336","杜","","","","match","","","","","","","","","","","","","","key","f","16.661938144329735","768","428","f","true","match","img/trapezoid.png","梯形","梯形","ALT1","formal_ALT1_1","","","","","","","","","",""
"null","<span style='color:GreenYellow; font-size: 70px;'>正确! </span>","null","html-keyboard-response","182","372189","0.0-7.0-0.0-4.0-0.0-1.37","2","2","3","2","2","2","2","2","2","2","3","4","3","2","3","2","2","2","3","3","4","5","1","2","3","3","5","5","5","1","0","1","1","0","1","1","1","1","1","-1","0","1","0","1","2","5","5","1","3","2","4","4","3","2","558365014109454336","杜","","","","","","","","","","","","","","","","","","","","","","","","","","","","","","feedback_test","","","","","","","","","",""
"611","","f","psychophysics","183","373803","0.0-7.0-0.0-4.0-0.0-0.38","2","2","3","2","2","2","2","2","2","2","3","4","3","2","3","2","2","2","3","3","4","5","1","2","3","3","5","5","5","1","0","1","1","0","1","1","1","1","1","-1","0","1","0","1","2","5","5","1","3","2","4","4","3","2","558365014109454336","杜","","","","match","","","","","","","","","","","","","","key","f","16.6617291666668","768","428","f","true","match","img/trapezoid.png","梯形","梯形","ALT1","formal_ALT1_1","","","","","","","","","",""
"null","<span style='color:GreenYellow; font-size: 70px;'>正确! </span>","null","html-keyboard-response","184","374305","0.0-7.0-0.0-4.0-0.0-1.38","2","2","3","2","2","2","2","2","2","2","3","4","3","2","3","2","2","2","3","3","4","5","1","2","3","3","5","5","5","1","0","1","1","0","1","1","1","1","1","-1","0","1","0","1","2","5","5","1","3","2","4","4","3","2","558365014109454336","杜","","","","","","","","","","","","","","","","","","","","","","","","","","","","","","feedback_test","","","","","","","","","",""
"700","","f","psychophysics","185","376008","0.0-7.0-0.0-4.0-0.0-0.39","2","2","3","2","2","2","2","2","2","2","3","4","3","2","3","2","2","2","3","3","4","5","1","2","3","3","5","5","5","1","0","1","1","0","1","1","1","1","1","-1","0","1","0","1","2","5","5","1","3","2","4","4","3","2","558365014109454336","杜","","","","match","","","","","","","","","","","","","","key","f","16.66352475247528","768","428","f","true","match","img/diamond.png","菱形","菱形","ALT1","formal_ALT1_1","","","","","","","","","",""
"null","<span style='color:GreenYellow; font-size: 70px;'>正确! </span>","null","html-keyboard-response","186","376509","0.0-7.0-0.0-4.0-0.0-1.39","2","2","3","2","2","2","2","2","2","2","3","4","3","2","3","2","2","2","3","3","4","5","1","2","3","3","5","5","5","1","0","1","1","0","1","1","1","1","1","-1","0","1","0","1","2","5","5","1","3","2","4","4","3","2","558365014109454336","杜","","","","","","","","","","","","","","","","","","","","","","","","","","","","","","feedback_test","","","","","","","","","",""
