"rt","stimulus","response","trial_type","trial_index","time_elapsed","internal_node_id","ses_1","ses_2","ses_3","ses_4","ses_5","ses_6","ses_7","ses_8","ses_9","ses_10","coreself_1","coreself_2","coreself_3","coreself_4","coreself_5","coreself_6","coreself_7","coreself_8","coreself_9","coreself_10","SGPS_1","SGPS_2","SGPS_3","SGPS_4","SGPS_5","SGPS_6","SGPS_7","SGPS_8","SGPS_9","NPI1","NPI2","NPI3","NPI4","NPI5","NPI6","NPI7","NPI8","NPI9","NPI10","NPI11","NPI12","NPI13","NPI14","NPI15","hsns_1","hsns_2","hsns_3","hsns_4","hsns_5","hsns_6","hsns_7","hsns_8","hsns_9","hsns_10","subj_idx","friend_name","value","success","user_agent","responses","item_order","radio_event_ids","radio_event_times","key_event_times","mouse_event_times","straightlining","zigzagging","honeypot","timeout","failed_images","failed_audio","failed_video","view_history","response_type","key_press","avg_frame_time","center_x","center_y","correct_response","correct","identity","Image","word","condition","task_id","screen_id","time_stamp","version_attrib2","version_target2","IAT","RT","varname","summary","version_attrib","version_target","question_order"
"2580","
   <p><div style = ""color: white;font-size:25px;"">您好，欢迎参加本次实验。</div> </p>
   <p><div style = ""color: white;font-size:25px;"">为充分保障您的权利，请确保您已经知晓并同意《参与实验同意书》以及《数据公开知情同意书》。</div></p>
   <p><div style = ""color: white;font-size:25px;"">如果您未见过上述内容，请咨询实验员。</div></p>
   <p><div style = ""color: white;font-size:25px;"">如果您选择继续实验，则表示您已经清楚两份知情同意书的内容并同意。</div></p>
   <p> <div style = ""color: green;font-size:25px;""><按空格键至下页></div> </p>
   "," ","html-keyboard-response","0","2584","0.0-0.0","3","4","4","3","3","3","4","3","4","4","4","3","2","4","5","4","4","5","4","4","1","1","2","1","2","2","1","3","1","1","0","1","1","0","0","1","1","1","1","-1","0","0","0","1","4","2","4","1","3","2","3","3","4","4","613040465838604288","庄","","","","","","","","","","","","","","","","","","","","","","","","","","","","","","","","","","","","","","","",""
"","","","call-function","1","2586","0.0-1.0-0.0","3","4","4","3","3","3","4","3","4","4","4","3","2","4","5","4","4","5","4","4","1","1","2","1","2","2","1","3","1","1","0","1","1","0","0","1","1","1","1","-1","0","0","0","1","4","2","4","1","3","2","3","3","4","4","613040465838604288","庄","","","","","","","","","","","","","","","","","","","","","","","","","","","","","","","","","","","","","","","",""
"47154","","{""friend_name"":""庄""}","survey-html-form","2","49740","0.0-1.0-1.0","3","4","4","3","3","3","4","3","4","4","4","3","2","4","5","4","4","5","4","4","1","1","2","1","2","2","1","3","1","1","0","1","1","0","0","1","1","1","1","-1","0","0","0","1","4","2","4","1","3","2","3","3","4","4","613040465838604288","庄","","","","","","","","","","","","","","","","","","","","","","","","","","","","","","","","","","","","","","","",""
"","","","fullscreen","3","60923","0.0-2.0","3","4","4","3","3","3","4","3","4","4","4","3","2","4","5","4","4","5","4","4","1","1","2","1","2","2","1","3","1","1","0","1","1","0","0","1","1","1","1","-1","0","0","0","1","4","2","4","1","3","2","3","3","4","4","613040465838604288","庄","","true","{}","","","","","","","","","","","","","","","","","","","","","","","","","","","","","","","","","","","","",""
"22144","","{""Q01"":""3"",""Q02"":""4"",""Q03"":""4"",""Q04"":""3"",""Q05"":""3"",""Q06"":""3"",""Q07"":""4"",""Q08"":""3"",""Q09"":""4"",""Q10"":""4""}","survey-template","4","83069","0.0-3.0","3","4","4","3","3","3","4","3","4","4","4","3","2","4","5","4","4","5","4","4","1","1","2","1","2","2","1","3","1","1","0","1","1","0","0","1","1","1","1","-1","0","0","0","1","4","2","4","1","3","2","3","3","4","4","613040465838604288","庄","","","","{""Q01"":""3"",""Q02"":""4"",""Q03"":""4"",""Q04"":""3"",""Q05"":""3"",""Q06"":""3"",""Q07"":""4"",""Q08"":""3"",""Q09"":""4"",""Q10"":""4""}","[0,1,2,3,4,5,6,7,8,9]","[""Q01"",""Q02"",""Q03"",""Q04"",""Q05"",""Q06"",""Q07"",""Q08"",""Q08"",""Q09"",""Q10""]","[2823,4286.900000095367,7758.700000286102,8759.599999904633,10071.099999904633,11615.599999904633,14574.800000190735,16302.800000190735,17135.599999904633,20334.700000286102,20975]","[]","[2823,4286.900000095367,5822.900000095367,7758.700000286102,8759.599999904633,10071.099999904633,11615.599999904633,13087,14574.800000190735,16302.800000190735,17135.599999904633,19094.900000095367,20334.700000286102,20975,22142.800000190735]","0.3","0.6666666666666666","0","","","","","","","","","","","","","","","","","","","","","","","","","","","",""
"61658.199999809265","","{""Q01"":""4"",""Q02"":""3"",""Q03"":""2"",""Q04"":""4"",""Q05"":""5"",""Q06"":""4"",""Q07"":""4"",""Q08"":""5"",""Q09"":""4"",""Q10"":""4""}","survey-template","5","144734","0.0-4.0","3","4","4","3","3","3","4","3","4","4","4","3","2","4","5","4","4","5","4","4","1","1","2","1","2","2","1","3","1","1","0","1","1","0","0","1","1","1","1","-1","0","0","0","1","4","2","4","1","3","2","3","3","4","4","613040465838604288","庄","","","","{""Q01"":""4"",""Q02"":""3"",""Q03"":""2"",""Q04"":""4"",""Q05"":""5"",""Q06"":""4"",""Q07"":""4"",""Q08"":""5"",""Q09"":""4"",""Q10"":""4""}","[0,1,2,3,4,5,6,7,8,9]","[""Q01"",""Q02"",""Q03"",""Q04"",""Q05"",""Q06"",""Q07"",""Q08"",""Q09"",""Q10""]","[4521.699999809265,5209.099999904633,7777.199999809265,9233.299999713898,13793.400000095367,14857,20633.400000095367,25393,58753.199999809265,60849.199999809265]","[]","[2729,4521.699999809265,5209.099999904633,7777.199999809265,8585.099999904633,9233.299999713898,12217.5,13793.400000095367,14857,20633.400000095367,24480.900000095367,25393,58753.199999809265,60849.199999809265,61657]","0.5","0.3333333333333333","0","","","","","","","","","","","","","","","","","","","","","","","","","","","",""
"","","","preload","6","145110","0.0-5.0","3","4","4","3","3","3","4","3","4","4","4","3","2","4","5","4","4","5","4","4","1","1","2","1","2","2","1","3","1","1","0","1","1","0","0","1","1","1","1","-1","0","0","0","1","4","2","4","1","3","2","3","3","4","4","613040465838604288","庄","","true","","","","","","","","","","","false","[]","[]","[]","","","","","","","","","","","","","","","","","","","","","","","",""
"8934","","","instructions","7","154044","0.0-6.0","3","4","4","3","3","3","4","3","4","4","4","3","2","4","5","4","4","5","4","4","1","1","2","1","2","2","1","3","1","1","0","1","1","0","0","1","1","1","1","-1","0","0","0","1","4","2","4","1","3","2","3","3","4","4","613040465838604288","庄","","","","","","","","","","","","","","","","","[{""page_index"":0,""viewing_time"":8934}]","","","","","","","","","","","","","","","","","","","","","","",""
"38262","","","instructions","8","192308","0.0-7.0-1.0-0.0","3","4","4","3","3","3","4","3","4","4","4","3","2","4","5","4","4","5","4","4","1","1","2","1","2","2","1","3","1","1","0","1","1","0","0","1","1","1","1","-1","0","0","0","1","4","2","4","1","3","2","3","3","4","4","613040465838604288","庄","","","","","","","","","","","","","","","","","[{""page_index"":0,""viewing_time"":29486},{""page_index"":1,""viewing_time"":6960},{""page_index"":2,""viewing_time"":1816}]","","","","","","","","","","","","","","","","","","","","","","",""
"835","","f","psychophysics","9","194147","0.0-7.0-1.0-1.0-0.0-0.0","3","4","4","3","3","3","4","3","4","4","4","3","2","4","5","4","4","5","4","4","1","1","2","1","2","2","1","3","1","1","0","1","1","0","0","1","1","1","1","-1","0","0","0","1","4","2","4","1","3","2","3","3","4","4","613040465838604288","庄","","","","match","","","","","","","","","","","","","","key","f","16.66654128440359","800","446","f","true","match","img/triangle.png","三角","三角","ALT1_2","prac_ALT1_2","","","","","","","","","",""
"null","<span style='color:GreenYellow; font-size: 70px;'>正确! </span>","null","html-keyboard-response","10","194651","0.0-7.0-1.0-1.0-0.0-1.0","3","4","4","3","3","3","4","3","4","4","4","3","2","4","5","4","4","5","4","4","1","1","2","1","2","2","1","3","1","1","0","1","1","0","0","1","1","1","1","-1","0","0","0","1","4","2","4","1","3","2","3","3","4","4","613040465838604288","庄","","","","","","","","","","","","","","","","","","","","","","","","","","","","","","feedback_test","","","","","","","","","",""
"858","","f","psychophysics","11","196516","0.0-7.0-1.0-1.0-0.0-0.1","3","4","4","3","3","3","4","3","4","4","4","3","2","4","5","4","4","5","4","4","1","1","2","1","2","2","1","3","1","1","0","1","1","0","0","1","1","1","1","-1","0","0","0","1","4","2","4","1","3","2","3","3","4","4","613040465838604288","庄","","","","match","","","","","","","","","","","","","","key","f","16.666909909909926","800","446","f","true","match","img/pentagon.png","五边","五边","ALT1_2","prac_ALT1_2","","","","","","","","","",""
"null","<span style='color:GreenYellow; font-size: 70px;'>正确! </span>","null","html-keyboard-response","12","197019","0.0-7.0-1.0-1.0-0.0-1.1","3","4","4","3","3","3","4","3","4","4","4","3","2","4","5","4","4","5","4","4","1","1","2","1","2","2","1","3","1","1","0","1","1","0","0","1","1","1","1","-1","0","0","0","1","4","2","4","1","3","2","3","3","4","4","613040465838604288","庄","","","","","","","","","","","","","","","","","","","","","","","","","","","","","","feedback_test","","","","","","","","","",""
"590","","j","psychophysics","13","198615","0.0-7.0-1.0-1.0-0.0-0.2","3","4","4","3","3","3","4","3","4","4","4","3","2","4","5","4","4","5","4","4","1","1","2","1","2","2","1","3","1","1","0","1","1","0","0","1","1","1","1","-1","0","0","0","1","4","2","4","1","3","2","3","3","4","4","613040465838604288","庄","","","","nonmatch","","","","","","","","","","","","","","key","j","16.666905263157894","800","446","f","false","match","img/ellipse.png","椭圆","椭圆","ALT1_2","prac_ALT1_2","","","","","","","","","",""
"null","<span style='color:red; font-size: 70px;'>错误! </span>","null","html-keyboard-response","14","199135","0.0-7.0-1.0-1.0-0.0-1.2","3","4","4","3","3","3","4","3","4","4","4","3","2","4","5","4","4","5","4","4","1","1","2","1","2","2","1","3","1","1","0","1","1","0","0","1","1","1","1","-1","0","0","0","1","4","2","4","1","3","2","3","3","4","4","613040465838604288","庄","","","","","","","","","","","","","","","","","","","","","","","","","","","","","","feedback_test","","","","","","","","","",""
"1232","","j","psychophysics","15","201371","0.0-7.0-1.0-1.0-0.0-0.3","3","4","4","3","3","3","4","3","4","4","4","3","2","4","5","4","4","5","4","4","1","1","2","1","2","2","1","3","1","1","0","1","1","0","0","1","1","1","1","-1","0","0","0","1","4","2","4","1","3","2","3","3","4","4","613040465838604288","庄","","","","nonmatch","","","","","","","","","","","","","","key","j","16.666938931297757","800","446","j","true","nonmatch","img/pentagon.png","菱形","五边","ALT1_2","prac_ALT1_2","","","","","","","","","",""
"null","<span class='add_' style='color:yellow; font-size: 70px;'> 太慢! </span>","null","html-keyboard-response","16","201874","0.0-7.0-1.0-1.0-0.0-1.3","3","4","4","3","3","3","4","3","4","4","4","3","2","4","5","4","4","5","4","4","1","1","2","1","2","2","1","3","1","1","0","1","1","0","0","1","1","1","1","-1","0","0","0","1","4","2","4","1","3","2","3","3","4","4","613040465838604288","庄","","","","","","","","","","","","","","","","","","","","","","","","","","","","","","feedback_test","","","","","","","","","",""
"994","","f","psychophysics","17","203877","0.0-7.0-1.0-1.0-0.0-0.4","3","4","4","3","3","3","4","3","4","4","4","3","2","4","5","4","4","5","4","4","1","1","2","1","2","2","1","3","1","1","0","1","1","0","0","1","1","1","1","-1","0","0","0","1","4","2","4","1","3","2","3","3","4","4","613040465838604288","庄","","","","match","","","","","","","","","","","","","","key","f","16.667110169491625","800","446","f","true","match","img/ellipse.png","椭圆","椭圆","ALT1_2","prac_ALT1_2","","","","","","","","","",""
"null","<span style='color:GreenYellow; font-size: 70px;'>正确! </span>","null","html-keyboard-response","18","204379","0.0-7.0-1.0-1.0-0.0-1.4","3","4","4","3","3","3","4","3","4","4","4","3","2","4","5","4","4","5","4","4","1","1","2","1","2","2","1","3","1","1","0","1","1","0","0","1","1","1","1","-1","0","0","0","1","4","2","4","1","3","2","3","3","4","4","613040465838604288","庄","","","","","","","","","","","","","","","","","","","","","","","","","","","","","","feedback_test","","","","","","","","","",""
"650","","f","psychophysics","19","206036","0.0-7.0-1.0-1.0-0.0-0.5","3","4","4","3","3","3","4","3","4","4","4","3","2","4","5","4","4","5","4","4","1","1","2","1","2","2","1","3","1","1","0","1","1","0","0","1","1","1","1","-1","0","0","0","1","4","2","4","1","3","2","3","3","4","4","613040465838604288","庄","","","","match","","","","","","","","","","","","","","key","f","16.667193877551114","800","446","f","true","match","img/ellipse.png","椭圆","椭圆","ALT1_2","prac_ALT1_2","","","","","","","","","",""
"null","<span style='color:GreenYellow; font-size: 70px;'>正确! </span>","null","html-keyboard-response","20","206540","0.0-7.0-1.0-1.0-0.0-1.5","3","4","4","3","3","3","4","3","4","4","4","3","2","4","5","4","4","5","4","4","1","1","2","1","2","2","1","3","1","1","0","1","1","0","0","1","1","1","1","-1","0","0","0","1","4","2","4","1","3","2","3","3","4","4","613040465838604288","庄","","","","","","","","","","","","","","","","","","","","","","","","","","","","","","feedback_test","","","","","","","","","",""
"783","","f","psychophysics","21","208326","0.0-7.0-1.0-1.0-0.0-0.6","3","4","4","3","3","3","4","3","4","4","4","3","2","4","5","4","4","5","4","4","1","1","2","1","2","2","1","3","1","1","0","1","1","0","0","1","1","1","1","-1","0","0","0","1","4","2","4","1","3","2","3","3","4","4","613040465838604288","庄","","","","match","","","","","","","","","","","","","","key","f","16.66669158878514","800","446","f","true","match","img/pentagon.png","五边","五边","ALT1_2","prac_ALT1_2","","","","","","","","","",""
"null","<span style='color:GreenYellow; font-size: 70px;'>正确! </span>","null","html-keyboard-response","22","208835","0.0-7.0-1.0-1.0-0.0-1.6","3","4","4","3","3","3","4","3","4","4","4","3","2","4","5","4","4","5","4","4","1","1","2","1","2","2","1","3","1","1","0","1","1","0","0","1","1","1","1","-1","0","0","0","1","4","2","4","1","3","2","3","3","4","4","613040465838604288","庄","","","","","","","","","","","","","","","","","","","","","","","","","","","","","","feedback_test","","","","","","","","","",""
"719","","f","psychophysics","23","210561","0.0-7.0-1.0-1.0-0.0-0.7","3","4","4","3","3","3","4","3","4","4","4","3","2","4","5","4","4","5","4","4","1","1","2","1","2","2","1","3","1","1","0","1","1","0","0","1","1","1","1","-1","0","0","0","1","4","2","4","1","3","2","3","3","4","4","613040465838604288","庄","","","","match","","","","","","","","","","","","","","key","f","16.667631067961196","800","446","j","false","nonmatch","img/ellipse.png","菱形","椭圆","ALT1_2","prac_ALT1_2","","","","","","","","","",""
"null","<span style='color:red; font-size: 70px;'>错误! </span>","null","html-keyboard-response","24","211067","0.0-7.0-1.0-1.0-0.0-1.7","3","4","4","3","3","3","4","3","4","4","4","3","2","4","5","4","4","5","4","4","1","1","2","1","2","2","1","3","1","1","0","1","1","0","0","1","1","1","1","-1","0","0","0","1","4","2","4","1","3","2","3","3","4","4","613040465838604288","庄","","","","","","","","","","","","","","","","","","","","","","","","","","","","","","feedback_test","","","","","","","","","",""
"716","","f","psychophysics","25","212791","0.0-7.0-1.0-1.0-0.0-0.8","3","4","4","3","3","3","4","3","4","4","4","3","2","4","5","4","4","5","4","4","1","1","2","1","2","2","1","3","1","1","0","1","1","0","0","1","1","1","1","-1","0","0","0","1","4","2","4","1","3","2","3","3","4","4","613040465838604288","庄","","","","match","","","","","","","","","","","","","","key","f","16.666931372549037","800","446","f","true","match","img/pentagon.png","五边","五边","ALT1_2","prac_ALT1_2","","","","","","","","","",""
"null","<span style='color:GreenYellow; font-size: 70px;'>正确! </span>","null","html-keyboard-response","26","213299","0.0-7.0-1.0-1.0-0.0-1.8","3","4","4","3","3","3","4","3","4","4","4","3","2","4","5","4","4","5","4","4","1","1","2","1","2","2","1","3","1","1","0","1","1","0","0","1","1","1","1","-1","0","0","0","1","4","2","4","1","3","2","3","3","4","4","613040465838604288","庄","","","","","","","","","","","","","","","","","","","","","","","","","","","","","","feedback_test","","","","","","","","","",""
"806","","j","psychophysics","27","215114","0.0-7.0-1.0-1.0-0.0-0.9","3","4","4","3","3","3","4","3","4","4","4","3","2","4","5","4","4","5","4","4","1","1","2","1","2","2","1","3","1","1","0","1","1","0","0","1","1","1","1","-1","0","0","0","1","4","2","4","1","3","2","3","3","4","4","613040465838604288","庄","","","","nonmatch","","","","","","","","","","","","","","key","j","16.66724999999995","800","446","j","true","nonmatch","img/pentagon.png","椭圆","五边","ALT1_2","prac_ALT1_2","","","","","","","","","",""
"null","<span style='color:GreenYellow; font-size: 70px;'>正确! </span>","null","html-keyboard-response","28","215619","0.0-7.0-1.0-1.0-0.0-1.9","3","4","4","3","3","3","4","3","4","4","4","3","2","4","5","4","4","5","4","4","1","1","2","1","2","2","1","3","1","1","0","1","1","0","0","1","1","1","1","-1","0","0","0","1","4","2","4","1","3","2","3","3","4","4","613040465838604288","庄","","","","","","","","","","","","","","","","","","","","","","","","","","","","","","feedback_test","","","","","","","","","",""
"782","","j","psychophysics","29","217407","0.0-7.0-1.0-1.0-0.0-0.10","3","4","4","3","3","3","4","3","4","4","4","3","2","4","5","4","4","5","4","4","1","1","2","1","2","2","1","3","1","1","0","1","1","0","0","1","1","1","1","-1","0","0","0","1","4","2","4","1","3","2","3","3","4","4","613040465838604288","庄","","","","nonmatch","","","","","","","","","","","","","","key","j","16.66640566037732","800","446","j","true","nonmatch","img/ellipse.png","三角","椭圆","ALT1_2","prac_ALT1_2","","","","","","","","","",""
"null","<span style='color:GreenYellow; font-size: 70px;'>正确! </span>","null","html-keyboard-response","30","217915","0.0-7.0-1.0-1.0-0.0-1.10","3","4","4","3","3","3","4","3","4","4","4","3","2","4","5","4","4","5","4","4","1","1","2","1","2","2","1","3","1","1","0","1","1","0","0","1","1","1","1","-1","0","0","0","1","4","2","4","1","3","2","3","3","4","4","613040465838604288","庄","","","","","","","","","","","","","","","","","","","","","","","","","","","","","","feedback_test","","","","","","","","","",""
"770","","f","psychophysics","31","219694","0.0-7.0-1.0-1.0-0.0-0.11","3","4","4","3","3","3","4","3","4","4","4","3","2","4","5","4","4","5","4","4","1","1","2","1","2","2","1","3","1","1","0","1","1","0","0","1","1","1","1","-1","0","0","0","1","4","2","4","1","3","2","3","3","4","4","613040465838604288","庄","","","","match","","","","","","","","","","","","","","key","f","16.667018867924508","800","446","j","false","nonmatch","img/diamond.png","五边","菱形","ALT1_2","prac_ALT1_2","","","","","","","","","",""
"null","<span style='color:red; font-size: 70px;'>错误! </span>","null","html-keyboard-response","32","220195","0.0-7.0-1.0-1.0-0.0-1.11","3","4","4","3","3","3","4","3","4","4","4","3","2","4","5","4","4","5","4","4","1","1","2","1","2","2","1","3","1","1","0","1","1","0","0","1","1","1","1","-1","0","0","0","1","4","2","4","1","3","2","3","3","4","4","613040465838604288","庄","","","","","","","","","","","","","","","","","","","","","","","","","","","","","","feedback_test","","","","","","","","","",""
"718","","f","psychophysics","33","221922","0.0-7.0-1.0-1.0-0.0-0.12","3","4","4","3","3","3","4","3","4","4","4","3","2","4","5","4","4","5","4","4","1","1","2","1","2","2","1","3","1","1","0","1","1","0","0","1","1","1","1","-1","0","0","0","1","4","2","4","1","3","2","3","3","4","4","613040465838604288","庄","","","","match","","","","","","","","","","","","","","key","f","16.666549019607675","800","446","f","true","match","img/triangle.png","三角","三角","ALT1_2","prac_ALT1_2","","","","","","","","","",""
"null","<span style='color:GreenYellow; font-size: 70px;'>正确! </span>","null","html-keyboard-response","34","222428","0.0-7.0-1.0-1.0-0.0-1.12","3","4","4","3","3","3","4","3","4","4","4","3","2","4","5","4","4","5","4","4","1","1","2","1","2","2","1","3","1","1","0","1","1","0","0","1","1","1","1","-1","0","0","0","1","4","2","4","1","3","2","3","3","4","4","613040465838604288","庄","","","","","","","","","","","","","","","","","","","","","","","","","","","","","","feedback_test","","","","","","","","","",""
"799","","f","psychophysics","35","224233","0.0-7.0-1.0-1.0-0.0-0.13","3","4","4","3","3","3","4","3","4","4","4","3","2","4","5","4","4","5","4","4","1","1","2","1","2","2","1","3","1","1","0","1","1","0","0","1","1","1","1","-1","0","0","0","1","4","2","4","1","3","2","3","3","4","4","613040465838604288","庄","","","","match","","","","","","","","","","","","","","key","f","16.6669813084112","800","446","f","true","match","img/triangle.png","三角","三角","ALT1_2","prac_ALT1_2","","","","","","","","","",""
"null","<span style='color:GreenYellow; font-size: 70px;'>正确! </span>","null","html-keyboard-response","36","224739","0.0-7.0-1.0-1.0-0.0-1.13","3","4","4","3","3","3","4","3","4","4","4","3","2","4","5","4","4","5","4","4","1","1","2","1","2","2","1","3","1","1","0","1","1","0","0","1","1","1","1","-1","0","0","0","1","4","2","4","1","3","2","3","3","4","4","613040465838604288","庄","","","","","","","","","","","","","","","","","","","","","","","","","","","","","","feedback_test","","","","","","","","","",""
"806","","j","psychophysics","37","226548","0.0-7.0-1.0-1.0-0.0-0.14","3","4","4","3","3","3","4","3","4","4","4","3","2","4","5","4","4","5","4","4","1","1","2","1","2","2","1","3","1","1","0","1","1","0","0","1","1","1","1","-1","0","0","0","1","4","2","4","1","3","2","3","3","4","4","613040465838604288","庄","","","","nonmatch","","","","","","","","","","","","","","key","j","16.666925925925845","800","446","j","true","nonmatch","img/triangle.png","菱形","三角","ALT1_2","prac_ALT1_2","","","","","","","","","",""
"null","<span style='color:GreenYellow; font-size: 70px;'>正确! </span>","null","html-keyboard-response","38","227052","0.0-7.0-1.0-1.0-0.0-1.14","3","4","4","3","3","3","4","3","4","4","4","3","2","4","5","4","4","5","4","4","1","1","2","1","2","2","1","3","1","1","0","1","1","0","0","1","1","1","1","-1","0","0","0","1","4","2","4","1","3","2","3","3","4","4","613040465838604288","庄","","","","","","","","","","","","","","","","","","","","","","","","","","","","","","feedback_test","","","","","","","","","",""
"917","","j","psychophysics","39","228975","0.0-7.0-1.0-1.0-0.0-0.15","3","4","4","3","3","3","4","3","4","4","4","3","2","4","5","4","4","5","4","4","1","1","2","1","2","2","1","3","1","1","0","1","1","0","0","1","1","1","1","-1","0","0","0","1","4","2","4","1","3","2","3","3","4","4","613040465838604288","庄","","","","nonmatch","","","","","","","","","","","","","","key","j","16.6668771929825","800","446","j","true","nonmatch","img/diamond.png","三角","菱形","ALT1_2","prac_ALT1_2","","","","","","","","","",""
"null","<span style='color:GreenYellow; font-size: 70px;'>正确! </span>","null","html-keyboard-response","40","229483","0.0-7.0-1.0-1.0-0.0-1.15","3","4","4","3","3","3","4","3","4","4","4","3","2","4","5","4","4","5","4","4","1","1","2","1","2","2","1","3","1","1","0","1","1","0","0","1","1","1","1","-1","0","0","0","1","4","2","4","1","3","2","3","3","4","4","613040465838604288","庄","","","","","","","","","","","","","","","","","","","","","","","","","","","","","","feedback_test","","","","","","","","","",""
"738","","j","psychophysics","41","231229","0.0-7.0-1.0-1.0-0.0-0.16","3","4","4","3","3","3","4","3","4","4","4","3","2","4","5","4","4","5","4","4","1","1","2","1","2","2","1","3","1","1","0","1","1","0","0","1","1","1","1","-1","0","0","0","1","4","2","4","1","3","2","3","3","4","4","613040465838604288","庄","","","","nonmatch","","","","","","","","","","","","","","key","j","16.66700000000016","800","446","j","true","nonmatch","img/triangle.png","五边","三角","ALT1_2","prac_ALT1_2","","","","","","","","","",""
"null","<span style='color:GreenYellow; font-size: 70px;'>正确! </span>","null","html-keyboard-response","42","231731","0.0-7.0-1.0-1.0-0.0-1.16","3","4","4","3","3","3","4","3","4","4","4","3","2","4","5","4","4","5","4","4","1","1","2","1","2","2","1","3","1","1","0","1","1","0","0","1","1","1","1","-1","0","0","0","1","4","2","4","1","3","2","3","3","4","4","613040465838604288","庄","","","","","","","","","","","","","","","","","","","","","","","","","","","","","","feedback_test","","","","","","","","","",""
"809","","j","psychophysics","43","233548","0.0-7.0-1.0-1.0-0.0-0.17","3","4","4","3","3","3","4","3","4","4","4","3","2","4","5","4","4","5","4","4","1","1","2","1","2","2","1","3","1","1","0","1","1","0","0","1","1","1","1","-1","0","0","0","1","4","2","4","1","3","2","3","3","4","4","613040465838604288","庄","","","","nonmatch","","","","","","","","","","","","","","key","j","16.666898148148093","800","446","j","true","nonmatch","img/triangle.png","椭圆","三角","ALT1_2","prac_ALT1_2","","","","","","","","","",""
"null","<span style='color:GreenYellow; font-size: 70px;'>正确! </span>","null","html-keyboard-response","44","234051","0.0-7.0-1.0-1.0-0.0-1.17","3","4","4","3","3","3","4","3","4","4","4","3","2","4","5","4","4","5","4","4","1","1","2","1","2","2","1","3","1","1","0","1","1","0","0","1","1","1","1","-1","0","0","0","1","4","2","4","1","3","2","3","3","4","4","613040465838604288","庄","","","","","","","","","","","","","","","","","","","","","","","","","","","","","","feedback_test","","","","","","","","","",""
"821","","j","psychophysics","45","235881","0.0-7.0-1.0-1.0-0.0-0.18","3","4","4","3","3","3","4","3","4","4","4","3","2","4","5","4","4","5","4","4","1","1","2","1","2","2","1","3","1","1","0","1","1","0","0","1","1","1","1","-1","0","0","0","1","4","2","4","1","3","2","3","3","4","4","613040465838604288","庄","","","","nonmatch","","","","","","","","","","","","","","key","j","16.666861111110915","800","446","f","false","match","img/diamond.png","菱形","菱形","ALT1_2","prac_ALT1_2","","","","","","","","","",""
"null","<span style='color:red; font-size: 70px;'>错误! </span>","null","html-keyboard-response","46","236387","0.0-7.0-1.0-1.0-0.0-1.18","3","4","4","3","3","3","4","3","4","4","4","3","2","4","5","4","4","5","4","4","1","1","2","1","2","2","1","3","1","1","0","1","1","0","0","1","1","1","1","-1","0","0","0","1","4","2","4","1","3","2","3","3","4","4","613040465838604288","庄","","","","","","","","","","","","","","","","","","","","","","","","","","","","","","feedback_test","","","","","","","","","",""
"857","","j","psychophysics","47","238249","0.0-7.0-1.0-1.0-0.0-0.19","3","4","4","3","3","3","4","3","4","4","4","3","2","4","5","4","4","5","4","4","1","1","2","1","2","2","1","3","1","1","0","1","1","0","0","1","1","1","1","-1","0","0","0","1","4","2","4","1","3","2","3","3","4","4","613040465838604288","庄","","","","nonmatch","","","","","","","","","","","","","","key","j","16.66686486486484","800","446","j","true","nonmatch","img/pentagon.png","三角","五边","ALT1_2","prac_ALT1_2","","","","","","","","","",""
"null","<span style='color:GreenYellow; font-size: 70px;'>正确! </span>","null","html-keyboard-response","48","238755","0.0-7.0-1.0-1.0-0.0-1.19","3","4","4","3","3","3","4","3","4","4","4","3","2","4","5","4","4","5","4","4","1","1","2","1","2","2","1","3","1","1","0","1","1","0","0","1","1","1","1","-1","0","0","0","1","4","2","4","1","3","2","3","3","4","4","613040465838604288","庄","","","","","","","","","","","","","","","","","","","","","","","","","","","","","","feedback_test","","","","","","","","","",""
"1008","","j","psychophysics","49","240767","0.0-7.0-1.0-1.0-0.0-0.20","3","4","4","3","3","3","4","3","4","4","4","3","2","4","5","4","4","5","4","4","1","1","2","1","2","2","1","3","1","1","0","1","1","0","0","1","1","1","1","-1","0","0","0","1","4","2","4","1","3","2","3","3","4","4","613040465838604288","庄","","","","nonmatch","","","","","","","","","","","","","","key","j","16.66691666666666","800","446","f","false","match","img/diamond.png","菱形","菱形","ALT1_2","prac_ALT1_2","","","","","","","","","",""
"null","<span style='color:red; font-size: 70px;'>错误! </span>","null","html-keyboard-response","50","241274","0.0-7.0-1.0-1.0-0.0-1.20","3","4","4","3","3","3","4","3","4","4","4","3","2","4","5","4","4","5","4","4","1","1","2","1","2","2","1","3","1","1","0","1","1","0","0","1","1","1","1","-1","0","0","0","1","4","2","4","1","3","2","3","3","4","4","613040465838604288","庄","","","","","","","","","","","","","","","","","","","","","","","","","","","","","","feedback_test","","","","","","","","","",""
"907","","j","psychophysics","51","243190","0.0-7.0-1.0-1.0-0.0-0.21","3","4","4","3","3","3","4","3","4","4","4","3","2","4","5","4","4","5","4","4","1","1","2","1","2","2","1","3","1","1","0","1","1","0","0","1","1","1","1","-1","0","0","0","1","4","2","4","1","3","2","3","3","4","4","613040465838604288","庄","","","","nonmatch","","","","","","","","","","","","","","key","j","16.66710619469028","800","446","j","true","nonmatch","img/ellipse.png","五边","椭圆","ALT1_2","prac_ALT1_2","","","","","","","","","",""
"null","<span style='color:GreenYellow; font-size: 70px;'>正确! </span>","null","html-keyboard-response","52","243691","0.0-7.0-1.0-1.0-0.0-1.21","3","4","4","3","3","3","4","3","4","4","4","3","2","4","5","4","4","5","4","4","1","1","2","1","2","2","1","3","1","1","0","1","1","0","0","1","1","1","1","-1","0","0","0","1","4","2","4","1","3","2","3","3","4","4","613040465838604288","庄","","","","","","","","","","","","","","","","","","","","","","","","","","","","","","feedback_test","","","","","","","","","",""
"725","","j","psychophysics","53","245418","0.0-7.0-1.0-1.0-0.0-0.22","3","4","4","3","3","3","4","3","4","4","4","3","2","4","5","4","4","5","4","4","1","1","2","1","2","2","1","3","1","1","0","1","1","0","0","1","1","1","1","-1","0","0","0","1","4","2","4","1","3","2","3","3","4","4","613040465838604288","庄","","","","nonmatch","","","","","","","","","","","","","","key","j","16.66748039215671","800","446","f","false","match","img/diamond.png","菱形","菱形","ALT1_2","prac_ALT1_2","","","","","","","","","",""
"null","<span style='color:red; font-size: 70px;'>错误! </span>","null","html-keyboard-response","54","245923","0.0-7.0-1.0-1.0-0.0-1.22","3","4","4","3","3","3","4","3","4","4","4","3","2","4","5","4","4","5","4","4","1","1","2","1","2","2","1","3","1","1","0","1","1","0","0","1","1","1","1","-1","0","0","0","1","4","2","4","1","3","2","3","3","4","4","613040465838604288","庄","","","","","","","","","","","","","","","","","","","","","","","","","","","","","","feedback_test","","","","","","","","","",""
"876","","j","psychophysics","55","247806","0.0-7.0-1.0-1.0-0.0-0.23","3","4","4","3","3","3","4","3","4","4","4","3","2","4","5","4","4","5","4","4","1","1","2","1","2","2","1","3","1","1","0","1","1","0","0","1","1","1","1","-1","0","0","0","1","4","2","4","1","3","2","3","3","4","4","613040465838604288","庄","","","","nonmatch","","","","","","","","","","","","","","key","j","16.66686607142869","800","446","j","true","nonmatch","img/diamond.png","椭圆","菱形","ALT1_2","prac_ALT1_2","","","","","","","","","",""
"null","<span style='color:GreenYellow; font-size: 70px;'>正确! </span>","null","html-keyboard-response","56","248307","0.0-7.0-1.0-1.0-0.0-1.23","3","4","4","3","3","3","4","3","4","4","4","3","2","4","5","4","4","5","4","4","1","1","2","1","2","2","1","3","1","1","0","1","1","0","0","1","1","1","1","-1","0","0","0","1","4","2","4","1","3","2","3","3","4","4","613040465838604288","庄","","","","","","","","","","","","","","","","","","","","","","","","","","","","","","feedback_test","","","","","","","","","",""
"817","","j","psychophysics","57","250132","0.0-7.0-1.0-1.0-0.0-0.24","3","4","4","3","3","3","4","3","4","4","4","3","2","4","5","4","4","5","4","4","1","1","2","1","2","2","1","3","1","1","0","1","1","0","0","1","1","1","1","-1","0","0","0","1","4","2","4","1","3","2","3","3","4","4","613040465838604288","庄","","","","nonmatch","","","","","","","","","","","","","","key","j","16.66712962962979","800","446","f","false","match","img/diamond.png","菱形","菱形","ALT1_2","prac_ALT1_2","","","","","","","","","",""
"null","<span style='color:red; font-size: 70px;'>错误! </span>","null","html-keyboard-response","58","250635","0.0-7.0-1.0-1.0-0.0-1.24","3","4","4","3","3","3","4","3","4","4","4","3","2","4","5","4","4","5","4","4","1","1","2","1","2","2","1","3","1","1","0","1","1","0","0","1","1","1","1","-1","0","0","0","1","4","2","4","1","3","2","3","3","4","4","613040465838604288","庄","","","","","","","","","","","","","","","","","","","","","","","","","","","","","","feedback_test","","","","","","","","","",""
"781","","j","psychophysics","59","252422","0.0-7.0-1.0-1.0-0.0-0.25","3","4","4","3","3","3","4","3","4","4","4","3","2","4","5","4","4","5","4","4","1","1","2","1","2","2","1","3","1","1","0","1","1","0","0","1","1","1","1","-1","0","0","0","1","4","2","4","1","3","2","3","3","4","4","613040465838604288","庄","","","","nonmatch","","","","","","","","","","","","","","key","j","16.667179245282927","800","446","j","true","nonmatch","img/pentagon.png","三角","五边","ALT1_2","prac_ALT1_2","","","","","","","","","",""
"null","<span style='color:GreenYellow; font-size: 70px;'>正确! </span>","null","html-keyboard-response","60","252931","0.0-7.0-1.0-1.0-0.0-1.25","3","4","4","3","3","3","4","3","4","4","4","3","2","4","5","4","4","5","4","4","1","1","2","1","2","2","1","3","1","1","0","1","1","0","0","1","1","1","1","-1","0","0","0","1","4","2","4","1","3","2","3","3","4","4","613040465838604288","庄","","","","","","","","","","","","","","","","","","","","","","","","","","","","","","feedback_test","","","","","","","","","",""
"733","","j","psychophysics","61","254672","0.0-7.0-1.0-1.0-0.0-0.26","3","4","4","3","3","3","4","3","4","4","4","3","2","4","5","4","4","5","4","4","1","1","2","1","2","2","1","3","1","1","0","1","1","0","0","1","1","1","1","-1","0","0","0","1","4","2","4","1","3","2","3","3","4","4","613040465838604288","庄","","","","nonmatch","","","","","","","","","","","","","","key","j","16.666757281553462","800","446","j","true","nonmatch","img/diamond.png","椭圆","菱形","ALT1_2","prac_ALT1_2","","","","","","","","","",""
"null","<span style='color:GreenYellow; font-size: 70px;'>正确! </span>","null","html-keyboard-response","62","255180","0.0-7.0-1.0-1.0-0.0-1.26","3","4","4","3","3","3","4","3","4","4","4","3","2","4","5","4","4","5","4","4","1","1","2","1","2","2","1","3","1","1","0","1","1","0","0","1","1","1","1","-1","0","0","0","1","4","2","4","1","3","2","3","3","4","4","613040465838604288","庄","","","","","","","","","","","","","","","","","","","","","","","","","","","","","","feedback_test","","","","","","","","","",""
"null","","null","psychophysics","63","257393","0.0-7.0-1.0-1.0-0.0-0.27","3","4","4","3","3","3","4","3","4","4","4","3","2","4","5","4","4","5","4","4","1","1","2","1","2","2","1","3","1","1","0","1","1","0","0","1","1","1","1","-1","0","0","0","1","4","2","4","1","3","2","3","3","4","4","613040465838604288","庄","","","","null","","","","","","","","","","","","","","key","null","16.666687022900618","800","446","f","false","match","img/ellipse.png","椭圆","椭圆","ALT1_2","prac_ALT1_2","","","","","","","","","",""
"null","<span class='add_' style='color:yellow; font-size: 70px;'> 太慢! </span>","null","html-keyboard-response","64","257900","0.0-7.0-1.0-1.0-0.0-1.27","3","4","4","3","3","3","4","3","4","4","4","3","2","4","5","4","4","5","4","4","1","1","2","1","2","2","1","3","1","1","0","1","1","0","0","1","1","1","1","-1","0","0","0","1","4","2","4","1","3","2","3","3","4","4","613040465838604288","庄","","","","","","","","","","","","","","","","","","","","","","","","","","","","","","feedback_test","","","","","","","","","",""
"900","","j","psychophysics","65","259807","0.0-7.0-1.0-1.0-0.0-0.28","3","4","4","3","3","3","4","3","4","4","4","3","2","4","5","4","4","5","4","4","1","1","2","1","2","2","1","3","1","1","0","1","1","0","0","1","1","1","1","-1","0","0","0","1","4","2","4","1","3","2","3","3","4","4","613040465838604288","庄","","","","nonmatch","","","","","","","","","","","","","","key","j","16.666778761061863","800","446","f","false","match","img/pentagon.png","五边","五边","ALT1_2","prac_ALT1_2","","","","","","","","","",""
"null","<span style='color:red; font-size: 70px;'>错误! </span>","null","html-keyboard-response","66","260315","0.0-7.0-1.0-1.0-0.0-1.28","3","4","4","3","3","3","4","3","4","4","4","3","2","4","5","4","4","5","4","4","1","1","2","1","2","2","1","3","1","1","0","1","1","0","0","1","1","1","1","-1","0","0","0","1","4","2","4","1","3","2","3","3","4","4","613040465838604288","庄","","","","","","","","","","","","","","","","","","","","","","","","","","","","","","feedback_test","","","","","","","","","",""
"821","","f","psychophysics","67","262144","0.0-7.0-1.0-1.0-0.0-0.29","3","4","4","3","3","3","4","3","4","4","4","3","2","4","5","4","4","5","4","4","1","1","2","1","2","2","1","3","1","1","0","1","1","0","0","1","1","1","1","-1","0","0","0","1","4","2","4","1","3","2","3","3","4","4","613040465838604288","庄","","","","match","","","","","","","","","","","","","","key","f","16.666944954128308","800","446","f","true","match","img/ellipse.png","椭圆","椭圆","ALT1_2","prac_ALT1_2","","","","","","","","","",""
"null","<span style='color:GreenYellow; font-size: 70px;'>正确! </span>","null","html-keyboard-response","68","262652","0.0-7.0-1.0-1.0-0.0-1.29","3","4","4","3","3","3","4","3","4","4","4","3","2","4","5","4","4","5","4","4","1","1","2","1","2","2","1","3","1","1","0","1","1","0","0","1","1","1","1","-1","0","0","0","1","4","2","4","1","3","2","3","3","4","4","613040465838604288","庄","","","","","","","","","","","","","","","","","","","","","","","","","","","","","","feedback_test","","","","","","","","","",""
"792","","j","psychophysics","69","264452","0.0-7.0-1.0-1.0-0.0-0.30","3","4","4","3","3","3","4","3","4","4","4","3","2","4","5","4","4","5","4","4","1","1","2","1","2","2","1","3","1","1","0","1","1","0","0","1","1","1","1","-1","0","0","0","1","4","2","4","1","3","2","3","3","4","4","613040465838604288","庄","","","","nonmatch","","","","","","","","","","","","","","key","j","16.66701869158864","800","446","j","true","nonmatch","img/triangle.png","菱形","三角","ALT1_2","prac_ALT1_2","","","","","","","","","",""
"null","<span style='color:GreenYellow; font-size: 70px;'>正确! </span>","null","html-keyboard-response","70","264955","0.0-7.0-1.0-1.0-0.0-1.30","3","4","4","3","3","3","4","3","4","4","4","3","2","4","5","4","4","5","4","4","1","1","2","1","2","2","1","3","1","1","0","1","1","0","0","1","1","1","1","-1","0","0","0","1","4","2","4","1","3","2","3","3","4","4","613040465838604288","庄","","","","","","","","","","","","","","","","","","","","","","","","","","","","","","feedback_test","","","","","","","","","",""
"843","","j","psychophysics","71","266803","0.0-7.0-1.0-1.0-0.0-0.31","3","4","4","3","3","3","4","3","4","4","4","3","2","4","5","4","4","5","4","4","1","1","2","1","2","2","1","3","1","1","0","1","1","0","0","1","1","1","1","-1","0","0","0","1","4","2","4","1","3","2","3","3","4","4","613040465838604288","庄","","","","nonmatch","","","","","","","","","","","","","","key","j","16.666754545454488","800","446","j","true","nonmatch","img/ellipse.png","菱形","椭圆","ALT1_2","prac_ALT1_2","","","","","","","","","",""
"null","<span style='color:GreenYellow; font-size: 70px;'>正确! </span>","null","html-keyboard-response","72","267308","0.0-7.0-1.0-1.0-0.0-1.31","3","4","4","3","3","3","4","3","4","4","4","3","2","4","5","4","4","5","4","4","1","1","2","1","2","2","1","3","1","1","0","1","1","0","0","1","1","1","1","-1","0","0","0","1","4","2","4","1","3","2","3","3","4","4","613040465838604288","庄","","","","","","","","","","","","","","","","","","","","","","","","","","","","","","feedback_test","","","","","","","","","",""
"763","","j","psychophysics","73","269078","0.0-7.0-1.0-1.0-0.0-0.32","3","4","4","3","3","3","4","3","4","4","4","3","2","4","5","4","4","5","4","4","1","1","2","1","2","2","1","3","1","1","0","1","1","0","0","1","1","1","1","-1","0","0","0","1","4","2","4","1","3","2","3","3","4","4","613040465838604288","庄","","","","nonmatch","","","","","","","","","","","","","","key","j","16.66700000000031","800","446","j","true","nonmatch","img/ellipse.png","五边","椭圆","ALT1_2","prac_ALT1_2","","","","","","","","","",""
"null","<span style='color:GreenYellow; font-size: 70px;'>正确! </span>","null","html-keyboard-response","74","269587","0.0-7.0-1.0-1.0-0.0-1.32","3","4","4","3","3","3","4","3","4","4","4","3","2","4","5","4","4","5","4","4","1","1","2","1","2","2","1","3","1","1","0","1","1","0","0","1","1","1","1","-1","0","0","0","1","4","2","4","1","3","2","3","3","4","4","613040465838604288","庄","","","","","","","","","","","","","","","","","","","","","","","","","","","","","","feedback_test","","","","","","","","","",""
"727","","j","psychophysics","75","271318","0.0-7.0-1.0-1.0-0.0-0.33","3","4","4","3","3","3","4","3","4","4","4","3","2","4","5","4","4","5","4","4","1","1","2","1","2","2","1","3","1","1","0","1","1","0","0","1","1","1","1","-1","0","0","0","1","4","2","4","1","3","2","3","3","4","4","613040465838604288","庄","","","","nonmatch","","","","","","","","","","","","","","key","j","16.66690291262128","800","446","j","true","nonmatch","img/pentagon.png","椭圆","五边","ALT1_2","prac_ALT1_2","","","","","","","","","",""
"null","<span style='color:GreenYellow; font-size: 70px;'>正确! </span>","null","html-keyboard-response","76","271819","0.0-7.0-1.0-1.0-0.0-1.33","3","4","4","3","3","3","4","3","4","4","4","3","2","4","5","4","4","5","4","4","1","1","2","1","2","2","1","3","1","1","0","1","1","0","0","1","1","1","1","-1","0","0","0","1","4","2","4","1","3","2","3","3","4","4","613040465838604288","庄","","","","","","","","","","","","","","","","","","","","","","","","","","","","","","feedback_test","","","","","","","","","",""
"890","","j","psychophysics","77","273716","0.0-7.0-1.0-1.0-0.0-0.34","3","4","4","3","3","3","4","3","4","4","4","3","2","4","5","4","4","5","4","4","1","1","2","1","2","2","1","3","1","1","0","1","1","0","0","1","1","1","1","-1","0","0","0","1","4","2","4","1","3","2","3","3","4","4","613040465838604288","庄","","","","nonmatch","","","","","","","","","","","","","","key","j","16.666814159292343","800","446","f","false","match","img/diamond.png","菱形","菱形","ALT1_2","prac_ALT1_2","","","","","","","","","",""
"null","<span style='color:red; font-size: 70px;'>错误! </span>","null","html-keyboard-response","78","274226","0.0-7.0-1.0-1.0-0.0-1.34","3","4","4","3","3","3","4","3","4","4","4","3","2","4","5","4","4","5","4","4","1","1","2","1","2","2","1","3","1","1","0","1","1","0","0","1","1","1","1","-1","0","0","0","1","4","2","4","1","3","2","3","3","4","4","613040465838604288","庄","","","","","","","","","","","","","","","","","","","","","","","","","","","","","","feedback_test","","","","","","","","","",""
"980","","j","psychophysics","79","276215","0.0-7.0-1.0-1.0-0.0-0.35","3","4","4","3","3","3","4","3","4","4","4","3","2","4","5","4","4","5","4","4","1","1","2","1","2","2","1","3","1","1","0","1","1","0","0","1","1","1","1","-1","0","0","0","1","4","2","4","1","3","2","3","3","4","4","613040465838604288","庄","","","","nonmatch","","","","","","","","","","","","","","key","j","16.667305084745994","800","446","j","true","nonmatch","img/triangle.png","五边","三角","ALT1_2","prac_ALT1_2","","","","","","","","","",""
"null","<span style='color:GreenYellow; font-size: 70px;'>正确! </span>","null","html-keyboard-response","80","276722","0.0-7.0-1.0-1.0-0.0-1.35","3","4","4","3","3","3","4","3","4","4","4","3","2","4","5","4","4","5","4","4","1","1","2","1","2","2","1","3","1","1","0","1","1","0","0","1","1","1","1","-1","0","0","0","1","4","2","4","1","3","2","3","3","4","4","613040465838604288","庄","","","","","","","","","","","","","","","","","","","","","","","","","","","","","","feedback_test","","","","","","","","","",""
"1177","","j","psychophysics","81","278901","0.0-7.0-1.0-1.0-0.0-0.36","3","4","4","3","3","3","4","3","4","4","4","3","2","4","5","4","4","5","4","4","1","1","2","1","2","2","1","3","1","1","0","1","1","0","0","1","1","1","1","-1","0","0","0","1","4","2","4","1","3","2","3","3","4","4","613040465838604288","庄","","","","nonmatch","","","","","","","","","","","","","","key","j","16.66638461538465","800","446","j","true","nonmatch","img/pentagon.png","菱形","五边","ALT1_2","prac_ALT1_2","","","","","","","","","",""
"null","<span style='color:GreenYellow; font-size: 70px;'>正确! </span>","null","html-keyboard-response","82","279404","0.0-7.0-1.0-1.0-0.0-1.36","3","4","4","3","3","3","4","3","4","4","4","3","2","4","5","4","4","5","4","4","1","1","2","1","2","2","1","3","1","1","0","1","1","0","0","1","1","1","1","-1","0","0","0","1","4","2","4","1","3","2","3","3","4","4","613040465838604288","庄","","","","","","","","","","","","","","","","","","","","","","","","","","","","","","feedback_test","","","","","","","","","",""
"676","","j","psychophysics","83","281084","0.0-7.0-1.0-1.0-0.0-0.37","3","4","4","3","3","3","4","3","4","4","4","3","2","4","5","4","4","5","4","4","1","1","2","1","2","2","1","3","1","1","0","1","1","0","0","1","1","1","1","-1","0","0","0","1","4","2","4","1","3","2","3","3","4","4","613040465838604288","庄","","","","nonmatch","","","","","","","","","","","","","","key","j","16.66670999999973","800","446","j","true","nonmatch","img/triangle.png","椭圆","三角","ALT1_2","prac_ALT1_2","","","","","","","","","",""
"null","<span style='color:GreenYellow; font-size: 70px;'>正确! </span>","null","html-keyboard-response","84","281587","0.0-7.0-1.0-1.0-0.0-1.37","3","4","4","3","3","3","4","3","4","4","4","3","2","4","5","4","4","5","4","4","1","1","2","1","2","2","1","3","1","1","0","1","1","0","0","1","1","1","1","-1","0","0","0","1","4","2","4","1","3","2","3","3","4","4","613040465838604288","庄","","","","","","","","","","","","","","","","","","","","","","","","","","","","","","feedback_test","","","","","","","","","",""
"697","","f","psychophysics","85","283289","0.0-7.0-1.0-1.0-0.0-0.38","3","4","4","3","3","3","4","3","4","4","4","3","2","4","5","4","4","5","4","4","1","1","2","1","2","2","1","3","1","1","0","1","1","0","0","1","1","1","1","-1","0","0","0","1","4","2","4","1","3","2","3","3","4","4","613040465838604288","庄","","","","match","","","","","","","","","","","","","","key","f","16.666920792079175","800","446","f","true","match","img/triangle.png","三角","三角","ALT1_2","prac_ALT1_2","","","","","","","","","",""
"null","<span style='color:GreenYellow; font-size: 70px;'>正确! </span>","null","html-keyboard-response","86","283795","0.0-7.0-1.0-1.0-0.0-1.38","3","4","4","3","3","3","4","3","4","4","4","3","2","4","5","4","4","5","4","4","1","1","2","1","2","2","1","3","1","1","0","1","1","0","0","1","1","1","1","-1","0","0","0","1","4","2","4","1","3","2","3","3","4","4","613040465838604288","庄","","","","","","","","","","","","","","","","","","","","","","","","","","","","","","feedback_test","","","","","","","","","",""
"848","","f","psychophysics","87","285651","0.0-7.0-1.0-1.0-0.0-0.39","3","4","4","3","3","3","4","3","4","4","4","3","2","4","5","4","4","5","4","4","1","1","2","1","2","2","1","3","1","1","0","1","1","0","0","1","1","1","1","-1","0","0","0","1","4","2","4","1","3","2","3","3","4","4","613040465838604288","庄","","","","match","","","","","","","","","","","","","","key","f","16.66689999999997","800","446","j","false","nonmatch","img/diamond.png","五边","菱形","ALT1_2","prac_ALT1_2","","","","","","","","","",""
"null","<span style='color:red; font-size: 70px;'>错误! </span>","null","html-keyboard-response","88","286156","0.0-7.0-1.0-1.0-0.0-1.39","3","4","4","3","3","3","4","3","4","4","4","3","2","4","5","4","4","5","4","4","1","1","2","1","2","2","1","3","1","1","0","1","1","0","0","1","1","1","1","-1","0","0","0","1","4","2","4","1","3","2","3","3","4","4","613040465838604288","庄","","","","","","","","","","","","","","","","","","","","","","","","","","","","","","feedback_test","","","","","","","","","",""
"872","","f","psychophysics","89","288031","0.0-7.0-1.0-1.0-0.0-0.40","3","4","4","3","3","3","4","3","4","4","4","3","2","4","5","4","4","5","4","4","1","1","2","1","2","2","1","3","1","1","0","1","1","0","0","1","1","1","1","-1","0","0","0","1","4","2","4","1","3","2","3","3","4","4","613040465838604288","庄","","","","match","","","","","","","","","","","","","","key","f","16.666848214286023","800","446","f","true","match","img/ellipse.png","椭圆","椭圆","ALT1_2","prac_ALT1_2","","","","","","","","","",""
"null","<span style='color:GreenYellow; font-size: 70px;'>正确! </span>","null","html-keyboard-response","90","288539","0.0-7.0-1.0-1.0-0.0-1.40","3","4","4","3","3","3","4","3","4","4","4","3","2","4","5","4","4","5","4","4","1","1","2","1","2","2","1","3","1","1","0","1","1","0","0","1","1","1","1","-1","0","0","0","1","4","2","4","1","3","2","3","3","4","4","613040465838604288","庄","","","","","","","","","","","","","","","","","","","","","","","","","","","","","","feedback_test","","","","","","","","","",""
"752","","f","psychophysics","91","290295","0.0-7.0-1.0-1.0-0.0-0.41","3","4","4","3","3","3","4","3","4","4","4","3","2","4","5","4","4","5","4","4","1","1","2","1","2","2","1","3","1","1","0","1","1","0","0","1","1","1","1","-1","0","0","0","1","4","2","4","1","3","2","3","3","4","4","613040465838604288","庄","","","","match","","","","","","","","","","","","","","key","f","16.666885714285584","800","446","f","true","match","img/triangle.png","三角","三角","ALT1_2","prac_ALT1_2","","","","","","","","","",""
"null","<span style='color:GreenYellow; font-size: 70px;'>正确! </span>","null","html-keyboard-response","92","290804","0.0-7.0-1.0-1.0-0.0-1.41","3","4","4","3","3","3","4","3","4","4","4","3","2","4","5","4","4","5","4","4","1","1","2","1","2","2","1","3","1","1","0","1","1","0","0","1","1","1","1","-1","0","0","0","1","4","2","4","1","3","2","3","3","4","4","613040465838604288","庄","","","","","","","","","","","","","","","","","","","","","","","","","","","","","","feedback_test","","","","","","","","","",""
"743","","f","psychophysics","93","292552","0.0-7.0-1.0-1.0-0.0-0.42","3","4","4","3","3","3","4","3","4","4","4","3","2","4","5","4","4","5","4","4","1","1","2","1","2","2","1","3","1","1","0","1","1","0","0","1","1","1","1","-1","0","0","0","1","4","2","4","1","3","2","3","3","4","4","613040465838604288","庄","","","","match","","","","","","","","","","","","","","key","f","16.66666990291221","800","446","f","true","match","img/pentagon.png","五边","五边","ALT1_2","prac_ALT1_2","","","","","","","","","",""
"null","<span style='color:GreenYellow; font-size: 70px;'>正确! </span>","null","html-keyboard-response","94","293060","0.0-7.0-1.0-1.0-0.0-1.42","3","4","4","3","3","3","4","3","4","4","4","3","2","4","5","4","4","5","4","4","1","1","2","1","2","2","1","3","1","1","0","1","1","0","0","1","1","1","1","-1","0","0","0","1","4","2","4","1","3","2","3","3","4","4","613040465838604288","庄","","","","","","","","","","","","","","","","","","","","","","","","","","","","","","feedback_test","","","","","","","","","",""
"673","","f","psychophysics","95","294740","0.0-7.0-1.0-1.0-0.0-0.43","3","4","4","3","3","3","4","3","4","4","4","3","2","4","5","4","4","5","4","4","1","1","2","1","2","2","1","3","1","1","0","1","1","0","0","1","1","1","1","-1","0","0","0","1","4","2","4","1","3","2","3","3","4","4","613040465838604288","庄","","","","match","","","","","","","","","","","","","","key","f","16.667040404040517","800","446","f","true","match","img/triangle.png","三角","三角","ALT1_2","prac_ALT1_2","","","","","","","","","",""
"null","<span style='color:GreenYellow; font-size: 70px;'>正确! </span>","null","html-keyboard-response","96","295243","0.0-7.0-1.0-1.0-0.0-1.43","3","4","4","3","3","3","4","3","4","4","4","3","2","4","5","4","4","5","4","4","1","1","2","1","2","2","1","3","1","1","0","1","1","0","0","1","1","1","1","-1","0","0","0","1","4","2","4","1","3","2","3","3","4","4","613040465838604288","庄","","","","","","","","","","","","","","","","","","","","","","","","","","","","","","feedback_test","","","","","","","","","",""
"783","","j","psychophysics","97","297027","0.0-7.0-1.0-1.0-0.0-0.44","3","4","4","3","3","3","4","3","4","4","4","3","2","4","5","4","4","5","4","4","1","1","2","1","2","2","1","3","1","1","0","1","1","0","0","1","1","1","1","-1","0","0","0","1","4","2","4","1","3","2","3","3","4","4","613040465838604288","庄","","","","nonmatch","","","","","","","","","","","","","","key","j","16.667066037735598","800","446","f","false","match","img/diamond.png","菱形","菱形","ALT1_2","prac_ALT1_2","","","","","","","","","",""
"null","<span style='color:red; font-size: 70px;'>错误! </span>","null","html-keyboard-response","98","297532","0.0-7.0-1.0-1.0-0.0-1.44","3","4","4","3","3","3","4","3","4","4","4","3","2","4","5","4","4","5","4","4","1","1","2","1","2","2","1","3","1","1","0","1","1","0","0","1","1","1","1","-1","0","0","0","1","4","2","4","1","3","2","3","3","4","4","613040465838604288","庄","","","","","","","","","","","","","","","","","","","","","","","","","","","","","","feedback_test","","","","","","","","","",""
"949","","j","psychophysics","99","299487","0.0-7.0-1.0-1.0-0.0-0.45","3","4","4","3","3","3","4","3","4","4","4","3","2","4","5","4","4","5","4","4","1","1","2","1","2","2","1","3","1","1","0","1","1","0","0","1","1","1","1","-1","0","0","0","1","4","2","4","1","3","2","3","3","4","4","613040465838604288","庄","","","","nonmatch","","","","","","","","","","","","","","key","j","16.666887931034456","800","446","j","true","nonmatch","img/diamond.png","三角","菱形","ALT1_2","prac_ALT1_2","","","","","","","","","",""
"null","<span style='color:GreenYellow; font-size: 70px;'>正确! </span>","null","html-keyboard-response","100","299995","0.0-7.0-1.0-1.0-0.0-1.45","3","4","4","3","3","3","4","3","4","4","4","3","2","4","5","4","4","5","4","4","1","1","2","1","2","2","1","3","1","1","0","1","1","0","0","1","1","1","1","-1","0","0","0","1","4","2","4","1","3","2","3","3","4","4","613040465838604288","庄","","","","","","","","","","","","","","","","","","","","","","","","","","","","","","feedback_test","","","","","","","","","",""
"784","","j","psychophysics","101","301788","0.0-7.0-1.0-1.0-0.0-0.46","3","4","4","3","3","3","4","3","4","4","4","3","2","4","5","4","4","5","4","4","1","1","2","1","2","2","1","3","1","1","0","1","1","0","0","1","1","1","1","-1","0","0","0","1","4","2","4","1","3","2","3","3","4","4","613040465838604288","庄","","","","nonmatch","","","","","","","","","","","","","","key","j","16.666679245282516","800","446","j","true","nonmatch","img/ellipse.png","三角","椭圆","ALT1_2","prac_ALT1_2","","","","","","","","","",""
"null","<span style='color:GreenYellow; font-size: 70px;'>正确! </span>","null","html-keyboard-response","102","302291","0.0-7.0-1.0-1.0-0.0-1.46","3","4","4","3","3","3","4","3","4","4","4","3","2","4","5","4","4","5","4","4","1","1","2","1","2","2","1","3","1","1","0","1","1","0","0","1","1","1","1","-1","0","0","0","1","4","2","4","1","3","2","3","3","4","4","613040465838604288","庄","","","","","","","","","","","","","","","","","","","","","","","","","","","","","","feedback_test","","","","","","","","","",""
"649","","f","psychophysics","103","303949","0.0-7.0-1.0-1.0-0.0-0.47","3","4","4","3","3","3","4","3","4","4","4","3","2","4","5","4","4","5","4","4","1","1","2","1","2","2","1","3","1","1","0","1","1","0","0","1","1","1","1","-1","0","0","0","1","4","2","4","1","3","2","3","3","4","4","613040465838604288","庄","","","","match","","","","","","","","","","","","","","key","f","16.667653061225014","800","446","f","true","match","img/pentagon.png","五边","五边","ALT1_2","prac_ALT1_2","","","","","","","","","",""
"null","<span style='color:GreenYellow; font-size: 70px;'>正确! </span>","null","html-keyboard-response","104","304452","0.0-7.0-1.0-1.0-0.0-1.47","3","4","4","3","3","3","4","3","4","4","4","3","2","4","5","4","4","5","4","4","1","1","2","1","2","2","1","3","1","1","0","1","1","0","0","1","1","1","1","-1","0","0","0","1","4","2","4","1","3","2","3","3","4","4","613040465838604288","庄","","","","","","","","","","","","","","","","","","","","","","","","","","","","","","feedback_test","","","","","","","","","",""
"6281","<style>.context{color:white; font-size: 35px; line-height:40px}</style>                          <div><p class='context'>您正确回答了75% 的试次。</p><p class='context'>您的平均反应时为819毫秒。</p><p class='context'>恭喜您完成练习。按空格键进入正式实验。</p><p class='footer' style='font-size: 35px; line-height:40px;'>请在进入正式实验实验之前将您的<span style='color: lightgreen;'>食指</span>放在电脑键盘的相应键位上进行按键。</p>"," ","html-keyboard-response","105","310740","0.0-7.0-1.0-2.0","3","4","4","3","3","3","4","3","4","4","4","3","2","4","5","4","4","5","4","4","1","1","2","1","2","2","1","3","1","1","0","1","1","0","0","1","1","1","1","-1","0","0","0","1","4","2","4","1","3","2","3","3","4","4","613040465838604288","庄","","","","","","","","","","","","","","","","","","","","","","","","","","","","","","","","","","","","","","","",""
"1840","
  <p>请您将手指放在按键上，准备进入正式的匹配任务。</p>
  <p> <div style = ""color: green""><按空格键进入下一阶段的匹配任务></div></p>
  "," ","html-keyboard-response","106","312596","0.0-7.0-1.0-3.0","3","4","4","3","3","3","4","3","4","4","4","3","2","4","5","4","4","5","4","4","1","1","2","1","2","2","1","3","1","1","0","1","1","0","0","1","1","1","1","-1","0","0","0","1","4","2","4","1","3","2","3","3","4","4","613040465838604288","庄","","","","","","","","","","","","","","","","","","","","","","","","","","","","","","","","","","","","","","","",""
"714","","j","psychophysics","107","314317","0.0-7.0-1.0-4.0-0.0-0.0","3","4","4","3","3","3","4","3","4","4","4","3","2","4","5","4","4","5","4","4","1","1","2","1","2","2","1","3","1","1","0","1","1","0","0","1","1","1","1","-1","0","0","0","1","4","2","4","1","3","2","3","3","4","4","613040465838604288","庄","","","","nonmatch","","","","","","","","","","","","","","key","j","16.66798039215706","800","446","j","true","nonmatch","img/triangle.png","五边","三角","ALT1","formal_ALT1_2","","","","","","","","","",""
"null","<span style='color:GreenYellow; font-size: 70px;'>正确! </span>","null","html-keyboard-response","108","314819","0.0-7.0-1.0-4.0-0.0-1.0","3","4","4","3","3","3","4","3","4","4","4","3","2","4","5","4","4","5","4","4","1","1","2","1","2","2","1","3","1","1","0","1","1","0","0","1","1","1","1","-1","0","0","0","1","4","2","4","1","3","2","3","3","4","4","613040465838604288","庄","","","","","","","","","","","","","","","","","","","","","","","","","","","","","","feedback_test","","","","","","","","","",""
"780","","f","psychophysics","109","316606","0.0-7.0-1.0-4.0-0.0-0.1","3","4","4","3","3","3","4","3","4","4","4","3","2","4","5","4","4","5","4","4","1","1","2","1","2","2","1","3","1","1","0","1","1","0","0","1","1","1","1","-1","0","0","0","1","4","2","4","1","3","2","3","3","4","4","613040465838604288","庄","","","","match","","","","","","","","","","","","","","key","f","16.666896226415016","800","446","j","false","nonmatch","img/pentagon.png","菱形","五边","ALT1","formal_ALT1_2","","","","","","","","","",""
"null","<span style='color:red; font-size: 70px;'>错误! </span>","null","html-keyboard-response","110","317118","0.0-7.0-1.0-4.0-0.0-1.1","3","4","4","3","3","3","4","3","4","4","4","3","2","4","5","4","4","5","4","4","1","1","2","1","2","2","1","3","1","1","0","1","1","0","0","1","1","1","1","-1","0","0","0","1","4","2","4","1","3","2","3","3","4","4","613040465838604288","庄","","","","","","","","","","","","","","","","","","","","","","","","","","","","","","feedback_test","","","","","","","","","",""
"732","","j","psychophysics","111","318857","0.0-7.0-1.0-4.0-0.0-0.2","3","4","4","3","3","3","4","3","4","4","4","3","2","4","5","4","4","5","4","4","1","1","2","1","2","2","1","3","1","1","0","1","1","0","0","1","1","1","1","-1","0","0","0","1","4","2","4","1","3","2","3","3","4","4","613040465838604288","庄","","","","nonmatch","","","","","","","","","","","","","","key","j","16.830245098039192","800","446","j","true","nonmatch","img/diamond.png","椭圆","菱形","ALT1","formal_ALT1_2","","","","","","","","","",""
"null","<span style='color:GreenYellow; font-size: 70px;'>正确! </span>","null","html-keyboard-response","112","319370","0.0-7.0-1.0-4.0-0.0-1.2","3","4","4","3","3","3","4","3","4","4","4","3","2","4","5","4","4","5","4","4","1","1","2","1","2","2","1","3","1","1","0","1","1","0","0","1","1","1","1","-1","0","0","0","1","4","2","4","1","3","2","3","3","4","4","613040465838604288","庄","","","","","","","","","","","","","","","","","","","","","","","","","","","","","","feedback_test","","","","","","","","","",""
"798","","j","psychophysics","113","321173","0.0-7.0-1.0-4.0-0.0-0.3","3","4","4","3","3","3","4","3","4","4","4","3","2","4","5","4","4","5","4","4","1","1","2","1","2","2","1","3","1","1","0","1","1","0","0","1","1","1","1","-1","0","0","0","1","4","2","4","1","3","2","3","3","4","4","613040465838604288","庄","","","","nonmatch","","","","","","","","","","","","","","key","j","16.66674766355144","800","446","j","true","nonmatch","img/ellipse.png","五边","椭圆","ALT1","formal_ALT1_2","","","","","","","","","",""
"null","<span style='color:GreenYellow; font-size: 70px;'>正确! </span>","null","html-keyboard-response","114","321675","0.0-7.0-1.0-4.0-0.0-1.3","3","4","4","3","3","3","4","3","4","4","4","3","2","4","5","4","4","5","4","4","1","1","2","1","2","2","1","3","1","1","0","1","1","0","0","1","1","1","1","-1","0","0","0","1","4","2","4","1","3","2","3","3","4","4","613040465838604288","庄","","","","","","","","","","","","","","","","","","","","","","","","","","","","","","feedback_test","","","","","","","","","",""
"1059","","j","psychophysics","115","323736","0.0-7.0-1.0-4.0-0.0-0.4","3","4","4","3","3","3","4","3","4","4","4","3","2","4","5","4","4","5","4","4","1","1","2","1","2","2","1","3","1","1","0","1","1","0","0","1","1","1","1","-1","0","0","0","1","4","2","4","1","3","2","3","3","4","4","613040465838604288","庄","","","","nonmatch","","","","","","","","","","","","","","key","j","16.666803278688334","800","446","j","true","nonmatch","img/ellipse.png","菱形","椭圆","ALT1","formal_ALT1_2","","","","","","","","","",""
"null","<span style='color:GreenYellow; font-size: 70px;'>正确! </span>","null","html-keyboard-response","116","324243","0.0-7.0-1.0-4.0-0.0-1.4","3","4","4","3","3","3","4","3","4","4","4","3","2","4","5","4","4","5","4","4","1","1","2","1","2","2","1","3","1","1","0","1","1","0","0","1","1","1","1","-1","0","0","0","1","4","2","4","1","3","2","3","3","4","4","613040465838604288","庄","","","","","","","","","","","","","","","","","","","","","","","","","","","","","","feedback_test","","","","","","","","","",""
"918","","f","psychophysics","117","326168","0.0-7.0-1.0-4.0-0.0-0.5","3","4","4","3","3","3","4","3","4","4","4","3","2","4","5","4","4","5","4","4","1","1","2","1","2","2","1","3","1","1","0","1","1","0","0","1","1","1","1","-1","0","0","0","1","4","2","4","1","3","2","3","3","4","4","613040465838604288","庄","","","","match","","","","","","","","","","","","","","key","f","16.667008771929734","800","446","f","true","match","img/pentagon.png","五边","五边","ALT1","formal_ALT1_2","","","","","","","","","",""
"null","<span style='color:GreenYellow; font-size: 70px;'>正确! </span>","null","html-keyboard-response","118","326675","0.0-7.0-1.0-4.0-0.0-1.5","3","4","4","3","3","3","4","3","4","4","4","3","2","4","5","4","4","5","4","4","1","1","2","1","2","2","1","3","1","1","0","1","1","0","0","1","1","1","1","-1","0","0","0","1","4","2","4","1","3","2","3","3","4","4","613040465838604288","庄","","","","","","","","","","","","","","","","","","","","","","","","","","","","","","feedback_test","","","","","","","","","",""
"891","","f","psychophysics","119","328573","0.0-7.0-1.0-4.0-0.0-0.6","3","4","4","3","3","3","4","3","4","4","4","3","2","4","5","4","4","5","4","4","1","1","2","1","2","2","1","3","1","1","0","1","1","0","0","1","1","1","1","-1","0","0","0","1","4","2","4","1","3","2","3","3","4","4","613040465838604288","庄","","","","match","","","","","","","","","","","","","","key","f","16.969863636363616","800","446","f","true","match","img/pentagon.png","五边","五边","ALT1","formal_ALT1_2","","","","","","","","","",""
"null","<span style='color:GreenYellow; font-size: 70px;'>正确! </span>","null","html-keyboard-response","120","329075","0.0-7.0-1.0-4.0-0.0-1.6","3","4","4","3","3","3","4","3","4","4","4","3","2","4","5","4","4","5","4","4","1","1","2","1","2","2","1","3","1","1","0","1","1","0","0","1","1","1","1","-1","0","0","0","1","4","2","4","1","3","2","3","3","4","4","613040465838604288","庄","","","","","","","","","","","","","","","","","","","","","","","","","","","","","","feedback_test","","","","","","","","","",""
"761","","j","psychophysics","121","330838","0.0-7.0-1.0-4.0-0.0-0.7","3","4","4","3","3","3","4","3","4","4","4","3","2","4","5","4","4","5","4","4","1","1","2","1","2","2","1","3","1","1","0","1","1","0","0","1","1","1","1","-1","0","0","0","1","4","2","4","1","3","2","3","3","4","4","613040465838604288","庄","","","","nonmatch","","","","","","","","","","","","","","key","j","16.666855769230235","800","446","j","true","nonmatch","img/ellipse.png","三角","椭圆","ALT1","formal_ALT1_2","","","","","","","","","",""
"null","<span style='color:GreenYellow; font-size: 70px;'>正确! </span>","null","html-keyboard-response","122","331355","0.0-7.0-1.0-4.0-0.0-1.7","3","4","4","3","3","3","4","3","4","4","4","3","2","4","5","4","4","5","4","4","1","1","2","1","2","2","1","3","1","1","0","1","1","0","0","1","1","1","1","-1","0","0","0","1","4","2","4","1","3","2","3","3","4","4","613040465838604288","庄","","","","","","","","","","","","","","","","","","","","","","","","","","","","","","feedback_test","","","","","","","","","",""
"773","","f","psychophysics","123","333132","0.0-7.0-1.0-4.0-0.0-0.8","3","4","4","3","3","3","4","3","4","4","4","3","2","4","5","4","4","5","4","4","1","1","2","1","2","2","1","3","1","1","0","1","1","0","0","1","1","1","1","-1","0","0","0","1","4","2","4","1","3","2","3","3","4","4","613040465838604288","庄","","","","match","","","","","","","","","","","","","","key","f","16.66710476190506","800","446","f","true","match","img/ellipse.png","椭圆","椭圆","ALT1","formal_ALT1_2","","","","","","","","","",""
"null","<span style='color:GreenYellow; font-size: 70px;'>正确! </span>","null","html-keyboard-response","124","333635","0.0-7.0-1.0-4.0-0.0-1.8","3","4","4","3","3","3","4","3","4","4","4","3","2","4","5","4","4","5","4","4","1","1","2","1","2","2","1","3","1","1","0","1","1","0","0","1","1","1","1","-1","0","0","0","1","4","2","4","1","3","2","3","3","4","4","613040465838604288","庄","","","","","","","","","","","","","","","","","","","","","","","","","","","","","","feedback_test","","","","","","","","","",""
"713","","j","psychophysics","125","335355","0.0-7.0-1.0-4.0-0.0-0.9","3","4","4","3","3","3","4","3","4","4","4","3","2","4","5","4","4","5","4","4","1","1","2","1","2","2","1","3","1","1","0","1","1","0","0","1","1","1","1","-1","0","0","0","1","4","2","4","1","3","2","3","3","4","4","613040465838604288","庄","","","","nonmatch","","","","","","","","","","","","","","key","j","16.83224752475277","800","446","f","false","match","img/diamond.png","菱形","菱形","ALT1","formal_ALT1_2","","","","","","","","","",""
"null","<span style='color:red; font-size: 70px;'>错误! </span>","null","html-keyboard-response","126","335858","0.0-7.0-1.0-4.0-0.0-1.9","3","4","4","3","3","3","4","3","4","4","4","3","2","4","5","4","4","5","4","4","1","1","2","1","2","2","1","3","1","1","0","1","1","0","0","1","1","1","1","-1","0","0","0","1","4","2","4","1","3","2","3","3","4","4","613040465838604288","庄","","","","","","","","","","","","","","","","","","","","","","","","","","","","","","feedback_test","","","","","","","","","",""
"901","","j","psychophysics","127","337761","0.0-7.0-1.0-4.0-0.0-0.10","3","4","4","3","3","3","4","3","4","4","4","3","2","4","5","4","4","5","4","4","1","1","2","1","2","2","1","3","1","1","0","1","1","0","0","1","1","1","1","-1","0","0","0","1","4","2","4","1","3","2","3","3","4","4","613040465838604288","庄","","","","nonmatch","","","","","","","","","","","","","","key","j","16.667513274336315","800","446","j","true","nonmatch","img/triangle.png","菱形","三角","ALT1","formal_ALT1_2","","","","","","","","","",""
"null","<span style='color:GreenYellow; font-size: 70px;'>正确! </span>","null","html-keyboard-response","128","338266","0.0-7.0-1.0-4.0-0.0-1.10","3","4","4","3","3","3","4","3","4","4","4","3","2","4","5","4","4","5","4","4","1","1","2","1","2","2","1","3","1","1","0","1","1","0","0","1","1","1","1","-1","0","0","0","1","4","2","4","1","3","2","3","3","4","4","613040465838604288","庄","","","","","","","","","","","","","","","","","","","","","","","","","","","","","","feedback_test","","","","","","","","","",""
"809","","j","psychophysics","129","340082","0.0-7.0-1.0-4.0-0.0-0.11","3","4","4","3","3","3","4","3","4","4","4","3","2","4","5","4","4","5","4","4","1","1","2","1","2","2","1","3","1","1","0","1","1","0","0","1","1","1","1","-1","0","0","0","1","4","2","4","1","3","2","3","3","4","4","613040465838604288","庄","","","","nonmatch","","","","","","","","","","","","","","key","j","16.66726851851854","800","446","j","true","nonmatch","img/triangle.png","椭圆","三角","ALT1","formal_ALT1_2","","","","","","","","","",""
"null","<span style='color:GreenYellow; font-size: 70px;'>正确! </span>","null","html-keyboard-response","130","340587","0.0-7.0-1.0-4.0-0.0-1.11","3","4","4","3","3","3","4","3","4","4","4","3","2","4","5","4","4","5","4","4","1","1","2","1","2","2","1","3","1","1","0","1","1","0","0","1","1","1","1","-1","0","0","0","1","4","2","4","1","3","2","3","3","4","4","613040465838604288","庄","","","","","","","","","","","","","","","","","","","","","","","","","","","","","","feedback_test","","","","","","","","","",""
"977","","f","psychophysics","131","342568","0.0-7.0-1.0-4.0-0.0-0.12","3","4","4","3","3","3","4","3","4","4","4","3","2","4","5","4","4","5","4","4","1","1","2","1","2","2","1","3","1","1","0","1","1","0","0","1","1","1","1","-1","0","0","0","1","4","2","4","1","3","2","3","3","4","4","613040465838604288","庄","","","","match","","","","","","","","","","","","","","key","f","16.66716949152563","800","446","j","false","nonmatch","img/diamond.png","五边","菱形","ALT1","formal_ALT1_2","","","","","","","","","",""
"null","<span style='color:red; font-size: 70px;'>错误! </span>","null","html-keyboard-response","132","343074","0.0-7.0-1.0-4.0-0.0-1.12","3","4","4","3","3","3","4","3","4","4","4","3","2","4","5","4","4","5","4","4","1","1","2","1","2","2","1","3","1","1","0","1","1","0","0","1","1","1","1","-1","0","0","0","1","4","2","4","1","3","2","3","3","4","4","613040465838604288","庄","","","","","","","","","","","","","","","","","","","","","","","","","","","","","","feedback_test","","","","","","","","","",""
"758","","f","psychophysics","133","344835","0.0-7.0-1.0-4.0-0.0-0.13","3","4","4","3","3","3","4","3","4","4","4","3","2","4","5","4","4","5","4","4","1","1","2","1","2","2","1","3","1","1","0","1","1","0","0","1","1","1","1","-1","0","0","0","1","4","2","4","1","3","2","3","3","4","4","613040465838604288","庄","","","","match","","","","","","","","","","","","","","key","f","16.667067307692307","800","446","f","true","match","img/triangle.png","三角","三角","ALT1","formal_ALT1_2","","","","","","","","","",""
"null","<span style='color:GreenYellow; font-size: 70px;'>正确! </span>","null","html-keyboard-response","134","345339","0.0-7.0-1.0-4.0-0.0-1.13","3","4","4","3","3","3","4","3","4","4","4","3","2","4","5","4","4","5","4","4","1","1","2","1","2","2","1","3","1","1","0","1","1","0","0","1","1","1","1","-1","0","0","0","1","4","2","4","1","3","2","3","3","4","4","613040465838604288","庄","","","","","","","","","","","","","","","","","","","","","","","","","","","","","","feedback_test","","","","","","","","","",""
"928","","f","psychophysics","135","347269","0.0-7.0-1.0-4.0-0.0-0.14","3","4","4","3","3","3","4","3","4","4","4","3","2","4","5","4","4","5","4","4","1","1","2","1","2","2","1","3","1","1","0","1","1","0","0","1","1","1","1","-1","0","0","0","1","4","2","4","1","3","2","3","3","4","4","613040465838604288","庄","","","","match","","","","","","","","","","","","","","key","f","16.666686956522195","800","446","f","true","match","img/diamond.png","菱形","菱形","ALT1","formal_ALT1_2","","","","","","","","","",""
"null","<span style='color:GreenYellow; font-size: 70px;'>正确! </span>","null","html-keyboard-response","136","347770","0.0-7.0-1.0-4.0-0.0-1.14","3","4","4","3","3","3","4","3","4","4","4","3","2","4","5","4","4","5","4","4","1","1","2","1","2","2","1","3","1","1","0","1","1","0","0","1","1","1","1","-1","0","0","0","1","4","2","4","1","3","2","3","3","4","4","613040465838604288","庄","","","","","","","","","","","","","","","","","","","","","","","","","","","","","","feedback_test","","","","","","","","","",""
"780","","f","psychophysics","137","349556","0.0-7.0-1.0-4.0-0.0-0.15","3","4","4","3","3","3","4","3","4","4","4","3","2","4","5","4","4","5","4","4","1","1","2","1","2","2","1","3","1","1","0","1","1","0","0","1","1","1","1","-1","0","0","0","1","4","2","4","1","3","2","3","3","4","4","613040465838604288","庄","","","","match","","","","","","","","","","","","","","key","f","16.66707547169831","800","446","f","true","match","img/ellipse.png","椭圆","椭圆","ALT1","formal_ALT1_2","","","","","","","","","",""
"null","<span style='color:GreenYellow; font-size: 70px;'>正确! </span>","null","html-keyboard-response","138","350059","0.0-7.0-1.0-4.0-0.0-1.15","3","4","4","3","3","3","4","3","4","4","4","3","2","4","5","4","4","5","4","4","1","1","2","1","2","2","1","3","1","1","0","1","1","0","0","1","1","1","1","-1","0","0","0","1","4","2","4","1","3","2","3","3","4","4","613040465838604288","庄","","","","","","","","","","","","","","","","","","","","","","","","","","","","","","feedback_test","","","","","","","","","",""
"718","","f","psychophysics","139","351783","0.0-7.0-1.0-4.0-0.0-0.16","3","4","4","3","3","3","4","3","4","4","4","3","2","4","5","4","4","5","4","4","1","1","2","1","2","2","1","3","1","1","0","1","1","0","0","1","1","1","1","-1","0","0","0","1","4","2","4","1","3","2","3","3","4","4","613040465838604288","庄","","","","match","","","","","","","","","","","","","","key","f","16.667735294117616","800","446","f","true","match","img/ellipse.png","椭圆","椭圆","ALT1","formal_ALT1_2","","","","","","","","","",""
"null","<span style='color:GreenYellow; font-size: 70px;'>正确! </span>","null","html-keyboard-response","140","352291","0.0-7.0-1.0-4.0-0.0-1.16","3","4","4","3","3","3","4","3","4","4","4","3","2","4","5","4","4","5","4","4","1","1","2","1","2","2","1","3","1","1","0","1","1","0","0","1","1","1","1","-1","0","0","0","1","4","2","4","1","3","2","3","3","4","4","613040465838604288","庄","","","","","","","","","","","","","","","","","","","","","","","","","","","","","","feedback_test","","","","","","","","","",""
"1042","","f","psychophysics","141","354335","0.0-7.0-1.0-4.0-0.0-0.17","3","4","4","3","3","3","4","3","4","4","4","3","2","4","5","4","4","5","4","4","1","1","2","1","2","2","1","3","1","1","0","1","1","0","0","1","1","1","1","-1","0","0","0","1","4","2","4","1","3","2","3","3","4","4","613040465838604288","庄","","","","match","","","","","","","","","","","","","","key","f","16.667024793388602","800","446","f","true","match","img/diamond.png","菱形","菱形","ALT1","formal_ALT1_2","","","","","","","","","",""
"null","<span style='color:GreenYellow; font-size: 70px;'>正确! </span>","null","html-keyboard-response","142","354842","0.0-7.0-1.0-4.0-0.0-1.17","3","4","4","3","3","3","4","3","4","4","4","3","2","4","5","4","4","5","4","4","1","1","2","1","2","2","1","3","1","1","0","1","1","0","0","1","1","1","1","-1","0","0","0","1","4","2","4","1","3","2","3","3","4","4","613040465838604288","庄","","","","","","","","","","","","","","","","","","","","","","","","","","","","","","feedback_test","","","","","","","","","",""
"910","","j","psychophysics","143","356754","0.0-7.0-1.0-4.0-0.0-0.18","3","4","4","3","3","3","4","3","4","4","4","3","2","4","5","4","4","5","4","4","1","1","2","1","2","2","1","3","1","1","0","1","1","0","0","1","1","1","1","-1","0","0","0","1","4","2","4","1","3","2","3","3","4","4","613040465838604288","庄","","","","nonmatch","","","","","","","","","","","","","","key","j","16.66713274336282","800","446","j","true","nonmatch","img/diamond.png","三角","菱形","ALT1","formal_ALT1_2","","","","","","","","","",""
"null","<span style='color:GreenYellow; font-size: 70px;'>正确! </span>","null","html-keyboard-response","144","357259","0.0-7.0-1.0-4.0-0.0-1.18","3","4","4","3","3","3","4","3","4","4","4","3","2","4","5","4","4","5","4","4","1","1","2","1","2","2","1","3","1","1","0","1","1","0","0","1","1","1","1","-1","0","0","0","1","4","2","4","1","3","2","3","3","4","4","613040465838604288","庄","","","","","","","","","","","","","","","","","","","","","","","","","","","","","","feedback_test","","","","","","","","","",""
"924","","j","psychophysics","145","359185","0.0-7.0-1.0-4.0-0.0-0.19","3","4","4","3","3","3","4","3","4","4","4","3","2","4","5","4","4","5","4","4","1","1","2","1","2","2","1","3","1","1","0","1","1","0","0","1","1","1","1","-1","0","0","0","1","4","2","4","1","3","2","3","3","4","4","613040465838604288","庄","","","","nonmatch","","","","","","","","","","","","","","key","j","16.667035087719437","800","446","j","true","nonmatch","img/pentagon.png","椭圆","五边","ALT1","formal_ALT1_2","","","","","","","","","",""
"null","<span style='color:GreenYellow; font-size: 70px;'>正确! </span>","null","html-keyboard-response","146","359690","0.0-7.0-1.0-4.0-0.0-1.19","3","4","4","3","3","3","4","3","4","4","4","3","2","4","5","4","4","5","4","4","1","1","2","1","2","2","1","3","1","1","0","1","1","0","0","1","1","1","1","-1","0","0","0","1","4","2","4","1","3","2","3","3","4","4","613040465838604288","庄","","","","","","","","","","","","","","","","","","","","","","","","","","","","","","feedback_test","","","","","","","","","",""
"656","","f","psychophysics","147","361349","0.0-7.0-1.0-4.0-0.0-0.20","3","4","4","3","3","3","4","3","4","4","4","3","2","4","5","4","4","5","4","4","1","1","2","1","2","2","1","3","1","1","0","1","1","0","0","1","1","1","1","-1","0","0","0","1","4","2","4","1","3","2","3","3","4","4","613040465838604288","庄","","","","match","","","","","","","","","","","","","","key","f","16.667091836734695","800","446","f","true","match","img/triangle.png","三角","三角","ALT1","formal_ALT1_2","","","","","","","","","",""
"null","<span style='color:GreenYellow; font-size: 70px;'>正确! </span>","null","html-keyboard-response","148","361862","0.0-7.0-1.0-4.0-0.0-1.20","3","4","4","3","3","3","4","3","4","4","4","3","2","4","5","4","4","5","4","4","1","1","2","1","2","2","1","3","1","1","0","1","1","0","0","1","1","1","1","-1","0","0","0","1","4","2","4","1","3","2","3","3","4","4","613040465838604288","庄","","","","","","","","","","","","","","","","","","","","","","","","","","","","","","feedback_test","","","","","","","","","",""
"1026","","j","psychophysics","149","363892","0.0-7.0-1.0-4.0-0.0-0.21","3","4","4","3","3","3","4","3","4","4","4","3","2","4","5","4","4","5","4","4","1","1","2","1","2","2","1","3","1","1","0","1","1","0","0","1","1","1","1","-1","0","0","0","1","4","2","4","1","3","2","3","3","4","4","613040465838604288","庄","","","","nonmatch","","","","","","","","","","","","","","key","j","16.667191666666863","800","446","j","true","nonmatch","img/pentagon.png","三角","五边","ALT1","formal_ALT1_2","","","","","","","","","",""
"null","<span style='color:GreenYellow; font-size: 70px;'>正确! </span>","null","html-keyboard-response","150","364402","0.0-7.0-1.0-4.0-0.0-1.21","3","4","4","3","3","3","4","3","4","4","4","3","2","4","5","4","4","5","4","4","1","1","2","1","2","2","1","3","1","1","0","1","1","0","0","1","1","1","1","-1","0","0","0","1","4","2","4","1","3","2","3","3","4","4","613040465838604288","庄","","","","","","","","","","","","","","","","","","","","","","","","","","","","","","feedback_test","","","","","","","","","",""
"707","","f","psychophysics","151","366115","0.0-7.0-1.0-4.0-0.0-0.22","3","4","4","3","3","3","4","3","4","4","4","3","2","4","5","4","4","5","4","4","1","1","2","1","2","2","1","3","1","1","0","1","1","0","0","1","1","1","1","-1","0","0","0","1","4","2","4","1","3","2","3","3","4","4","613040465838604288","庄","","","","match","","","","","","","","","","","","","","key","f","16.66708823529417","800","446","f","true","match","img/triangle.png","三角","三角","ALT1","formal_ALT1_2","","","","","","","","","",""
"null","<span style='color:GreenYellow; font-size: 70px;'>正确! </span>","null","html-keyboard-response","152","366619","0.0-7.0-1.0-4.0-0.0-1.22","3","4","4","3","3","3","4","3","4","4","4","3","2","4","5","4","4","5","4","4","1","1","2","1","2","2","1","3","1","1","0","1","1","0","0","1","1","1","1","-1","0","0","0","1","4","2","4","1","3","2","3","3","4","4","613040465838604288","庄","","","","","","","","","","","","","","","","","","","","","","","","","","","","","","feedback_test","","","","","","","","","",""
"734","","f","psychophysics","153","368358","0.0-7.0-1.0-4.0-0.0-0.23","3","4","4","3","3","3","4","3","4","4","4","3","2","4","5","4","4","5","4","4","1","1","2","1","2","2","1","3","1","1","0","1","1","0","0","1","1","1","1","-1","0","0","0","1","4","2","4","1","3","2","3","3","4","4","613040465838604288","庄","","","","match","","","","","","","","","","","","","","key","f","16.667019417476094","800","446","f","true","match","img/pentagon.png","五边","五边","ALT1","formal_ALT1_2","","","","","","","","","",""
"null","<span style='color:GreenYellow; font-size: 70px;'>正确! </span>","null","html-keyboard-response","154","368867","0.0-7.0-1.0-4.0-0.0-1.23","3","4","4","3","3","3","4","3","4","4","4","3","2","4","5","4","4","5","4","4","1","1","2","1","2","2","1","3","1","1","0","1","1","0","0","1","1","1","1","-1","0","0","0","1","4","2","4","1","3","2","3","3","4","4","613040465838604288","庄","","","","","","","","","","","","","","","","","","","","","","","","","","","","","","feedback_test","","","","","","","","","",""
"859","","f","psychophysics","155","370733","0.0-7.0-1.0-4.0-0.0-0.24","3","4","4","3","3","3","4","3","4","4","4","3","2","4","5","4","4","5","4","4","1","1","2","1","2","2","1","3","1","1","0","1","1","0","0","1","1","1","1","-1","0","0","0","1","4","2","4","1","3","2","3","3","4","4","613040465838604288","庄","","","","match","","","","","","","","","","","","","","key","f","16.66686486486484","800","446","j","false","nonmatch","img/pentagon.png","菱形","五边","ALT1","formal_ALT1_2","","","","","","","","","",""
"null","<span style='color:red; font-size: 70px;'>错误! </span>","null","html-keyboard-response","156","371235","0.0-7.0-1.0-4.0-0.0-1.24","3","4","4","3","3","3","4","3","4","4","4","3","2","4","5","4","4","5","4","4","1","1","2","1","2","2","1","3","1","1","0","1","1","0","0","1","1","1","1","-1","0","0","0","1","4","2","4","1","3","2","3","3","4","4","613040465838604288","庄","","","","","","","","","","","","","","","","","","","","","","","","","","","","","","feedback_test","","","","","","","","","",""
"740","","f","psychophysics","157","372983","0.0-7.0-1.0-4.0-0.0-0.25","3","4","4","3","3","3","4","3","4","4","4","3","2","4","5","4","4","5","4","4","1","1","2","1","2","2","1","3","1","1","0","1","1","0","0","1","1","1","1","-1","0","0","0","1","4","2","4","1","3","2","3","3","4","4","613040465838604288","庄","","","","match","","","","","","","","","","","","","","key","f","16.66692307692294","800","446","f","true","match","img/ellipse.png","椭圆","椭圆","ALT1","formal_ALT1_2","","","","","","","","","",""
"null","<span style='color:GreenYellow; font-size: 70px;'>正确! </span>","null","html-keyboard-response","158","373491","0.0-7.0-1.0-4.0-0.0-1.25","3","4","4","3","3","3","4","3","4","4","4","3","2","4","5","4","4","5","4","4","1","1","2","1","2","2","1","3","1","1","0","1","1","0","0","1","1","1","1","-1","0","0","0","1","4","2","4","1","3","2","3","3","4","4","613040465838604288","庄","","","","","","","","","","","","","","","","","","","","","","","","","","","","","","feedback_test","","","","","","","","","",""
"680","","f","psychophysics","159","375174","0.0-7.0-1.0-4.0-0.0-0.26","3","4","4","3","3","3","4","3","4","4","4","3","2","4","5","4","4","5","4","4","1","1","2","1","2","2","1","3","1","1","0","1","1","0","0","1","1","1","1","-1","0","0","0","1","4","2","4","1","3","2","3","3","4","4","613040465838604288","庄","","","","match","","","","","","","","","","","","","","key","f","16.66691919191884","800","446","j","false","nonmatch","img/triangle.png","菱形","三角","ALT1","formal_ALT1_2","","","","","","","","","",""
"null","<span style='color:red; font-size: 70px;'>错误! </span>","null","html-keyboard-response","160","375682","0.0-7.0-1.0-4.0-0.0-1.26","3","4","4","3","3","3","4","3","4","4","4","3","2","4","5","4","4","5","4","4","1","1","2","1","2","2","1","3","1","1","0","1","1","0","0","1","1","1","1","-1","0","0","0","1","4","2","4","1","3","2","3","3","4","4","613040465838604288","庄","","","","","","","","","","","","","","","","","","","","","","","","","","","","","","feedback_test","","","","","","","","","",""
"674","","f","psychophysics","161","377364","0.0-7.0-1.0-4.0-0.0-0.27","3","4","4","3","3","3","4","3","4","4","4","3","2","4","5","4","4","5","4","4","1","1","2","1","2","2","1","3","1","1","0","1","1","0","0","1","1","1","1","-1","0","0","0","1","4","2","4","1","3","2","3","3","4","4","613040465838604288","庄","","","","match","","","","","","","","","","","","","","key","f","16.66682999999961","800","446","f","true","match","img/pentagon.png","五边","五边","ALT1","formal_ALT1_2","","","","","","","","","",""
"null","<span style='color:GreenYellow; font-size: 70px;'>正确! </span>","null","html-keyboard-response","162","377866","0.0-7.0-1.0-4.0-0.0-1.27","3","4","4","3","3","3","4","3","4","4","4","3","2","4","5","4","4","5","4","4","1","1","2","1","2","2","1","3","1","1","0","1","1","0","0","1","1","1","1","-1","0","0","0","1","4","2","4","1","3","2","3","3","4","4","613040465838604288","庄","","","","","","","","","","","","","","","","","","","","","","","","","","","","","","feedback_test","","","","","","","","","",""
"948","","j","psychophysics","163","379822","0.0-7.0-1.0-4.0-0.0-0.28","3","4","4","3","3","3","4","3","4","4","4","3","2","4","5","4","4","5","4","4","1","1","2","1","2","2","1","3","1","1","0","1","1","0","0","1","1","1","1","-1","0","0","0","1","4","2","4","1","3","2","3","3","4","4","613040465838604288","庄","","","","nonmatch","","","","","","","","","","","","","","key","j","16.667568965517447","800","446","j","true","nonmatch","img/triangle.png","五边","三角","ALT1","formal_ALT1_2","","","","","","","","","",""
"null","<span style='color:GreenYellow; font-size: 70px;'>正确! </span>","null","html-keyboard-response","164","380331","0.0-7.0-1.0-4.0-0.0-1.28","3","4","4","3","3","3","4","3","4","4","4","3","2","4","5","4","4","5","4","4","1","1","2","1","2","2","1","3","1","1","0","1","1","0","0","1","1","1","1","-1","0","0","0","1","4","2","4","1","3","2","3","3","4","4","613040465838604288","庄","","","","","","","","","","","","","","","","","","","","","","","","","","","","","","feedback_test","","","","","","","","","",""
"798","","j","psychophysics","165","382136","0.0-7.0-1.0-4.0-0.0-0.29","3","4","4","3","3","3","4","3","4","4","4","3","2","4","5","4","4","5","4","4","1","1","2","1","2","2","1","3","1","1","0","1","1","0","0","1","1","1","1","-1","0","0","0","1","4","2","4","1","3","2","3","3","4","4","613040465838604288","庄","","","","nonmatch","","","","","","","","","","","","","","key","j","16.666663551401722","800","446","j","true","nonmatch","img/ellipse.png","五边","椭圆","ALT1","formal_ALT1_2","","","","","","","","","",""
"null","<span style='color:GreenYellow; font-size: 70px;'>正确! </span>","null","html-keyboard-response","166","382643","0.0-7.0-1.0-4.0-0.0-1.29","3","4","4","3","3","3","4","3","4","4","4","3","2","4","5","4","4","5","4","4","1","1","2","1","2","2","1","3","1","1","0","1","1","0","0","1","1","1","1","-1","0","0","0","1","4","2","4","1","3","2","3","3","4","4","613040465838604288","庄","","","","","","","","","","","","","","","","","","","","","","","","","","","","","","feedback_test","","","","","","","","","",""
"793","","f","psychophysics","167","384474","0.0-7.0-1.0-4.0-0.0-0.30","3","4","4","3","3","3","4","3","4","4","4","3","2","4","5","4","4","5","4","4","1","1","2","1","2","2","1","3","1","1","0","1","1","0","0","1","1","1","1","-1","0","0","0","1","4","2","4","1","3","2","3","3","4","4","613040465838604288","庄","","","","match","","","","","","","","","","","","","","key","f","16.666766355140027","800","446","f","true","match","img/diamond.png","菱形","菱形","ALT1","formal_ALT1_2","","","","","","","","","",""
"null","<span style='color:GreenYellow; font-size: 70px;'>正确! </span>","null","html-keyboard-response","168","384979","0.0-7.0-1.0-4.0-0.0-1.30","3","4","4","3","3","3","4","3","4","4","4","3","2","4","5","4","4","5","4","4","1","1","2","1","2","2","1","3","1","1","0","1","1","0","0","1","1","1","1","-1","0","0","0","1","4","2","4","1","3","2","3","3","4","4","613040465838604288","庄","","","","","","","","","","","","","","","","","","","","","","","","","","","","","","feedback_test","","","","","","","","","",""
"776","","f","psychophysics","169","386762","0.0-7.0-1.0-4.0-0.0-0.31","3","4","4","3","3","3","4","3","4","4","4","3","2","4","5","4","4","5","4","4","1","1","2","1","2","2","1","3","1","1","0","1","1","0","0","1","1","1","1","-1","0","0","0","1","4","2","4","1","3","2","3","3","4","4","613040465838604288","庄","","","","match","","","","","","","","","","","","","","key","f","16.667122641509128","800","446","f","true","match","img/pentagon.png","五边","五边","ALT1","formal_ALT1_2","","","","","","","","","",""
"null","<span style='color:GreenYellow; font-size: 70px;'>正确! </span>","null","html-keyboard-response","170","387267","0.0-7.0-1.0-4.0-0.0-1.31","3","4","4","3","3","3","4","3","4","4","4","3","2","4","5","4","4","5","4","4","1","1","2","1","2","2","1","3","1","1","0","1","1","0","0","1","1","1","1","-1","0","0","0","1","4","2","4","1","3","2","3","3","4","4","613040465838604288","庄","","","","","","","","","","","","","","","","","","","","","","","","","","","","","","feedback_test","","","","","","","","","",""
"740","","j","psychophysics","171","389014","0.0-7.0-1.0-4.0-0.0-0.32","3","4","4","3","3","3","4","3","4","4","4","3","2","4","5","4","4","5","4","4","1","1","2","1","2","2","1","3","1","1","0","1","1","0","0","1","1","1","1","-1","0","0","0","1","4","2","4","1","3","2","3","3","4","4","613040465838604288","庄","","","","nonmatch","","","","","","","","","","","","","","key","j","16.66687499999982","800","446","j","true","nonmatch","img/triangle.png","椭圆","三角","ALT1","formal_ALT1_2","","","","","","","","","",""
"null","<span style='color:GreenYellow; font-size: 70px;'>正确! </span>","null","html-keyboard-response","172","389522","0.0-7.0-1.0-4.0-0.0-1.32","3","4","4","3","3","3","4","3","4","4","4","3","2","4","5","4","4","5","4","4","1","1","2","1","2","2","1","3","1","1","0","1","1","0","0","1","1","1","1","-1","0","0","0","1","4","2","4","1","3","2","3","3","4","4","613040465838604288","庄","","","","","","","","","","","","","","","","","","","","","","","","","","","","","","feedback_test","","","","","","","","","",""
"852","","j","psychophysics","173","391378","0.0-7.0-1.0-4.0-0.0-0.33","3","4","4","3","3","3","4","3","4","4","4","3","2","4","5","4","4","5","4","4","1","1","2","1","2","2","1","3","1","1","0","1","1","0","0","1","1","1","1","-1","0","0","0","1","4","2","4","1","3","2","3","3","4","4","613040465838604288","庄","","","","nonmatch","","","","","","","","","","","","","","key","j","16.666846846847015","800","446","j","true","nonmatch","img/ellipse.png","菱形","椭圆","ALT1","formal_ALT1_2","","","","","","","","","",""
"null","<span style='color:GreenYellow; font-size: 70px;'>正确! </span>","null","html-keyboard-response","174","391882","0.0-7.0-1.0-4.0-0.0-1.33","3","4","4","3","3","3","4","3","4","4","4","3","2","4","5","4","4","5","4","4","1","1","2","1","2","2","1","3","1","1","0","1","1","0","0","1","1","1","1","-1","0","0","0","1","4","2","4","1","3","2","3","3","4","4","613040465838604288","庄","","","","","","","","","","","","","","","","","","","","","","","","","","","","","","feedback_test","","","","","","","","","",""
"897","","j","psychophysics","175","393788","0.0-7.0-1.0-4.0-0.0-0.34","3","4","4","3","3","3","4","3","4","4","4","3","2","4","5","4","4","5","4","4","1","1","2","1","2","2","1","3","1","1","0","1","1","0","0","1","1","1","1","-1","0","0","0","1","4","2","4","1","3","2","3","3","4","4","613040465838604288","庄","","","","nonmatch","","","","","","","","","","","","","","key","j","16.667212389380694","800","446","j","true","nonmatch","img/diamond.png","三角","菱形","ALT1","formal_ALT1_2","","","","","","","","","",""
"null","<span style='color:GreenYellow; font-size: 70px;'>正确! </span>","null","html-keyboard-response","176","394292","0.0-7.0-1.0-4.0-0.0-1.34","3","4","4","3","3","3","4","3","4","4","4","3","2","4","5","4","4","5","4","4","1","1","2","1","2","2","1","3","1","1","0","1","1","0","0","1","1","1","1","-1","0","0","0","1","4","2","4","1","3","2","3","3","4","4","613040465838604288","庄","","","","","","","","","","","","","","","","","","","","","","","","","","","","","","feedback_test","","","","","","","","","",""
"676","","f","psychophysics","177","395969","0.0-7.0-1.0-4.0-0.0-0.35","3","4","4","3","3","3","4","3","4","4","4","3","2","4","5","4","4","5","4","4","1","1","2","1","2","2","1","3","1","1","0","1","1","0","0","1","1","1","1","-1","0","0","0","1","4","2","4","1","3","2","3","3","4","4","613040465838604288","庄","","","","match","","","","","","","","","","","","","","key","f","16.667181818181593","800","446","f","true","match","img/ellipse.png","椭圆","椭圆","ALT1","formal_ALT1_2","","","","","","","","","",""
"null","<span style='color:GreenYellow; font-size: 70px;'>正确! </span>","null","html-keyboard-response","178","396475","0.0-7.0-1.0-4.0-0.0-1.35","3","4","4","3","3","3","4","3","4","4","4","3","2","4","5","4","4","5","4","4","1","1","2","1","2","2","1","3","1","1","0","1","1","0","0","1","1","1","1","-1","0","0","0","1","4","2","4","1","3","2","3","3","4","4","613040465838604288","庄","","","","","","","","","","","","","","","","","","","","","","","","","","","","","","feedback_test","","","","","","","","","",""
"740","","j","psychophysics","179","398217","0.0-7.0-1.0-4.0-0.0-0.36","3","4","4","3","3","3","4","3","4","4","4","3","2","4","5","4","4","5","4","4","1","1","2","1","2","2","1","3","1","1","0","1","1","0","0","1","1","1","1","-1","0","0","0","1","4","2","4","1","3","2","3","3","4","4","613040465838604288","庄","","","","nonmatch","","","","","","","","","","","","","","key","j","16.66622330097129","800","446","j","true","nonmatch","img/ellipse.png","三角","椭圆","ALT1","formal_ALT1_2","","","","","","","","","",""
"null","<span style='color:GreenYellow; font-size: 70px;'>正确! </span>","null","html-keyboard-response","180","398723","0.0-7.0-1.0-4.0-0.0-1.36","3","4","4","3","3","3","4","3","4","4","4","3","2","4","5","4","4","5","4","4","1","1","2","1","2","2","1","3","1","1","0","1","1","0","0","1","1","1","1","-1","0","0","0","1","4","2","4","1","3","2","3","3","4","4","613040465838604288","庄","","","","","","","","","","","","","","","","","","","","","","","","","","","","","","feedback_test","","","","","","","","","",""
"null","","null","psychophysics","181","400932","0.0-7.0-1.0-4.0-0.0-0.37","3","4","4","3","3","3","4","3","4","4","4","3","2","4","5","4","4","5","4","4","1","1","2","1","2","2","1","3","1","1","0","1","1","0","0","1","1","1","1","-1","0","0","0","1","4","2","4","1","3","2","3","3","4","4","613040465838604288","庄","","","","null","","","","","","","","","","","","","","key","null","16.666916666666634","800","446","j","false","nonmatch","img/pentagon.png","椭圆","五边","ALT1","formal_ALT1_2","","","","","","","","","",""
"null","<span class='add_' style='color:yellow; font-size: 70px;'> 太慢! </span>","null","html-keyboard-response","182","401435","0.0-7.0-1.0-4.0-0.0-1.37","3","4","4","3","3","3","4","3","4","4","4","3","2","4","5","4","4","5","4","4","1","1","2","1","2","2","1","3","1","1","0","1","1","0","0","1","1","1","1","-1","0","0","0","1","4","2","4","1","3","2","3","3","4","4","613040465838604288","庄","","","","","","","","","","","","","","","","","","","","","","","","","","","","","","feedback_test","","","","","","","","","",""
"634","","f","psychophysics","183","403077","0.0-7.0-1.0-4.0-0.0-0.38","3","4","4","3","3","3","4","3","4","4","4","3","2","4","5","4","4","5","4","4","1","1","2","1","2","2","1","3","1","1","0","1","1","0","0","1","1","1","1","-1","0","0","0","1","4","2","4","1","3","2","3","3","4","4","613040465838604288","庄","","","","match","","","","","","","","","","","","","","key","f","16.667040816326484","800","446","f","true","match","img/ellipse.png","椭圆","椭圆","ALT1","formal_ALT1_2","","","","","","","","","",""
"null","<span style='color:GreenYellow; font-size: 70px;'>正确! </span>","null","html-keyboard-response","184","403579","0.0-7.0-1.0-4.0-0.0-1.38","3","4","4","3","3","3","4","3","4","4","4","3","2","4","5","4","4","5","4","4","1","1","2","1","2","2","1","3","1","1","0","1","1","0","0","1","1","1","1","-1","0","0","0","1","4","2","4","1","3","2","3","3","4","4","613040465838604288","庄","","","","","","","","","","","","","","","","","","","","","","","","","","","","","","feedback_test","","","","","","","","","",""
"735","","f","psychophysics","185","405322","0.0-7.0-1.0-4.0-0.0-0.39","3","4","4","3","3","3","4","3","4","4","4","3","2","4","5","4","4","5","4","4","1","1","2","1","2","2","1","3","1","1","0","1","1","0","0","1","1","1","1","-1","0","0","0","1","4","2","4","1","3","2","3","3","4","4","613040465838604288","庄","","","","match","","","","","","","","","","","","","","key","f","16.666980582524488","800","446","j","false","nonmatch","img/diamond.png","五边","菱形","ALT1","formal_ALT1_2","","","","","","","","","",""
"null","<span style='color:red; font-size: 70px;'>错误! </span>","null","html-keyboard-response","186","405826","0.0-7.0-1.0-4.0-0.0-1.39","3","4","4","3","3","3","4","3","4","4","4","3","2","4","5","4","4","5","4","4","1","1","2","1","2","2","1","3","1","1","0","1","1","0","0","1","1","1","1","-1","0","0","0","1","4","2","4","1","3","2","3","3","4","4","613040465838604288","庄","","","","","","","","","","","","","","","","","","","","","","","","","","","","","","feedback_test","","","","","","","","","",""
