"rt","stimulus","response","trial_type","trial_index","time_elapsed","internal_node_id","ses_1","ses_2","ses_3","ses_4","ses_5","ses_6","ses_7","ses_8","ses_9","ses_10","coreself_1","coreself_2","coreself_3","coreself_4","coreself_5","coreself_6","coreself_7","coreself_8","coreself_9","coreself_10","SGPS_1","SGPS_2","SGPS_3","SGPS_4","SGPS_5","SGPS_6","SGPS_7","SGPS_8","SGPS_9","NPI1","NPI2","NPI3","NPI4","NPI5","NPI6","NPI7","NPI8","NPI9","NPI10","NPI11","NPI12","NPI13","NPI14","NPI15","hsns_1","hsns_2","hsns_3","hsns_4","hsns_5","hsns_6","hsns_7","hsns_8","hsns_9","hsns_10","subj_idx","friend_name","value","success","user_agent","responses","item_order","radio_event_ids","radio_event_times","key_event_times","mouse_event_times","straightlining","zigzagging","honeypot","timeout","failed_images","failed_audio","failed_video","view_history","response_type","key_press","avg_frame_time","center_x","center_y","correct_response","correct","identity","Image","word","condition","task_id","screen_id","time_stamp","version_attrib","version_target","IAT","RT","varname","summary","version_attrib2","version_target2","question_order"
"6112","
   <p><div style = ""color: white;font-size:25px;"">您好，欢迎参加本次实验。</div> </p>
   <p><div style = ""color: white;font-size:25px;"">为充分保障您的权利，请确保您已经知晓并同意《参与实验同意书》以及《数据公开知情同意书》。</div></p>
   <p><div style = ""color: white;font-size:25px;"">如果您未见过上述内容，请咨询实验员。</div></p>
   <p><div style = ""color: white;font-size:25px;"">如果您选择继续实验，则表示您已经清楚两份知情同意书的内容并同意。</div></p>
   <p> <div style = ""color: green;font-size:25px;""><按空格键至下页></div> </p>
   "," ","html-keyboard-response","0","6122","0.0-0.0","4","3","4","3","4","3","3","4","4","4","4","5","4","4","3","5","4","4","4","5","2","2","2","2","2","3","2","2","2","1","0","1","1","0","0","0","1","0","1","-1","0","1","0","1","4","2","4","2","2","2","2","2","3","2","745398419547492353","姚","","","","","","","","","","","","","","","","","","","","","","","","","","","","","","","","","","","","","","","",""
"","","","call-function","1","6128","0.0-1.0-0.0","4","3","4","3","4","3","3","4","4","4","4","5","4","4","3","5","4","4","4","5","2","2","2","2","2","3","2","2","2","1","0","1","1","0","0","0","1","0","1","-1","0","1","0","1","4","2","4","2","2","2","2","2","3","2","745398419547492353","姚","","","","","","","","","","","","","","","","","","","","","","","","","","","","","","","","","","","","","","","",""
"22005","","{""friend_name"":""姚""}","survey-html-form","2","28139","0.0-1.0-1.0","4","3","4","3","4","3","3","4","4","4","4","5","4","4","3","5","4","4","4","5","2","2","2","2","2","3","2","2","2","1","0","1","1","0","0","0","1","0","1","-1","0","1","0","1","4","2","4","2","2","2","2","2","3","2","745398419547492353","姚","","","","","","","","","","","","","","","","","","","","","","","","","","","","","","","","","","","","","","","",""
"","","","fullscreen","3","56407","0.0-2.0","4","3","4","3","4","3","3","4","4","4","4","5","4","4","3","5","4","4","4","5","2","2","2","2","2","3","2","2","2","1","0","1","1","0","0","0","1","0","1","-1","0","1","0","1","4","2","4","2","2","2","2","2","3","2","745398419547492353","姚","","true","{}","","","","","","","","","","","","","","","","","","","","","","","","","","","","","","","","","","","","",""
"36731.59999999998","","{""Q01"":""4"",""Q02"":""3"",""Q03"":""4"",""Q04"":""3"",""Q05"":""4"",""Q06"":""3"",""Q07"":""3"",""Q08"":""4"",""Q09"":""4"",""Q10"":""4""}","survey-template","4","93151","0.0-3.0","4","3","4","3","4","3","3","4","4","4","4","5","4","4","3","5","4","4","4","5","2","2","2","2","2","3","2","2","2","1","0","1","1","0","0","0","1","0","1","-1","0","1","0","1","4","2","4","2","2","2","2","2","3","2","745398419547492353","姚","","","","{""Q01"":""4"",""Q02"":""3"",""Q03"":""4"",""Q04"":""3"",""Q05"":""4"",""Q06"":""3"",""Q07"":""3"",""Q08"":""4"",""Q09"":""4"",""Q10"":""4""}","[0,1,2,3,4,5,6,7,8,9]","[""Q01"",""Q02"",""Q02"",""Q03"",""Q04"",""Q05"",""Q06"",""Q07"",""Q08"",""Q09"",""Q10""]","[5201.299999999988,7036.599999999977,8489.299999999988,11276.299999999988,17702.29999999999,21254.29999999999,24924.099999999977,26776.29999999999,29414.79999999999,31184.29999999999,32613.899999999965]","[]","[5201.299999999988,7036.599999999977,8489.299999999988,11276.299999999988,17702.29999999999,21254.29999999999,24924.099999999977,26776.29999999999,29414.79999999999,31184.29999999999,32613.899999999965,36727]","0.5","0.1111111111111111","0","","","","","","","","","","","","","","","","","","","","","","","","","","","",""
"43292.399999999965","","{""Q01"":""4"",""Q02"":""5"",""Q03"":""4"",""Q04"":""4"",""Q05"":""3"",""Q06"":""5"",""Q07"":""4"",""Q08"":""4"",""Q09"":""4"",""Q10"":""5""}","survey-template","5","136467","0.0-4.0","4","3","4","3","4","3","3","4","4","4","4","5","4","4","3","5","4","4","4","5","2","2","2","2","2","3","2","2","2","1","0","1","1","0","0","0","1","0","1","-1","0","1","0","1","4","2","4","2","2","2","2","2","3","2","745398419547492353","姚","","","","{""Q01"":""4"",""Q02"":""5"",""Q03"":""4"",""Q04"":""4"",""Q05"":""3"",""Q06"":""5"",""Q07"":""4"",""Q08"":""4"",""Q09"":""4"",""Q10"":""5""}","[0,1,2,3,4,5,6,7,8,9]","[""Q01"",""Q02"",""Q03"",""Q03"",""Q04"",""Q05"",""Q05"",""Q06"",""Q06"",""Q07"",""Q07"",""Q08"",""Q09"",""Q10""]","[3387.7999999999884,5128.700000000012,6262.099999999977,7470.799999999988,14114.799999999988,16337.5,20483.5,22362.099999999977,24875.20000000001,27209.70000000001,29306.399999999965,34402.5,37111.5,41418.399999999965]","[]","[3387.7999999999884,5128.700000000012,6262.099999999977,7470.799999999988,14114.799999999988,16337.5,20483.5,22362.099999999977,24875.20000000001,27209.70000000001,29306.399999999965,34402.5,37111.5,41418.399999999965,43286.59999999998]","0.3","0.2222222222222222","0","","","","","","","","","","","","","","","","","","","","","","","","","","","",""
"","","","preload","6","137140","0.0-5.0","4","3","4","3","4","3","3","4","4","4","4","5","4","4","3","5","4","4","4","5","2","2","2","2","2","3","2","2","2","1","0","1","1","0","0","0","1","0","1","-1","0","1","0","1","4","2","4","2","2","2","2","2","3","2","745398419547492353","姚","","true","","","","","","","","","","","false","[]","[]","[]","","","","","","","","","","","","","","","","","","","","","","","",""
"10412","","","instructions","7","147554","0.0-6.0","4","3","4","3","4","3","3","4","4","4","4","5","4","4","3","5","4","4","4","5","2","2","2","2","2","3","2","2","2","1","0","1","1","0","0","0","1","0","1","-1","0","1","0","1","4","2","4","2","2","2","2","2","3","2","745398419547492353","姚","","","","","","","","","","","","","","","","","[{""page_index"":0,""viewing_time"":10411}]","","","","","","","","","","","","","","","","","","","","","","",""
"28032","","","instructions","8","175593","0.0-7.0-1.0-0.0","4","3","4","3","4","3","3","4","4","4","4","5","4","4","3","5","4","4","4","5","2","2","2","2","2","3","2","2","2","1","0","1","1","0","0","0","1","0","1","-1","0","1","0","1","4","2","4","2","2","2","2","2","3","2","745398419547492353","姚","","","","","","","","","","","","","","","","","[{""page_index"":0,""viewing_time"":10040},{""page_index"":1,""viewing_time"":15309},{""page_index"":2,""viewing_time"":2683}]","","","","","","","","","","","","","","","","","","","","","","",""
"null","","null","psychophysics","9","177909","0.0-7.0-1.0-1.0-0.0-0.0","4","3","4","3","4","3","3","4","4","4","4","5","4","4","3","5","4","4","4","5","2","2","2","2","2","3","2","2","2","1","0","1","1","0","0","0","1","0","1","-1","0","1","0","1","4","2","4","2","2","2","2","2","3","2","745398419547492353","姚","","","","null","","","","","","","","","","","","","","key","null","23.608206521738992","683","380","f","false","match","img/trapezoid.png","梯形","梯形","ALT1_2","prac_ALT1_2","","","","","","","","","",""
"null","<span class='add_' style='color:yellow; font-size: 70px;'> 太慢! </span>","null","html-keyboard-response","10","178413","0.0-7.0-1.0-1.0-0.0-1.0","4","3","4","3","4","3","3","4","4","4","4","5","4","4","3","5","4","4","4","5","2","2","2","2","2","3","2","2","2","1","0","1","1","0","0","0","1","0","1","-1","0","1","0","1","4","2","4","2","2","2","2","2","3","2","745398419547492353","姚","","","","","","","","","","","","","","","","","","","","","","","","","","","","","","feedback_test","","","","","","","","","",""
"1095","","f","psychophysics","11","180584","0.0-7.0-1.0-1.0-0.0-0.1","4","3","4","3","4","3","3","4","4","4","4","5","4","4","3","5","4","4","4","5","2","2","2","2","2","3","2","2","2","1","0","1","1","0","0","0","1","0","1","-1","0","1","0","1","4","2","4","2","2","2","2","2","3","2","745398419547492353","姚","","","","match","","","","","","","","","","","","","","key","f","24.376829545454793","683","380","f","true","match","img/ellipse.png","椭圆","椭圆","ALT1_2","prac_ALT1_2","","","","","","","","","",""
"null","<span style='color:GreenYellow; font-size: 70px;'>正确! </span>","null","html-keyboard-response","12","181094","0.0-7.0-1.0-1.0-0.0-1.1","4","3","4","3","4","3","3","4","4","4","4","5","4","4","3","5","4","4","4","5","2","2","2","2","2","3","2","2","2","1","0","1","1","0","0","0","1","0","1","-1","0","1","0","1","4","2","4","2","2","2","2","2","3","2","745398419547492353","姚","","","","","","","","","","","","","","","","","","","","","","","","","","","","","","feedback_test","","","","","","","","","",""
"762","","f","psychophysics","13","182901","0.0-7.0-1.0-1.0-0.0-0.2","4","3","4","3","4","3","3","4","4","4","4","5","4","4","3","5","4","4","4","5","2","2","2","2","2","3","2","2","2","1","0","1","1","0","0","0","1","0","1","-1","0","1","0","1","4","2","4","2","2","2","2","2","3","2","745398419547492353","姚","","","","match","","","","","","","","","","","","","","key","f","23.857932432432346","683","380","f","true","match","img/triangle.png","三角","三角","ALT1_2","prac_ALT1_2","","","","","","","","","",""
"null","<span style='color:GreenYellow; font-size: 70px;'>正确! </span>","null","html-keyboard-response","14","183405","0.0-7.0-1.0-1.0-0.0-1.2","4","3","4","3","4","3","3","4","4","4","4","5","4","4","3","5","4","4","4","5","2","2","2","2","2","3","2","2","2","1","0","1","1","0","0","0","1","0","1","-1","0","1","0","1","4","2","4","2","2","2","2","2","3","2","745398419547492353","姚","","","","","","","","","","","","","","","","","","","","","","","","","","","","","","feedback_test","","","","","","","","","",""
"806","","f","psychophysics","15","185238","0.0-7.0-1.0-1.0-0.0-0.3","4","3","4","3","4","3","3","4","4","4","4","5","4","4","3","5","4","4","4","5","2","2","2","2","2","3","2","2","2","1","0","1","1","0","0","0","1","0","1","-1","0","1","0","1","4","2","4","2","2","2","2","2","3","2","745398419547492353","姚","","","","match","","","","","","","","","","","","","","key","f","20.881045977011304","683","380","f","true","match","img/pentagon.png","五边","五边","ALT1_2","prac_ALT1_2","","","","","","","","","",""
"null","<span style='color:GreenYellow; font-size: 70px;'>正确! </span>","null","html-keyboard-response","16","185752","0.0-7.0-1.0-1.0-0.0-1.3","4","3","4","3","4","3","3","4","4","4","4","5","4","4","3","5","4","4","4","5","2","2","2","2","2","3","2","2","2","1","0","1","1","0","0","0","1","0","1","-1","0","1","0","1","4","2","4","2","2","2","2","2","3","2","745398419547492353","姚","","","","","","","","","","","","","","","","","","","","","","","","","","","","","","feedback_test","","","","","","","","","",""
"952","","j","psychophysics","17","187716","0.0-7.0-1.0-1.0-0.0-0.4","4","3","4","3","4","3","3","4","4","4","4","5","4","4","3","5","4","4","4","5","2","2","2","2","2","3","2","2","2","1","0","1","1","0","0","0","1","0","1","-1","0","1","0","1","4","2","4","2","2","2","2","2","3","2","745398419547492353","姚","","","","nonmatch","","","","","","","","","","","","","","key","j","21.2751573033708","683","380","j","true","nonmatch","img/trapezoid.png","三角","梯形","ALT1_2","prac_ALT1_2","","","","","","","","","",""
"null","<span style='color:GreenYellow; font-size: 70px;'>正确! </span>","null","html-keyboard-response","18","188221","0.0-7.0-1.0-1.0-0.0-1.4","4","3","4","3","4","3","3","4","4","4","4","5","4","4","3","5","4","4","4","5","2","2","2","2","2","3","2","2","2","1","0","1","1","0","0","0","1","0","1","-1","0","1","0","1","4","2","4","2","2","2","2","2","3","2","745398419547492353","姚","","","","","","","","","","","","","","","","","","","","","","","","","","","","","","feedback_test","","","","","","","","","",""
"926","","f","psychophysics","19","190165","0.0-7.0-1.0-1.0-0.0-0.5","4","3","4","3","4","3","3","4","4","4","4","5","4","4","3","5","4","4","4","5","2","2","2","2","2","3","2","2","2","1","0","1","1","0","0","0","1","0","1","-1","0","1","0","1","4","2","4","2","2","2","2","2","3","2","745398419547492353","姚","","","","match","","","","","","","","","","","","","","key","f","20.882219780219533","683","380","j","false","nonmatch","img/ellipse.png","梯形","椭圆","ALT1_2","prac_ALT1_2","","","","","","","","","",""
"null","<span style='color:red; font-size: 70px;'>错误! </span>","null","html-keyboard-response","20","190676","0.0-7.0-1.0-1.0-0.0-1.5","4","3","4","3","4","3","3","4","4","4","4","5","4","4","3","5","4","4","4","5","2","2","2","2","2","3","2","2","2","1","0","1","1","0","0","0","1","0","1","-1","0","1","0","1","4","2","4","2","2","2","2","2","3","2","745398419547492353","姚","","","","","","","","","","","","","","","","","","","","","","","","","","","","","","feedback_test","","","","","","","","","",""
"758","","j","psychophysics","21","192465","0.0-7.0-1.0-1.0-0.0-0.6","4","3","4","3","4","3","3","4","4","4","4","5","4","4","3","5","4","4","4","5","2","2","2","2","2","3","2","2","2","1","0","1","1","0","0","0","1","0","1","-1","0","1","0","1","4","2","4","2","2","2","2","2","3","2","745398419547492353","姚","","","","nonmatch","","","","","","","","","","","","","","key","j","22.506512820512842","683","380","f","false","match","img/ellipse.png","椭圆","椭圆","ALT1_2","prac_ALT1_2","","","","","","","","","",""
"null","<span style='color:red; font-size: 70px;'>错误! </span>","null","html-keyboard-response","22","192973","0.0-7.0-1.0-1.0-0.0-1.6","4","3","4","3","4","3","3","4","4","4","4","5","4","4","3","5","4","4","4","5","2","2","2","2","2","3","2","2","2","1","0","1","1","0","0","0","1","0","1","-1","0","1","0","1","4","2","4","2","2","2","2","2","3","2","745398419547492353","姚","","","","","","","","","","","","","","","","","","","","","","","","","","","","","","feedback_test","","","","","","","","","",""
"1064","","f","psychophysics","23","195070","0.0-7.0-1.0-1.0-0.0-0.7","4","3","4","3","4","3","3","4","4","4","4","5","4","4","3","5","4","4","4","5","2","2","2","2","2","3","2","2","2","1","0","1","1","0","0","0","1","0","1","-1","0","1","0","1","4","2","4","2","2","2","2","2","3","2","745398419547492353","姚","","","","match","","","","","","","","","","","","","","key","f","21.128218749999785","683","380","f","true","match","img/ellipse.png","椭圆","椭圆","ALT1_2","prac_ALT1_2","","","","","","","","","",""
"null","<span style='color:GreenYellow; font-size: 70px;'>正确! </span>","null","html-keyboard-response","24","195573","0.0-7.0-1.0-1.0-0.0-1.7","4","3","4","3","4","3","3","4","4","4","4","5","4","4","3","5","4","4","4","5","2","2","2","2","2","3","2","2","2","1","0","1","1","0","0","0","1","0","1","-1","0","1","0","1","4","2","4","2","2","2","2","2","3","2","745398419547492353","姚","","","","","","","","","","","","","","","","","","","","","","","","","","","","","","feedback_test","","","","","","","","","",""
"996","","j","psychophysics","25","197592","0.0-7.0-1.0-1.0-0.0-0.8","4","3","4","3","4","3","3","4","4","4","4","5","4","4","3","5","4","4","4","5","2","2","2","2","2","3","2","2","2","1","0","1","1","0","0","0","1","0","1","-1","0","1","0","1","4","2","4","2","2","2","2","2","3","2","745398419547492353","姚","","","","nonmatch","","","","","","","","","","","","","","key","j","21.26030434782613","683","380","j","true","nonmatch","img/trapezoid.png","椭圆","梯形","ALT1_2","prac_ALT1_2","","","","","","","","","",""
"null","<span style='color:GreenYellow; font-size: 70px;'>正确! </span>","null","html-keyboard-response","26","198101","0.0-7.0-1.0-1.0-0.0-1.8","4","3","4","3","4","3","3","4","4","4","4","5","4","4","3","5","4","4","4","5","2","2","2","2","2","3","2","2","2","1","0","1","1","0","0","0","1","0","1","-1","0","1","0","1","4","2","4","2","2","2","2","2","3","2","745398419547492353","姚","","","","","","","","","","","","","","","","","","","","","","","","","","","","","","feedback_test","","","","","","","","","",""
"1071","","j","psychophysics","27","200179","0.0-7.0-1.0-1.0-0.0-0.9","4","3","4","3","4","3","3","4","4","4","4","5","4","4","3","5","4","4","4","5","2","2","2","2","2","3","2","2","2","1","0","1","1","0","0","0","1","0","1","-1","0","1","0","1","4","2","4","2","2","2","2","2","3","2","745398419547492353","姚","","","","nonmatch","","","","","","","","","","","","","","key","j","21.57594680851059","683","380","j","true","nonmatch","img/ellipse.png","五边","椭圆","ALT1_2","prac_ALT1_2","","","","","","","","","",""
"null","<span style='color:GreenYellow; font-size: 70px;'>正确! </span>","null","html-keyboard-response","28","200685","0.0-7.0-1.0-1.0-0.0-1.9","4","3","4","3","4","3","3","4","4","4","4","5","4","4","3","5","4","4","4","5","2","2","2","2","2","3","2","2","2","1","0","1","1","0","0","0","1","0","1","-1","0","1","0","1","4","2","4","2","2","2","2","2","3","2","745398419547492353","姚","","","","","","","","","","","","","","","","","","","","","","","","","","","","","","feedback_test","","","","","","","","","",""
"1089","","j","psychophysics","29","202807","0.0-7.0-1.0-1.0-0.0-0.10","4","3","4","3","4","3","3","4","4","4","4","5","4","4","3","5","4","4","4","5","2","2","2","2","2","3","2","2","2","1","0","1","1","0","0","0","1","0","1","-1","0","1","0","1","4","2","4","2","2","2","2","2","3","2","745398419547492353","姚","","","","nonmatch","","","","","","","","","","","","","","key","j","22.468731182795743","683","380","j","true","nonmatch","img/triangle.png","梯形","三角","ALT1_2","prac_ALT1_2","","","","","","","","","",""
"null","<span style='color:GreenYellow; font-size: 70px;'>正确! </span>","null","html-keyboard-response","30","203317","0.0-7.0-1.0-1.0-0.0-1.10","4","3","4","3","4","3","3","4","4","4","4","5","4","4","3","5","4","4","4","5","2","2","2","2","2","3","2","2","2","1","0","1","1","0","0","0","1","0","1","-1","0","1","0","1","4","2","4","2","2","2","2","2","3","2","745398419547492353","姚","","","","","","","","","","","","","","","","","","","","","","","","","","","","","","feedback_test","","","","","","","","","",""
"null","","null","psychophysics","31","205542","0.0-7.0-1.0-1.0-0.0-0.11","4","3","4","3","4","3","3","4","4","4","4","5","4","4","3","5","4","4","4","5","2","2","2","2","2","3","2","2","2","1","0","1","1","0","0","0","1","0","1","-1","0","1","0","1","4","2","4","2","2","2","2","2","3","2","745398419547492353","姚","","","","null","","","","","","","","","","","","","","key","null","21.52226470588243","683","380","j","false","nonmatch","img/trapezoid.png","五边","梯形","ALT1_2","prac_ALT1_2","","","","","","","","","",""
"null","<span class='add_' style='color:yellow; font-size: 70px;'> 太慢! </span>","null","html-keyboard-response","32","206054","0.0-7.0-1.0-1.0-0.0-1.11","4","3","4","3","4","3","3","4","4","4","4","5","4","4","3","5","4","4","4","5","2","2","2","2","2","3","2","2","2","1","0","1","1","0","0","0","1","0","1","-1","0","1","0","1","4","2","4","2","2","2","2","2","3","2","745398419547492353","姚","","","","","","","","","","","","","","","","","","","","","","","","","","","","","","feedback_test","","","","","","","","","",""
"736","","j","psychophysics","33","207794","0.0-7.0-1.0-1.0-0.0-0.12","4","3","4","3","4","3","3","4","4","4","4","5","4","4","3","5","4","4","4","5","2","2","2","2","2","3","2","2","2","1","0","1","1","0","0","0","1","0","1","-1","0","1","0","1","4","2","4","2","2","2","2","2","3","2","745398419547492353","姚","","","","nonmatch","","","","","","","","","","","","","","key","j","21.848269230768963","683","380","j","true","nonmatch","img/triangle.png","五边","三角","ALT1_2","prac_ALT1_2","","","","","","","","","",""
"null","<span style='color:GreenYellow; font-size: 70px;'>正确! </span>","null","html-keyboard-response","34","208301","0.0-7.0-1.0-1.0-0.0-1.12","4","3","4","3","4","3","3","4","4","4","4","5","4","4","3","5","4","4","4","5","2","2","2","2","2","3","2","2","2","1","0","1","1","0","0","0","1","0","1","-1","0","1","0","1","4","2","4","2","2","2","2","2","3","2","745398419547492353","姚","","","","","","","","","","","","","","","","","","","","","","","","","","","","","","feedback_test","","","","","","","","","",""
"1178","","j","psychophysics","35","210483","0.0-7.0-1.0-1.0-0.0-0.13","4","3","4","3","4","3","3","4","4","4","4","5","4","4","3","5","4","4","4","5","2","2","2","2","2","3","2","2","2","1","0","1","1","0","0","0","1","0","1","-1","0","1","0","1","4","2","4","2","2","2","2","2","3","2","745398419547492353","姚","","","","nonmatch","","","","","","","","","","","","","","key","j","20.7597156862746","683","380","f","false","match","img/trapezoid.png","梯形","梯形","ALT1_2","prac_ALT1_2","","","","","","","","","",""
"null","<span style='color:red; font-size: 70px;'>错误! </span>","null","html-keyboard-response","36","210995","0.0-7.0-1.0-1.0-0.0-1.13","4","3","4","3","4","3","3","4","4","4","4","5","4","4","3","5","4","4","4","5","2","2","2","2","2","3","2","2","2","1","0","1","1","0","0","0","1","0","1","-1","0","1","0","1","4","2","4","2","2","2","2","2","3","2","745398419547492353","姚","","","","","","","","","","","","","","","","","","","","","","","","","","","","","","feedback_test","","","","","","","","","",""
"810","","j","psychophysics","37","212814","0.0-7.0-1.0-1.0-0.0-0.14","4","3","4","3","4","3","3","4","4","4","4","5","4","4","3","5","4","4","4","5","2","2","2","2","2","3","2","2","2","1","0","1","1","0","0","0","1","0","1","-1","0","1","0","1","4","2","4","2","2","2","2","2","3","2","745398419547492353","姚","","","","nonmatch","","","","","","","","","","","","","","key","j","23.2300657894735","683","380","j","true","nonmatch","img/ellipse.png","三角","椭圆","ALT1_2","prac_ALT1_2","","","","","","","","","",""
"null","<span style='color:GreenYellow; font-size: 70px;'>正确! </span>","null","html-keyboard-response","38","213317","0.0-7.0-1.0-1.0-0.0-1.14","4","3","4","3","4","3","3","4","4","4","4","5","4","4","3","5","4","4","4","5","2","2","2","2","2","3","2","2","2","1","0","1","1","0","0","0","1","0","1","-1","0","1","0","1","4","2","4","2","2","2","2","2","3","2","745398419547492353","姚","","","","","","","","","","","","","","","","","","","","","","","","","","","","","","feedback_test","","","","","","","","","",""
"792","","f","psychophysics","39","215112","0.0-7.0-1.0-1.0-0.0-0.15","4","3","4","3","4","3","3","4","4","4","4","5","4","4","3","5","4","4","4","5","2","2","2","2","2","3","2","2","2","1","0","1","1","0","0","0","1","0","1","-1","0","1","0","1","4","2","4","2","2","2","2","2","3","2","745398419547492353","姚","","","","match","","","","","","","","","","","","","","key","f","21.407658536585544","683","380","j","false","nonmatch","img/pentagon.png","梯形","五边","ALT1_2","prac_ALT1_2","","","","","","","","","",""
"null","<span style='color:red; font-size: 70px;'>错误! </span>","null","html-keyboard-response","40","215620","0.0-7.0-1.0-1.0-0.0-1.15","4","3","4","3","4","3","3","4","4","4","4","5","4","4","3","5","4","4","4","5","2","2","2","2","2","3","2","2","2","1","0","1","1","0","0","0","1","0","1","-1","0","1","0","1","4","2","4","2","2","2","2","2","3","2","745398419547492353","姚","","","","","","","","","","","","","","","","","","","","","","","","","","","","","","feedback_test","","","","","","","","","",""
"969","","f","psychophysics","41","217597","0.0-7.0-1.0-1.0-0.0-0.16","4","3","4","3","4","3","3","4","4","4","4","5","4","4","3","5","4","4","4","5","2","2","2","2","2","3","2","2","2","1","0","1","1","0","0","0","1","0","1","-1","0","1","0","1","4","2","4","2","2","2","2","2","3","2","745398419547492353","姚","","","","match","","","","","","","","","","","","","","key","f","21.126461538461555","683","380","f","true","match","img/triangle.png","三角","三角","ALT1_2","prac_ALT1_2","","","","","","","","","",""
"null","<span style='color:GreenYellow; font-size: 70px;'>正确! </span>","null","html-keyboard-response","42","218109","0.0-7.0-1.0-1.0-0.0-1.16","4","3","4","3","4","3","3","4","4","4","4","5","4","4","3","5","4","4","4","5","2","2","2","2","2","3","2","2","2","1","0","1","1","0","0","0","1","0","1","-1","0","1","0","1","4","2","4","2","2","2","2","2","3","2","745398419547492353","姚","","","","","","","","","","","","","","","","","","","","","","","","","","","","","","feedback_test","","","","","","","","","",""
"722","","j","psychophysics","43","219849","0.0-7.0-1.0-1.0-0.0-0.17","4","3","4","3","4","3","3","4","4","4","4","5","4","4","3","5","4","4","4","5","2","2","2","2","2","3","2","2","2","1","0","1","1","0","0","0","1","0","1","-1","0","1","0","1","4","2","4","2","2","2","2","2","3","2","745398419547492353","姚","","","","nonmatch","","","","","","","","","","","","","","key","j","20.98520987654352","683","380","f","false","match","img/pentagon.png","五边","五边","ALT1_2","prac_ALT1_2","","","","","","","","","",""
"null","<span style='color:red; font-size: 70px;'>错误! </span>","null","html-keyboard-response","44","220357","0.0-7.0-1.0-1.0-0.0-1.17","4","3","4","3","4","3","3","4","4","4","4","5","4","4","3","5","4","4","4","5","2","2","2","2","2","3","2","2","2","1","0","1","1","0","0","0","1","0","1","-1","0","1","0","1","4","2","4","2","2","2","2","2","3","2","745398419547492353","姚","","","","","","","","","","","","","","","","","","","","","","","","","","","","","","feedback_test","","","","","","","","","",""
"1012","","j","psychophysics","45","222402","0.0-7.0-1.0-1.0-0.0-0.18","4","3","4","3","4","3","3","4","4","4","4","5","4","4","3","5","4","4","4","5","2","2","2","2","2","3","2","2","2","1","0","1","1","0","0","0","1","0","1","-1","0","1","0","1","4","2","4","2","2","2","2","2","3","2","745398419547492353","姚","","","","nonmatch","","","","","","","","","","","","","","key","j","20.998705263157976","683","380","j","true","nonmatch","img/pentagon.png","三角","五边","ALT1_2","prac_ALT1_2","","","","","","","","","",""
"null","<span style='color:GreenYellow; font-size: 70px;'>正确! </span>","null","html-keyboard-response","46","222909","0.0-7.0-1.0-1.0-0.0-1.18","4","3","4","3","4","3","3","4","4","4","4","5","4","4","3","5","4","4","4","5","2","2","2","2","2","3","2","2","2","1","0","1","1","0","0","0","1","0","1","-1","0","1","0","1","4","2","4","2","2","2","2","2","3","2","745398419547492353","姚","","","","","","","","","","","","","","","","","","","","","","","","","","","","","","feedback_test","","","","","","","","","",""
"994","","f","psychophysics","47","224916","0.0-7.0-1.0-1.0-0.0-0.19","4","3","4","3","4","3","3","4","4","4","4","5","4","4","3","5","4","4","4","5","2","2","2","2","2","3","2","2","2","1","0","1","1","0","0","0","1","0","1","-1","0","1","0","1","4","2","4","2","2","2","2","2","3","2","745398419547492353","姚","","","","match","","","","","","","","","","","","","","key","f","20.58836842105252","683","380","f","true","match","img/pentagon.png","五边","五边","ALT1_2","prac_ALT1_2","","","","","","","","","",""
"null","<span style='color:GreenYellow; font-size: 70px;'>正确! </span>","null","html-keyboard-response","48","225420","0.0-7.0-1.0-1.0-0.0-1.19","4","3","4","3","4","3","3","4","4","4","4","5","4","4","3","5","4","4","4","5","2","2","2","2","2","3","2","2","2","1","0","1","1","0","0","0","1","0","1","-1","0","1","0","1","4","2","4","2","2","2","2","2","3","2","745398419547492353","姚","","","","","","","","","","","","","","","","","","","","","","","","","","","","","","feedback_test","","","","","","","","","",""
"986","","f","psychophysics","49","227446","0.0-7.0-1.0-1.0-0.0-0.20","4","3","4","3","4","3","3","4","4","4","4","5","4","4","3","5","4","4","4","5","2","2","2","2","2","3","2","2","2","1","0","1","1","0","0","0","1","0","1","-1","0","1","0","1","4","2","4","2","2","2","2","2","3","2","745398419547492353","姚","","","","match","","","","","","","","","","","","","","key","f","21.319771739130374","683","380","f","true","match","img/triangle.png","三角","三角","ALT1_2","prac_ALT1_2","","","","","","","","","",""
"null","<span style='color:GreenYellow; font-size: 70px;'>正确! </span>","null","html-keyboard-response","50","227956","0.0-7.0-1.0-1.0-0.0-1.20","4","3","4","3","4","3","3","4","4","4","4","5","4","4","3","5","4","4","4","5","2","2","2","2","2","3","2","2","2","1","0","1","1","0","0","0","1","0","1","-1","0","1","0","1","4","2","4","2","2","2","2","2","3","2","745398419547492353","姚","","","","","","","","","","","","","","","","","","","","","","","","","","","","","","feedback_test","","","","","","","","","",""
"null","","null","psychophysics","51","230206","0.0-7.0-1.0-1.0-0.0-0.21","4","3","4","3","4","3","3","4","4","4","4","5","4","4","3","5","4","4","4","5","2","2","2","2","2","3","2","2","2","1","0","1","1","0","0","0","1","0","1","-1","0","1","0","1","4","2","4","2","2","2","2","2","3","2","745398419547492353","姚","","","","null","","","","","","","","","","","","","","key","null","22.008222222222354","683","380","f","false","match","img/trapezoid.png","梯形","梯形","ALT1_2","prac_ALT1_2","","","","","","","","","",""
"null","<span class='add_' style='color:yellow; font-size: 70px;'> 太慢! </span>","null","html-keyboard-response","52","230717","0.0-7.0-1.0-1.0-0.0-1.21","4","3","4","3","4","3","3","4","4","4","4","5","4","4","3","5","4","4","4","5","2","2","2","2","2","3","2","2","2","1","0","1","1","0","0","0","1","0","1","-1","0","1","0","1","4","2","4","2","2","2","2","2","3","2","745398419547492353","姚","","","","","","","","","","","","","","","","","","","","","","","","","","","","","","feedback_test","","","","","","","","","",""
"962","","j","psychophysics","53","232687","0.0-7.0-1.0-1.0-0.0-0.22","4","3","4","3","4","3","3","4","4","4","4","5","4","4","3","5","4","4","4","5","2","2","2","2","2","3","2","2","2","1","0","1","1","0","0","0","1","0","1","-1","0","1","0","1","4","2","4","2","2","2","2","2","3","2","745398419547492353","姚","","","","nonmatch","","","","","","","","","","","","","","key","j","21.187659340659234","683","380","j","true","nonmatch","img/triangle.png","椭圆","三角","ALT1_2","prac_ALT1_2","","","","","","","","","",""
"null","<span style='color:GreenYellow; font-size: 70px;'>正确! </span>","null","html-keyboard-response","54","233196","0.0-7.0-1.0-1.0-0.0-1.22","4","3","4","3","4","3","3","4","4","4","4","5","4","4","3","5","4","4","4","5","2","2","2","2","2","3","2","2","2","1","0","1","1","0","0","0","1","0","1","-1","0","1","0","1","4","2","4","2","2","2","2","2","3","2","745398419547492353","姚","","","","","","","","","","","","","","","","","","","","","","","","","","","","","","feedback_test","","","","","","","","","",""
"1023","","j","psychophysics","55","235235","0.0-7.0-1.0-1.0-0.0-0.23","4","3","4","3","4","3","3","4","4","4","4","5","4","4","3","5","4","4","4","5","2","2","2","2","2","3","2","2","2","1","0","1","1","0","0","0","1","0","1","-1","0","1","0","1","4","2","4","2","2","2","2","2","3","2","745398419547492353","姚","","","","nonmatch","","","","","","","","","","","","","","key","j","20.100371134020364","683","380","j","true","nonmatch","img/pentagon.png","椭圆","五边","ALT1_2","prac_ALT1_2","","","","","","","","","",""
"null","<span style='color:GreenYellow; font-size: 70px;'>正确! </span>","null","html-keyboard-response","56","235740","0.0-7.0-1.0-1.0-0.0-1.23","4","3","4","3","4","3","3","4","4","4","4","5","4","4","3","5","4","4","4","5","2","2","2","2","2","3","2","2","2","1","0","1","1","0","0","0","1","0","1","-1","0","1","0","1","4","2","4","2","2","2","2","2","3","2","745398419547492353","姚","","","","","","","","","","","","","","","","","","","","","","","","","","","","","","feedback_test","","","","","","","","","",""
"717","","f","psychophysics","57","237488","0.0-7.0-1.0-1.0-0.0-0.24","4","3","4","3","4","3","3","4","4","4","4","5","4","4","3","5","4","4","4","5","2","2","2","2","2","3","2","2","2","1","0","1","1","0","0","0","1","0","1","-1","0","1","0","1","4","2","4","2","2","2","2","2","3","2","745398419547492353","姚","","","","match","","","","","","","","","","","","","","key","f","21.791435897435758","683","380","j","false","nonmatch","img/trapezoid.png","三角","梯形","ALT1_2","prac_ALT1_2","","","","","","","","","",""
"null","<span style='color:red; font-size: 70px;'>错误! </span>","null","html-keyboard-response","58","237999","0.0-7.0-1.0-1.0-0.0-1.24","4","3","4","3","4","3","3","4","4","4","4","5","4","4","3","5","4","4","4","5","2","2","2","2","2","3","2","2","2","1","0","1","1","0","0","0","1","0","1","-1","0","1","0","1","4","2","4","2","2","2","2","2","3","2","745398419547492353","姚","","","","","","","","","","","","","","","","","","","","","","","","","","","","","","feedback_test","","","","","","","","","",""
"930","","j","psychophysics","59","239961","0.0-7.0-1.0-1.0-0.0-0.25","4","3","4","3","4","3","3","4","4","4","4","5","4","4","3","5","4","4","4","5","2","2","2","2","2","3","2","2","2","1","0","1","1","0","0","0","1","0","1","-1","0","1","0","1","4","2","4","2","2","2","2","2","3","2","745398419547492353","姚","","","","nonmatch","","","","","","","","","","","","","","key","j","21.35060674157301","683","380","j","true","nonmatch","img/ellipse.png","五边","椭圆","ALT1_2","prac_ALT1_2","","","","","","","","","",""
"null","<span style='color:GreenYellow; font-size: 70px;'>正确! </span>","null","html-keyboard-response","60","240469","0.0-7.0-1.0-1.0-0.0-1.25","4","3","4","3","4","3","3","4","4","4","4","5","4","4","3","5","4","4","4","5","2","2","2","2","2","3","2","2","2","1","0","1","1","0","0","0","1","0","1","-1","0","1","0","1","4","2","4","2","2","2","2","2","3","2","745398419547492353","姚","","","","","","","","","","","","","","","","","","","","","","","","","","","","","","feedback_test","","","","","","","","","",""
"864","","j","psychophysics","61","242382","0.0-7.0-1.0-1.0-0.0-0.26","4","3","4","3","4","3","3","4","4","4","4","5","4","4","3","5","4","4","4","5","2","2","2","2","2","3","2","2","2","1","0","1","1","0","0","0","1","0","1","-1","0","1","0","1","4","2","4","2","2","2","2","2","3","2","745398419547492353","姚","","","","nonmatch","","","","","","","","","","","","","","key","j","22.71165000000001","683","380","j","true","nonmatch","img/triangle.png","椭圆","三角","ALT1_2","prac_ALT1_2","","","","","","","","","",""
"null","<span style='color:GreenYellow; font-size: 70px;'>正确! </span>","null","html-keyboard-response","62","242887","0.0-7.0-1.0-1.0-0.0-1.26","4","3","4","3","4","3","3","4","4","4","4","5","4","4","3","5","4","4","4","5","2","2","2","2","2","3","2","2","2","1","0","1","1","0","0","0","1","0","1","-1","0","1","0","1","4","2","4","2","2","2","2","2","3","2","745398419547492353","姚","","","","","","","","","","","","","","","","","","","","","","","","","","","","","","feedback_test","","","","","","","","","",""
"725","","j","psychophysics","63","244637","0.0-7.0-1.0-1.0-0.0-0.27","4","3","4","3","4","3","3","4","4","4","4","5","4","4","3","5","4","4","4","5","2","2","2","2","2","3","2","2","2","1","0","1","1","0","0","0","1","0","1","-1","0","1","0","1","4","2","4","2","2","2","2","2","3","2","745398419547492353","姚","","","","nonmatch","","","","","","","","","","","","","","key","j","21.00010975609745","683","380","j","true","nonmatch","img/ellipse.png","三角","椭圆","ALT1_2","prac_ALT1_2","","","","","","","","","",""
"null","<span style='color:GreenYellow; font-size: 70px;'>正确! </span>","null","html-keyboard-response","64","245141","0.0-7.0-1.0-1.0-0.0-1.27","4","3","4","3","4","3","3","4","4","4","4","5","4","4","3","5","4","4","4","5","2","2","2","2","2","3","2","2","2","1","0","1","1","0","0","0","1","0","1","-1","0","1","0","1","4","2","4","2","2","2","2","2","3","2","745398419547492353","姚","","","","","","","","","","","","","","","","","","","","","","","","","","","","","","feedback_test","","","","","","","","","",""
"768","","j","psychophysics","65","246938","0.0-7.0-1.0-1.0-0.0-0.28","4","3","4","3","4","3","3","4","4","4","4","5","4","4","3","5","4","4","4","5","2","2","2","2","2","3","2","2","2","1","0","1","1","0","0","0","1","0","1","-1","0","1","0","1","4","2","4","2","2","2","2","2","3","2","745398419547492353","姚","","","","nonmatch","","","","","","","","","","","","","","key","j","21.670703703703584","683","380","j","true","nonmatch","img/pentagon.png","椭圆","五边","ALT1_2","prac_ALT1_2","","","","","","","","","",""
"null","<span style='color:GreenYellow; font-size: 70px;'>正确! </span>","null","html-keyboard-response","66","247452","0.0-7.0-1.0-1.0-0.0-1.28","4","3","4","3","4","3","3","4","4","4","4","5","4","4","3","5","4","4","4","5","2","2","2","2","2","3","2","2","2","1","0","1","1","0","0","0","1","0","1","-1","0","1","0","1","4","2","4","2","2","2","2","2","3","2","745398419547492353","姚","","","","","","","","","","","","","","","","","","","","","","","","","","","","","","feedback_test","","","","","","","","","",""
"1030","","f","psychophysics","67","249493","0.0-7.0-1.0-1.0-0.0-0.29","4","3","4","3","4","3","3","4","4","4","4","5","4","4","3","5","4","4","4","5","2","2","2","2","2","3","2","2","2","1","0","1","1","0","0","0","1","0","1","-1","0","1","0","1","4","2","4","2","2","2","2","2","3","2","745398419547492353","姚","","","","match","","","","","","","","","","","","","","key","f","21.04104255319157","683","380","f","true","match","img/pentagon.png","五边","五边","ALT1_2","prac_ALT1_2","","","","","","","","","",""
"null","<span style='color:GreenYellow; font-size: 70px;'>正确! </span>","null","html-keyboard-response","68","249997","0.0-7.0-1.0-1.0-0.0-1.29","4","3","4","3","4","3","3","4","4","4","4","5","4","4","3","5","4","4","4","5","2","2","2","2","2","3","2","2","2","1","0","1","1","0","0","0","1","0","1","-1","0","1","0","1","4","2","4","2","2","2","2","2","3","2","745398419547492353","姚","","","","","","","","","","","","","","","","","","","","","","","","","","","","","","feedback_test","","","","","","","","","",""
"755","","j","psychophysics","69","251762","0.0-7.0-1.0-1.0-0.0-0.30","4","3","4","3","4","3","3","4","4","4","4","5","4","4","3","5","4","4","4","5","2","2","2","2","2","3","2","2","2","1","0","1","1","0","0","0","1","0","1","-1","0","1","0","1","4","2","4","2","2","2","2","2","3","2","745398419547492353","姚","","","","nonmatch","","","","","","","","","","","","","","key","j","22.075602564102528","683","380","f","false","match","img/triangle.png","三角","三角","ALT1_2","prac_ALT1_2","","","","","","","","","",""
"null","<span style='color:red; font-size: 70px;'>错误! </span>","null","html-keyboard-response","70","252281","0.0-7.0-1.0-1.0-0.0-1.30","4","3","4","3","4","3","3","4","4","4","4","5","4","4","3","5","4","4","4","5","2","2","2","2","2","3","2","2","2","1","0","1","1","0","0","0","1","0","1","-1","0","1","0","1","4","2","4","2","2","2","2","2","3","2","745398419547492353","姚","","","","","","","","","","","","","","","","","","","","","","","","","","","","","","feedback_test","","","","","","","","","",""
"863","","j","psychophysics","71","254182","0.0-7.0-1.0-1.0-0.0-0.31","4","3","4","3","4","3","3","4","4","4","4","5","4","4","3","5","4","4","4","5","2","2","2","2","2","3","2","2","2","1","0","1","1","0","0","0","1","0","1","-1","0","1","0","1","4","2","4","2","2","2","2","2","3","2","745398419547492353","姚","","","","nonmatch","","","","","","","","","","","","","","key","j","21.69746511627894","683","380","f","false","match","img/trapezoid.png","梯形","梯形","ALT1_2","prac_ALT1_2","","","","","","","","","",""
"null","<span style='color:red; font-size: 70px;'>错误! </span>","null","html-keyboard-response","72","254694","0.0-7.0-1.0-1.0-0.0-1.31","4","3","4","3","4","3","3","4","4","4","4","5","4","4","3","5","4","4","4","5","2","2","2","2","2","3","2","2","2","1","0","1","1","0","0","0","1","0","1","-1","0","1","0","1","4","2","4","2","2","2","2","2","3","2","745398419547492353","姚","","","","","","","","","","","","","","","","","","","","","","","","","","","","","","feedback_test","","","","","","","","","",""
"1050","","j","psychophysics","73","256764","0.0-7.0-1.0-1.0-0.0-0.32","4","3","4","3","4","3","3","4","4","4","4","5","4","4","3","5","4","4","4","5","2","2","2","2","2","3","2","2","2","1","0","1","1","0","0","0","1","0","1","-1","0","1","0","1","4","2","4","2","2","2","2","2","3","2","745398419547492353","姚","","","","nonmatch","","","","","","","","","","","","","","key","j","20.969185567010296","683","380","j","true","nonmatch","img/triangle.png","五边","三角","ALT1_2","prac_ALT1_2","","","","","","","","","",""
"null","<span style='color:GreenYellow; font-size: 70px;'>正确! </span>","null","html-keyboard-response","74","257269","0.0-7.0-1.0-1.0-0.0-1.32","4","3","4","3","4","3","3","4","4","4","4","5","4","4","3","5","4","4","4","5","2","2","2","2","2","3","2","2","2","1","0","1","1","0","0","0","1","0","1","-1","0","1","0","1","4","2","4","2","2","2","2","2","3","2","745398419547492353","姚","","","","","","","","","","","","","","","","","","","","","","","","","","","","","","feedback_test","","","","","","","","","",""
"1190","","f","psychophysics","75","259495","0.0-7.0-1.0-1.0-0.0-0.33","4","3","4","3","4","3","3","4","4","4","4","5","4","4","3","5","4","4","4","5","2","2","2","2","2","3","2","2","2","1","0","1","1","0","0","0","1","0","1","-1","0","1","0","1","4","2","4","2","2","2","2","2","3","2","745398419547492353","姚","","","","match","","","","","","","","","","","","","","key","f","21.465901960784286","683","380","j","false","nonmatch","img/trapezoid.png","五边","梯形","ALT1_2","prac_ALT1_2","","","","","","","","","",""
"null","<span style='color:red; font-size: 70px;'>错误! </span>","null","html-keyboard-response","76","260004","0.0-7.0-1.0-1.0-0.0-1.33","4","3","4","3","4","3","3","4","4","4","4","5","4","4","3","5","4","4","4","5","2","2","2","2","2","3","2","2","2","1","0","1","1","0","0","0","1","0","1","-1","0","1","0","1","4","2","4","2","2","2","2","2","3","2","745398419547492353","姚","","","","","","","","","","","","","","","","","","","","","","","","","","","","","","feedback_test","","","","","","","","","",""
"928","","j","psychophysics","77","261944","0.0-7.0-1.0-1.0-0.0-0.34","4","3","4","3","4","3","3","4","4","4","4","5","4","4","3","5","4","4","4","5","2","2","2","2","2","3","2","2","2","1","0","1","1","0","0","0","1","0","1","-1","0","1","0","1","4","2","4","2","2","2","2","2","3","2","745398419547492353","姚","","","","nonmatch","","","","","","","","","","","","","","key","j","21.050933333333038","683","380","j","true","nonmatch","img/triangle.png","梯形","三角","ALT1_2","prac_ALT1_2","","","","","","","","","",""
"null","<span style='color:GreenYellow; font-size: 70px;'>正确! </span>","null","html-keyboard-response","78","262453","0.0-7.0-1.0-1.0-0.0-1.34","4","3","4","3","4","3","3","4","4","4","4","5","4","4","3","5","4","4","4","5","2","2","2","2","2","3","2","2","2","1","0","1","1","0","0","0","1","0","1","-1","0","1","0","1","4","2","4","2","2","2","2","2","3","2","745398419547492353","姚","","","","","","","","","","","","","","","","","","","","","","","","","","","","","","feedback_test","","","","","","","","","",""
"783","","j","psychophysics","79","264239","0.0-7.0-1.0-1.0-0.0-0.35","4","3","4","3","4","3","3","4","4","4","4","5","4","4","3","5","4","4","4","5","2","2","2","2","2","3","2","2","2","1","0","1","1","0","0","0","1","0","1","-1","0","1","0","1","4","2","4","2","2","2","2","2","3","2","745398419547492353","姚","","","","nonmatch","","","","","","","","","","","","","","key","j","20.21806976744204","683","380","f","false","match","img/triangle.png","三角","三角","ALT1_2","prac_ALT1_2","","","","","","","","","",""
"null","<span style='color:red; font-size: 70px;'>错误! </span>","null","html-keyboard-response","80","264749","0.0-7.0-1.0-1.0-0.0-1.35","4","3","4","3","4","3","3","4","4","4","4","5","4","4","3","5","4","4","4","5","2","2","2","2","2","3","2","2","2","1","0","1","1","0","0","0","1","0","1","-1","0","1","0","1","4","2","4","2","2","2","2","2","3","2","745398419547492353","姚","","","","","","","","","","","","","","","","","","","","","","","","","","","","","","feedback_test","","","","","","","","","",""
"1058","","f","psychophysics","81","266820","0.0-7.0-1.0-1.0-0.0-0.36","4","3","4","3","4","3","3","4","4","4","4","5","4","4","3","5","4","4","4","5","2","2","2","2","2","3","2","2","2","1","0","1","1","0","0","0","1","0","1","-1","0","1","0","1","4","2","4","2","2","2","2","2","3","2","745398419547492353","姚","","","","match","","","","","","","","","","","","","","key","f","22.289366666666723","683","380","f","true","match","img/trapezoid.png","梯形","梯形","ALT1_2","prac_ALT1_2","","","","","","","","","",""
"null","<span style='color:GreenYellow; font-size: 70px;'>正确! </span>","null","html-keyboard-response","82","267340","0.0-7.0-1.0-1.0-0.0-1.36","4","3","4","3","4","3","3","4","4","4","4","5","4","4","3","5","4","4","4","5","2","2","2","2","2","3","2","2","2","1","0","1","1","0","0","0","1","0","1","-1","0","1","0","1","4","2","4","2","2","2","2","2","3","2","745398419547492353","姚","","","","","","","","","","","","","","","","","","","","","","","","","","","","","","feedback_test","","","","","","","","","",""
"794","","j","psychophysics","83","269137","0.0-7.0-1.0-1.0-0.0-0.37","4","3","4","3","4","3","3","4","4","4","4","5","4","4","3","5","4","4","4","5","2","2","2","2","2","3","2","2","2","1","0","1","1","0","0","0","1","0","1","-1","0","1","0","1","4","2","4","2","2","2","2","2","3","2","745398419547492353","姚","","","","nonmatch","","","","","","","","","","","","","","key","j","20.41063953488375","683","380","j","true","nonmatch","img/trapezoid.png","椭圆","梯形","ALT1_2","prac_ALT1_2","","","","","","","","","",""
"null","<span style='color:GreenYellow; font-size: 70px;'>正确! </span>","null","html-keyboard-response","84","269646","0.0-7.0-1.0-1.0-0.0-1.37","4","3","4","3","4","3","3","4","4","4","4","5","4","4","3","5","4","4","4","5","2","2","2","2","2","3","2","2","2","1","0","1","1","0","0","0","1","0","1","-1","0","1","0","1","4","2","4","2","2","2","2","2","3","2","745398419547492353","姚","","","","","","","","","","","","","","","","","","","","","","","","","","","","","","feedback_test","","","","","","","","","",""
"null","","null","psychophysics","85","271884","0.0-7.0-1.0-1.0-0.0-0.38","4","3","4","3","4","3","3","4","4","4","4","5","4","4","3","5","4","4","4","5","2","2","2","2","2","3","2","2","2","1","0","1","1","0","0","0","1","0","1","-1","0","1","0","1","4","2","4","2","2","2","2","2","3","2","745398419547492353","姚","","","","null","","","","","","","","","","","","","","key","null","20.65899056603776","683","380","f","false","match","img/trapezoid.png","梯形","梯形","ALT1_2","prac_ALT1_2","","","","","","","","","",""
"null","<span class='add_' style='color:yellow; font-size: 70px;'> 太慢! </span>","null","html-keyboard-response","86","272389","0.0-7.0-1.0-1.0-0.0-1.38","4","3","4","3","4","3","3","4","4","4","4","5","4","4","3","5","4","4","4","5","2","2","2","2","2","3","2","2","2","1","0","1","1","0","0","0","1","0","1","-1","0","1","0","1","4","2","4","2","2","2","2","2","3","2","745398419547492353","姚","","","","","","","","","","","","","","","","","","","","","","","","","","","","","","feedback_test","","","","","","","","","",""
"1043","","j","psychophysics","87","274474","0.0-7.0-1.0-1.0-0.0-0.39","4","3","4","3","4","3","3","4","4","4","4","5","4","4","3","5","4","4","4","5","2","2","2","2","2","3","2","2","2","1","0","1","1","0","0","0","1","0","1","-1","0","1","0","1","4","2","4","2","2","2","2","2","3","2","745398419547492353","姚","","","","nonmatch","","","","","","","","","","","","","","key","j","21.40643157894711","683","380","j","true","nonmatch","img/ellipse.png","梯形","椭圆","ALT1_2","prac_ALT1_2","","","","","","","","","",""
"null","<span style='color:GreenYellow; font-size: 70px;'>正确! </span>","null","html-keyboard-response","88","274981","0.0-7.0-1.0-1.0-0.0-1.39","4","3","4","3","4","3","3","4","4","4","4","5","4","4","3","5","4","4","4","5","2","2","2","2","2","3","2","2","2","1","0","1","1","0","0","0","1","0","1","-1","0","1","0","1","4","2","4","2","2","2","2","2","3","2","745398419547492353","姚","","","","","","","","","","","","","","","","","","","","","","","","","","","","","","feedback_test","","","","","","","","","",""
"1094","","f","psychophysics","89","277117","0.0-7.0-1.0-1.0-0.0-0.40","4","3","4","3","4","3","3","4","4","4","4","5","4","4","3","5","4","4","4","5","2","2","2","2","2","3","2","2","2","1","0","1","1","0","0","0","1","0","1","-1","0","1","0","1","4","2","4","2","2","2","2","2","3","2","745398419547492353","姚","","","","match","","","","","","","","","","","","","","key","f","21.71421649484516","683","380","f","true","match","img/ellipse.png","椭圆","椭圆","ALT1_2","prac_ALT1_2","","","","","","","","","",""
"null","<span style='color:GreenYellow; font-size: 70px;'>正确! </span>","null","html-keyboard-response","90","277621","0.0-7.0-1.0-1.0-0.0-1.40","4","3","4","3","4","3","3","4","4","4","4","5","4","4","3","5","4","4","4","5","2","2","2","2","2","3","2","2","2","1","0","1","1","0","0","0","1","0","1","-1","0","1","0","1","4","2","4","2","2","2","2","2","3","2","745398419547492353","姚","","","","","","","","","","","","","","","","","","","","","","","","","","","","","","feedback_test","","","","","","","","","",""
"869","","f","psychophysics","91","279513","0.0-7.0-1.0-1.0-0.0-0.41","4","3","4","3","4","3","3","4","4","4","4","5","4","4","3","5","4","4","4","5","2","2","2","2","2","3","2","2","2","1","0","1","1","0","0","0","1","0","1","-1","0","1","0","1","4","2","4","2","2","2","2","2","3","2","745398419547492353","姚","","","","match","","","","","","","","","","","","","","key","f","20.850516853932543","683","380","f","true","match","img/ellipse.png","椭圆","椭圆","ALT1_2","prac_ALT1_2","","","","","","","","","",""
"null","<span style='color:GreenYellow; font-size: 70px;'>正确! </span>","null","html-keyboard-response","92","280021","0.0-7.0-1.0-1.0-0.0-1.41","4","3","4","3","4","3","3","4","4","4","4","5","4","4","3","5","4","4","4","5","2","2","2","2","2","3","2","2","2","1","0","1","1","0","0","0","1","0","1","-1","0","1","0","1","4","2","4","2","2","2","2","2","3","2","745398419547492353","姚","","","","","","","","","","","","","","","","","","","","","","","","","","","","","","feedback_test","","","","","","","","","",""
"709","","f","psychophysics","93","281743","0.0-7.0-1.0-1.0-0.0-0.42","4","3","4","3","4","3","3","4","4","4","4","5","4","4","3","5","4","4","4","5","2","2","2","2","2","3","2","2","2","1","0","1","1","0","0","0","1","0","1","-1","0","1","0","1","4","2","4","2","2","2","2","2","3","2","745398419547492353","姚","","","","match","","","","","","","","","","","","","","key","f","21.712961038960863","683","380","f","true","match","img/ellipse.png","椭圆","椭圆","ALT1_2","prac_ALT1_2","","","","","","","","","",""
"null","<span style='color:GreenYellow; font-size: 70px;'>正确! </span>","null","html-keyboard-response","94","282254","0.0-7.0-1.0-1.0-0.0-1.42","4","3","4","3","4","3","3","4","4","4","4","5","4","4","3","5","4","4","4","5","2","2","2","2","2","3","2","2","2","1","0","1","1","0","0","0","1","0","1","-1","0","1","0","1","4","2","4","2","2","2","2","2","3","2","745398419547492353","姚","","","","","","","","","","","","","","","","","","","","","","","","","","","","","","feedback_test","","","","","","","","","",""
"935","","f","psychophysics","95","284199","0.0-7.0-1.0-1.0-0.0-0.43","4","3","4","3","4","3","3","4","4","4","4","5","4","4","3","5","4","4","4","5","2","2","2","2","2","3","2","2","2","1","0","1","1","0","0","0","1","0","1","-1","0","1","0","1","4","2","4","2","2","2","2","2","3","2","745398419547492353","姚","","","","match","","","","","","","","","","","","","","key","f","20.36892473118277","683","380","f","true","match","img/pentagon.png","五边","五边","ALT1_2","prac_ALT1_2","","","","","","","","","",""
"null","<span style='color:GreenYellow; font-size: 70px;'>正确! </span>","null","html-keyboard-response","96","284701","0.0-7.0-1.0-1.0-0.0-1.43","4","3","4","3","4","3","3","4","4","4","4","5","4","4","3","5","4","4","4","5","2","2","2","2","2","3","2","2","2","1","0","1","1","0","0","0","1","0","1","-1","0","1","0","1","4","2","4","2","2","2","2","2","3","2","745398419547492353","姚","","","","","","","","","","","","","","","","","","","","","","","","","","","","","","feedback_test","","","","","","","","","",""
"726","","f","psychophysics","97","286455","0.0-7.0-1.0-1.0-0.0-0.44","4","3","4","3","4","3","3","4","4","4","4","5","4","4","3","5","4","4","4","5","2","2","2","2","2","3","2","2","2","1","0","1","1","0","0","0","1","0","1","-1","0","1","0","1","4","2","4","2","2","2","2","2","3","2","745398419547492353","姚","","","","match","","","","","","","","","","","","","","key","f","20.79590243902469","683","380","f","true","match","img/pentagon.png","五边","五边","ALT1_2","prac_ALT1_2","","","","","","","","","",""
"null","<span style='color:GreenYellow; font-size: 70px;'>正确! </span>","null","html-keyboard-response","98","286965","0.0-7.0-1.0-1.0-0.0-1.44","4","3","4","3","4","3","3","4","4","4","4","5","4","4","3","5","4","4","4","5","2","2","2","2","2","3","2","2","2","1","0","1","1","0","0","0","1","0","1","-1","0","1","0","1","4","2","4","2","2","2","2","2","3","2","745398419547492353","姚","","","","","","","","","","","","","","","","","","","","","","","","","","","","","","feedback_test","","","","","","","","","",""
"853","","j","psychophysics","99","288855","0.0-7.0-1.0-1.0-0.0-0.45","4","3","4","3","4","3","3","4","4","4","4","5","4","4","3","5","4","4","4","5","2","2","2","2","2","3","2","2","2","1","0","1","1","0","0","0","1","0","1","-1","0","1","0","1","4","2","4","2","2","2","2","2","3","2","745398419547492353","姚","","","","nonmatch","","","","","","","","","","","","","","key","j","21.01153409090925","683","380","j","true","nonmatch","img/pentagon.png","梯形","五边","ALT1_2","prac_ALT1_2","","","","","","","","","",""
"null","<span style='color:GreenYellow; font-size: 70px;'>正确! </span>","null","html-keyboard-response","100","289365","0.0-7.0-1.0-1.0-0.0-1.45","4","3","4","3","4","3","3","4","4","4","4","5","4","4","3","5","4","4","4","5","2","2","2","2","2","3","2","2","2","1","0","1","1","0","0","0","1","0","1","-1","0","1","0","1","4","2","4","2","2","2","2","2","3","2","745398419547492353","姚","","","","","","","","","","","","","","","","","","","","","","","","","","","","","","feedback_test","","","","","","","","","",""
"1186","","f","psychophysics","101","291566","0.0-7.0-1.0-1.0-0.0-0.46","4","3","4","3","4","3","3","4","4","4","4","5","4","4","3","5","4","4","4","5","2","2","2","2","2","3","2","2","2","1","0","1","1","0","0","0","1","0","1","-1","0","1","0","1","4","2","4","2","2","2","2","2","3","2","745398419547492353","姚","","","","match","","","","","","","","","","","","","","key","f","21.195176470588766","683","380","j","false","nonmatch","img/pentagon.png","三角","五边","ALT1_2","prac_ALT1_2","","","","","","","","","",""
"null","<span style='color:red; font-size: 70px;'>错误! </span>","null","html-keyboard-response","102","292076","0.0-7.0-1.0-1.0-0.0-1.46","4","3","4","3","4","3","3","4","4","4","4","5","4","4","3","5","4","4","4","5","2","2","2","2","2","3","2","2","2","1","0","1","1","0","0","0","1","0","1","-1","0","1","0","1","4","2","4","2","2","2","2","2","3","2","745398419547492353","姚","","","","","","","","","","","","","","","","","","","","","","","","","","","","","","feedback_test","","","","","","","","","",""
"802","","j","psychophysics","103","293881","0.0-7.0-1.0-1.0-0.0-0.47","4","3","4","3","4","3","3","4","4","4","4","5","4","4","3","5","4","4","4","5","2","2","2","2","2","3","2","2","2","1","0","1","1","0","0","0","1","0","1","-1","0","1","0","1","4","2","4","2","2","2","2","2","3","2","745398419547492353","姚","","","","nonmatch","","","","","","","","","","","","","","key","j","20.705905882353374","683","380","f","false","match","img/triangle.png","三角","三角","ALT1_2","prac_ALT1_2","","","","","","","","","",""
"null","<span style='color:red; font-size: 70px;'>错误! </span>","null","html-keyboard-response","104","294389","0.0-7.0-1.0-1.0-0.0-1.47","4","3","4","3","4","3","3","4","4","4","4","5","4","4","3","5","4","4","4","5","2","2","2","2","2","3","2","2","2","1","0","1","1","0","0","0","1","0","1","-1","0","1","0","1","4","2","4","2","2","2","2","2","3","2","745398419547492353","姚","","","","","","","","","","","","","","","","","","","","","","","","","","","","","","feedback_test","","","","","","","","","",""
"4802","<style>.context{color:white; font-size: 35px; line-height:40px}</style>                          <div><p class='context'>您正确回答了67% 的试次。</p><p class='context'>您的平均反应时为928毫秒。</p><p class='context'>恭喜您完成练习。按空格键进入正式实验。</p><p class='footer' style='font-size: 35px; line-height:40px;'>请在进入正式实验实验之前将您的<span style='color: lightgreen;'>食指</span>放在电脑键盘的相应键位上进行按键。</p>"," ","html-keyboard-response","105","299199","0.0-7.0-1.0-2.0","4","3","4","3","4","3","3","4","4","4","4","5","4","4","3","5","4","4","4","5","2","2","2","2","2","3","2","2","2","1","0","1","1","0","0","0","1","0","1","-1","0","1","0","1","4","2","4","2","2","2","2","2","3","2","745398419547492353","姚","","","","","","","","","","","","","","","","","","","","","","","","","","","","","","","","","","","","","","","",""
"4507","
  <p>请您将手指放在按键上，准备进入正式的匹配任务。</p>
  <p> <div style = ""color: green""><按空格键进入下一阶段的匹配任务></div></p>
  "," ","html-keyboard-response","106","303720","0.0-7.0-1.0-3.0","4","3","4","3","4","3","3","4","4","4","4","5","4","4","3","5","4","4","4","5","2","2","2","2","2","3","2","2","2","1","0","1","1","0","0","0","1","0","1","-1","0","1","0","1","4","2","4","2","2","2","2","2","3","2","745398419547492353","姚","","","","","","","","","","","","","","","","","","","","","","","","","","","","","","","","","","","","","","","",""
"null","","null","psychophysics","107","305952","0.0-7.0-1.0-4.0-0.0-0.0","4","3","4","3","4","3","3","4","4","4","4","5","4","4","3","5","4","4","4","5","2","2","2","2","2","3","2","2","2","1","0","1","1","0","0","0","1","0","1","-1","0","1","0","1","4","2","4","2","2","2","2","2","3","2","745398419547492353","姚","","","","null","","","","","","","","","","","","","","key","null","20.597934579439723","683","380","f","false","match","img/triangle.png","三角","三角","ALT1","formal_ALT1_2","","","","","","","","","",""
"null","<span class='add_' style='color:yellow; font-size: 70px;'> 太慢! </span>","null","html-keyboard-response","108","306462","0.0-7.0-1.0-4.0-0.0-1.0","4","3","4","3","4","3","3","4","4","4","4","5","4","4","3","5","4","4","4","5","2","2","2","2","2","3","2","2","2","1","0","1","1","0","0","0","1","0","1","-1","0","1","0","1","4","2","4","2","2","2","2","2","3","2","745398419547492353","姚","","","","","","","","","","","","","","","","","","","","","","","","","","","","","","feedback_test","","","","","","","","","",""
"981","","f","psychophysics","109","308462","0.0-7.0-1.0-4.0-0.0-0.1","4","3","4","3","4","3","3","4","4","4","4","5","4","4","3","5","4","4","4","5","2","2","2","2","2","3","2","2","2","1","0","1","1","0","0","0","1","0","1","-1","0","1","0","1","4","2","4","2","2","2","2","2","3","2","745398419547492353","姚","","","","match","","","","","","","","","","","","","","key","f","20.189770833333267","683","380","f","true","match","img/trapezoid.png","梯形","梯形","ALT1","formal_ALT1_2","","","","","","","","","",""
"null","<span style='color:GreenYellow; font-size: 70px;'>正确! </span>","null","html-keyboard-response","110","308966","0.0-7.0-1.0-4.0-0.0-1.1","4","3","4","3","4","3","3","4","4","4","4","5","4","4","3","5","4","4","4","5","2","2","2","2","2","3","2","2","2","1","0","1","1","0","0","0","1","0","1","-1","0","1","0","1","4","2","4","2","2","2","2","2","3","2","745398419547492353","姚","","","","","","","","","","","","","","","","","","","","","","","","","","","","","","feedback_test","","","","","","","","","",""
"801","","f","psychophysics","111","310785","0.0-7.0-1.0-4.0-0.0-0.2","4","3","4","3","4","3","3","4","4","4","4","5","4","4","3","5","4","4","4","5","2","2","2","2","2","3","2","2","2","1","0","1","1","0","0","0","1","0","1","-1","0","1","0","1","4","2","4","2","2","2","2","2","3","2","745398419547492353","姚","","","","match","","","","","","","","","","","","","","key","f","21.045011764705894","683","380","f","true","match","img/trapezoid.png","梯形","梯形","ALT1","formal_ALT1_2","","","","","","","","","",""
"null","<span style='color:GreenYellow; font-size: 70px;'>正确! </span>","null","html-keyboard-response","112","311292","0.0-7.0-1.0-4.0-0.0-1.2","4","3","4","3","4","3","3","4","4","4","4","5","4","4","3","5","4","4","4","5","2","2","2","2","2","3","2","2","2","1","0","1","1","0","0","0","1","0","1","-1","0","1","0","1","4","2","4","2","2","2","2","2","3","2","745398419547492353","姚","","","","","","","","","","","","","","","","","","","","","","","","","","","","","","feedback_test","","","","","","","","","",""
"720","","j","psychophysics","113","313039","0.0-7.0-1.0-4.0-0.0-0.3","4","3","4","3","4","3","3","4","4","4","4","5","4","4","3","5","4","4","4","5","2","2","2","2","2","3","2","2","2","1","0","1","1","0","0","0","1","0","1","-1","0","1","0","1","4","2","4","2","2","2","2","2","3","2","745398419547492353","姚","","","","nonmatch","","","","","","","","","","","","","","key","j","20.715536585365843","683","380","j","true","nonmatch","img/triangle.png","椭圆","三角","ALT1","formal_ALT1_2","","","","","","","","","",""
"null","<span style='color:GreenYellow; font-size: 70px;'>正确! </span>","null","html-keyboard-response","114","313549","0.0-7.0-1.0-4.0-0.0-1.3","4","3","4","3","4","3","3","4","4","4","4","5","4","4","3","5","4","4","4","5","2","2","2","2","2","3","2","2","2","1","0","1","1","0","0","0","1","0","1","-1","0","1","0","1","4","2","4","2","2","2","2","2","3","2","745398419547492353","姚","","","","","","","","","","","","","","","","","","","","","","","","","","","","","","feedback_test","","","","","","","","","",""
"1046","","f","psychophysics","115","315605","0.0-7.0-1.0-4.0-0.0-0.4","4","3","4","3","4","3","3","4","4","4","4","5","4","4","3","5","4","4","4","5","2","2","2","2","2","3","2","2","2","1","0","1","1","0","0","0","1","0","1","-1","0","1","0","1","4","2","4","2","2","2","2","2","3","2","745398419547492353","姚","","","","match","","","","","","","","","","","","","","key","f","20.265030303030425","683","380","f","true","match","img/pentagon.png","五边","五边","ALT1","formal_ALT1_2","","","","","","","","","",""
"null","<span style='color:GreenYellow; font-size: 70px;'>正确! </span>","null","html-keyboard-response","116","316117","0.0-7.0-1.0-4.0-0.0-1.4","4","3","4","3","4","3","3","4","4","4","4","5","4","4","3","5","4","4","4","5","2","2","2","2","2","3","2","2","2","1","0","1","1","0","0","0","1","0","1","-1","0","1","0","1","4","2","4","2","2","2","2","2","3","2","745398419547492353","姚","","","","","","","","","","","","","","","","","","","","","","","","","","","","","","feedback_test","","","","","","","","","",""
"870","","f","psychophysics","117","317999","0.0-7.0-1.0-4.0-0.0-0.5","4","3","4","3","4","3","3","4","4","4","4","5","4","4","3","5","4","4","4","5","2","2","2","2","2","3","2","2","2","1","0","1","1","0","0","0","1","0","1","-1","0","1","0","1","4","2","4","2","2","2","2","2","3","2","745398419547492353","姚","","","","match","","","","","","","","","","","","","","key","f","21.557705882352586","683","380","f","true","match","img/trapezoid.png","梯形","梯形","ALT1","formal_ALT1_2","","","","","","","","","",""
"null","<span style='color:GreenYellow; font-size: 70px;'>正确! </span>","null","html-keyboard-response","118","318509","0.0-7.0-1.0-4.0-0.0-1.5","4","3","4","3","4","3","3","4","4","4","4","5","4","4","3","5","4","4","4","5","2","2","2","2","2","3","2","2","2","1","0","1","1","0","0","0","1","0","1","-1","0","1","0","1","4","2","4","2","2","2","2","2","3","2","745398419547492353","姚","","","","","","","","","","","","","","","","","","","","","","","","","","","","","","feedback_test","","","","","","","","","",""
"795","","f","psychophysics","119","320322","0.0-7.0-1.0-4.0-0.0-0.6","4","3","4","3","4","3","3","4","4","4","4","5","4","4","3","5","4","4","4","5","2","2","2","2","2","3","2","2","2","1","0","1","1","0","0","0","1","0","1","-1","0","1","0","1","4","2","4","2","2","2","2","2","3","2","745398419547492353","姚","","","","match","","","","","","","","","","","","","","key","f","20.13823863636406","683","380","j","false","nonmatch","img/trapezoid.png","五边","梯形","ALT1","formal_ALT1_2","","","","","","","","","",""
"null","<span style='color:red; font-size: 70px;'>错误! </span>","null","html-keyboard-response","120","320828","0.0-7.0-1.0-4.0-0.0-1.6","4","3","4","3","4","3","3","4","4","4","4","5","4","4","3","5","4","4","4","5","2","2","2","2","2","3","2","2","2","1","0","1","1","0","0","0","1","0","1","-1","0","1","0","1","4","2","4","2","2","2","2","2","3","2","745398419547492353","姚","","","","","","","","","","","","","","","","","","","","","","","","","","","","","","feedback_test","","","","","","","","","",""
"1088","","f","psychophysics","121","322940","0.0-7.0-1.0-4.0-0.0-0.7","4","3","4","3","4","3","3","4","4","4","4","5","4","4","3","5","4","4","4","5","2","2","2","2","2","3","2","2","2","1","0","1","1","0","0","0","1","0","1","-1","0","1","0","1","4","2","4","2","2","2","2","2","3","2","745398419547492353","姚","","","","match","","","","","","","","","","","","","","key","f","22.53132608695634","683","380","f","true","match","img/triangle.png","三角","三角","ALT1","formal_ALT1_2","","","","","","","","","",""
"null","<span style='color:GreenYellow; font-size: 70px;'>正确! </span>","null","html-keyboard-response","122","323446","0.0-7.0-1.0-4.0-0.0-1.7","4","3","4","3","4","3","3","4","4","4","4","5","4","4","3","5","4","4","4","5","2","2","2","2","2","3","2","2","2","1","0","1","1","0","0","0","1","0","1","-1","0","1","0","1","4","2","4","2","2","2","2","2","3","2","745398419547492353","姚","","","","","","","","","","","","","","","","","","","","","","","","","","","","","","feedback_test","","","","","","","","","",""
"null","","null","psychophysics","123","325714","0.0-7.0-1.0-4.0-0.0-0.8","4","3","4","3","4","3","3","4","4","4","4","5","4","4","3","5","4","4","4","5","2","2","2","2","2","3","2","2","2","1","0","1","1","0","0","0","1","0","1","-1","0","1","0","1","4","2","4","2","2","2","2","2","3","2","745398419547492353","姚","","","","null","","","","","","","","","","","","","","key","null","25.784767441860357","683","380","j","false","nonmatch","img/pentagon.png","三角","五边","ALT1","formal_ALT1_2","","","","","","","","","",""
"null","<span class='add_' style='color:yellow; font-size: 70px;'> 太慢! </span>","null","html-keyboard-response","124","326222","0.0-7.0-1.0-4.0-0.0-1.8","4","3","4","3","4","3","3","4","4","4","4","5","4","4","3","5","4","4","4","5","2","2","2","2","2","3","2","2","2","1","0","1","1","0","0","0","1","0","1","-1","0","1","0","1","4","2","4","2","2","2","2","2","3","2","745398419547492353","姚","","","","","","","","","","","","","","","","","","","","","","","","","","","","","","feedback_test","","","","","","","","","",""
"893","","f","psychophysics","125","328130","0.0-7.0-1.0-4.0-0.0-0.9","4","3","4","3","4","3","3","4","4","4","4","5","4","4","3","5","4","4","4","5","2","2","2","2","2","3","2","2","2","1","0","1","1","0","0","0","1","0","1","-1","0","1","0","1","4","2","4","2","2","2","2","2","3","2","745398419547492353","姚","","","","match","","","","","","","","","","","","","","key","f","21.26397727272706","683","380","j","false","nonmatch","img/pentagon.png","梯形","五边","ALT1","formal_ALT1_2","","","","","","","","","",""
"null","<span style='color:red; font-size: 70px;'>错误! </span>","null","html-keyboard-response","126","328637","0.0-7.0-1.0-4.0-0.0-1.9","4","3","4","3","4","3","3","4","4","4","4","5","4","4","3","5","4","4","4","5","2","2","2","2","2","3","2","2","2","1","0","1","1","0","0","0","1","0","1","-1","0","1","0","1","4","2","4","2","2","2","2","2","3","2","745398419547492353","姚","","","","","","","","","","","","","","","","","","","","","","","","","","","","","","feedback_test","","","","","","","","","",""
"1169","","f","psychophysics","127","330835","0.0-7.0-1.0-4.0-0.0-0.10","4","3","4","3","4","3","3","4","4","4","4","5","4","4","3","5","4","4","4","5","2","2","2","2","2","3","2","2","2","1","0","1","1","0","0","0","1","0","1","-1","0","1","0","1","4","2","4","2","2","2","2","2","3","2","745398419547492353","姚","","","","match","","","","","","","","","","","","","","key","f","22.76277659574469","683","380","j","false","nonmatch","img/trapezoid.png","三角","梯形","ALT1","formal_ALT1_2","","","","","","","","","",""
"null","<span style='color:red; font-size: 70px;'>错误! </span>","null","html-keyboard-response","128","331342","0.0-7.0-1.0-4.0-0.0-1.10","4","3","4","3","4","3","3","4","4","4","4","5","4","4","3","5","4","4","4","5","2","2","2","2","2","3","2","2","2","1","0","1","1","0","0","0","1","0","1","-1","0","1","0","1","4","2","4","2","2","2","2","2","3","2","745398419547492353","姚","","","","","","","","","","","","","","","","","","","","","","","","","","","","","","feedback_test","","","","","","","","","",""
"815","","f","psychophysics","129","333187","0.0-7.0-1.0-4.0-0.0-0.11","4","3","4","3","4","3","3","4","4","4","4","5","4","4","3","5","4","4","4","5","2","2","2","2","2","3","2","2","2","1","0","1","1","0","0","0","1","0","1","-1","0","1","0","1","4","2","4","2","2","2","2","2","3","2","745398419547492353","姚","","","","match","","","","","","","","","","","","","","key","f","24.208119999999955","683","380","f","true","match","img/pentagon.png","五边","五边","ALT1","formal_ALT1_2","","","","","","","","","",""
"null","<span style='color:GreenYellow; font-size: 70px;'>正确! </span>","null","html-keyboard-response","130","333693","0.0-7.0-1.0-4.0-0.0-1.11","4","3","4","3","4","3","3","4","4","4","4","5","4","4","3","5","4","4","4","5","2","2","2","2","2","3","2","2","2","1","0","1","1","0","0","0","1","0","1","-1","0","1","0","1","4","2","4","2","2","2","2","2","3","2","745398419547492353","姚","","","","","","","","","","","","","","","","","","","","","","","","","","","","","","feedback_test","","","","","","","","","",""
"1006","","f","psychophysics","131","335718","0.0-7.0-1.0-4.0-0.0-0.12","4","3","4","3","4","3","3","4","4","4","4","5","4","4","3","5","4","4","4","5","2","2","2","2","2","3","2","2","2","1","0","1","1","0","0","0","1","0","1","-1","0","1","0","1","4","2","4","2","2","2","2","2","3","2","745398419547492353","姚","","","","match","","","","","","","","","","","","","","key","f","20.997168421052322","683","380","j","false","nonmatch","img/triangle.png","五边","三角","ALT1","formal_ALT1_2","","","","","","","","","",""
"null","<span style='color:red; font-size: 70px;'>错误! </span>","null","html-keyboard-response","132","336230","0.0-7.0-1.0-4.0-0.0-1.12","4","3","4","3","4","3","3","4","4","4","4","5","4","4","3","5","4","4","4","5","2","2","2","2","2","3","2","2","2","1","0","1","1","0","0","0","1","0","1","-1","0","1","0","1","4","2","4","2","2","2","2","2","3","2","745398419547492353","姚","","","","","","","","","","","","","","","","","","","","","","","","","","","","","","feedback_test","","","","","","","","","",""
"708","","j","psychophysics","133","337953","0.0-7.0-1.0-4.0-0.0-0.13","4","3","4","3","4","3","3","4","4","4","4","5","4","4","3","5","4","4","4","5","2","2","2","2","2","3","2","2","2","1","0","1","1","0","0","0","1","0","1","-1","0","1","0","1","4","2","4","2","2","2","2","2","3","2","745398419547492353","姚","","","","nonmatch","","","","","","","","","","","","","","key","j","20.76476543209872","683","380","f","false","match","img/ellipse.png","椭圆","椭圆","ALT1","formal_ALT1_2","","","","","","","","","",""
"null","<span style='color:red; font-size: 70px;'>错误! </span>","null","html-keyboard-response","134","338461","0.0-7.0-1.0-4.0-0.0-1.13","4","3","4","3","4","3","3","4","4","4","4","5","4","4","3","5","4","4","4","5","2","2","2","2","2","3","2","2","2","1","0","1","1","0","0","0","1","0","1","-1","0","1","0","1","4","2","4","2","2","2","2","2","3","2","745398419547492353","姚","","","","","","","","","","","","","","","","","","","","","","","","","","","","","","feedback_test","","","","","","","","","",""
"890","","f","psychophysics","135","340363","0.0-7.0-1.0-4.0-0.0-0.14","4","3","4","3","4","3","3","4","4","4","4","5","4","4","3","5","4","4","4","5","2","2","2","2","2","3","2","2","2","1","0","1","1","0","0","0","1","0","1","-1","0","1","0","1","4","2","4","2","2","2","2","2","3","2","745398419547492353","姚","","","","match","","","","","","","","","","","","","","key","f","20.170826086956684","683","380","f","true","match","img/pentagon.png","五边","五边","ALT1","formal_ALT1_2","","","","","","","","","",""
"null","<span style='color:GreenYellow; font-size: 70px;'>正确! </span>","null","html-keyboard-response","136","340887","0.0-7.0-1.0-4.0-0.0-1.14","4","3","4","3","4","3","3","4","4","4","4","5","4","4","3","5","4","4","4","5","2","2","2","2","2","3","2","2","2","1","0","1","1","0","0","0","1","0","1","-1","0","1","0","1","4","2","4","2","2","2","2","2","3","2","745398419547492353","姚","","","","","","","","","","","","","","","","","","","","","","","","","","","","","","feedback_test","","","","","","","","","",""
"724","","j","psychophysics","137","342657","0.0-7.0-1.0-4.0-0.0-0.15","4","3","4","3","4","3","3","4","4","4","4","5","4","4","3","5","4","4","4","5","2","2","2","2","2","3","2","2","2","1","0","1","1","0","0","0","1","0","1","-1","0","1","0","1","4","2","4","2","2","2","2","2","3","2","745398419547492353","姚","","","","nonmatch","","","","","","","","","","","","","","key","j","20.9853580246908","683","380","j","true","nonmatch","img/trapezoid.png","椭圆","梯形","ALT1","formal_ALT1_2","","","","","","","","","",""
"null","<span style='color:GreenYellow; font-size: 70px;'>正确! </span>","null","html-keyboard-response","138","343173","0.0-7.0-1.0-4.0-0.0-1.15","4","3","4","3","4","3","3","4","4","4","4","5","4","4","3","5","4","4","4","5","2","2","2","2","2","3","2","2","2","1","0","1","1","0","0","0","1","0","1","-1","0","1","0","1","4","2","4","2","2","2","2","2","3","2","745398419547492353","姚","","","","","","","","","","","","","","","","","","","","","","","","","","","","","","feedback_test","","","","","","","","","",""
"null","","null","psychophysics","139","345386","0.0-7.0-1.0-4.0-0.0-0.16","4","3","4","3","4","3","3","4","4","4","4","5","4","4","3","5","4","4","4","5","2","2","2","2","2","3","2","2","2","1","0","1","1","0","0","0","1","0","1","-1","0","1","0","1","4","2","4","2","2","2","2","2","3","2","745398419547492353","姚","","","","null","","","","","","","","","","","","","","key","null","20.25747663551391","683","380","j","false","nonmatch","img/ellipse.png","梯形","椭圆","ALT1","formal_ALT1_2","","","","","","","","","",""
"null","<span class='add_' style='color:yellow; font-size: 70px;'> 太慢! </span>","null","html-keyboard-response","140","345893","0.0-7.0-1.0-4.0-0.0-1.16","4","3","4","3","4","3","3","4","4","4","4","5","4","4","3","5","4","4","4","5","2","2","2","2","2","3","2","2","2","1","0","1","1","0","0","0","1","0","1","-1","0","1","0","1","4","2","4","2","2","2","2","2","3","2","745398419547492353","姚","","","","","","","","","","","","","","","","","","","","","","","","","","","","","","feedback_test","","","","","","","","","",""
"807","","f","psychophysics","141","347740","0.0-7.0-1.0-4.0-0.0-0.17","4","3","4","3","4","3","3","4","4","4","4","5","4","4","3","5","4","4","4","5","2","2","2","2","2","3","2","2","2","1","0","1","1","0","0","0","1","0","1","-1","0","1","0","1","4","2","4","2","2","2","2","2","3","2","745398419547492353","姚","","","","match","","","","","","","","","","","","","","key","f","23.14807692307752","683","380","j","false","nonmatch","img/ellipse.png","五边","椭圆","ALT1","formal_ALT1_2","","","","","","","","","",""
"null","<span style='color:red; font-size: 70px;'>错误! </span>","null","html-keyboard-response","142","348246","0.0-7.0-1.0-4.0-0.0-1.17","4","3","4","3","4","3","3","4","4","4","4","5","4","4","3","5","4","4","4","5","2","2","2","2","2","3","2","2","2","1","0","1","1","0","0","0","1","0","1","-1","0","1","0","1","4","2","4","2","2","2","2","2","3","2","745398419547492353","姚","","","","","","","","","","","","","","","","","","","","","","","","","","","","","","feedback_test","","","","","","","","","",""
"954","","j","psychophysics","143","350232","0.0-7.0-1.0-4.0-0.0-0.18","4","3","4","3","4","3","3","4","4","4","4","5","4","4","3","5","4","4","4","5","2","2","2","2","2","3","2","2","2","1","0","1","1","0","0","0","1","0","1","-1","0","1","0","1","4","2","4","2","2","2","2","2","3","2","745398419547492353","姚","","","","nonmatch","","","","","","","","","","","","","","key","j","20.68760638297882","683","380","j","true","nonmatch","img/ellipse.png","三角","椭圆","ALT1","formal_ALT1_2","","","","","","","","","",""
"null","<span style='color:GreenYellow; font-size: 70px;'>正确! </span>","null","html-keyboard-response","144","350740","0.0-7.0-1.0-4.0-0.0-1.18","4","3","4","3","4","3","3","4","4","4","4","5","4","4","3","5","4","4","4","5","2","2","2","2","2","3","2","2","2","1","0","1","1","0","0","0","1","0","1","-1","0","1","0","1","4","2","4","2","2","2","2","2","3","2","745398419547492353","姚","","","","","","","","","","","","","","","","","","","","","","","","","","","","","","feedback_test","","","","","","","","","",""
"842","","j","psychophysics","145","352588","0.0-7.0-1.0-4.0-0.0-0.19","4","3","4","3","4","3","3","4","4","4","4","5","4","4","3","5","4","4","4","5","2","2","2","2","2","3","2","2","2","1","0","1","1","0","0","0","1","0","1","-1","0","1","0","1","4","2","4","2","2","2","2","2","3","2","745398419547492353","姚","","","","nonmatch","","","","","","","","","","","","","","key","j","20.79895348837166","683","380","j","true","nonmatch","img/triangle.png","梯形","三角","ALT1","formal_ALT1_2","","","","","","","","","",""
"null","<span style='color:GreenYellow; font-size: 70px;'>正确! </span>","null","html-keyboard-response","146","353093","0.0-7.0-1.0-4.0-0.0-1.19","4","3","4","3","4","3","3","4","4","4","4","5","4","4","3","5","4","4","4","5","2","2","2","2","2","3","2","2","2","1","0","1","1","0","0","0","1","0","1","-1","0","1","0","1","4","2","4","2","2","2","2","2","3","2","745398419547492353","姚","","","","","","","","","","","","","","","","","","","","","","","","","","","","","","feedback_test","","","","","","","","","",""
"899","","j","psychophysics","147","355004","0.0-7.0-1.0-4.0-0.0-0.20","4","3","4","3","4","3","3","4","4","4","4","5","4","4","3","5","4","4","4","5","2","2","2","2","2","3","2","2","2","1","0","1","1","0","0","0","1","0","1","-1","0","1","0","1","4","2","4","2","2","2","2","2","3","2","745398419547492353","姚","","","","nonmatch","","","","","","","","","","","","","","key","j","20.678511111111018","683","380","j","true","nonmatch","img/pentagon.png","椭圆","五边","ALT1","formal_ALT1_2","","","","","","","","","",""
"null","<span style='color:GreenYellow; font-size: 70px;'>正确! </span>","null","html-keyboard-response","148","355509","0.0-7.0-1.0-4.0-0.0-1.20","4","3","4","3","4","3","3","4","4","4","4","5","4","4","3","5","4","4","4","5","2","2","2","2","2","3","2","2","2","1","0","1","1","0","0","0","1","0","1","-1","0","1","0","1","4","2","4","2","2","2","2","2","3","2","745398419547492353","姚","","","","","","","","","","","","","","","","","","","","","","","","","","","","","","feedback_test","","","","","","","","","",""
"886","","f","psychophysics","149","357400","0.0-7.0-1.0-4.0-0.0-0.21","4","3","4","3","4","3","3","4","4","4","4","5","4","4","3","5","4","4","4","5","2","2","2","2","2","3","2","2","2","1","0","1","1","0","0","0","1","0","1","-1","0","1","0","1","4","2","4","2","2","2","2","2","3","2","745398419547492353","姚","","","","match","","","","","","","","","","","","","","key","f","21.14978409090889","683","380","f","true","match","img/ellipse.png","椭圆","椭圆","ALT1","formal_ALT1_2","","","","","","","","","",""
"null","<span style='color:GreenYellow; font-size: 70px;'>正确! </span>","null","html-keyboard-response","150","357909","0.0-7.0-1.0-4.0-0.0-1.21","4","3","4","3","4","3","3","4","4","4","4","5","4","4","3","5","4","4","4","5","2","2","2","2","2","3","2","2","2","1","0","1","1","0","0","0","1","0","1","-1","0","1","0","1","4","2","4","2","2","2","2","2","3","2","745398419547492353","姚","","","","","","","","","","","","","","","","","","","","","","","","","","","","","","feedback_test","","","","","","","","","",""
"841","","f","psychophysics","151","359774","0.0-7.0-1.0-4.0-0.0-0.22","4","3","4","3","4","3","3","4","4","4","4","5","4","4","3","5","4","4","4","5","2","2","2","2","2","3","2","2","2","1","0","1","1","0","0","0","1","0","1","-1","0","1","0","1","4","2","4","2","2","2","2","2","3","2","745398419547492353","姚","","","","match","","","","","","","","","","","","","","key","f","20.475146067415736","683","380","f","true","match","img/ellipse.png","椭圆","椭圆","ALT1","formal_ALT1_2","","","","","","","","","",""
"null","<span style='color:GreenYellow; font-size: 70px;'>正确! </span>","null","html-keyboard-response","152","360281","0.0-7.0-1.0-4.0-0.0-1.22","4","3","4","3","4","3","3","4","4","4","4","5","4","4","3","5","4","4","4","5","2","2","2","2","2","3","2","2","2","1","0","1","1","0","0","0","1","0","1","-1","0","1","0","1","4","2","4","2","2","2","2","2","3","2","745398419547492353","姚","","","","","","","","","","","","","","","","","","","","","","","","","","","","","","feedback_test","","","","","","","","","",""
"890","","f","psychophysics","153","362197","0.0-7.0-1.0-4.0-0.0-0.23","4","3","4","3","4","3","3","4","4","4","4","5","4","4","3","5","4","4","4","5","2","2","2","2","2","3","2","2","2","1","0","1","1","0","0","0","1","0","1","-1","0","1","0","1","4","2","4","2","2","2","2","2","3","2","745398419547492353","姚","","","","match","","","","","","","","","","","","","","key","f","20.818839080459785","683","380","f","true","match","img/triangle.png","三角","三角","ALT1","formal_ALT1_2","","","","","","","","","",""
"null","<span style='color:GreenYellow; font-size: 70px;'>正确! </span>","null","html-keyboard-response","154","362701","0.0-7.0-1.0-4.0-0.0-1.23","4","3","4","3","4","3","3","4","4","4","4","5","4","4","3","5","4","4","4","5","2","2","2","2","2","3","2","2","2","1","0","1","1","0","0","0","1","0","1","-1","0","1","0","1","4","2","4","2","2","2","2","2","3","2","745398419547492353","姚","","","","","","","","","","","","","","","","","","","","","","","","","","","","","","feedback_test","","","","","","","","","",""
"709","","f","psychophysics","155","364438","0.0-7.0-1.0-4.0-0.0-0.24","4","3","4","3","4","3","3","4","4","4","4","5","4","4","3","5","4","4","4","5","2","2","2","2","2","3","2","2","2","1","0","1","1","0","0","0","1","0","1","-1","0","1","0","1","4","2","4","2","2","2","2","2","3","2","745398419547492353","姚","","","","match","","","","","","","","","","","","","","key","f","19.864517647058786","683","380","f","true","match","img/ellipse.png","椭圆","椭圆","ALT1","formal_ALT1_2","","","","","","","","","",""
"null","<span style='color:GreenYellow; font-size: 70px;'>正确! </span>","null","html-keyboard-response","156","364949","0.0-7.0-1.0-4.0-0.0-1.24","4","3","4","3","4","3","3","4","4","4","4","5","4","4","3","5","4","4","4","5","2","2","2","2","2","3","2","2","2","1","0","1","1","0","0","0","1","0","1","-1","0","1","0","1","4","2","4","2","2","2","2","2","3","2","745398419547492353","姚","","","","","","","","","","","","","","","","","","","","","","","","","","","","","","feedback_test","","","","","","","","","",""
"704","","j","psychophysics","157","366660","0.0-7.0-1.0-4.0-0.0-0.25","4","3","4","3","4","3","3","4","4","4","4","5","4","4","3","5","4","4","4","5","2","2","2","2","2","3","2","2","2","1","0","1","1","0","0","0","1","0","1","-1","0","1","0","1","4","2","4","2","2","2","2","2","3","2","745398419547492353","姚","","","","nonmatch","","","","","","","","","","","","","","key","j","20.209457831325413","683","380","j","true","nonmatch","img/trapezoid.png","三角","梯形","ALT1","formal_ALT1_2","","","","","","","","","",""
"null","<span style='color:GreenYellow; font-size: 70px;'>正确! </span>","null","html-keyboard-response","158","367165","0.0-7.0-1.0-4.0-0.0-1.25","4","3","4","3","4","3","3","4","4","4","4","5","4","4","3","5","4","4","4","5","2","2","2","2","2","3","2","2","2","1","0","1","1","0","0","0","1","0","1","-1","0","1","0","1","4","2","4","2","2","2","2","2","3","2","745398419547492353","姚","","","","","","","","","","","","","","","","","","","","","","","","","","","","","","feedback_test","","","","","","","","","",""
"1028","","f","psychophysics","159","369216","0.0-7.0-1.0-4.0-0.0-0.26","4","3","4","3","4","3","3","4","4","4","4","5","4","4","3","5","4","4","4","5","2","2","2","2","2","3","2","2","2","1","0","1","1","0","0","0","1","0","1","-1","0","1","0","1","4","2","4","2","2","2","2","2","3","2","745398419547492353","姚","","","","match","","","","","","","","","","","","","","key","f","19.971212121212357","683","380","j","false","nonmatch","img/ellipse.png","梯形","椭圆","ALT1","formal_ALT1_2","","","","","","","","","",""
"null","<span style='color:red; font-size: 70px;'>错误! </span>","null","html-keyboard-response","160","369724","0.0-7.0-1.0-4.0-0.0-1.26","4","3","4","3","4","3","3","4","4","4","4","5","4","4","3","5","4","4","4","5","2","2","2","2","2","3","2","2","2","1","0","1","1","0","0","0","1","0","1","-1","0","1","0","1","4","2","4","2","2","2","2","2","3","2","745398419547492353","姚","","","","","","","","","","","","","","","","","","","","","","","","","","","","","","feedback_test","","","","","","","","","",""
"789","","f","psychophysics","161","371518","0.0-7.0-1.0-4.0-0.0-0.27","4","3","4","3","4","3","3","4","4","4","4","5","4","4","3","5","4","4","4","5","2","2","2","2","2","3","2","2","2","1","0","1","1","0","0","0","1","0","1","-1","0","1","0","1","4","2","4","2","2","2","2","2","3","2","745398419547492353","姚","","","","match","","","","","","","","","","","","","","key","f","20.153546511627418","683","380","f","true","match","img/triangle.png","三角","三角","ALT1","formal_ALT1_2","","","","","","","","","",""
"null","<span style='color:GreenYellow; font-size: 70px;'>正确! </span>","null","html-keyboard-response","162","372030","0.0-7.0-1.0-4.0-0.0-1.27","4","3","4","3","4","3","3","4","4","4","4","5","4","4","3","5","4","4","4","5","2","2","2","2","2","3","2","2","2","1","0","1","1","0","0","0","1","0","1","-1","0","1","0","1","4","2","4","2","2","2","2","2","3","2","745398419547492353","姚","","","","","","","","","","","","","","","","","","","","","","","","","","","","","","feedback_test","","","","","","","","","",""
"884","","f","psychophysics","163","373942","0.0-7.0-1.0-4.0-0.0-0.28","4","3","4","3","4","3","3","4","4","4","4","5","4","4","3","5","4","4","4","5","2","2","2","2","2","3","2","2","2","1","0","1","1","0","0","0","1","0","1","-1","0","1","0","1","4","2","4","2","2","2","2","2","3","2","745398419547492353","姚","","","","match","","","","","","","","","","","","","","key","f","20.34161956521743","683","380","f","true","match","img/pentagon.png","五边","五边","ALT1","formal_ALT1_2","","","","","","","","","",""
"null","<span style='color:GreenYellow; font-size: 70px;'>正确! </span>","null","html-keyboard-response","164","374446","0.0-7.0-1.0-4.0-0.0-1.28","4","3","4","3","4","3","3","4","4","4","4","5","4","4","3","5","4","4","4","5","2","2","2","2","2","3","2","2","2","1","0","1","1","0","0","0","1","0","1","-1","0","1","0","1","4","2","4","2","2","2","2","2","3","2","745398419547492353","姚","","","","","","","","","","","","","","","","","","","","","","","","","","","","","","feedback_test","","","","","","","","","",""
"722","","j","psychophysics","165","376195","0.0-7.0-1.0-4.0-0.0-0.29","4","3","4","3","4","3","3","4","4","4","4","5","4","4","3","5","4","4","4","5","2","2","2","2","2","3","2","2","2","1","0","1","1","0","0","0","1","0","1","-1","0","1","0","1","4","2","4","2","2","2","2","2","3","2","745398419547492353","姚","","","","nonmatch","","","","","","","","","","","","","","key","j","20.365928571428714","683","380","j","true","nonmatch","img/trapezoid.png","椭圆","梯形","ALT1","formal_ALT1_2","","","","","","","","","",""
"null","<span style='color:GreenYellow; font-size: 70px;'>正确! </span>","null","html-keyboard-response","166","376700","0.0-7.0-1.0-4.0-0.0-1.29","4","3","4","3","4","3","3","4","4","4","4","5","4","4","3","5","4","4","4","5","2","2","2","2","2","3","2","2","2","1","0","1","1","0","0","0","1","0","1","-1","0","1","0","1","4","2","4","2","2","2","2","2","3","2","745398419547492353","姚","","","","","","","","","","","","","","","","","","","","","","","","","","","","","","feedback_test","","","","","","","","","",""
"912","","j","psychophysics","167","378627","0.0-7.0-1.0-4.0-0.0-0.30","4","3","4","3","4","3","3","4","4","4","4","5","4","4","3","5","4","4","4","5","2","2","2","2","2","3","2","2","2","1","0","1","1","0","0","0","1","0","1","-1","0","1","0","1","4","2","4","2","2","2","2","2","3","2","745398419547492353","姚","","","","nonmatch","","","","","","","","","","","","","","key","j","21.089146067415825","683","380","j","true","nonmatch","img/ellipse.png","三角","椭圆","ALT1","formal_ALT1_2","","","","","","","","","",""
"null","<span style='color:GreenYellow; font-size: 70px;'>正确! </span>","null","html-keyboard-response","168","379133","0.0-7.0-1.0-4.0-0.0-1.30","4","3","4","3","4","3","3","4","4","4","4","5","4","4","3","5","4","4","4","5","2","2","2","2","2","3","2","2","2","1","0","1","1","0","0","0","1","0","1","-1","0","1","0","1","4","2","4","2","2","2","2","2","3","2","745398419547492353","姚","","","","","","","","","","","","","","","","","","","","","","","","","","","","","","feedback_test","","","","","","","","","",""
"1093","","f","psychophysics","169","381237","0.0-7.0-1.0-4.0-0.0-0.31","4","3","4","3","4","3","3","4","4","4","4","5","4","4","3","5","4","4","4","5","2","2","2","2","2","3","2","2","2","1","0","1","1","0","0","0","1","0","1","-1","0","1","0","1","4","2","4","2","2","2","2","2","3","2","745398419547492353","姚","","","","match","","","","","","","","","","","","","","key","f","20.212088235293848","683","380","j","false","nonmatch","img/triangle.png","椭圆","三角","ALT1","formal_ALT1_2","","","","","","","","","",""
"null","<span style='color:red; font-size: 70px;'>错误! </span>","null","html-keyboard-response","170","381742","0.0-7.0-1.0-4.0-0.0-1.31","4","3","4","3","4","3","3","4","4","4","4","5","4","4","3","5","4","4","4","5","2","2","2","2","2","3","2","2","2","1","0","1","1","0","0","0","1","0","1","-1","0","1","0","1","4","2","4","2","2","2","2","2","3","2","745398419547492353","姚","","","","","","","","","","","","","","","","","","","","","","","","","","","","","","feedback_test","","","","","","","","","",""
"1168","","j","psychophysics","171","383929","0.0-7.0-1.0-4.0-0.0-0.32","4","3","4","3","4","3","3","4","4","4","4","5","4","4","3","5","4","4","4","5","2","2","2","2","2","3","2","2","2","1","0","1","1","0","0","0","1","0","1","-1","0","1","0","1","4","2","4","2","2","2","2","2","3","2","745398419547492353","姚","","","","nonmatch","","","","","","","","","","","","","","key","j","24.03082022471929","683","380","j","true","nonmatch","img/pentagon.png","椭圆","五边","ALT1","formal_ALT1_2","","","","","","","","","",""
"null","<span style='color:GreenYellow; font-size: 70px;'>正确! </span>","null","html-keyboard-response","172","384441","0.0-7.0-1.0-4.0-0.0-1.32","4","3","4","3","4","3","3","4","4","4","4","5","4","4","3","5","4","4","4","5","2","2","2","2","2","3","2","2","2","1","0","1","1","0","0","0","1","0","1","-1","0","1","0","1","4","2","4","2","2","2","2","2","3","2","745398419547492353","姚","","","","","","","","","","","","","","","","","","","","","","","","","","","","","","feedback_test","","","","","","","","","",""
"876","","f","psychophysics","173","386359","0.0-7.0-1.0-4.0-0.0-0.33","4","3","4","3","4","3","3","4","4","4","4","5","4","4","3","5","4","4","4","5","2","2","2","2","2","3","2","2","2","1","0","1","1","0","0","0","1","0","1","-1","0","1","0","1","4","2","4","2","2","2","2","2","3","2","745398419547492353","姚","","","","match","","","","","","","","","","","","","","key","f","20.787370786516863","683","380","f","true","match","img/trapezoid.png","梯形","梯形","ALT1","formal_ALT1_2","","","","","","","","","",""
"null","<span style='color:GreenYellow; font-size: 70px;'>正确! </span>","null","html-keyboard-response","174","386918","0.0-7.0-1.0-4.0-0.0-1.33","4","3","4","3","4","3","3","4","4","4","4","5","4","4","3","5","4","4","4","5","2","2","2","2","2","3","2","2","2","1","0","1","1","0","0","0","1","0","1","-1","0","1","0","1","4","2","4","2","2","2","2","2","3","2","745398419547492353","姚","","","","","","","","","","","","","","","","","","","","","","","","","","","","","","feedback_test","","","","","","","","","",""
"790","","j","psychophysics","175","388735","0.0-7.0-1.0-4.0-0.0-0.34","4","3","4","3","4","3","3","4","4","4","4","5","4","4","3","5","4","4","4","5","2","2","2","2","2","3","2","2","2","1","0","1","1","0","0","0","1","0","1","-1","0","1","0","1","4","2","4","2","2","2","2","2","3","2","745398419547492353","姚","","","","nonmatch","","","","","","","","","","","","","","key","j","20.967388235294152","683","380","f","false","match","img/triangle.png","三角","三角","ALT1","formal_ALT1_2","","","","","","","","","",""
"null","<span style='color:red; font-size: 70px;'>错误! </span>","null","html-keyboard-response","176","389237","0.0-7.0-1.0-4.0-0.0-1.34","4","3","4","3","4","3","3","4","4","4","4","5","4","4","3","5","4","4","4","5","2","2","2","2","2","3","2","2","2","1","0","1","1","0","0","0","1","0","1","-1","0","1","0","1","4","2","4","2","2","2","2","2","3","2","745398419547492353","姚","","","","","","","","","","","","","","","","","","","","","","","","","","","","","","feedback_test","","","","","","","","","",""
"951","","f","psychophysics","177","391212","0.0-7.0-1.0-4.0-0.0-0.35","4","3","4","3","4","3","3","4","4","4","4","5","4","4","3","5","4","4","4","5","2","2","2","2","2","3","2","2","2","1","0","1","1","0","0","0","1","0","1","-1","0","1","0","1","4","2","4","2","2","2","2","2","3","2","745398419547492353","姚","","","","match","","","","","","","","","","","","","","key","f","20.94150549450513","683","380","f","true","match","img/pentagon.png","五边","五边","ALT1","formal_ALT1_2","","","","","","","","","",""
"null","<span style='color:GreenYellow; font-size: 70px;'>正确! </span>","null","html-keyboard-response","178","391717","0.0-7.0-1.0-4.0-0.0-1.35","4","3","4","3","4","3","3","4","4","4","4","5","4","4","3","5","4","4","4","5","2","2","2","2","2","3","2","2","2","1","0","1","1","0","0","0","1","0","1","-1","0","1","0","1","4","2","4","2","2","2","2","2","3","2","745398419547492353","姚","","","","","","","","","","","","","","","","","","","","","","","","","","","","","","feedback_test","","","","","","","","","",""
"868","","f","psychophysics","179","393599","0.0-7.0-1.0-4.0-0.0-0.36","4","3","4","3","4","3","3","4","4","4","4","5","4","4","3","5","4","4","4","5","2","2","2","2","2","3","2","2","2","1","0","1","1","0","0","0","1","0","1","-1","0","1","0","1","4","2","4","2","2","2","2","2","3","2","745398419547492353","姚","","","","match","","","","","","","","","","","","","","key","f","20.074637362637535","683","380","j","false","nonmatch","img/triangle.png","梯形","三角","ALT1","formal_ALT1_2","","","","","","","","","",""
"null","<span style='color:red; font-size: 70px;'>错误! </span>","null","html-keyboard-response","180","394102","0.0-7.0-1.0-4.0-0.0-1.36","4","3","4","3","4","3","3","4","4","4","4","5","4","4","3","5","4","4","4","5","2","2","2","2","2","3","2","2","2","1","0","1","1","0","0","0","1","0","1","-1","0","1","0","1","4","2","4","2","2","2","2","2","3","2","745398419547492353","姚","","","","","","","","","","","","","","","","","","","","","","","","","","","","","","feedback_test","","","","","","","","","",""
"971","","j","psychophysics","181","396109","0.0-7.0-1.0-4.0-0.0-0.37","4","3","4","3","4","3","3","4","4","4","4","5","4","4","3","5","4","4","4","5","2","2","2","2","2","3","2","2","2","1","0","1","1","0","0","0","1","0","1","-1","0","1","0","1","4","2","4","2","2","2","2","2","3","2","745398419547492353","姚","","","","nonmatch","","","","","","","","","","","","","","key","j","20.764400000000176","683","380","j","true","nonmatch","img/triangle.png","五边","三角","ALT1","formal_ALT1_2","","","","","","","","","",""
"null","<span style='color:GreenYellow; font-size: 70px;'>正确! </span>","null","html-keyboard-response","182","396614","0.0-7.0-1.0-4.0-0.0-1.37","4","3","4","3","4","3","3","4","4","4","4","5","4","4","3","5","4","4","4","5","2","2","2","2","2","3","2","2","2","1","0","1","1","0","0","0","1","0","1","-1","0","1","0","1","4","2","4","2","2","2","2","2","3","2","745398419547492353","姚","","","","","","","","","","","","","","","","","","","","","","","","","","","","","","feedback_test","","","","","","","","","",""
"1132","","j","psychophysics","183","398749","0.0-7.0-1.0-4.0-0.0-0.38","4","3","4","3","4","3","3","4","4","4","4","5","4","4","3","5","4","4","4","5","2","2","2","2","2","3","2","2","2","1","0","1","1","0","0","0","1","0","1","-1","0","1","0","1","4","2","4","2","2","2","2","2","3","2","745398419547492353","姚","","","","nonmatch","","","","","","","","","","","","","","key","j","20.99625","683","380","j","true","nonmatch","img/pentagon.png","三角","五边","ALT1","formal_ALT1_2","","","","","","","","","",""
"null","<span style='color:GreenYellow; font-size: 70px;'>正确! </span>","null","html-keyboard-response","184","399254","0.0-7.0-1.0-4.0-0.0-1.38","4","3","4","3","4","3","3","4","4","4","4","5","4","4","3","5","4","4","4","5","2","2","2","2","2","3","2","2","2","1","0","1","1","0","0","0","1","0","1","-1","0","1","0","1","4","2","4","2","2","2","2","2","3","2","745398419547492353","姚","","","","","","","","","","","","","","","","","","","","","","","","","","","","","","feedback_test","","","","","","","","","",""
"1023","","j","psychophysics","185","401308","0.0-7.0-1.0-4.0-0.0-0.39","4","3","4","3","4","3","3","4","4","4","4","5","4","4","3","5","4","4","4","5","2","2","2","2","2","3","2","2","2","1","0","1","1","0","0","0","1","0","1","-1","0","1","0","1","4","2","4","2","2","2","2","2","3","2","745398419547492353","姚","","","","nonmatch","","","","","","","","","","","","","","key","j","20.940200000000186","683","380","f","false","match","img/trapezoid.png","梯形","梯形","ALT1","formal_ALT1_2","","","","","","","","","",""
"null","<span style='color:red; font-size: 70px;'>错误! </span>","null","html-keyboard-response","186","401814","0.0-7.0-1.0-4.0-0.0-1.39","4","3","4","3","4","3","3","4","4","4","4","5","4","4","3","5","4","4","4","5","2","2","2","2","2","3","2","2","2","1","0","1","1","0","0","0","1","0","1","-1","0","1","0","1","4","2","4","2","2","2","2","2","3","2","745398419547492353","姚","","","","","","","","","","","","","","","","","","","","","","","","","","","","","","feedback_test","","","","","","","","","",""
