"rt","stimulus","response","trial_type","trial_index","time_elapsed","internal_node_id","ses_1","ses_2","ses_3","ses_4","ses_5","ses_6","ses_7","ses_8","ses_9","ses_10","coreself_1","coreself_2","coreself_3","coreself_4","coreself_5","coreself_6","coreself_7","coreself_8","coreself_9","coreself_10","SGPS_1","SGPS_2","SGPS_3","SGPS_4","SGPS_5","SGPS_6","SGPS_7","SGPS_8","SGPS_9","NPI1","NPI2","NPI3","NPI4","NPI5","NPI6","NPI7","NPI8","NPI9","NPI10","NPI11","NPI12","NPI13","NPI14","NPI15","hsns_1","hsns_2","hsns_3","hsns_4","hsns_5","hsns_6","hsns_7","hsns_8","hsns_9","hsns_10","subj_idx","friend_name","value","success","user_agent","responses","item_order","radio_event_ids","radio_event_times","key_event_times","mouse_event_times","straightlining","zigzagging","honeypot","timeout","failed_images","failed_audio","failed_video","version_attrib2","version_target2","correct","IAT","screen_id","task_id","RT","condition","word","varname","summary","version_attrib","version_target","time_stamp","view_history","response_type","key_press","avg_frame_time","center_x","center_y","correct_response","identity","Image","question_order"
"7490","
   <p><div style = ""color: white;font-size:25px;"">您好，欢迎参加本次实验。</div> </p>
   <p><div style = ""color: white;font-size:25px;"">为充分保障您的权利，请确保您已经知晓并同意《参与实验同意书》以及《数据公开知情同意书》。</div></p>
   <p><div style = ""color: white;font-size:25px;"">如果您未见过上述内容，请咨询实验员。</div></p>
   <p><div style = ""color: white;font-size:25px;"">如果您选择继续实验，则表示您已经清楚两份知情同意书的内容并同意。</div></p>
   <p> <div style = ""color: green;font-size:25px;""><按空格键至下页></div> </p>
   "," ","html-keyboard-response","0","7500","0.0-0.0","3","3","4","3","4","3","3","4","4","4","4","4","2","2","4","4","4","4","4","4","4","3","2","2","2","2","2","2","2","1","0","0","0","0","0","0","1","1","0","-1","1","1","0","1","4","4","4","2","2","4","4","2","2","3","755771736343187458","左","","","","","","","","","","","","","","","","","","","","","","","","","","","","","","","","","","","","","","","",""
"","","","call-function","1","7504","0.0-1.0-0.0","3","3","4","3","4","3","3","4","4","4","4","4","2","2","4","4","4","4","4","4","4","3","2","2","2","2","2","2","2","1","0","0","0","0","0","0","1","1","0","-1","1","1","0","1","4","4","4","2","2","4","4","2","2","3","755771736343187458","左","","","","","","","","","","","","","","","","","","","","","","","","","","","","","","","","","","","","","","","",""
"15541","","{""friend_name"":""左""}","survey-html-form","2","23048","0.0-1.0-1.0","3","3","4","3","4","3","3","4","4","4","4","4","2","2","4","4","4","4","4","4","4","3","2","2","2","2","2","2","2","1","0","0","0","0","0","0","1","1","0","-1","1","1","0","1","4","4","4","2","2","4","4","2","2","3","755771736343187458","左","","","","","","","","","","","","","","","","","","","","","","","","","","","","","","","","","","","","","","","",""
"","","","fullscreen","3","36812","0.0-2.0","3","3","4","3","4","3","3","4","4","4","4","4","2","2","4","4","4","4","4","4","4","3","2","2","2","2","2","2","2","1","0","0","0","0","0","0","1","1","0","-1","1","1","0","1","4","4","4","2","2","4","4","2","2","3","755771736343187458","左","","true","{}","","","","","","","","","","","","","","","","","","","","","","","","","","","","","","","","","","","","",""
"26171.70000001788","","{""Q01"":""3"",""Q02"":""3"",""Q03"":""4"",""Q04"":""3"",""Q05"":""4"",""Q06"":""3"",""Q07"":""3"",""Q08"":""4"",""Q09"":""4"",""Q10"":""4""}","survey-template","4","62989","0.0-3.0","3","3","4","3","4","3","3","4","4","4","4","4","2","2","4","4","4","4","4","4","4","3","2","2","2","2","2","2","2","1","0","0","0","0","0","0","1","1","0","-1","1","1","0","1","4","4","4","2","2","4","4","2","2","3","755771736343187458","左","","","","{""Q01"":""3"",""Q02"":""3"",""Q03"":""4"",""Q04"":""3"",""Q05"":""4"",""Q06"":""3"",""Q07"":""3"",""Q08"":""4"",""Q09"":""4"",""Q10"":""4""}","[0,1,2,3,4,5,6,7,8,9]","[""Q01"",""Q02"",""Q03"",""Q04"",""Q05"",""Q06"",""Q07"",""Q08"",""Q08"",""Q09"",""Q10""]","[7198.5,8047.100000023842,10743.90000000596,12813.200000017881,15651.40000000596,16731.100000023842,18168.100000023842,19726.80000001192,20999.30000001192,23747.90000000596,25311]","[]","[5766.100000023842,6346.5,7198.5,8047.100000023842,10743.90000000596,12813.200000017881,15651.40000000596,16731.100000023842,18168.100000023842,19726.80000001192,20999.30000001192,23747.90000000596,24524.100000023842,25311,26169.90000000596]","0.5","0","0","","","","","","","","","","","","","","","","","","","","","","","","","","","",""
"40366","","{""Q01"":""4"",""Q02"":""4"",""Q03"":""2"",""Q04"":""2"",""Q05"":""4"",""Q06"":""4"",""Q07"":""4"",""Q08"":""4"",""Q09"":""4"",""Q10"":""4""}","survey-template","5","103367","0.0-4.0","3","3","4","3","4","3","3","4","4","4","4","4","2","2","4","4","4","4","4","4","4","3","2","2","2","2","2","2","2","1","0","0","0","0","0","0","1","1","0","-1","1","1","0","1","4","4","4","2","2","4","4","2","2","3","755771736343187458","左","","","","{""Q01"":""4"",""Q02"":""4"",""Q03"":""2"",""Q04"":""2"",""Q05"":""4"",""Q06"":""4"",""Q07"":""4"",""Q08"":""4"",""Q09"":""4"",""Q10"":""4""}","[0,1,2,3,4,5,6,7,8,9]","[""Q01"",""Q02"",""Q03"",""Q04"",""Q05"",""Q06"",""Q07"",""Q08"",""Q10"",""Q09""]","[4512.5,8906.5,15702.700000017881,19960.100000023842,29536.20000001788,30942.30000001192,34482.10000002384,36114.90000000596,38612.80000001192,39527.90000000596]","[]","[4512.5,8906.5,15702.700000017881,18142,19960.100000023842,29536.20000001788,30942.30000001192,34482.10000002384,36114.90000000596,37445.20000001788,38612.80000001192,39527.90000000596,40363.30000001192]","0.6","0","0","","","","","","","","","","","","","","","","","","","","","","","","","","","",""
"","","","preload","6","103835","0.0-5.0","3","3","4","3","4","3","3","4","4","4","4","4","2","2","4","4","4","4","4","4","4","3","2","2","2","2","2","2","2","1","0","0","0","0","0","0","1","1","0","-1","1","1","0","1","4","4","4","2","2","4","4","2","2","3","755771736343187458","左","","true","","","","","","","","","","","false","[]","[]","[]","","","","","","","","","","","","","","","","","","","","","","","",""
"12268","
    <h3>词语分类任务</h3>
    <p>在接下来的任务中，你需要对一系列词语进行分类。<p/>
    请先熟悉这些词语，这有利于你完成接下来的任务。</p>
    <table align=""center"" border=1 cellpadding=3 cellspacing=0>
    <tr> <th>类别</th> <th>词语</th> </tr>
    <tr> <td>&emsp;积极&emsp;</td> <td>&emsp;高尚、诚信、善良、君子、廉正、正直&emsp;</td> </tr>
    <tr> <td>&emsp;消极&emsp;</td> <td>&emsp;缺德、卑鄙、不孝、不仁、小人、黑心&emsp;</td> </tr>
    <tr> <td>&emsp;自我&emsp;</td> <td>&emsp;我、我的、自己、自己的、本人、本人的&emsp;</td> </tr>
    <tr> <td>&emsp;他人&emsp;</td> <td>&emsp;他、他的、别人、别人的、他人、他人的&emsp;</td> </tr>
    </table><br/>","0","html-button-response","7","116106","0.0-6.0-1.0-0.0","3","3","4","3","4","3","3","4","4","4","4","4","2","2","4","4","4","4","4","4","4","3","2","2","2","2","2","2","2","1","0","0","0","0","0","0","1","1","0","-1","1","1","0","1","4","4","4","2","2","4","4","2","2","3","755771736343187458","左","","","","","","","","","","","","","","","","","2","2","","","","","","","","","","","","","","","","","","","","","",""
"9972","
    <div class=""tag-bottom""><p>
    ―― 任务1：对“他人”词和“自我”词分类 ――<p/>
    不同词语会出现在屏幕中央，类别标签将始终显示在屏幕上方<p/>   
    <span style=""color:#FFD866""><b>请根据上方标签的提示，尽可能正确并且快速地做出按键反应</b></span><p/>
    当按键错误时屏幕中会出现<span style=""color:red""> X </span>，需要按另一个键纠正才能继续<br/><p/>
    请把双手食指分别放在键盘的“E”键和“I”键上<p/>
    按<空格键>开始
    </p></div>"," ","html-keyboard-response","8","126084","0.0-6.0-1.0-1.0","3","3","4","3","4","3","3","4","4","4","4","4","2","2","4","4","4","4","4","4","4","3","2","2","2","2","2","2","2","1","0","0","0","0","0","0","1","1","0","-1","1","1","0","1","4","4","4","2","2","4","4","2","2","3","755771736343187458","左","","","","","","","","","","","","","","","","","","","","","","","","","","","","","","","","","","","","","","","",""
"null","","null","html-keyboard-response","9","126338","0.0-6.0-1.0-2.0-0.0","3","3","4","3","4","3","3","4","4","4","4","4","2","2","4","4","4","4","4","4","4","3","2","2","2","2","2","2","2","1","0","0","0","0","0","0","1","1","0","-1","1","1","0","1","4","4","4","2","2","4","4","2","2","3","755771736343187458","左","","","","","","","","","","","","","","","","","","","","","","","","","","","","","","","","","","","","","","","",""
"3483","<p style=""color:rgb(150, 250, 100); font-size: 35px;"">他</p>","e","categorize-html","10","129833","0.0-6.0-1.0-2.0-1.0","3","3","4","3","4","3","3","4","4","4","4","4","2","2","4","4","4","4","4","4","4","3","2","2","2","2","2","2","2","1","0","0","0","0","0","0","1","1","0","-1","1","1","0","1","4","4","4","2","2","4","4","2","2","3","755771736343187458","左","","","","","","","","","","","","","","","","","","","true","11","1","moral","3483","other","他","","","","","","","","","","","","","","",""
"null","","null","html-keyboard-response","11","130088","0.0-6.0-1.0-2.0-0.1","3","3","4","3","4","3","3","4","4","4","4","4","2","2","4","4","4","4","4","4","4","3","2","2","2","2","2","2","2","1","0","0","0","0","0","0","1","1","0","-1","1","1","0","1","4","4","4","2","2","4","4","2","2","3","755771736343187458","左","","","","","","","","","","","","","","","","","","","","","","","","","","","","","","","","","","","","","","","",""
"1500","<p style=""color:rgb(150, 250, 100); font-size: 35px;"">我的</p>","i","categorize-html","12","131596","0.0-6.0-1.0-2.0-1.1","3","3","4","3","4","3","3","4","4","4","4","4","2","2","4","4","4","4","4","4","4","3","2","2","2","2","2","2","2","1","0","0","0","0","0","0","1","1","0","-1","1","1","0","1","4","4","4","2","2","4","4","2","2","3","755771736343187458","左","","","","","","","","","","","","","","","","","","","true","11","1","moral","1500","self","我的","","","","","","","","","","","","","","",""
"null","","null","html-keyboard-response","13","131849","0.0-6.0-1.0-2.0-0.2","3","3","4","3","4","3","3","4","4","4","4","4","2","2","4","4","4","4","4","4","4","3","2","2","2","2","2","2","2","1","0","0","0","0","0","0","1","1","0","-1","1","1","0","1","4","4","4","2","2","4","4","2","2","3","755771736343187458","左","","","","","","","","","","","","","","","","","","","","","","","","","","","","","","","","","","","","","","","",""
"1044","<p style=""color:rgb(150, 250, 100); font-size: 35px;"">他人的</p>","e","categorize-html","14","132900","0.0-6.0-1.0-2.0-1.2","3","3","4","3","4","3","3","4","4","4","4","4","2","2","4","4","4","4","4","4","4","3","2","2","2","2","2","2","2","1","0","0","0","0","0","0","1","1","0","-1","1","1","0","1","4","4","4","2","2","4","4","2","2","3","755771736343187458","左","","","","","","","","","","","","","","","","","","","true","11","1","moral","1044","other","他人的","","","","","","","","","","","","","","",""
"null","","null","html-keyboard-response","15","133153","0.0-6.0-1.0-2.0-0.3","3","3","4","3","4","3","3","4","4","4","4","4","2","2","4","4","4","4","4","4","4","3","2","2","2","2","2","2","2","1","0","0","0","0","0","0","1","1","0","-1","1","1","0","1","4","4","4","2","2","4","4","2","2","3","755771736343187458","左","","","","","","","","","","","","","","","","","","","","","","","","","","","","","","","","","","","","","","","",""
"960","<p style=""color:rgb(150, 250, 100); font-size: 35px;"">他人</p>","e","categorize-html","16","134120","0.0-6.0-1.0-2.0-1.3","3","3","4","3","4","3","3","4","4","4","4","4","2","2","4","4","4","4","4","4","4","3","2","2","2","2","2","2","2","1","0","0","0","0","0","0","1","1","0","-1","1","1","0","1","4","4","4","2","2","4","4","2","2","3","755771736343187458","左","","","","","","","","","","","","","","","","","","","true","11","1","moral","960","other","他人","","","","","","","","","","","","","","",""
"null","","null","html-keyboard-response","17","134373","0.0-6.0-1.0-2.0-0.4","3","3","4","3","4","3","3","4","4","4","4","4","2","2","4","4","4","4","4","4","4","3","2","2","2","2","2","2","2","1","0","0","0","0","0","0","1","1","0","-1","1","1","0","1","4","4","4","2","2","4","4","2","2","3","755771736343187458","左","","","","","","","","","","","","","","","","","","","","","","","","","","","","","","","","","","","","","","","",""
"825","<p style=""color:rgb(150, 250, 100); font-size: 35px;"">本人的</p>","i","categorize-html","18","135206","0.0-6.0-1.0-2.0-1.4","3","3","4","3","4","3","3","4","4","4","4","4","2","2","4","4","4","4","4","4","4","3","2","2","2","2","2","2","2","1","0","0","0","0","0","0","1","1","0","-1","1","1","0","1","4","4","4","2","2","4","4","2","2","3","755771736343187458","左","","","","","","","","","","","","","","","","","","","true","11","1","moral","825","self","本人的","","","","","","","","","","","","","","",""
"null","","null","html-keyboard-response","19","135459","0.0-6.0-1.0-2.0-0.5","3","3","4","3","4","3","3","4","4","4","4","4","2","2","4","4","4","4","4","4","4","3","2","2","2","2","2","2","2","1","0","0","0","0","0","0","1","1","0","-1","1","1","0","1","4","4","4","2","2","4","4","2","2","3","755771736343187458","左","","","","","","","","","","","","","","","","","","","","","","","","","","","","","","","","","","","","","","","",""
"731","<p style=""color:rgb(150, 250, 100); font-size: 35px;"">自己</p>","i","categorize-html","20","136198","0.0-6.0-1.0-2.0-1.5","3","3","4","3","4","3","3","4","4","4","4","4","2","2","4","4","4","4","4","4","4","3","2","2","2","2","2","2","2","1","0","0","0","0","0","0","1","1","0","-1","1","1","0","1","4","4","4","2","2","4","4","2","2","3","755771736343187458","左","","","","","","","","","","","","","","","","","","","true","11","1","moral","731","self","自己","","","","","","","","","","","","","","",""
"null","","null","html-keyboard-response","21","136451","0.0-6.0-1.0-2.0-0.6","3","3","4","3","4","3","3","4","4","4","4","4","2","2","4","4","4","4","4","4","4","3","2","2","2","2","2","2","2","1","0","0","0","0","0","0","1","1","0","-1","1","1","0","1","4","4","4","2","2","4","4","2","2","3","755771736343187458","左","","","","","","","","","","","","","","","","","","","","","","","","","","","","","","","","","","","","","","","",""
"695","<p style=""color:rgb(150, 250, 100); font-size: 35px;"">自己的</p>","i","categorize-html","22","137154","0.0-6.0-1.0-2.0-1.6","3","3","4","3","4","3","3","4","4","4","4","4","2","2","4","4","4","4","4","4","4","3","2","2","2","2","2","2","2","1","0","0","0","0","0","0","1","1","0","-1","1","1","0","1","4","4","4","2","2","4","4","2","2","3","755771736343187458","左","","","","","","","","","","","","","","","","","","","true","11","1","moral","695","self","自己的","","","","","","","","","","","","","","",""
"null","","null","html-keyboard-response","23","137407","0.0-6.0-1.0-2.0-0.7","3","3","4","3","4","3","3","4","4","4","4","4","2","2","4","4","4","4","4","4","4","3","2","2","2","2","2","2","2","1","0","0","0","0","0","0","1","1","0","-1","1","1","0","1","4","4","4","2","2","4","4","2","2","3","755771736343187458","左","","","","","","","","","","","","","","","","","","","","","","","","","","","","","","","","","","","","","","","",""
"1165","<p style=""color:rgb(150, 250, 100); font-size: 35px;"">本人</p>","i","categorize-html","24","138580","0.0-6.0-1.0-2.0-1.7","3","3","4","3","4","3","3","4","4","4","4","4","2","2","4","4","4","4","4","4","4","3","2","2","2","2","2","2","2","1","0","0","0","0","0","0","1","1","0","-1","1","1","0","1","4","4","4","2","2","4","4","2","2","3","755771736343187458","左","","","","","","","","","","","","","","","","","","","true","11","1","moral","1165","self","本人","","","","","","","","","","","","","","",""
"null","","null","html-keyboard-response","25","138832","0.0-6.0-1.0-2.0-0.8","3","3","4","3","4","3","3","4","4","4","4","4","2","2","4","4","4","4","4","4","4","3","2","2","2","2","2","2","2","1","0","0","0","0","0","0","1","1","0","-1","1","1","0","1","4","4","4","2","2","4","4","2","2","3","755771736343187458","左","","","","","","","","","","","","","","","","","","","","","","","","","","","","","","","","","","","","","","","",""
"777","<p style=""color:rgb(150, 250, 100); font-size: 35px;"">别人的</p>","e","categorize-html","26","139616","0.0-6.0-1.0-2.0-1.8","3","3","4","3","4","3","3","4","4","4","4","4","2","2","4","4","4","4","4","4","4","3","2","2","2","2","2","2","2","1","0","0","0","0","0","0","1","1","0","-1","1","1","0","1","4","4","4","2","2","4","4","2","2","3","755771736343187458","左","","","","","","","","","","","","","","","","","","","true","11","1","moral","777","other","别人的","","","","","","","","","","","","","","",""
"null","","null","html-keyboard-response","27","139871","0.0-6.0-1.0-2.0-0.9","3","3","4","3","4","3","3","4","4","4","4","4","2","2","4","4","4","4","4","4","4","3","2","2","2","2","2","2","2","1","0","0","0","0","0","0","1","1","0","-1","1","1","0","1","4","4","4","2","2","4","4","2","2","3","755771736343187458","左","","","","","","","","","","","","","","","","","","","","","","","","","","","","","","","","","","","","","","","",""
"768","<p style=""color:rgb(150, 250, 100); font-size: 35px;"">我</p>","i","categorize-html","28","140646","0.0-6.0-1.0-2.0-1.9","3","3","4","3","4","3","3","4","4","4","4","4","2","2","4","4","4","4","4","4","4","3","2","2","2","2","2","2","2","1","0","0","0","0","0","0","1","1","0","-1","1","1","0","1","4","4","4","2","2","4","4","2","2","3","755771736343187458","左","","","","","","","","","","","","","","","","","","","true","11","1","moral","768","self","我","","","","","","","","","","","","","","",""
"null","","null","html-keyboard-response","29","140899","0.0-6.0-1.0-2.0-0.10","3","3","4","3","4","3","3","4","4","4","4","4","2","2","4","4","4","4","4","4","4","3","2","2","2","2","2","2","2","1","0","0","0","0","0","0","1","1","0","-1","1","1","0","1","4","4","4","2","2","4","4","2","2","3","755771736343187458","左","","","","","","","","","","","","","","","","","","","","","","","","","","","","","","","","","","","","","","","",""
"1078","<p style=""color:rgb(150, 250, 100); font-size: 35px;"">别人</p>","e","categorize-html","30","141984","0.0-6.0-1.0-2.0-1.10","3","3","4","3","4","3","3","4","4","4","4","4","2","2","4","4","4","4","4","4","4","3","2","2","2","2","2","2","2","1","0","0","0","0","0","0","1","1","0","-1","1","1","0","1","4","4","4","2","2","4","4","2","2","3","755771736343187458","左","","","","","","","","","","","","","","","","","","","true","11","1","moral","1078","other","别人","","","","","","","","","","","","","","",""
"null","","null","html-keyboard-response","31","142238","0.0-6.0-1.0-2.0-0.11","3","3","4","3","4","3","3","4","4","4","4","4","2","2","4","4","4","4","4","4","4","3","2","2","2","2","2","2","2","1","0","0","0","0","0","0","1","1","0","-1","1","1","0","1","4","4","4","2","2","4","4","2","2","3","755771736343187458","左","","","","","","","","","","","","","","","","","","","","","","","","","","","","","","","","","","","","","","","",""
"666","<p style=""color:rgb(150, 250, 100); font-size: 35px;"">他的</p>","e","categorize-html","32","142911","0.0-6.0-1.0-2.0-1.11","3","3","4","3","4","3","3","4","4","4","4","4","2","2","4","4","4","4","4","4","4","3","2","2","2","2","2","2","2","1","0","0","0","0","0","0","1","1","0","-1","1","1","0","1","4","4","4","2","2","4","4","2","2","3","755771736343187458","左","","","","","","","","","","","","","","","","","","","true","11","1","moral","666","other","他的","","","","","","","","","","","","","","",""
"37647","
    <div class=""tag-bottom""><p>
    ―― 任务2：对“消极”词和“积极”词分类 ――<p/>   
    <span style=""color:#78DCE8""><b>注意上方，类别标签和需要分类的词语都已经改变</b></span><p/>
    <span style=""color:#FFD866""><b>请根据上方标签的提示，尽可能正确并且快速地做出按键反应</b></span><p/>
    当按键错误时屏幕中会出现<span style=""color:red""> X </span>，需要按另一个键纠正才能继续<br/><p/>
    请把双手食指分别放在键盘的“E”键和“I”键上<p/>
    按<空格键>开始
    </p></div>"," ","html-keyboard-response","33","180562","0.0-6.0-1.0-3.0","3","3","4","3","4","3","3","4","4","4","4","4","2","2","4","4","4","4","4","4","4","3","2","2","2","2","2","2","2","1","0","0","0","0","0","0","1","1","0","-1","1","1","0","1","4","4","4","2","2","4","4","2","2","3","755771736343187458","左","","","","","","","","","","","","","","","","","","","","","","","","","","","","","","","","","","","","","","","",""
"null","","null","html-keyboard-response","34","180814","0.0-6.0-1.0-4.0-0.0","3","3","4","3","4","3","3","4","4","4","4","4","2","2","4","4","4","4","4","4","4","3","2","2","2","2","2","2","2","1","0","0","0","0","0","0","1","1","0","-1","1","1","0","1","4","4","4","2","2","4","4","2","2","3","755771736343187458","左","","","","","","","","","","","","","","","","","","","","","","","","","","","","","","","","","","","","","","","",""
"779","<p style=""color:white; font-size: 35px;"">高尚</p>","e","categorize-html","35","183637","0.0-6.0-1.0-4.0-1.0","3","3","4","3","4","3","3","4","4","4","4","4","2","2","4","4","4","4","4","4","4","3","2","2","2","2","2","2","2","1","0","0","0","0","0","0","1","1","0","-1","1","1","0","1","4","4","4","2","2","4","4","2","2","3","755771736343187458","左","","","","","","","","","","","","","","","","","","","false","12","2","moral","779","positive","高尚","","","","","","","","","","","","","","",""
"null","","null","html-keyboard-response","36","183889","0.0-6.0-1.0-4.0-0.1","3","3","4","3","4","3","3","4","4","4","4","4","2","2","4","4","4","4","4","4","4","3","2","2","2","2","2","2","2","1","0","0","0","0","0","0","1","1","0","-1","1","1","0","1","4","4","4","2","2","4","4","2","2","3","755771736343187458","左","","","","","","","","","","","","","","","","","","","","","","","","","","","","","","","","","","","","","","","",""
"2023","<p style=""color:white; font-size: 35px;"">善良</p>","i","categorize-html","37","185920","0.0-6.0-1.0-4.0-1.1","3","3","4","3","4","3","3","4","4","4","4","4","2","2","4","4","4","4","4","4","4","3","2","2","2","2","2","2","2","1","0","0","0","0","0","0","1","1","0","-1","1","1","0","1","4","4","4","2","2","4","4","2","2","3","755771736343187458","左","","","","","","","","","","","","","","","","","","","true","12","2","moral","2023","positive","善良","","","","","","","","","","","","","","",""
"null","","null","html-keyboard-response","38","186174","0.0-6.0-1.0-4.0-0.2","3","3","4","3","4","3","3","4","4","4","4","4","2","2","4","4","4","4","4","4","4","3","2","2","2","2","2","2","2","1","0","0","0","0","0","0","1","1","0","-1","1","1","0","1","4","4","4","2","2","4","4","2","2","3","755771736343187458","左","","","","","","","","","","","","","","","","","","","","","","","","","","","","","","","","","","","","","","","",""
"2028","<p style=""color:white; font-size: 35px;"">黑心</p>","e","categorize-html","39","188211","0.0-6.0-1.0-4.0-1.2","3","3","4","3","4","3","3","4","4","4","4","4","2","2","4","4","4","4","4","4","4","3","2","2","2","2","2","2","2","1","0","0","0","0","0","0","1","1","0","-1","1","1","0","1","4","4","4","2","2","4","4","2","2","3","755771736343187458","左","","","","","","","","","","","","","","","","","","","true","12","2","moral","2028","negative","黑心","","","","","","","","","","","","","","",""
"null","","null","html-keyboard-response","40","188464","0.0-6.0-1.0-4.0-0.3","3","3","4","3","4","3","3","4","4","4","4","4","2","2","4","4","4","4","4","4","4","3","2","2","2","2","2","2","2","1","0","0","0","0","0","0","1","1","0","-1","1","1","0","1","4","4","4","2","2","4","4","2","2","3","755771736343187458","左","","","","","","","","","","","","","","","","","","","","","","","","","","","","","","","","","","","","","","","",""
"976","<p style=""color:white; font-size: 35px;"">君子</p>","i","categorize-html","41","189447","0.0-6.0-1.0-4.0-1.3","3","3","4","3","4","3","3","4","4","4","4","4","2","2","4","4","4","4","4","4","4","3","2","2","2","2","2","2","2","1","0","0","0","0","0","0","1","1","0","-1","1","1","0","1","4","4","4","2","2","4","4","2","2","3","755771736343187458","左","","","","","","","","","","","","","","","","","","","true","12","2","moral","976","positive","君子","","","","","","","","","","","","","","",""
"null","","null","html-keyboard-response","42","189700","0.0-6.0-1.0-4.0-0.4","3","3","4","3","4","3","3","4","4","4","4","4","2","2","4","4","4","4","4","4","4","3","2","2","2","2","2","2","2","1","0","0","0","0","0","0","1","1","0","-1","1","1","0","1","4","4","4","2","2","4","4","2","2","3","755771736343187458","左","","","","","","","","","","","","","","","","","","","","","","","","","","","","","","","","","","","","","","","",""
"660","<p style=""color:white; font-size: 35px;"">正直</p>","i","categorize-html","43","190368","0.0-6.0-1.0-4.0-1.4","3","3","4","3","4","3","3","4","4","4","4","4","2","2","4","4","4","4","4","4","4","3","2","2","2","2","2","2","2","1","0","0","0","0","0","0","1","1","0","-1","1","1","0","1","4","4","4","2","2","4","4","2","2","3","755771736343187458","左","","","","","","","","","","","","","","","","","","","true","12","2","moral","660","positive","正直","","","","","","","","","","","","","","",""
"null","","null","html-keyboard-response","44","190621","0.0-6.0-1.0-4.0-0.5","3","3","4","3","4","3","3","4","4","4","4","4","2","2","4","4","4","4","4","4","4","3","2","2","2","2","2","2","2","1","0","0","0","0","0","0","1","1","0","-1","1","1","0","1","4","4","4","2","2","4","4","2","2","3","755771736343187458","左","","","","","","","","","","","","","","","","","","","","","","","","","","","","","","","","","","","","","","","",""
"831","<p style=""color:white; font-size: 35px;"">不孝</p>","e","categorize-html","45","191459","0.0-6.0-1.0-4.0-1.5","3","3","4","3","4","3","3","4","4","4","4","4","2","2","4","4","4","4","4","4","4","3","2","2","2","2","2","2","2","1","0","0","0","0","0","0","1","1","0","-1","1","1","0","1","4","4","4","2","2","4","4","2","2","3","755771736343187458","左","","","","","","","","","","","","","","","","","","","true","12","2","moral","831","negative","不孝","","","","","","","","","","","","","","",""
"null","","null","html-keyboard-response","46","191712","0.0-6.0-1.0-4.0-0.6","3","3","4","3","4","3","3","4","4","4","4","4","2","2","4","4","4","4","4","4","4","3","2","2","2","2","2","2","2","1","0","0","0","0","0","0","1","1","0","-1","1","1","0","1","4","4","4","2","2","4","4","2","2","3","755771736343187458","左","","","","","","","","","","","","","","","","","","","","","","","","","","","","","","","","","","","","","","","",""
"759","<p style=""color:white; font-size: 35px;"">不仁</p>","e","categorize-html","47","192477","0.0-6.0-1.0-4.0-1.6","3","3","4","3","4","3","3","4","4","4","4","4","2","2","4","4","4","4","4","4","4","3","2","2","2","2","2","2","2","1","0","0","0","0","0","0","1","1","0","-1","1","1","0","1","4","4","4","2","2","4","4","2","2","3","755771736343187458","左","","","","","","","","","","","","","","","","","","","true","12","2","moral","759","negative","不仁","","","","","","","","","","","","","","",""
"null","","null","html-keyboard-response","48","192730","0.0-6.0-1.0-4.0-0.7","3","3","4","3","4","3","3","4","4","4","4","4","2","2","4","4","4","4","4","4","4","3","2","2","2","2","2","2","2","1","0","0","0","0","0","0","1","1","0","-1","1","1","0","1","4","4","4","2","2","4","4","2","2","3","755771736343187458","左","","","","","","","","","","","","","","","","","","","","","","","","","","","","","","","","","","","","","","","",""
"692","<p style=""color:white; font-size: 35px;"">缺德</p>","e","categorize-html","49","193429","0.0-6.0-1.0-4.0-1.7","3","3","4","3","4","3","3","4","4","4","4","4","2","2","4","4","4","4","4","4","4","3","2","2","2","2","2","2","2","1","0","0","0","0","0","0","1","1","0","-1","1","1","0","1","4","4","4","2","2","4","4","2","2","3","755771736343187458","左","","","","","","","","","","","","","","","","","","","true","12","2","moral","692","negative","缺德","","","","","","","","","","","","","","",""
"null","","null","html-keyboard-response","50","193682","0.0-6.0-1.0-4.0-0.8","3","3","4","3","4","3","3","4","4","4","4","4","2","2","4","4","4","4","4","4","4","3","2","2","2","2","2","2","2","1","0","0","0","0","0","0","1","1","0","-1","1","1","0","1","4","4","4","2","2","4","4","2","2","3","755771736343187458","左","","","","","","","","","","","","","","","","","","","","","","","","","","","","","","","","","","","","","","","",""
"758","<p style=""color:white; font-size: 35px;"">廉正</p>","i","categorize-html","51","194447","0.0-6.0-1.0-4.0-1.8","3","3","4","3","4","3","3","4","4","4","4","4","2","2","4","4","4","4","4","4","4","3","2","2","2","2","2","2","2","1","0","0","0","0","0","0","1","1","0","-1","1","1","0","1","4","4","4","2","2","4","4","2","2","3","755771736343187458","左","","","","","","","","","","","","","","","","","","","true","12","2","moral","758","positive","廉正","","","","","","","","","","","","","","",""
"null","","null","html-keyboard-response","52","194700","0.0-6.0-1.0-4.0-0.9","3","3","4","3","4","3","3","4","4","4","4","4","2","2","4","4","4","4","4","4","4","3","2","2","2","2","2","2","2","1","0","0","0","0","0","0","1","1","0","-1","1","1","0","1","4","4","4","2","2","4","4","2","2","3","755771736343187458","左","","","","","","","","","","","","","","","","","","","","","","","","","","","","","","","","","","","","","","","",""
"1224","<p style=""color:white; font-size: 35px;"">卑鄙</p>","e","categorize-html","53","195930","0.0-6.0-1.0-4.0-1.9","3","3","4","3","4","3","3","4","4","4","4","4","2","2","4","4","4","4","4","4","4","3","2","2","2","2","2","2","2","1","0","0","0","0","0","0","1","1","0","-1","1","1","0","1","4","4","4","2","2","4","4","2","2","3","755771736343187458","左","","","","","","","","","","","","","","","","","","","true","12","2","moral","1224","negative","卑鄙","","","","","","","","","","","","","","",""
"null","","null","html-keyboard-response","54","196183","0.0-6.0-1.0-4.0-0.10","3","3","4","3","4","3","3","4","4","4","4","4","2","2","4","4","4","4","4","4","4","3","2","2","2","2","2","2","2","1","0","0","0","0","0","0","1","1","0","-1","1","1","0","1","4","4","4","2","2","4","4","2","2","3","755771736343187458","左","","","","","","","","","","","","","","","","","","","","","","","","","","","","","","","","","","","","","","","",""
"943","<p style=""color:white; font-size: 35px;"">小人</p>","e","categorize-html","55","197133","0.0-6.0-1.0-4.0-1.10","3","3","4","3","4","3","3","4","4","4","4","4","2","2","4","4","4","4","4","4","4","3","2","2","2","2","2","2","2","1","0","0","0","0","0","0","1","1","0","-1","1","1","0","1","4","4","4","2","2","4","4","2","2","3","755771736343187458","左","","","","","","","","","","","","","","","","","","","true","12","2","moral","943","negative","小人","","","","","","","","","","","","","","",""
"null","","null","html-keyboard-response","56","197386","0.0-6.0-1.0-4.0-0.11","3","3","4","3","4","3","3","4","4","4","4","4","2","2","4","4","4","4","4","4","4","3","2","2","2","2","2","2","2","1","0","0","0","0","0","0","1","1","0","-1","1","1","0","1","4","4","4","2","2","4","4","2","2","3","755771736343187458","左","","","","","","","","","","","","","","","","","","","","","","","","","","","","","","","","","","","","","","","",""
"731","<p style=""color:white; font-size: 35px;"">诚信</p>","i","categorize-html","57","198125","0.0-6.0-1.0-4.0-1.11","3","3","4","3","4","3","3","4","4","4","4","4","2","2","4","4","4","4","4","4","4","3","2","2","2","2","2","2","2","1","0","0","0","0","0","0","1","1","0","-1","1","1","0","1","4","4","4","2","2","4","4","2","2","3","755771736343187458","左","","","","","","","","","","","","","","","","","","","true","12","2","moral","731","positive","诚信","","","","","","","","","","","","","","",""
"3017","
    <div class=""tag-bottom""><p>
    ―― 任务3：对“他人/消极”词和“自我/积极”词分类 ――<p/>
    <span style=""color:#78DCE8""><b>注意上方，之前的四类词语将混合在一起交替呈现</b></span><p/>
    <span style=""color:#FFD866""><b>请根据上方标签的提示，尽可能正确并且快速地做出按键反应</b></span><p/>
    当按键错误时屏幕中会出现<span style=""color:red""> X </span>，需要按另一个键纠正才能继续<br/><p/>
    请把双手食指分别放在键盘的“E”键和“I”键上<p/>
    按<空格键>开始
    </p></div>"," ","html-keyboard-response","58","201145","0.0-6.0-1.0-5.0","3","3","4","3","4","3","3","4","4","4","4","4","2","2","4","4","4","4","4","4","4","3","2","2","2","2","2","2","2","1","0","0","0","0","0","0","1","1","0","-1","1","1","0","1","4","4","4","2","2","4","4","2","2","3","755771736343187458","左","","","","","","","","","","","","","","","","","","","","","","","","","","","","","","","","","","","","","","","",""
"null","","null","html-keyboard-response","59","201398","0.0-6.0-1.0-6.0-0.0","3","3","4","3","4","3","3","4","4","4","4","4","2","2","4","4","4","4","4","4","4","3","2","2","2","2","2","2","2","1","0","0","0","0","0","0","1","1","0","-1","1","1","0","1","4","4","4","2","2","4","4","2","2","3","755771736343187458","左","","","","","","","","","","","","","","","","","","","","","","","","","","","","","","","","","","","","","","","",""
"3203","<p style=""color:rgb(150, 250, 100); font-size: 35px;"">自己的</p>","i","categorize-html","60","204606","0.0-6.0-1.0-6.0-1.0","3","3","4","3","4","3","3","4","4","4","4","4","2","2","4","4","4","4","4","4","4","3","2","2","2","2","2","2","2","1","0","0","0","0","0","0","1","1","0","-1","1","1","0","1","4","4","4","2","2","4","4","2","2","3","755771736343187458","左","","","","","","","","","","","","","","","","","","","true","13","3","moral","3203","self","自己的","","","","","","","","","","","","","","",""
"null","","null","html-keyboard-response","61","204860","0.0-6.0-1.0-6.0-0.1","3","3","4","3","4","3","3","4","4","4","4","4","2","2","4","4","4","4","4","4","4","3","2","2","2","2","2","2","2","1","0","0","0","0","0","0","1","1","0","-1","1","1","0","1","4","4","4","2","2","4","4","2","2","3","755771736343187458","左","","","","","","","","","","","","","","","","","","","","","","","","","","","","","","","","","","","","","","","",""
"1073","<p style=""color:white; font-size: 35px;"">卑鄙</p>","e","categorize-html","62","205937","0.0-6.0-1.0-6.0-1.1","3","3","4","3","4","3","3","4","4","4","4","4","2","2","4","4","4","4","4","4","4","3","2","2","2","2","2","2","2","1","0","0","0","0","0","0","1","1","0","-1","1","1","0","1","4","4","4","2","2","4","4","2","2","3","755771736343187458","左","","","","","","","","","","","","","","","","","","","true","13","3","moral","1073","negative","卑鄙","","","","","","","","","","","","","","",""
"null","","null","html-keyboard-response","63","206190","0.0-6.0-1.0-6.0-0.2","3","3","4","3","4","3","3","4","4","4","4","4","2","2","4","4","4","4","4","4","4","3","2","2","2","2","2","2","2","1","0","0","0","0","0","0","1","1","0","-1","1","1","0","1","4","4","4","2","2","4","4","2","2","3","755771736343187458","左","","","","","","","","","","","","","","","","","","","","","","","","","","","","","","","","","","","","","","","",""
"909","<p style=""color:rgb(150, 250, 100); font-size: 35px;"">他</p>","e","categorize-html","64","207105","0.0-6.0-1.0-6.0-1.2","3","3","4","3","4","3","3","4","4","4","4","4","2","2","4","4","4","4","4","4","4","3","2","2","2","2","2","2","2","1","0","0","0","0","0","0","1","1","0","-1","1","1","0","1","4","4","4","2","2","4","4","2","2","3","755771736343187458","左","","","","","","","","","","","","","","","","","","","true","13","3","moral","909","other","他","","","","","","","","","","","","","","",""
"null","","null","html-keyboard-response","65","207358","0.0-6.0-1.0-6.0-0.3","3","3","4","3","4","3","3","4","4","4","4","4","2","2","4","4","4","4","4","4","4","3","2","2","2","2","2","2","2","1","0","0","0","0","0","0","1","1","0","-1","1","1","0","1","4","4","4","2","2","4","4","2","2","3","755771736343187458","左","","","","","","","","","","","","","","","","","","","","","","","","","","","","","","","","","","","","","","","",""
"1004","<p style=""color:white; font-size: 35px;"">君子</p>","i","categorize-html","66","208368","0.0-6.0-1.0-6.0-1.3","3","3","4","3","4","3","3","4","4","4","4","4","2","2","4","4","4","4","4","4","4","3","2","2","2","2","2","2","2","1","0","0","0","0","0","0","1","1","0","-1","1","1","0","1","4","4","4","2","2","4","4","2","2","3","755771736343187458","左","","","","","","","","","","","","","","","","","","","true","13","3","moral","1004","positive","君子","","","","","","","","","","","","","","",""
"null","","null","html-keyboard-response","67","208624","0.0-6.0-1.0-6.0-0.4","3","3","4","3","4","3","3","4","4","4","4","4","2","2","4","4","4","4","4","4","4","3","2","2","2","2","2","2","2","1","0","0","0","0","0","0","1","1","0","-1","1","1","0","1","4","4","4","2","2","4","4","2","2","3","755771736343187458","左","","","","","","","","","","","","","","","","","","","","","","","","","","","","","","","","","","","","","","","",""
"707","<p style=""color:rgb(150, 250, 100); font-size: 35px;"">我的</p>","i","categorize-html","68","209337","0.0-6.0-1.0-6.0-1.4","3","3","4","3","4","3","3","4","4","4","4","4","2","2","4","4","4","4","4","4","4","3","2","2","2","2","2","2","2","1","0","0","0","0","0","0","1","1","0","-1","1","1","0","1","4","4","4","2","2","4","4","2","2","3","755771736343187458","左","","","","","","","","","","","","","","","","","","","true","13","3","moral","707","self","我的","","","","","","","","","","","","","","",""
"null","","null","html-keyboard-response","69","209590","0.0-6.0-1.0-6.0-0.5","3","3","4","3","4","3","3","4","4","4","4","4","2","2","4","4","4","4","4","4","4","3","2","2","2","2","2","2","2","1","0","0","0","0","0","0","1","1","0","-1","1","1","0","1","4","4","4","2","2","4","4","2","2","3","755771736343187458","左","","","","","","","","","","","","","","","","","","","","","","","","","","","","","","","","","","","","","","","",""
"638","<p style=""color:white; font-size: 35px;"">正直</p>","i","categorize-html","70","210233","0.0-6.0-1.0-6.0-1.5","3","3","4","3","4","3","3","4","4","4","4","4","2","2","4","4","4","4","4","4","4","3","2","2","2","2","2","2","2","1","0","0","0","0","0","0","1","1","0","-1","1","1","0","1","4","4","4","2","2","4","4","2","2","3","755771736343187458","左","","","","","","","","","","","","","","","","","","","true","13","3","moral","638","positive","正直","","","","","","","","","","","","","","",""
"null","","null","html-keyboard-response","71","210485","0.0-6.0-1.0-6.0-0.6","3","3","4","3","4","3","3","4","4","4","4","4","2","2","4","4","4","4","4","4","4","3","2","2","2","2","2","2","2","1","0","0","0","0","0","0","1","1","0","-1","1","1","0","1","4","4","4","2","2","4","4","2","2","3","755771736343187458","左","","","","","","","","","","","","","","","","","","","","","","","","","","","","","","","","","","","","","","","",""
"836","<p style=""color:rgb(150, 250, 100); font-size: 35px;"">他人</p>","e","categorize-html","72","211326","0.0-6.0-1.0-6.0-1.6","3","3","4","3","4","3","3","4","4","4","4","4","2","2","4","4","4","4","4","4","4","3","2","2","2","2","2","2","2","1","0","0","0","0","0","0","1","1","0","-1","1","1","0","1","4","4","4","2","2","4","4","2","2","3","755771736343187458","左","","","","","","","","","","","","","","","","","","","true","13","3","moral","836","other","他人","","","","","","","","","","","","","","",""
"null","","null","html-keyboard-response","73","211578","0.0-6.0-1.0-6.0-0.7","3","3","4","3","4","3","3","4","4","4","4","4","2","2","4","4","4","4","4","4","4","3","2","2","2","2","2","2","2","1","0","0","0","0","0","0","1","1","0","-1","1","1","0","1","4","4","4","2","2","4","4","2","2","3","755771736343187458","左","","","","","","","","","","","","","","","","","","","","","","","","","","","","","","","","","","","","","","","",""
"3247","<p style=""color:white; font-size: 35px;"">黑心</p>","e","categorize-html","74","214830","0.0-6.0-1.0-6.0-1.7","3","3","4","3","4","3","3","4","4","4","4","4","2","2","4","4","4","4","4","4","4","3","2","2","2","2","2","2","2","1","0","0","0","0","0","0","1","1","0","-1","1","1","0","1","4","4","4","2","2","4","4","2","2","3","755771736343187458","左","","","","","","","","","","","","","","","","","","","true","13","3","moral","3247","negative","黑心","","","","","","","","","","","","","","",""
"null","","null","html-keyboard-response","75","215082","0.0-6.0-1.0-6.0-0.8","3","3","4","3","4","3","3","4","4","4","4","4","2","2","4","4","4","4","4","4","4","3","2","2","2","2","2","2","2","1","0","0","0","0","0","0","1","1","0","-1","1","1","0","1","4","4","4","2","2","4","4","2","2","3","755771736343187458","左","","","","","","","","","","","","","","","","","","","","","","","","","","","","","","","","","","","","","","","",""
"943","<p style=""color:rgb(150, 250, 100); font-size: 35px;"">本人</p>","i","categorize-html","76","216030","0.0-6.0-1.0-6.0-1.8","3","3","4","3","4","3","3","4","4","4","4","4","2","2","4","4","4","4","4","4","4","3","2","2","2","2","2","2","2","1","0","0","0","0","0","0","1","1","0","-1","1","1","0","1","4","4","4","2","2","4","4","2","2","3","755771736343187458","左","","","","","","","","","","","","","","","","","","","true","13","3","moral","943","self","本人","","","","","","","","","","","","","","",""
"null","","null","html-keyboard-response","77","216282","0.0-6.0-1.0-6.0-0.9","3","3","4","3","4","3","3","4","4","4","4","4","2","2","4","4","4","4","4","4","4","3","2","2","2","2","2","2","2","1","0","0","0","0","0","0","1","1","0","-1","1","1","0","1","4","4","4","2","2","4","4","2","2","3","755771736343187458","左","","","","","","","","","","","","","","","","","","","","","","","","","","","","","","","","","","","","","","","",""
"865","<p style=""color:white; font-size: 35px;"">不孝</p>","e","categorize-html","78","217152","0.0-6.0-1.0-6.0-1.9","3","3","4","3","4","3","3","4","4","4","4","4","2","2","4","4","4","4","4","4","4","3","2","2","2","2","2","2","2","1","0","0","0","0","0","0","1","1","0","-1","1","1","0","1","4","4","4","2","2","4","4","2","2","3","755771736343187458","左","","","","","","","","","","","","","","","","","","","true","13","3","moral","865","negative","不孝","","","","","","","","","","","","","","",""
"null","","null","html-keyboard-response","79","217405","0.0-6.0-1.0-6.0-0.10","3","3","4","3","4","3","3","4","4","4","4","4","2","2","4","4","4","4","4","4","4","3","2","2","2","2","2","2","2","1","0","0","0","0","0","0","1","1","0","-1","1","1","0","1","4","4","4","2","2","4","4","2","2","3","755771736343187458","左","","","","","","","","","","","","","","","","","","","","","","","","","","","","","","","","","","","","","","","",""
"1561","<p style=""color:rgb(150, 250, 100); font-size: 35px;"">别人</p>","e","categorize-html","80","218971","0.0-6.0-1.0-6.0-1.10","3","3","4","3","4","3","3","4","4","4","4","4","2","2","4","4","4","4","4","4","4","3","2","2","2","2","2","2","2","1","0","0","0","0","0","0","1","1","0","-1","1","1","0","1","4","4","4","2","2","4","4","2","2","3","755771736343187458","左","","","","","","","","","","","","","","","","","","","true","13","3","moral","1561","other","别人","","","","","","","","","","","","","","",""
"null","","null","html-keyboard-response","81","219224","0.0-6.0-1.0-6.0-0.11","3","3","4","3","4","3","3","4","4","4","4","4","2","2","4","4","4","4","4","4","4","3","2","2","2","2","2","2","2","1","0","0","0","0","0","0","1","1","0","-1","1","1","0","1","4","4","4","2","2","4","4","2","2","3","755771736343187458","左","","","","","","","","","","","","","","","","","","","","","","","","","","","","","","","","","","","","","","","",""
"1712","<p style=""color:white; font-size: 35px;"">诚信</p>","i","categorize-html","82","220943","0.0-6.0-1.0-6.0-1.11","3","3","4","3","4","3","3","4","4","4","4","4","2","2","4","4","4","4","4","4","4","3","2","2","2","2","2","2","2","1","0","0","0","0","0","0","1","1","0","-1","1","1","0","1","4","4","4","2","2","4","4","2","2","3","755771736343187458","左","","","","","","","","","","","","","","","","","","","true","13","3","moral","1712","positive","诚信","","","","","","","","","","","","","","",""
"null","","null","html-keyboard-response","83","221196","0.0-6.0-1.0-6.0-0.12","3","3","4","3","4","3","3","4","4","4","4","4","2","2","4","4","4","4","4","4","4","3","2","2","2","2","2","2","2","1","0","0","0","0","0","0","1","1","0","-1","1","1","0","1","4","4","4","2","2","4","4","2","2","3","755771736343187458","左","","","","","","","","","","","","","","","","","","","","","","","","","","","","","","","","","","","","","","","",""
"723","<p style=""color:rgb(150, 250, 100); font-size: 35px;"">他人的</p>","e","categorize-html","84","221923","0.0-6.0-1.0-6.0-1.12","3","3","4","3","4","3","3","4","4","4","4","4","2","2","4","4","4","4","4","4","4","3","2","2","2","2","2","2","2","1","0","0","0","0","0","0","1","1","0","-1","1","1","0","1","4","4","4","2","2","4","4","2","2","3","755771736343187458","左","","","","","","","","","","","","","","","","","","","true","13","3","moral","723","other","他人的","","","","","","","","","","","","","","",""
"null","","null","html-keyboard-response","85","222176","0.0-6.0-1.0-6.0-0.13","3","3","4","3","4","3","3","4","4","4","4","4","2","2","4","4","4","4","4","4","4","3","2","2","2","2","2","2","2","1","0","0","0","0","0","0","1","1","0","-1","1","1","0","1","4","4","4","2","2","4","4","2","2","3","755771736343187458","左","","","","","","","","","","","","","","","","","","","","","","","","","","","","","","","","","","","","","","","",""
"870","<p style=""color:white; font-size: 35px;"">小人</p>","e","categorize-html","86","223051","0.0-6.0-1.0-6.0-1.13","3","3","4","3","4","3","3","4","4","4","4","4","2","2","4","4","4","4","4","4","4","3","2","2","2","2","2","2","2","1","0","0","0","0","0","0","1","1","0","-1","1","1","0","1","4","4","4","2","2","4","4","2","2","3","755771736343187458","左","","","","","","","","","","","","","","","","","","","true","13","3","moral","870","negative","小人","","","","","","","","","","","","","","",""
"null","","null","html-keyboard-response","87","223305","0.0-6.0-1.0-6.0-0.14","3","3","4","3","4","3","3","4","4","4","4","4","2","2","4","4","4","4","4","4","4","3","2","2","2","2","2","2","2","1","0","0","0","0","0","0","1","1","0","-1","1","1","0","1","4","4","4","2","2","4","4","2","2","3","755771736343187458","左","","","","","","","","","","","","","","","","","","","","","","","","","","","","","","","","","","","","","","","",""
"676","<p style=""color:rgb(150, 250, 100); font-size: 35px;"">自己</p>","i","categorize-html","88","223986","0.0-6.0-1.0-6.0-1.14","3","3","4","3","4","3","3","4","4","4","4","4","2","2","4","4","4","4","4","4","4","3","2","2","2","2","2","2","2","1","0","0","0","0","0","0","1","1","0","-1","1","1","0","1","4","4","4","2","2","4","4","2","2","3","755771736343187458","左","","","","","","","","","","","","","","","","","","","true","13","3","moral","676","self","自己","","","","","","","","","","","","","","",""
"null","","null","html-keyboard-response","89","224238","0.0-6.0-1.0-6.0-0.15","3","3","4","3","4","3","3","4","4","4","4","4","2","2","4","4","4","4","4","4","4","3","2","2","2","2","2","2","2","1","0","0","0","0","0","0","1","1","0","-1","1","1","0","1","4","4","4","2","2","4","4","2","2","3","755771736343187458","左","","","","","","","","","","","","","","","","","","","","","","","","","","","","","","","","","","","","","","","",""
"2338","<p style=""color:white; font-size: 35px;"">廉正</p>","i","categorize-html","90","226580","0.0-6.0-1.0-6.0-1.15","3","3","4","3","4","3","3","4","4","4","4","4","2","2","4","4","4","4","4","4","4","3","2","2","2","2","2","2","2","1","0","0","0","0","0","0","1","1","0","-1","1","1","0","1","4","4","4","2","2","4","4","2","2","3","755771736343187458","左","","","","","","","","","","","","","","","","","","","true","13","3","moral","2338","positive","廉正","","","","","","","","","","","","","","",""
"null","","null","html-keyboard-response","91","226833","0.0-6.0-1.0-6.0-0.16","3","3","4","3","4","3","3","4","4","4","4","4","2","2","4","4","4","4","4","4","4","3","2","2","2","2","2","2","2","1","0","0","0","0","0","0","1","1","0","-1","1","1","0","1","4","4","4","2","2","4","4","2","2","3","755771736343187458","左","","","","","","","","","","","","","","","","","","","","","","","","","","","","","","","","","","","","","","","",""
"1095","<p style=""color:rgb(150, 250, 100); font-size: 35px;"">我</p>","i","categorize-html","92","227931","0.0-6.0-1.0-6.0-1.16","3","3","4","3","4","3","3","4","4","4","4","4","2","2","4","4","4","4","4","4","4","3","2","2","2","2","2","2","2","1","0","0","0","0","0","0","1","1","0","-1","1","1","0","1","4","4","4","2","2","4","4","2","2","3","755771736343187458","左","","","","","","","","","","","","","","","","","","","true","13","3","moral","1095","self","我","","","","","","","","","","","","","","",""
"null","","null","html-keyboard-response","93","228184","0.0-6.0-1.0-6.0-0.17","3","3","4","3","4","3","3","4","4","4","4","4","2","2","4","4","4","4","4","4","4","3","2","2","2","2","2","2","2","1","0","0","0","0","0","0","1","1","0","-1","1","1","0","1","4","4","4","2","2","4","4","2","2","3","755771736343187458","左","","","","","","","","","","","","","","","","","","","","","","","","","","","","","","","","","","","","","","","",""
"735","<p style=""color:white; font-size: 35px;"">高尚</p>","i","categorize-html","94","228923","0.0-6.0-1.0-6.0-1.17","3","3","4","3","4","3","3","4","4","4","4","4","2","2","4","4","4","4","4","4","4","3","2","2","2","2","2","2","2","1","0","0","0","0","0","0","1","1","0","-1","1","1","0","1","4","4","4","2","2","4","4","2","2","3","755771736343187458","左","","","","","","","","","","","","","","","","","","","true","13","3","moral","735","positive","高尚","","","","","","","","","","","","","","",""
"null","","null","html-keyboard-response","95","229175","0.0-6.0-1.0-6.0-0.18","3","3","4","3","4","3","3","4","4","4","4","4","2","2","4","4","4","4","4","4","4","3","2","2","2","2","2","2","2","1","0","0","0","0","0","0","1","1","0","-1","1","1","0","1","4","4","4","2","2","4","4","2","2","3","755771736343187458","左","","","","","","","","","","","","","","","","","","","","","","","","","","","","","","","","","","","","","","","",""
"680","<p style=""color:rgb(150, 250, 100); font-size: 35px;"">别人的</p>","e","categorize-html","96","229860","0.0-6.0-1.0-6.0-1.18","3","3","4","3","4","3","3","4","4","4","4","4","2","2","4","4","4","4","4","4","4","3","2","2","2","2","2","2","2","1","0","0","0","0","0","0","1","1","0","-1","1","1","0","1","4","4","4","2","2","4","4","2","2","3","755771736343187458","左","","","","","","","","","","","","","","","","","","","true","13","3","moral","680","other","别人的","","","","","","","","","","","","","","",""
"null","","null","html-keyboard-response","97","230112","0.0-6.0-1.0-6.0-0.19","3","3","4","3","4","3","3","4","4","4","4","4","2","2","4","4","4","4","4","4","4","3","2","2","2","2","2","2","2","1","0","0","0","0","0","0","1","1","0","-1","1","1","0","1","4","4","4","2","2","4","4","2","2","3","755771736343187458","左","","","","","","","","","","","","","","","","","","","","","","","","","","","","","","","","","","","","","","","",""
"1802","<p style=""color:white; font-size: 35px;"">不仁</p>","e","categorize-html","98","231918","0.0-6.0-1.0-6.0-1.19","3","3","4","3","4","3","3","4","4","4","4","4","2","2","4","4","4","4","4","4","4","3","2","2","2","2","2","2","2","1","0","0","0","0","0","0","1","1","0","-1","1","1","0","1","4","4","4","2","2","4","4","2","2","3","755771736343187458","左","","","","","","","","","","","","","","","","","","","true","13","3","moral","1802","negative","不仁","","","","","","","","","","","","","","",""
"null","","null","html-keyboard-response","99","232171","0.0-6.0-1.0-6.0-0.20","3","3","4","3","4","3","3","4","4","4","4","4","2","2","4","4","4","4","4","4","4","3","2","2","2","2","2","2","2","1","0","0","0","0","0","0","1","1","0","-1","1","1","0","1","4","4","4","2","2","4","4","2","2","3","755771736343187458","左","","","","","","","","","","","","","","","","","","","","","","","","","","","","","","","","","","","","","","","",""
"978","<p style=""color:rgb(150, 250, 100); font-size: 35px;"">他的</p>","e","categorize-html","100","233155","0.0-6.0-1.0-6.0-1.20","3","3","4","3","4","3","3","4","4","4","4","4","2","2","4","4","4","4","4","4","4","3","2","2","2","2","2","2","2","1","0","0","0","0","0","0","1","1","0","-1","1","1","0","1","4","4","4","2","2","4","4","2","2","3","755771736343187458","左","","","","","","","","","","","","","","","","","","","true","13","3","moral","978","other","他的","","","","","","","","","","","","","","",""
"null","","null","html-keyboard-response","101","233408","0.0-6.0-1.0-6.0-0.21","3","3","4","3","4","3","3","4","4","4","4","4","2","2","4","4","4","4","4","4","4","3","2","2","2","2","2","2","2","1","0","0","0","0","0","0","1","1","0","-1","1","1","0","1","4","4","4","2","2","4","4","2","2","3","755771736343187458","左","","","","","","","","","","","","","","","","","","","","","","","","","","","","","","","","","","","","","","","",""
"707","<p style=""color:white; font-size: 35px;"">善良</p>","i","categorize-html","102","234123","0.0-6.0-1.0-6.0-1.21","3","3","4","3","4","3","3","4","4","4","4","4","2","2","4","4","4","4","4","4","4","3","2","2","2","2","2","2","2","1","0","0","0","0","0","0","1","1","0","-1","1","1","0","1","4","4","4","2","2","4","4","2","2","3","755771736343187458","左","","","","","","","","","","","","","","","","","","","true","13","3","moral","707","positive","善良","","","","","","","","","","","","","","",""
"null","","null","html-keyboard-response","103","234377","0.0-6.0-1.0-6.0-0.22","3","3","4","3","4","3","3","4","4","4","4","4","2","2","4","4","4","4","4","4","4","3","2","2","2","2","2","2","2","1","0","0","0","0","0","0","1","1","0","-1","1","1","0","1","4","4","4","2","2","4","4","2","2","3","755771736343187458","左","","","","","","","","","","","","","","","","","","","","","","","","","","","","","","","","","","","","","","","",""
"680","<p style=""color:rgb(150, 250, 100); font-size: 35px;"">本人的</p>","i","categorize-html","104","235061","0.0-6.0-1.0-6.0-1.22","3","3","4","3","4","3","3","4","4","4","4","4","2","2","4","4","4","4","4","4","4","3","2","2","2","2","2","2","2","1","0","0","0","0","0","0","1","1","0","-1","1","1","0","1","4","4","4","2","2","4","4","2","2","3","755771736343187458","左","","","","","","","","","","","","","","","","","","","true","13","3","moral","680","self","本人的","","","","","","","","","","","","","","",""
"null","","null","html-keyboard-response","105","235314","0.0-6.0-1.0-6.0-0.23","3","3","4","3","4","3","3","4","4","4","4","4","2","2","4","4","4","4","4","4","4","3","2","2","2","2","2","2","2","1","0","0","0","0","0","0","1","1","0","-1","1","1","0","1","4","4","4","2","2","4","4","2","2","3","755771736343187458","左","","","","","","","","","","","","","","","","","","","","","","","","","","","","","","","","","","","","","","","",""
"686","<p style=""color:white; font-size: 35px;"">缺德</p>","e","categorize-html","106","236004","0.0-6.0-1.0-6.0-1.23","3","3","4","3","4","3","3","4","4","4","4","4","2","2","4","4","4","4","4","4","4","3","2","2","2","2","2","2","2","1","0","0","0","0","0","0","1","1","0","-1","1","1","0","1","4","4","4","2","2","4","4","2","2","3","755771736343187458","左","","","","","","","","","","","","","","","","","","","true","13","3","moral","686","negative","缺德","","","","","","","","","","","","","","",""
"13815","
    <div class=""tag-bottom""><p>
    ―― 任务4：对“他人/消极”词和“自我/积极”词分类 ――<p/>
    <span style=""color:#78DCE8""><b>与刚才的任务完全相同，请再次对这四类词语分类</b></span><p/>
    <span style=""color:#FFD866""><b>请根据上方标签的提示，尽可能正确并且快速地做出按键反应</b></span><p/>
    当按键错误时屏幕中会出现<span style=""color:red""> X </span>，需要按另一个键纠正才能继续<br/><p/>
    请把双手食指分别放在键盘的“E”键和“I”键上<p/>
    按<空格键>开始
    </p></div>"," ","html-keyboard-response","107","249822","0.0-6.0-1.0-7.0","3","3","4","3","4","3","3","4","4","4","4","4","2","2","4","4","4","4","4","4","4","3","2","2","2","2","2","2","2","1","0","0","0","0","0","0","1","1","0","-1","1","1","0","1","4","4","4","2","2","4","4","2","2","3","755771736343187458","左","","","","","","","","","","","","","","","","","","","","","","","","","","","","","","","","","","","","","","","",""
"null","","null","html-keyboard-response","108","250073","0.0-6.0-1.0-8.0-0.0","3","3","4","3","4","3","3","4","4","4","4","4","2","2","4","4","4","4","4","4","4","3","2","2","2","2","2","2","2","1","0","0","0","0","0","0","1","1","0","-1","1","1","0","1","4","4","4","2","2","4","4","2","2","3","755771736343187458","左","","","","","","","","","","","","","","","","","","","","","","","","","","","","","","","","","","","","","","","",""
"1366","<p style=""color:rgb(150, 250, 100); font-size: 35px;"">别人的</p>","e","categorize-html","109","251448","0.0-6.0-1.0-8.0-1.0","3","3","4","3","4","3","3","4","4","4","4","4","2","2","4","4","4","4","4","4","4","3","2","2","2","2","2","2","2","1","0","0","0","0","0","0","1","1","0","-1","1","1","0","1","4","4","4","2","2","4","4","2","2","3","755771736343187458","左","","","","","","","","","","","","","","","","","","","true","14","4","moral","1366","other","别人的","","","","","","","","","","","","","","",""
"null","","null","html-keyboard-response","110","251701","0.0-6.0-1.0-8.0-0.1","3","3","4","3","4","3","3","4","4","4","4","4","2","2","4","4","4","4","4","4","4","3","2","2","2","2","2","2","2","1","0","0","0","0","0","0","1","1","0","-1","1","1","0","1","4","4","4","2","2","4","4","2","2","3","755771736343187458","左","","","","","","","","","","","","","","","","","","","","","","","","","","","","","","","","","","","","","","","",""
"648","<p style=""color:white; font-size: 35px;"">卑鄙</p>","e","categorize-html","111","252358","0.0-6.0-1.0-8.0-1.1","3","3","4","3","4","3","3","4","4","4","4","4","2","2","4","4","4","4","4","4","4","3","2","2","2","2","2","2","2","1","0","0","0","0","0","0","1","1","0","-1","1","1","0","1","4","4","4","2","2","4","4","2","2","3","755771736343187458","左","","","","","","","","","","","","","","","","","","","true","14","4","moral","648","negative","卑鄙","","","","","","","","","","","","","","",""
"null","","null","html-keyboard-response","112","252612","0.0-6.0-1.0-8.0-0.2","3","3","4","3","4","3","3","4","4","4","4","4","2","2","4","4","4","4","4","4","4","3","2","2","2","2","2","2","2","1","0","0","0","0","0","0","1","1","0","-1","1","1","0","1","4","4","4","2","2","4","4","2","2","3","755771736343187458","左","","","","","","","","","","","","","","","","","","","","","","","","","","","","","","","","","","","","","","","",""
"680","<p style=""color:rgb(150, 250, 100); font-size: 35px;"">我</p>","i","categorize-html","113","253301","0.0-6.0-1.0-8.0-1.2","3","3","4","3","4","3","3","4","4","4","4","4","2","2","4","4","4","4","4","4","4","3","2","2","2","2","2","2","2","1","0","0","0","0","0","0","1","1","0","-1","1","1","0","1","4","4","4","2","2","4","4","2","2","3","755771736343187458","左","","","","","","","","","","","","","","","","","","","true","14","4","moral","680","self","我","","","","","","","","","","","","","","",""
"null","","null","html-keyboard-response","114","253555","0.0-6.0-1.0-8.0-0.3","3","3","4","3","4","3","3","4","4","4","4","4","2","2","4","4","4","4","4","4","4","3","2","2","2","2","2","2","2","1","0","0","0","0","0","0","1","1","0","-1","1","1","0","1","4","4","4","2","2","4","4","2","2","3","755771736343187458","左","","","","","","","","","","","","","","","","","","","","","","","","","","","","","","","","","","","","","","","",""
"672","<p style=""color:white; font-size: 35px;"">君子</p>","i","categorize-html","115","254232","0.0-6.0-1.0-8.0-1.3","3","3","4","3","4","3","3","4","4","4","4","4","2","2","4","4","4","4","4","4","4","3","2","2","2","2","2","2","2","1","0","0","0","0","0","0","1","1","0","-1","1","1","0","1","4","4","4","2","2","4","4","2","2","3","755771736343187458","左","","","","","","","","","","","","","","","","","","","true","14","4","moral","672","positive","君子","","","","","","","","","","","","","","",""
"null","","null","html-keyboard-response","116","254484","0.0-6.0-1.0-8.0-0.4","3","3","4","3","4","3","3","4","4","4","4","4","2","2","4","4","4","4","4","4","4","3","2","2","2","2","2","2","2","1","0","0","0","0","0","0","1","1","0","-1","1","1","0","1","4","4","4","2","2","4","4","2","2","3","755771736343187458","左","","","","","","","","","","","","","","","","","","","","","","","","","","","","","","","","","","","","","","","",""
"2266","<p style=""color:rgb(150, 250, 100); font-size: 35px;"">他人的</p>","e","categorize-html","117","256757","0.0-6.0-1.0-8.0-1.4","3","3","4","3","4","3","3","4","4","4","4","4","2","2","4","4","4","4","4","4","4","3","2","2","2","2","2","2","2","1","0","0","0","0","0","0","1","1","0","-1","1","1","0","1","4","4","4","2","2","4","4","2","2","3","755771736343187458","左","","","","","","","","","","","","","","","","","","","true","14","4","moral","2266","other","他人的","","","","","","","","","","","","","","",""
"null","","null","html-keyboard-response","118","257011","0.0-6.0-1.0-8.0-0.5","3","3","4","3","4","3","3","4","4","4","4","4","2","2","4","4","4","4","4","4","4","3","2","2","2","2","2","2","2","1","0","0","0","0","0","0","1","1","0","-1","1","1","0","1","4","4","4","2","2","4","4","2","2","3","755771736343187458","左","","","","","","","","","","","","","","","","","","","","","","","","","","","","","","","","","","","","","","","",""
"578","<p style=""color:white; font-size: 35px;"">缺德</p>","e","categorize-html","119","257597","0.0-6.0-1.0-8.0-1.5","3","3","4","3","4","3","3","4","4","4","4","4","2","2","4","4","4","4","4","4","4","3","2","2","2","2","2","2","2","1","0","0","0","0","0","0","1","1","0","-1","1","1","0","1","4","4","4","2","2","4","4","2","2","3","755771736343187458","左","","","","","","","","","","","","","","","","","","","true","14","4","moral","578","negative","缺德","","","","","","","","","","","","","","",""
"null","","null","html-keyboard-response","120","257849","0.0-6.0-1.0-8.0-0.6","3","3","4","3","4","3","3","4","4","4","4","4","2","2","4","4","4","4","4","4","4","3","2","2","2","2","2","2","2","1","0","0","0","0","0","0","1","1","0","-1","1","1","0","1","4","4","4","2","2","4","4","2","2","3","755771736343187458","左","","","","","","","","","","","","","","","","","","","","","","","","","","","","","","","","","","","","","","","",""
"700","<p style=""color:rgb(150, 250, 100); font-size: 35px;"">自己</p>","i","categorize-html","121","258558","0.0-6.0-1.0-8.0-1.6","3","3","4","3","4","3","3","4","4","4","4","4","2","2","4","4","4","4","4","4","4","3","2","2","2","2","2","2","2","1","0","0","0","0","0","0","1","1","0","-1","1","1","0","1","4","4","4","2","2","4","4","2","2","3","755771736343187458","左","","","","","","","","","","","","","","","","","","","true","14","4","moral","700","self","自己","","","","","","","","","","","","","","",""
"null","","null","html-keyboard-response","122","258813","0.0-6.0-1.0-8.0-0.7","3","3","4","3","4","3","3","4","4","4","4","4","2","2","4","4","4","4","4","4","4","3","2","2","2","2","2","2","2","1","0","0","0","0","0","0","1","1","0","-1","1","1","0","1","4","4","4","2","2","4","4","2","2","3","755771736343187458","左","","","","","","","","","","","","","","","","","","","","","","","","","","","","","","","","","","","","","","","",""
"631","<p style=""color:white; font-size: 35px;"">诚信</p>","i","categorize-html","123","259450","0.0-6.0-1.0-8.0-1.7","3","3","4","3","4","3","3","4","4","4","4","4","2","2","4","4","4","4","4","4","4","3","2","2","2","2","2","2","2","1","0","0","0","0","0","0","1","1","0","-1","1","1","0","1","4","4","4","2","2","4","4","2","2","3","755771736343187458","左","","","","","","","","","","","","","","","","","","","true","14","4","moral","631","positive","诚信","","","","","","","","","","","","","","",""
"null","","null","html-keyboard-response","124","259714","0.0-6.0-1.0-8.0-0.8","3","3","4","3","4","3","3","4","4","4","4","4","2","2","4","4","4","4","4","4","4","3","2","2","2","2","2","2","2","1","0","0","0","0","0","0","1","1","0","-1","1","1","0","1","4","4","4","2","2","4","4","2","2","3","755771736343187458","左","","","","","","","","","","","","","","","","","","","","","","","","","","","","","","","","","","","","","","","",""
"612","<p style=""color:rgb(150, 250, 100); font-size: 35px;"">别人</p>","e","categorize-html","125","260334","0.0-6.0-1.0-8.0-1.8","3","3","4","3","4","3","3","4","4","4","4","4","2","2","4","4","4","4","4","4","4","3","2","2","2","2","2","2","2","1","0","0","0","0","0","0","1","1","0","-1","1","1","0","1","4","4","4","2","2","4","4","2","2","3","755771736343187458","左","","","","","","","","","","","","","","","","","","","true","14","4","moral","612","other","别人","","","","","","","","","","","","","","",""
"null","","null","html-keyboard-response","126","260586","0.0-6.0-1.0-8.0-0.9","3","3","4","3","4","3","3","4","4","4","4","4","2","2","4","4","4","4","4","4","4","3","2","2","2","2","2","2","2","1","0","0","0","0","0","0","1","1","0","-1","1","1","0","1","4","4","4","2","2","4","4","2","2","3","755771736343187458","左","","","","","","","","","","","","","","","","","","","","","","","","","","","","","","","","","","","","","","","",""
"979","<p style=""color:white; font-size: 35px;"">廉正</p>","i","categorize-html","127","261573","0.0-6.0-1.0-8.0-1.9","3","3","4","3","4","3","3","4","4","4","4","4","2","2","4","4","4","4","4","4","4","3","2","2","2","2","2","2","2","1","0","0","0","0","0","0","1","1","0","-1","1","1","0","1","4","4","4","2","2","4","4","2","2","3","755771736343187458","左","","","","","","","","","","","","","","","","","","","true","14","4","moral","979","positive","廉正","","","","","","","","","","","","","","",""
"null","","null","html-keyboard-response","128","261827","0.0-6.0-1.0-8.0-0.10","3","3","4","3","4","3","3","4","4","4","4","4","2","2","4","4","4","4","4","4","4","3","2","2","2","2","2","2","2","1","0","0","0","0","0","0","1","1","0","-1","1","1","0","1","4","4","4","2","2","4","4","2","2","3","755771736343187458","左","","","","","","","","","","","","","","","","","","","","","","","","","","","","","","","","","","","","","","","",""
"610","<p style=""color:rgb(150, 250, 100); font-size: 35px;"">自己的</p>","i","categorize-html","129","262445","0.0-6.0-1.0-8.0-1.10","3","3","4","3","4","3","3","4","4","4","4","4","2","2","4","4","4","4","4","4","4","3","2","2","2","2","2","2","2","1","0","0","0","0","0","0","1","1","0","-1","1","1","0","1","4","4","4","2","2","4","4","2","2","3","755771736343187458","左","","","","","","","","","","","","","","","","","","","true","14","4","moral","610","self","自己的","","","","","","","","","","","","","","",""
"null","","null","html-keyboard-response","130","262698","0.0-6.0-1.0-8.0-0.11","3","3","4","3","4","3","3","4","4","4","4","4","2","2","4","4","4","4","4","4","4","3","2","2","2","2","2","2","2","1","0","0","0","0","0","0","1","1","0","-1","1","1","0","1","4","4","4","2","2","4","4","2","2","3","755771736343187458","左","","","","","","","","","","","","","","","","","","","","","","","","","","","","","","","","","","","","","","","",""
"575","<p style=""color:white; font-size: 35px;"">卑鄙</p>","e","categorize-html","131","263281","0.0-6.0-1.0-8.0-1.11","3","3","4","3","4","3","3","4","4","4","4","4","2","2","4","4","4","4","4","4","4","3","2","2","2","2","2","2","2","1","0","0","0","0","0","0","1","1","0","-1","1","1","0","1","4","4","4","2","2","4","4","2","2","3","755771736343187458","左","","","","","","","","","","","","","","","","","","","true","14","4","moral","575","negative","卑鄙","","","","","","","","","","","","","","",""
"null","","null","html-keyboard-response","132","263536","0.0-6.0-1.0-8.0-0.12","3","3","4","3","4","3","3","4","4","4","4","4","2","2","4","4","4","4","4","4","4","3","2","2","2","2","2","2","2","1","0","0","0","0","0","0","1","1","0","-1","1","1","0","1","4","4","4","2","2","4","4","2","2","3","755771736343187458","左","","","","","","","","","","","","","","","","","","","","","","","","","","","","","","","","","","","","","","","",""
"615","<p style=""color:rgb(150, 250, 100); font-size: 35px;"">别人</p>","e","categorize-html","133","264158","0.0-6.0-1.0-8.0-1.12","3","3","4","3","4","3","3","4","4","4","4","4","2","2","4","4","4","4","4","4","4","3","2","2","2","2","2","2","2","1","0","0","0","0","0","0","1","1","0","-1","1","1","0","1","4","4","4","2","2","4","4","2","2","3","755771736343187458","左","","","","","","","","","","","","","","","","","","","true","14","4","moral","615","other","别人","","","","","","","","","","","","","","",""
"null","","null","html-keyboard-response","134","264412","0.0-6.0-1.0-8.0-0.13","3","3","4","3","4","3","3","4","4","4","4","4","2","2","4","4","4","4","4","4","4","3","2","2","2","2","2","2","2","1","0","0","0","0","0","0","1","1","0","-1","1","1","0","1","4","4","4","2","2","4","4","2","2","3","755771736343187458","左","","","","","","","","","","","","","","","","","","","","","","","","","","","","","","","","","","","","","","","",""
"580","<p style=""color:white; font-size: 35px;"">诚信</p>","i","categorize-html","135","265000","0.0-6.0-1.0-8.0-1.13","3","3","4","3","4","3","3","4","4","4","4","4","2","2","4","4","4","4","4","4","4","3","2","2","2","2","2","2","2","1","0","0","0","0","0","0","1","1","0","-1","1","1","0","1","4","4","4","2","2","4","4","2","2","3","755771736343187458","左","","","","","","","","","","","","","","","","","","","true","14","4","moral","580","positive","诚信","","","","","","","","","","","","","","",""
"null","","null","html-keyboard-response","136","265255","0.0-6.0-1.0-8.0-0.14","3","3","4","3","4","3","3","4","4","4","4","4","2","2","4","4","4","4","4","4","4","3","2","2","2","2","2","2","2","1","0","0","0","0","0","0","1","1","0","-1","1","1","0","1","4","4","4","2","2","4","4","2","2","3","755771736343187458","左","","","","","","","","","","","","","","","","","","","","","","","","","","","","","","","","","","","","","","","",""
"718","<p style=""color:rgb(150, 250, 100); font-size: 35px;"">自己的</p>","i","categorize-html","137","265980","0.0-6.0-1.0-8.0-1.14","3","3","4","3","4","3","3","4","4","4","4","4","2","2","4","4","4","4","4","4","4","3","2","2","2","2","2","2","2","1","0","0","0","0","0","0","1","1","0","-1","1","1","0","1","4","4","4","2","2","4","4","2","2","3","755771736343187458","左","","","","","","","","","","","","","","","","","","","true","14","4","moral","718","self","自己的","","","","","","","","","","","","","","",""
"null","","null","html-keyboard-response","138","266233","0.0-6.0-1.0-8.0-0.15","3","3","4","3","4","3","3","4","4","4","4","4","2","2","4","4","4","4","4","4","4","3","2","2","2","2","2","2","2","1","0","0","0","0","0","0","1","1","0","-1","1","1","0","1","4","4","4","2","2","4","4","2","2","3","755771736343187458","左","","","","","","","","","","","","","","","","","","","","","","","","","","","","","","","","","","","","","","","",""
"1489","<p style=""color:white; font-size: 35px;"">缺德</p>","e","categorize-html","139","267731","0.0-6.0-1.0-8.0-1.15","3","3","4","3","4","3","3","4","4","4","4","4","2","2","4","4","4","4","4","4","4","3","2","2","2","2","2","2","2","1","0","0","0","0","0","0","1","1","0","-1","1","1","0","1","4","4","4","2","2","4","4","2","2","3","755771736343187458","左","","","","","","","","","","","","","","","","","","","true","14","4","moral","1489","negative","缺德","","","","","","","","","","","","","","",""
"null","","null","html-keyboard-response","140","267983","0.0-6.0-1.0-8.0-0.16","3","3","4","3","4","3","3","4","4","4","4","4","2","2","4","4","4","4","4","4","4","3","2","2","2","2","2","2","2","1","0","0","0","0","0","0","1","1","0","-1","1","1","0","1","4","4","4","2","2","4","4","2","2","3","755771736343187458","左","","","","","","","","","","","","","","","","","","","","","","","","","","","","","","","","","","","","","","","",""
"691","<p style=""color:rgb(150, 250, 100); font-size: 35px;"">本人</p>","i","categorize-html","141","268682","0.0-6.0-1.0-8.0-1.16","3","3","4","3","4","3","3","4","4","4","4","4","2","2","4","4","4","4","4","4","4","3","2","2","2","2","2","2","2","1","0","0","0","0","0","0","1","1","0","-1","1","1","0","1","4","4","4","2","2","4","4","2","2","3","755771736343187458","左","","","","","","","","","","","","","","","","","","","true","14","4","moral","691","self","本人","","","","","","","","","","","","","","",""
"null","","null","html-keyboard-response","142","268936","0.0-6.0-1.0-8.0-0.17","3","3","4","3","4","3","3","4","4","4","4","4","2","2","4","4","4","4","4","4","4","3","2","2","2","2","2","2","2","1","0","0","0","0","0","0","1","1","0","-1","1","1","0","1","4","4","4","2","2","4","4","2","2","3","755771736343187458","左","","","","","","","","","","","","","","","","","","","","","","","","","","","","","","","","","","","","","","","",""
"639","<p style=""color:white; font-size: 35px;"">黑心</p>","e","categorize-html","143","269582","0.0-6.0-1.0-8.0-1.17","3","3","4","3","4","3","3","4","4","4","4","4","2","2","4","4","4","4","4","4","4","3","2","2","2","2","2","2","2","1","0","0","0","0","0","0","1","1","0","-1","1","1","0","1","4","4","4","2","2","4","4","2","2","3","755771736343187458","左","","","","","","","","","","","","","","","","","","","true","14","4","moral","639","negative","黑心","","","","","","","","","","","","","","",""
"null","","null","html-keyboard-response","144","269845","0.0-6.0-1.0-8.0-0.18","3","3","4","3","4","3","3","4","4","4","4","4","2","2","4","4","4","4","4","4","4","3","2","2","2","2","2","2","2","1","0","0","0","0","0","0","1","1","0","-1","1","1","0","1","4","4","4","2","2","4","4","2","2","3","755771736343187458","左","","","","","","","","","","","","","","","","","","","","","","","","","","","","","","","","","","","","","","","",""
"640","<p style=""color:rgb(150, 250, 100); font-size: 35px;"">他人的</p>","i","categorize-html","145","271184","0.0-6.0-1.0-8.0-1.18","3","3","4","3","4","3","3","4","4","4","4","4","2","2","4","4","4","4","4","4","4","3","2","2","2","2","2","2","2","1","0","0","0","0","0","0","1","1","0","-1","1","1","0","1","4","4","4","2","2","4","4","2","2","3","755771736343187458","左","","","","","","","","","","","","","","","","","","","false","14","4","moral","1721.9782608695652","other","他人的","","","","","","","","","","","","","","",""
"null","","null","html-keyboard-response","146","271436","0.0-6.0-1.0-8.0-0.19","3","3","4","3","4","3","3","4","4","4","4","4","2","2","4","4","4","4","4","4","4","3","2","2","2","2","2","2","2","1","0","0","0","0","0","0","1","1","0","-1","1","1","0","1","4","4","4","2","2","4","4","2","2","3","755771736343187458","左","","","","","","","","","","","","","","","","","","","","","","","","","","","","","","","","","","","","","","","",""
"1128","<p style=""color:white; font-size: 35px;"">善良</p>","i","categorize-html","147","272572","0.0-6.0-1.0-8.0-1.19","3","3","4","3","4","3","3","4","4","4","4","4","2","2","4","4","4","4","4","4","4","3","2","2","2","2","2","2","2","1","0","0","0","0","0","0","1","1","0","-1","1","1","0","1","4","4","4","2","2","4","4","2","2","3","755771736343187458","左","","","","","","","","","","","","","","","","","","","true","14","4","moral","1128","positive","善良","","","","","","","","","","","","","","",""
"null","","null","html-keyboard-response","148","272825","0.0-6.0-1.0-8.0-0.20","3","3","4","3","4","3","3","4","4","4","4","4","2","2","4","4","4","4","4","4","4","3","2","2","2","2","2","2","2","1","0","0","0","0","0","0","1","1","0","-1","1","1","0","1","4","4","4","2","2","4","4","2","2","3","755771736343187458","左","","","","","","","","","","","","","","","","","","","","","","","","","","","","","","","","","","","","","","","",""
"1352","<p style=""color:rgb(150, 250, 100); font-size: 35px;"">他人</p>","e","categorize-html","149","274185","0.0-6.0-1.0-8.0-1.20","3","3","4","3","4","3","3","4","4","4","4","4","2","2","4","4","4","4","4","4","4","3","2","2","2","2","2","2","2","1","0","0","0","0","0","0","1","1","0","-1","1","1","0","1","4","4","4","2","2","4","4","2","2","3","755771736343187458","左","","","","","","","","","","","","","","","","","","","true","14","4","moral","1352","other","他人","","","","","","","","","","","","","","",""
"null","","null","html-keyboard-response","150","274438","0.0-6.0-1.0-8.0-0.21","3","3","4","3","4","3","3","4","4","4","4","4","2","2","4","4","4","4","4","4","4","3","2","2","2","2","2","2","2","1","0","0","0","0","0","0","1","1","0","-1","1","1","0","1","4","4","4","2","2","4","4","2","2","3","755771736343187458","左","","","","","","","","","","","","","","","","","","","","","","","","","","","","","","","","","","","","","","","",""
"1527","<p style=""color:white; font-size: 35px;"">不孝</p>","e","categorize-html","151","275973","0.0-6.0-1.0-8.0-1.21","3","3","4","3","4","3","3","4","4","4","4","4","2","2","4","4","4","4","4","4","4","3","2","2","2","2","2","2","2","1","0","0","0","0","0","0","1","1","0","-1","1","1","0","1","4","4","4","2","2","4","4","2","2","3","755771736343187458","左","","","","","","","","","","","","","","","","","","","true","14","4","moral","1527","negative","不孝","","","","","","","","","","","","","","",""
"null","","null","html-keyboard-response","152","276227","0.0-6.0-1.0-8.0-0.22","3","3","4","3","4","3","3","4","4","4","4","4","2","2","4","4","4","4","4","4","4","3","2","2","2","2","2","2","2","1","0","0","0","0","0","0","1","1","0","-1","1","1","0","1","4","4","4","2","2","4","4","2","2","3","755771736343187458","左","","","","","","","","","","","","","","","","","","","","","","","","","","","","","","","","","","","","","","","",""
"607","<p style=""color:rgb(150, 250, 100); font-size: 35px;"">本人</p>","i","categorize-html","153","276839","0.0-6.0-1.0-8.0-1.22","3","3","4","3","4","3","3","4","4","4","4","4","2","2","4","4","4","4","4","4","4","3","2","2","2","2","2","2","2","1","0","0","0","0","0","0","1","1","0","-1","1","1","0","1","4","4","4","2","2","4","4","2","2","3","755771736343187458","左","","","","","","","","","","","","","","","","","","","true","14","4","moral","607","self","本人","","","","","","","","","","","","","","",""
"null","","null","html-keyboard-response","154","277104","0.0-6.0-1.0-8.0-0.23","3","3","4","3","4","3","3","4","4","4","4","4","2","2","4","4","4","4","4","4","4","3","2","2","2","2","2","2","2","1","0","0","0","0","0","0","1","1","0","-1","1","1","0","1","4","4","4","2","2","4","4","2","2","3","755771736343187458","左","","","","","","","","","","","","","","","","","","","","","","","","","","","","","","","","","","","","","","","",""
"831","<p style=""color:white; font-size: 35px;"">高尚</p>","i","categorize-html","155","277942","0.0-6.0-1.0-8.0-1.23","3","3","4","3","4","3","3","4","4","4","4","4","2","2","4","4","4","4","4","4","4","3","2","2","2","2","2","2","2","1","0","0","0","0","0","0","1","1","0","-1","1","1","0","1","4","4","4","2","2","4","4","2","2","3","755771736343187458","左","","","","","","","","","","","","","","","","","","","true","14","4","moral","831","positive","高尚","","","","","","","","","","","","","","",""
"null","","null","html-keyboard-response","156","278196","0.0-6.0-1.0-8.0-0.24","3","3","4","3","4","3","3","4","4","4","4","4","2","2","4","4","4","4","4","4","4","3","2","2","2","2","2","2","2","1","0","0","0","0","0","0","1","1","0","-1","1","1","0","1","4","4","4","2","2","4","4","2","2","3","755771736343187458","左","","","","","","","","","","","","","","","","","","","","","","","","","","","","","","","","","","","","","","","",""
"3167","<p style=""color:rgb(150, 250, 100); font-size: 35px;"">他</p>","e","categorize-html","157","281370","0.0-6.0-1.0-8.0-1.24","3","3","4","3","4","3","3","4","4","4","4","4","2","2","4","4","4","4","4","4","4","3","2","2","2","2","2","2","2","1","0","0","0","0","0","0","1","1","0","-1","1","1","0","1","4","4","4","2","2","4","4","2","2","3","755771736343187458","左","","","","","","","","","","","","","","","","","","","true","14","4","moral","3167","other","他","","","","","","","","","","","","","","",""
"null","","null","html-keyboard-response","158","281623","0.0-6.0-1.0-8.0-0.25","3","3","4","3","4","3","3","4","4","4","4","4","2","2","4","4","4","4","4","4","4","3","2","2","2","2","2","2","2","1","0","0","0","0","0","0","1","1","0","-1","1","1","0","1","4","4","4","2","2","4","4","2","2","3","755771736343187458","左","","","","","","","","","","","","","","","","","","","","","","","","","","","","","","","","","","","","","","","",""
"907","<p style=""color:white; font-size: 35px;"">不孝</p>","e","categorize-html","159","282538","0.0-6.0-1.0-8.0-1.25","3","3","4","3","4","3","3","4","4","4","4","4","2","2","4","4","4","4","4","4","4","3","2","2","2","2","2","2","2","1","0","0","0","0","0","0","1","1","0","-1","1","1","0","1","4","4","4","2","2","4","4","2","2","3","755771736343187458","左","","","","","","","","","","","","","","","","","","","true","14","4","moral","907","negative","不孝","","","","","","","","","","","","","","",""
"null","","null","html-keyboard-response","160","282791","0.0-6.0-1.0-8.0-0.26","3","3","4","3","4","3","3","4","4","4","4","4","2","2","4","4","4","4","4","4","4","3","2","2","2","2","2","2","2","1","0","0","0","0","0","0","1","1","0","-1","1","1","0","1","4","4","4","2","2","4","4","2","2","3","755771736343187458","左","","","","","","","","","","","","","","","","","","","","","","","","","","","","","","","","","","","","","","","",""
"788","<p style=""color:rgb(150, 250, 100); font-size: 35px;"">本人的</p>","i","categorize-html","161","283587","0.0-6.0-1.0-8.0-1.26","3","3","4","3","4","3","3","4","4","4","4","4","2","2","4","4","4","4","4","4","4","3","2","2","2","2","2","2","2","1","0","0","0","0","0","0","1","1","0","-1","1","1","0","1","4","4","4","2","2","4","4","2","2","3","755771736343187458","左","","","","","","","","","","","","","","","","","","","true","14","4","moral","788","self","本人的","","","","","","","","","","","","","","",""
"null","","null","html-keyboard-response","162","283840","0.0-6.0-1.0-8.0-0.27","3","3","4","3","4","3","3","4","4","4","4","4","2","2","4","4","4","4","4","4","4","3","2","2","2","2","2","2","2","1","0","0","0","0","0","0","1","1","0","-1","1","1","0","1","4","4","4","2","2","4","4","2","2","3","755771736343187458","左","","","","","","","","","","","","","","","","","","","","","","","","","","","","","","","","","","","","","","","",""
"916","<p style=""color:white; font-size: 35px;"">廉正</p>","i","categorize-html","163","284763","0.0-6.0-1.0-8.0-1.27","3","3","4","3","4","3","3","4","4","4","4","4","2","2","4","4","4","4","4","4","4","3","2","2","2","2","2","2","2","1","0","0","0","0","0","0","1","1","0","-1","1","1","0","1","4","4","4","2","2","4","4","2","2","3","755771736343187458","左","","","","","","","","","","","","","","","","","","","true","14","4","moral","916","positive","廉正","","","","","","","","","","","","","","",""
"null","","null","html-keyboard-response","164","285016","0.0-6.0-1.0-8.0-0.28","3","3","4","3","4","3","3","4","4","4","4","4","2","2","4","4","4","4","4","4","4","3","2","2","2","2","2","2","2","1","0","0","0","0","0","0","1","1","0","-1","1","1","0","1","4","4","4","2","2","4","4","2","2","3","755771736343187458","左","","","","","","","","","","","","","","","","","","","","","","","","","","","","","","","","","","","","","","","",""
"1375","<p style=""color:rgb(150, 250, 100); font-size: 35px;"">他的</p>","e","categorize-html","165","286399","0.0-6.0-1.0-8.0-1.28","3","3","4","3","4","3","3","4","4","4","4","4","2","2","4","4","4","4","4","4","4","3","2","2","2","2","2","2","2","1","0","0","0","0","0","0","1","1","0","-1","1","1","0","1","4","4","4","2","2","4","4","2","2","3","755771736343187458","左","","","","","","","","","","","","","","","","","","","true","14","4","moral","1375","other","他的","","","","","","","","","","","","","","",""
"null","","null","html-keyboard-response","166","286653","0.0-6.0-1.0-8.0-0.29","3","3","4","3","4","3","3","4","4","4","4","4","2","2","4","4","4","4","4","4","4","3","2","2","2","2","2","2","2","1","0","0","0","0","0","0","1","1","0","-1","1","1","0","1","4","4","4","2","2","4","4","2","2","3","755771736343187458","左","","","","","","","","","","","","","","","","","","","","","","","","","","","","","","","","","","","","","","","",""
"791","<p style=""color:white; font-size: 35px;"">君子</p>","i","categorize-html","167","287451","0.0-6.0-1.0-8.0-1.29","3","3","4","3","4","3","3","4","4","4","4","4","2","2","4","4","4","4","4","4","4","3","2","2","2","2","2","2","2","1","0","0","0","0","0","0","1","1","0","-1","1","1","0","1","4","4","4","2","2","4","4","2","2","3","755771736343187458","左","","","","","","","","","","","","","","","","","","","true","14","4","moral","791","positive","君子","","","","","","","","","","","","","","",""
"null","","null","html-keyboard-response","168","287705","0.0-6.0-1.0-8.0-0.30","3","3","4","3","4","3","3","4","4","4","4","4","2","2","4","4","4","4","4","4","4","3","2","2","2","2","2","2","2","1","0","0","0","0","0","0","1","1","0","-1","1","1","0","1","4","4","4","2","2","4","4","2","2","3","755771736343187458","左","","","","","","","","","","","","","","","","","","","","","","","","","","","","","","","","","","","","","","","",""
"1271","<p style=""color:rgb(150, 250, 100); font-size: 35px;"">自己</p>","i","categorize-html","169","288984","0.0-6.0-1.0-8.0-1.30","3","3","4","3","4","3","3","4","4","4","4","4","2","2","4","4","4","4","4","4","4","3","2","2","2","2","2","2","2","1","0","0","0","0","0","0","1","1","0","-1","1","1","0","1","4","4","4","2","2","4","4","2","2","3","755771736343187458","左","","","","","","","","","","","","","","","","","","","true","14","4","moral","1271","self","自己","","","","","","","","","","","","","","",""
"null","","null","html-keyboard-response","170","289237","0.0-6.0-1.0-8.0-0.31","3","3","4","3","4","3","3","4","4","4","4","4","2","2","4","4","4","4","4","4","4","3","2","2","2","2","2","2","2","1","0","0","0","0","0","0","1","1","0","-1","1","1","0","1","4","4","4","2","2","4","4","2","2","3","755771736343187458","左","","","","","","","","","","","","","","","","","","","","","","","","","","","","","","","","","","","","","","","",""
"592","<p style=""color:white; font-size: 35px;"">不仁</p>","e","categorize-html","171","289837","0.0-6.0-1.0-8.0-1.31","3","3","4","3","4","3","3","4","4","4","4","4","2","2","4","4","4","4","4","4","4","3","2","2","2","2","2","2","2","1","0","0","0","0","0","0","1","1","0","-1","1","1","0","1","4","4","4","2","2","4","4","2","2","3","755771736343187458","左","","","","","","","","","","","","","","","","","","","true","14","4","moral","592","negative","不仁","","","","","","","","","","","","","","",""
"null","","null","html-keyboard-response","172","290091","0.0-6.0-1.0-8.0-0.32","3","3","4","3","4","3","3","4","4","4","4","4","2","2","4","4","4","4","4","4","4","3","2","2","2","2","2","2","2","1","0","0","0","0","0","0","1","1","0","-1","1","1","0","1","4","4","4","2","2","4","4","2","2","3","755771736343187458","左","","","","","","","","","","","","","","","","","","","","","","","","","","","","","","","","","","","","","","","",""
"1300","<p style=""color:rgb(150, 250, 100); font-size: 35px;"">本人的</p>","i","categorize-html","173","291401","0.0-6.0-1.0-8.0-1.32","3","3","4","3","4","3","3","4","4","4","4","4","2","2","4","4","4","4","4","4","4","3","2","2","2","2","2","2","2","1","0","0","0","0","0","0","1","1","0","-1","1","1","0","1","4","4","4","2","2","4","4","2","2","3","755771736343187458","左","","","","","","","","","","","","","","","","","","","true","14","4","moral","1300","self","本人的","","","","","","","","","","","","","","",""
"null","","null","html-keyboard-response","174","291655","0.0-6.0-1.0-8.0-0.33","3","3","4","3","4","3","3","4","4","4","4","4","2","2","4","4","4","4","4","4","4","3","2","2","2","2","2","2","2","1","0","0","0","0","0","0","1","1","0","-1","1","1","0","1","4","4","4","2","2","4","4","2","2","3","755771736343187458","左","","","","","","","","","","","","","","","","","","","","","","","","","","","","","","","","","","","","","","","",""
"1518","<p style=""color:white; font-size: 35px;"">小人</p>","e","categorize-html","175","293181","0.0-6.0-1.0-8.0-1.33","3","3","4","3","4","3","3","4","4","4","4","4","2","2","4","4","4","4","4","4","4","3","2","2","2","2","2","2","2","1","0","0","0","0","0","0","1","1","0","-1","1","1","0","1","4","4","4","2","2","4","4","2","2","3","755771736343187458","左","","","","","","","","","","","","","","","","","","","true","14","4","moral","1518","negative","小人","","","","","","","","","","","","","","",""
"null","","null","html-keyboard-response","176","293434","0.0-6.0-1.0-8.0-0.34","3","3","4","3","4","3","3","4","4","4","4","4","2","2","4","4","4","4","4","4","4","3","2","2","2","2","2","2","2","1","0","0","0","0","0","0","1","1","0","-1","1","1","0","1","4","4","4","2","2","4","4","2","2","3","755771736343187458","左","","","","","","","","","","","","","","","","","","","","","","","","","","","","","","","","","","","","","","","",""
"614","<p style=""color:rgb(150, 250, 100); font-size: 35px;"">他人</p>","i","categorize-html","177","294423","0.0-6.0-1.0-8.0-1.34","3","3","4","3","4","3","3","4","4","4","4","4","2","2","4","4","4","4","4","4","4","3","2","2","2","2","2","2","2","1","0","0","0","0","0","0","1","1","0","-1","1","1","0","1","4","4","4","2","2","4","4","2","2","3","755771736343187458","左","","","","","","","","","","","","","","","","","","","false","14","4","moral","1721.9782608695652","other","他人","","","","","","","","","","","","","","",""
"null","","null","html-keyboard-response","178","294676","0.0-6.0-1.0-8.0-0.35","3","3","4","3","4","3","3","4","4","4","4","4","2","2","4","4","4","4","4","4","4","3","2","2","2","2","2","2","2","1","0","0","0","0","0","0","1","1","0","-1","1","1","0","1","4","4","4","2","2","4","4","2","2","3","755771736343187458","左","","","","","","","","","","","","","","","","","","","","","","","","","","","","","","","","","","","","","","","",""
"1015","<p style=""color:white; font-size: 35px;"">正直</p>","i","categorize-html","179","295699","0.0-6.0-1.0-8.0-1.35","3","3","4","3","4","3","3","4","4","4","4","4","2","2","4","4","4","4","4","4","4","3","2","2","2","2","2","2","2","1","0","0","0","0","0","0","1","1","0","-1","1","1","0","1","4","4","4","2","2","4","4","2","2","3","755771736343187458","左","","","","","","","","","","","","","","","","","","","true","14","4","moral","1015","positive","正直","","","","","","","","","","","","","","",""
"null","","null","html-keyboard-response","180","295952","0.0-6.0-1.0-8.0-0.36","3","3","4","3","4","3","3","4","4","4","4","4","2","2","4","4","4","4","4","4","4","3","2","2","2","2","2","2","2","1","0","0","0","0","0","0","1","1","0","-1","1","1","0","1","4","4","4","2","2","4","4","2","2","3","755771736343187458","左","","","","","","","","","","","","","","","","","","","","","","","","","","","","","","","","","","","","","","","",""
"910","<p style=""color:rgb(150, 250, 100); font-size: 35px;"">他的</p>","e","categorize-html","181","296872","0.0-6.0-1.0-8.0-1.36","3","3","4","3","4","3","3","4","4","4","4","4","2","2","4","4","4","4","4","4","4","3","2","2","2","2","2","2","2","1","0","0","0","0","0","0","1","1","0","-1","1","1","0","1","4","4","4","2","2","4","4","2","2","3","755771736343187458","左","","","","","","","","","","","","","","","","","","","true","14","4","moral","910","other","他的","","","","","","","","","","","","","","",""
"null","","null","html-keyboard-response","182","297125","0.0-6.0-1.0-8.0-0.37","3","3","4","3","4","3","3","4","4","4","4","4","2","2","4","4","4","4","4","4","4","3","2","2","2","2","2","2","2","1","0","0","0","0","0","0","1","1","0","-1","1","1","0","1","4","4","4","2","2","4","4","2","2","3","755771736343187458","左","","","","","","","","","","","","","","","","","","","","","","","","","","","","","","","","","","","","","","","",""
"811","<p style=""color:white; font-size: 35px;"">正直</p>","i","categorize-html","183","297945","0.0-6.0-1.0-8.0-1.37","3","3","4","3","4","3","3","4","4","4","4","4","2","2","4","4","4","4","4","4","4","3","2","2","2","2","2","2","2","1","0","0","0","0","0","0","1","1","0","-1","1","1","0","1","4","4","4","2","2","4","4","2","2","3","755771736343187458","左","","","","","","","","","","","","","","","","","","","true","14","4","moral","811","positive","正直","","","","","","","","","","","","","","",""
"null","","null","html-keyboard-response","184","298199","0.0-6.0-1.0-8.0-0.38","3","3","4","3","4","3","3","4","4","4","4","4","2","2","4","4","4","4","4","4","4","3","2","2","2","2","2","2","2","1","0","0","0","0","0","0","1","1","0","-1","1","1","0","1","4","4","4","2","2","4","4","2","2","3","755771736343187458","左","","","","","","","","","","","","","","","","","","","","","","","","","","","","","","","","","","","","","","","",""
"2736","<p style=""color:rgb(150, 250, 100); font-size: 35px;"">我</p>","i","categorize-html","185","300943","0.0-6.0-1.0-8.0-1.38","3","3","4","3","4","3","3","4","4","4","4","4","2","2","4","4","4","4","4","4","4","3","2","2","2","2","2","2","2","1","0","0","0","0","0","0","1","1","0","-1","1","1","0","1","4","4","4","2","2","4","4","2","2","3","755771736343187458","左","","","","","","","","","","","","","","","","","","","true","14","4","moral","2736","self","我","","","","","","","","","","","","","","",""
"null","","null","html-keyboard-response","186","301196","0.0-6.0-1.0-8.0-0.39","3","3","4","3","4","3","3","4","4","4","4","4","2","2","4","4","4","4","4","4","4","3","2","2","2","2","2","2","2","1","0","0","0","0","0","0","1","1","0","-1","1","1","0","1","4","4","4","2","2","4","4","2","2","3","755771736343187458","左","","","","","","","","","","","","","","","","","","","","","","","","","","","","","","","","","","","","","","","",""
"3845","<p style=""color:white; font-size: 35px;"">不仁</p>","e","categorize-html","187","305046","0.0-6.0-1.0-8.0-1.39","3","3","4","3","4","3","3","4","4","4","4","4","2","2","4","4","4","4","4","4","4","3","2","2","2","2","2","2","2","1","0","0","0","0","0","0","1","1","0","-1","1","1","0","1","4","4","4","2","2","4","4","2","2","3","755771736343187458","左","","","","","","","","","","","","","","","","","","","true","14","4","moral","3845","negative","不仁","","","","","","","","","","","","","","",""
"null","","null","html-keyboard-response","188","305299","0.0-6.0-1.0-8.0-0.40","3","3","4","3","4","3","3","4","4","4","4","4","2","2","4","4","4","4","4","4","4","3","2","2","2","2","2","2","2","1","0","0","0","0","0","0","1","1","0","-1","1","1","0","1","4","4","4","2","2","4","4","2","2","3","755771736343187458","左","","","","","","","","","","","","","","","","","","","","","","","","","","","","","","","","","","","","","","","",""
"2299","<p style=""color:rgb(150, 250, 100); font-size: 35px;"">别人的</p>","e","categorize-html","189","307606","0.0-6.0-1.0-8.0-1.40","3","3","4","3","4","3","3","4","4","4","4","4","2","2","4","4","4","4","4","4","4","3","2","2","2","2","2","2","2","1","0","0","0","0","0","0","1","1","0","-1","1","1","0","1","4","4","4","2","2","4","4","2","2","3","755771736343187458","左","","","","","","","","","","","","","","","","","","","true","14","4","moral","2299","other","别人的","","","","","","","","","","","","","","",""
"null","","null","html-keyboard-response","190","307859","0.0-6.0-1.0-8.0-0.41","3","3","4","3","4","3","3","4","4","4","4","4","2","2","4","4","4","4","4","4","4","3","2","2","2","2","2","2","2","1","0","0","0","0","0","0","1","1","0","-1","1","1","0","1","4","4","4","2","2","4","4","2","2","3","755771736343187458","左","","","","","","","","","","","","","","","","","","","","","","","","","","","","","","","","","","","","","","","",""
"3010","<p style=""color:white; font-size: 35px;"">小人</p>","e","categorize-html","191","310877","0.0-6.0-1.0-8.0-1.41","3","3","4","3","4","3","3","4","4","4","4","4","2","2","4","4","4","4","4","4","4","3","2","2","2","2","2","2","2","1","0","0","0","0","0","0","1","1","0","-1","1","1","0","1","4","4","4","2","2","4","4","2","2","3","755771736343187458","左","","","","","","","","","","","","","","","","","","","true","14","4","moral","3010","negative","小人","","","","","","","","","","","","","","",""
"null","","null","html-keyboard-response","192","311131","0.0-6.0-1.0-8.0-0.42","3","3","4","3","4","3","3","4","4","4","4","4","2","2","4","4","4","4","4","4","4","3","2","2","2","2","2","2","2","1","0","0","0","0","0","0","1","1","0","-1","1","1","0","1","4","4","4","2","2","4","4","2","2","3","755771736343187458","左","","","","","","","","","","","","","","","","","","","","","","","","","","","","","","","","","","","","","","","",""
"754","<p style=""color:rgb(150, 250, 100); font-size: 35px;"">我的</p>","i","categorize-html","193","311892","0.0-6.0-1.0-8.0-1.42","3","3","4","3","4","3","3","4","4","4","4","4","2","2","4","4","4","4","4","4","4","3","2","2","2","2","2","2","2","1","0","0","0","0","0","0","1","1","0","-1","1","1","0","1","4","4","4","2","2","4","4","2","2","3","755771736343187458","左","","","","","","","","","","","","","","","","","","","true","14","4","moral","754","self","我的","","","","","","","","","","","","","","",""
"null","","null","html-keyboard-response","194","312146","0.0-6.0-1.0-8.0-0.43","3","3","4","3","4","3","3","4","4","4","4","4","2","2","4","4","4","4","4","4","4","3","2","2","2","2","2","2","2","1","0","0","0","0","0","0","1","1","0","-1","1","1","0","1","4","4","4","2","2","4","4","2","2","3","755771736343187458","左","","","","","","","","","","","","","","","","","","","","","","","","","","","","","","","","","","","","","","","",""
"590","<p style=""color:white; font-size: 35px;"">高尚</p>","i","categorize-html","195","312744","0.0-6.0-1.0-8.0-1.43","3","3","4","3","4","3","3","4","4","4","4","4","2","2","4","4","4","4","4","4","4","3","2","2","2","2","2","2","2","1","0","0","0","0","0","0","1","1","0","-1","1","1","0","1","4","4","4","2","2","4","4","2","2","3","755771736343187458","左","","","","","","","","","","","","","","","","","","","true","14","4","moral","590","positive","高尚","","","","","","","","","","","","","","",""
"null","","null","html-keyboard-response","196","312997","0.0-6.0-1.0-8.0-0.44","3","3","4","3","4","3","3","4","4","4","4","4","2","2","4","4","4","4","4","4","4","3","2","2","2","2","2","2","2","1","0","0","0","0","0","0","1","1","0","-1","1","1","0","1","4","4","4","2","2","4","4","2","2","3","755771736343187458","左","","","","","","","","","","","","","","","","","","","","","","","","","","","","","","","","","","","","","","","",""
"710","<p style=""color:rgb(150, 250, 100); font-size: 35px;"">他</p>","e","categorize-html","197","313715","0.0-6.0-1.0-8.0-1.44","3","3","4","3","4","3","3","4","4","4","4","4","2","2","4","4","4","4","4","4","4","3","2","2","2","2","2","2","2","1","0","0","0","0","0","0","1","1","0","-1","1","1","0","1","4","4","4","2","2","4","4","2","2","3","755771736343187458","左","","","","","","","","","","","","","","","","","","","true","14","4","moral","710","other","他","","","","","","","","","","","","","","",""
"null","","null","html-keyboard-response","198","313967","0.0-6.0-1.0-8.0-0.45","3","3","4","3","4","3","3","4","4","4","4","4","2","2","4","4","4","4","4","4","4","3","2","2","2","2","2","2","2","1","0","0","0","0","0","0","1","1","0","-1","1","1","0","1","4","4","4","2","2","4","4","2","2","3","755771736343187458","左","","","","","","","","","","","","","","","","","","","","","","","","","","","","","","","","","","","","","","","",""
