"rt","stimulus","response","trial_type","trial_index","time_elapsed","internal_node_id","ses_1","ses_2","ses_3","ses_4","ses_5","ses_6","ses_7","ses_8","ses_9","ses_10","coreself_1","coreself_2","coreself_3","coreself_4","coreself_5","coreself_6","coreself_7","coreself_8","coreself_9","coreself_10","SGPS_1","SGPS_2","SGPS_3","SGPS_4","SGPS_5","SGPS_6","SGPS_7","SGPS_8","SGPS_9","NPI1","NPI2","NPI3","NPI4","NPI5","NPI6","NPI7","NPI8","NPI9","NPI10","NPI11","NPI12","NPI13","NPI14","NPI15","hsns_1","hsns_2","hsns_3","hsns_4","hsns_5","hsns_6","hsns_7","hsns_8","hsns_9","hsns_10","subj_idx","friend_name","value","success","user_agent","responses","item_order","radio_event_ids","radio_event_times","key_event_times","mouse_event_times","straightlining","zigzagging","honeypot","timeout","failed_images","failed_audio","failed_video","version_attrib2","version_target2","correct","IAT","screen_id","task_id","RT","condition","word","varname","summary","version_attrib","version_target","time_stamp","view_history","response_type","key_press","avg_frame_time","center_x","center_y","correct_response","identity","Image","question_order"
"9089","
   <p><div style = ""color: white;font-size:25px;"">您好，欢迎参加本次实验。</div> </p>
   <p><div style = ""color: white;font-size:25px;"">为充分保障您的权利，请确保您已经知晓并同意《参与实验同意书》以及《数据公开知情同意书》。</div></p>
   <p><div style = ""color: white;font-size:25px;"">如果您未见过上述内容，请咨询实验员。</div></p>
   <p><div style = ""color: white;font-size:25px;"">如果您选择继续实验，则表示您已经清楚两份知情同意书的内容并同意。</div></p>
   <p> <div style = ""color: green;font-size:25px;""><按空格键至下页></div> </p>
   "," ","html-keyboard-response","0","9090","0.0-0.0","3","2","3","3","3","3","3","3","4","4","4","3","4","3","4","3","4","3","4","4","2","3","4","3","4","4","3","2","2","1","0","1","1","0","0","0","1","0","1","-1","0","1","0","1","4","3","2","4","3","2","3","4","3","3","682910925522468864","颜","","","","","","","","","","","","","","","","","","","","","","","","","","","","","","","","","","","","","","","",""
"","","","call-function","1","9092","0.0-1.0-0.0","3","2","3","3","3","3","3","3","4","4","4","3","4","3","4","3","4","3","4","4","2","3","4","3","4","4","3","2","2","1","0","1","1","0","0","0","1","0","1","-1","0","1","0","1","4","3","2","4","3","2","3","4","3","3","682910925522468864","颜","","","","","","","","","","","","","","","","","","","","","","","","","","","","","","","","","","","","","","","",""
"19054","","{""friend_name"":""颜""}","survey-html-form","2","28144","0.0-1.0-1.0","3","2","3","3","3","3","3","3","4","4","4","3","4","3","4","3","4","3","4","4","2","3","4","3","4","4","3","2","2","1","0","1","1","0","0","0","1","0","1","-1","0","1","0","1","4","3","2","4","3","2","3","4","3","3","682910925522468864","颜","","","","","","","","","","","","","","","","","","","","","","","","","","","","","","","","","","","","","","","",""
"","","","fullscreen","3","66168","0.0-2.0","3","2","3","3","3","3","3","3","4","4","4","3","4","3","4","3","4","3","4","4","2","3","4","3","4","4","3","2","2","1","0","1","1","0","0","0","1","0","1","-1","0","1","0","1","4","3","2","4","3","2","3","4","3","3","682910925522468864","颜","","true","{}","","","","","","","","","","","","","","","","","","","","","","","","","","","","","","","","","","","","",""
"28318.60000000056","","{""Q01"":""3"",""Q02"":""2"",""Q03"":""3"",""Q04"":""3"",""Q05"":""3"",""Q06"":""3"",""Q07"":""3"",""Q08"":""3"",""Q09"":""4"",""Q10"":""4""}","survey-template","4","94486","0.0-3.0","3","2","3","3","3","3","3","3","4","4","4","3","4","3","4","3","4","3","4","4","2","3","4","3","4","4","3","2","2","1","0","1","1","0","0","0","1","0","1","-1","0","1","0","1","4","3","2","4","3","2","3","4","3","3","682910925522468864","颜","","","","{""Q01"":""3"",""Q02"":""2"",""Q03"":""3"",""Q04"":""3"",""Q05"":""3"",""Q06"":""3"",""Q07"":""3"",""Q08"":""3"",""Q09"":""4"",""Q10"":""4""}","[0,1,2,3,4,5,6,7,8,9]","[""Q01"",""Q02"",""Q03"",""Q04"",""Q05"",""Q06"",""Q07"",""Q08"",""Q09"",""Q10""]","[2886.2000000001863,6317.700000000186,10525.600000000559,12005.799999999814,13958,20389.900000000373,21165.60000000056,24445.900000000373,25789.60000000056,27085.900000000373]","[]","[2886.2000000001863,6317.700000000186,10525.600000000559,12005.799999999814,13958,19294,20389.900000000373,21165.60000000056,24445.900000000373,25789.60000000056,27085.900000000373,28317.60000000056]","0.4","0.6666666666666666","0","","","","","","","","","","","","","","","","","","","","","","","","","","","",""
"26267","","{""Q01"":""4"",""Q02"":""3"",""Q03"":""4"",""Q04"":""3"",""Q05"":""4"",""Q06"":""3"",""Q07"":""4"",""Q08"":""3"",""Q09"":""4"",""Q10"":""4""}","survey-template","5","120758","0.0-4.0","3","2","3","3","3","3","3","3","4","4","4","3","4","3","4","3","4","3","4","4","2","3","4","3","4","4","3","2","2","1","0","1","1","0","0","0","1","0","1","-1","0","1","0","1","4","3","2","4","3","2","3","4","3","3","682910925522468864","颜","","","","{""Q01"":""4"",""Q02"":""3"",""Q03"":""4"",""Q04"":""3"",""Q05"":""4"",""Q06"":""3"",""Q07"":""4"",""Q08"":""3"",""Q09"":""4"",""Q10"":""4""}","[0,1,2,3,4,5,6,7,8,9]","[""Q01"",""Q02"",""Q03"",""Q04"",""Q05"",""Q06"",""Q07"",""Q08"",""Q09"",""Q10""]","[4090.4000000003725,5178.200000000186,8154.5,9746,12162.400000000373,14458,16441.900000000373,19634.200000000186,22338.5,25290]","[]","[3514.100000000559,4090.4000000003725,5178.200000000186,8154.5,9746,12162.400000000373,14458,16441.900000000373,19634.200000000186,22338.5,25290,26266]","0.4","0.8888888888888888","0","","","","","","","","","","","","","","","","","","","","","","","","","","","",""
"","","","preload","6","121490","0.0-5.0","3","2","3","3","3","3","3","3","4","4","4","3","4","3","4","3","4","3","4","4","2","3","4","3","4","4","3","2","2","1","0","1","1","0","0","0","1","0","1","-1","0","1","0","1","4","3","2","4","3","2","3","4","3","3","682910925522468864","颜","","true","","","","","","","","","","","false","[]","[]","[]","","","","","","","","","","","","","","","","","","","","","","","",""
"13330","
    <h3>词语分类任务</h3>
    <p>在接下来的任务中，你需要对一系列词语进行分类。<p/>
    请先熟悉这些词语，这有利于你完成接下来的任务。</p>
    <table align=""center"" border=1 cellpadding=3 cellspacing=0>
    <tr> <th>类别</th> <th>词语</th> </tr>
    <tr> <td>&emsp;积极&emsp;</td> <td>&emsp;高尚、诚信、善良、君子、廉正、正直&emsp;</td> </tr>
    <tr> <td>&emsp;消极&emsp;</td> <td>&emsp;缺德、卑鄙、不孝、不仁、小人、黑心&emsp;</td> </tr>
    <tr> <td>&emsp;自我&emsp;</td> <td>&emsp;我、我的、自己、自己的、本人、本人的&emsp;</td> </tr>
    <tr> <td>&emsp;他人&emsp;</td> <td>&emsp;他、他的、别人、别人的、他人、他人的&emsp;</td> </tr>
    </table><br/>","0","html-button-response","7","134818","0.0-6.0-1.0-0.0","3","2","3","3","3","3","3","3","4","4","4","3","4","3","4","3","4","3","4","4","2","3","4","3","4","4","3","2","2","1","0","1","1","0","0","0","1","0","1","-1","0","1","0","1","4","3","2","4","3","2","3","4","3","3","682910925522468864","颜","","","","","","","","","","","","","","","","","1","1","","","","","","","","","","","","","","","","","","","","","",""
"15870","
    <div class=""tag-bottom""><p>
    ―― 任务1：对“自我”词和“他人”词分类 ――<p/>
    不同词语会出现在屏幕中央，类别标签将始终显示在屏幕上方<p/>   
    <span style=""color:#FFD866""><b>请根据上方标签的提示，尽可能正确并且快速地做出按键反应</b></span><p/>
    当按键错误时屏幕中会出现<span style=""color:red""> X </span>，需要按另一个键纠正才能继续<br/><p/>
    请把双手食指分别放在键盘的“E”键和“I”键上<p/>
    按<空格键>开始
    </p></div>"," ","html-keyboard-response","8","150690","0.0-6.0-1.0-1.0","3","2","3","3","3","3","3","3","4","4","4","3","4","3","4","3","4","3","4","4","2","3","4","3","4","4","3","2","2","1","0","1","1","0","0","0","1","0","1","-1","0","1","0","1","4","3","2","4","3","2","3","4","3","3","682910925522468864","颜","","","","","","","","","","","","","","","","","","","","","","","","","","","","","","","","","","","","","","","",""
"null","","null","html-keyboard-response","9","150941","0.0-6.0-1.0-2.0-0.0","3","2","3","3","3","3","3","3","4","4","4","3","4","3","4","3","4","3","4","4","2","3","4","3","4","4","3","2","2","1","0","1","1","0","0","0","1","0","1","-1","0","1","0","1","4","3","2","4","3","2","3","4","3","3","682910925522468864","颜","","","","","","","","","","","","","","","","","","","","","","","","","","","","","","","","","","","","","","","",""
"779","<p style=""color:rgb(150, 250, 100); font-size: 35px;"">我的</p>","e","categorize-html","10","151723","0.0-6.0-1.0-2.0-1.0","3","2","3","3","3","3","3","3","4","4","4","3","4","3","4","3","4","3","4","4","2","3","4","3","4","4","3","2","2","1","0","1","1","0","0","0","1","0","1","-1","0","1","0","1","4","3","2","4","3","2","3","4","3","3","682910925522468864","颜","","","","","","","","","","","","","","","","","","","true","11","1","moral","779","self","我的","","","","","","","","","","","","","","",""
"null","","null","html-keyboard-response","11","151974","0.0-6.0-1.0-2.0-0.1","3","2","3","3","3","3","3","3","4","4","4","3","4","3","4","3","4","3","4","4","2","3","4","3","4","4","3","2","2","1","0","1","1","0","0","0","1","0","1","-1","0","1","0","1","4","3","2","4","3","2","3","4","3","3","682910925522468864","颜","","","","","","","","","","","","","","","","","","","","","","","","","","","","","","","","","","","","","","","",""
"532","<p style=""color:rgb(150, 250, 100); font-size: 35px;"">自己</p>","e","categorize-html","12","152506","0.0-6.0-1.0-2.0-1.1","3","2","3","3","3","3","3","3","4","4","4","3","4","3","4","3","4","3","4","4","2","3","4","3","4","4","3","2","2","1","0","1","1","0","0","0","1","0","1","-1","0","1","0","1","4","3","2","4","3","2","3","4","3","3","682910925522468864","颜","","","","","","","","","","","","","","","","","","","true","11","1","moral","532","self","自己","","","","","","","","","","","","","","",""
"null","","null","html-keyboard-response","13","152757","0.0-6.0-1.0-2.0-0.2","3","2","3","3","3","3","3","3","4","4","4","3","4","3","4","3","4","3","4","4","2","3","4","3","4","4","3","2","2","1","0","1","1","0","0","0","1","0","1","-1","0","1","0","1","4","3","2","4","3","2","3","4","3","3","682910925522468864","颜","","","","","","","","","","","","","","","","","","","","","","","","","","","","","","","","","","","","","","","",""
"468","<p style=""color:rgb(150, 250, 100); font-size: 35px;"">他人的</p>","e","categorize-html","14","153642","0.0-6.0-1.0-2.0-1.2","3","2","3","3","3","3","3","3","4","4","4","3","4","3","4","3","4","3","4","4","2","3","4","3","4","4","3","2","2","1","0","1","1","0","0","0","1","0","1","-1","0","1","0","1","4","3","2","4","3","2","3","4","3","3","682910925522468864","颜","","","","","","","","","","","","","","","","","","","false","11","1","moral","468","other","他人的","","","","","","","","","","","","","","",""
"null","","null","html-keyboard-response","15","153893","0.0-6.0-1.0-2.0-0.3","3","2","3","3","3","3","3","3","4","4","4","3","4","3","4","3","4","3","4","4","2","3","4","3","4","4","3","2","2","1","0","1","1","0","0","0","1","0","1","-1","0","1","0","1","4","3","2","4","3","2","3","4","3","3","682910925522468864","颜","","","","","","","","","","","","","","","","","","","","","","","","","","","","","","","","","","","","","","","",""
"515","<p style=""color:rgb(150, 250, 100); font-size: 35px;"">我</p>","e","categorize-html","16","154409","0.0-6.0-1.0-2.0-1.3","3","2","3","3","3","3","3","3","4","4","4","3","4","3","4","3","4","3","4","4","2","3","4","3","4","4","3","2","2","1","0","1","1","0","0","0","1","0","1","-1","0","1","0","1","4","3","2","4","3","2","3","4","3","3","682910925522468864","颜","","","","","","","","","","","","","","","","","","","true","11","1","moral","515","self","我","","","","","","","","","","","","","","",""
"null","","null","html-keyboard-response","17","154661","0.0-6.0-1.0-2.0-0.4","3","2","3","3","3","3","3","3","4","4","4","3","4","3","4","3","4","3","4","4","2","3","4","3","4","4","3","2","2","1","0","1","1","0","0","0","1","0","1","-1","0","1","0","1","4","3","2","4","3","2","3","4","3","3","682910925522468864","颜","","","","","","","","","","","","","","","","","","","","","","","","","","","","","","","","","","","","","","","",""
"428","<p style=""color:rgb(150, 250, 100); font-size: 35px;"">别人</p>","i","categorize-html","18","155090","0.0-6.0-1.0-2.0-1.4","3","2","3","3","3","3","3","3","4","4","4","3","4","3","4","3","4","3","4","4","2","3","4","3","4","4","3","2","2","1","0","1","1","0","0","0","1","0","1","-1","0","1","0","1","4","3","2","4","3","2","3","4","3","3","682910925522468864","颜","","","","","","","","","","","","","","","","","","","true","11","1","moral","428","other","别人","","","","","","","","","","","","","","",""
"null","","null","html-keyboard-response","19","155341","0.0-6.0-1.0-2.0-0.5","3","2","3","3","3","3","3","3","4","4","4","3","4","3","4","3","4","3","4","4","2","3","4","3","4","4","3","2","2","1","0","1","1","0","0","0","1","0","1","-1","0","1","0","1","4","3","2","4","3","2","3","4","3","3","682910925522468864","颜","","","","","","","","","","","","","","","","","","","","","","","","","","","","","","","","","","","","","","","",""
"484","<p style=""color:rgb(150, 250, 100); font-size: 35px;"">他人</p>","e","categorize-html","20","156194","0.0-6.0-1.0-2.0-1.5","3","2","3","3","3","3","3","3","4","4","4","3","4","3","4","3","4","3","4","4","2","3","4","3","4","4","3","2","2","1","0","1","1","0","0","0","1","0","1","-1","0","1","0","1","4","3","2","4","3","2","3","4","3","3","682910925522468864","颜","","","","","","","","","","","","","","","","","","","false","11","1","moral","484","other","他人","","","","","","","","","","","","","","",""
"null","","null","html-keyboard-response","21","156444","0.0-6.0-1.0-2.0-0.6","3","2","3","3","3","3","3","3","4","4","4","3","4","3","4","3","4","3","4","4","2","3","4","3","4","4","3","2","2","1","0","1","1","0","0","0","1","0","1","-1","0","1","0","1","4","3","2","4","3","2","3","4","3","3","682910925522468864","颜","","","","","","","","","","","","","","","","","","","","","","","","","","","","","","","","","","","","","","","",""
"500","<p style=""color:rgb(150, 250, 100); font-size: 35px;"">他</p>","i","categorize-html","22","156946","0.0-6.0-1.0-2.0-1.6","3","2","3","3","3","3","3","3","4","4","4","3","4","3","4","3","4","3","4","4","2","3","4","3","4","4","3","2","2","1","0","1","1","0","0","0","1","0","1","-1","0","1","0","1","4","3","2","4","3","2","3","4","3","3","682910925522468864","颜","","","","","","","","","","","","","","","","","","","true","11","1","moral","500","other","他","","","","","","","","","","","","","","",""
"null","","null","html-keyboard-response","23","157196","0.0-6.0-1.0-2.0-0.7","3","2","3","3","3","3","3","3","4","4","4","3","4","3","4","3","4","3","4","4","2","3","4","3","4","4","3","2","2","1","0","1","1","0","0","0","1","0","1","-1","0","1","0","1","4","3","2","4","3","2","3","4","3","3","682910925522468864","颜","","","","","","","","","","","","","","","","","","","","","","","","","","","","","","","","","","","","","","","",""
"549","<p style=""color:rgb(150, 250, 100); font-size: 35px;"">自己的</p>","e","categorize-html","24","157746","0.0-6.0-1.0-2.0-1.7","3","2","3","3","3","3","3","3","4","4","4","3","4","3","4","3","4","3","4","4","2","3","4","3","4","4","3","2","2","1","0","1","1","0","0","0","1","0","1","-1","0","1","0","1","4","3","2","4","3","2","3","4","3","3","682910925522468864","颜","","","","","","","","","","","","","","","","","","","true","11","1","moral","549","self","自己的","","","","","","","","","","","","","","",""
"null","","null","html-keyboard-response","25","157997","0.0-6.0-1.0-2.0-0.8","3","2","3","3","3","3","3","3","4","4","4","3","4","3","4","3","4","3","4","4","2","3","4","3","4","4","3","2","2","1","0","1","1","0","0","0","1","0","1","-1","0","1","0","1","4","3","2","4","3","2","3","4","3","3","682910925522468864","颜","","","","","","","","","","","","","","","","","","","","","","","","","","","","","","","","","","","","","","","",""
"628","<p style=""color:rgb(150, 250, 100); font-size: 35px;"">本人</p>","e","categorize-html","26","158626","0.0-6.0-1.0-2.0-1.8","3","2","3","3","3","3","3","3","4","4","4","3","4","3","4","3","4","3","4","4","2","3","4","3","4","4","3","2","2","1","0","1","1","0","0","0","1","0","1","-1","0","1","0","1","4","3","2","4","3","2","3","4","3","3","682910925522468864","颜","","","","","","","","","","","","","","","","","","","true","11","1","moral","628","self","本人","","","","","","","","","","","","","","",""
"null","","null","html-keyboard-response","27","158877","0.0-6.0-1.0-2.0-0.9","3","2","3","3","3","3","3","3","4","4","4","3","4","3","4","3","4","3","4","4","2","3","4","3","4","4","3","2","2","1","0","1","1","0","0","0","1","0","1","-1","0","1","0","1","4","3","2","4","3","2","3","4","3","3","682910925522468864","颜","","","","","","","","","","","","","","","","","","","","","","","","","","","","","","","","","","","","","","","",""
"388","<p style=""color:rgb(150, 250, 100); font-size: 35px;"">他的</p>","e","categorize-html","28","159594","0.0-6.0-1.0-2.0-1.9","3","2","3","3","3","3","3","3","4","4","4","3","4","3","4","3","4","3","4","4","2","3","4","3","4","4","3","2","2","1","0","1","1","0","0","0","1","0","1","-1","0","1","0","1","4","3","2","4","3","2","3","4","3","3","682910925522468864","颜","","","","","","","","","","","","","","","","","","","false","11","1","moral","388","other","他的","","","","","","","","","","","","","","",""
"null","","null","html-keyboard-response","29","159846","0.0-6.0-1.0-2.0-0.10","3","2","3","3","3","3","3","3","4","4","4","3","4","3","4","3","4","3","4","4","2","3","4","3","4","4","3","2","2","1","0","1","1","0","0","0","1","0","1","-1","0","1","0","1","4","3","2","4","3","2","3","4","3","3","682910925522468864","颜","","","","","","","","","","","","","","","","","","","","","","","","","","","","","","","","","","","","","","","",""
"651","<p style=""color:rgb(150, 250, 100); font-size: 35px;"">别人的</p>","i","categorize-html","30","160498","0.0-6.0-1.0-2.0-1.10","3","2","3","3","3","3","3","3","4","4","4","3","4","3","4","3","4","3","4","4","2","3","4","3","4","4","3","2","2","1","0","1","1","0","0","0","1","0","1","-1","0","1","0","1","4","3","2","4","3","2","3","4","3","3","682910925522468864","颜","","","","","","","","","","","","","","","","","","","true","11","1","moral","651","other","别人的","","","","","","","","","","","","","","",""
"null","","null","html-keyboard-response","31","160749","0.0-6.0-1.0-2.0-0.11","3","2","3","3","3","3","3","3","4","4","4","3","4","3","4","3","4","3","4","4","2","3","4","3","4","4","3","2","2","1","0","1","1","0","0","0","1","0","1","-1","0","1","0","1","4","3","2","4","3","2","3","4","3","3","682910925522468864","颜","","","","","","","","","","","","","","","","","","","","","","","","","","","","","","","","","","","","","","","",""
"573","<p style=""color:rgb(150, 250, 100); font-size: 35px;"">本人的</p>","i","categorize-html","32","161762","0.0-6.0-1.0-2.0-1.11","3","2","3","3","3","3","3","3","4","4","4","3","4","3","4","3","4","3","4","4","2","3","4","3","4","4","3","2","2","1","0","1","1","0","0","0","1","0","1","-1","0","1","0","1","4","3","2","4","3","2","3","4","3","3","682910925522468864","颜","","","","","","","","","","","","","","","","","","","false","11","1","moral","573","self","本人的","","","","","","","","","","","","","","",""
"7743","
    <div class=""tag-bottom""><p>
    ―― 任务2：对“积极”词和“消极”词分类 ――<p/>   
    <span style=""color:#78DCE8""><b>注意上方，类别标签和需要分类的词语都已经改变</b></span><p/>
    <span style=""color:#FFD866""><b>请根据上方标签的提示，尽可能正确并且快速地做出按键反应</b></span><p/>
    当按键错误时屏幕中会出现<span style=""color:red""> X </span>，需要按另一个键纠正才能继续<br/><p/>
    请把双手食指分别放在键盘的“E”键和“I”键上<p/>
    按<空格键>开始
    </p></div>"," ","html-keyboard-response","33","169505","0.0-6.0-1.0-3.0","3","2","3","3","3","3","3","3","4","4","4","3","4","3","4","3","4","3","4","4","2","3","4","3","4","4","3","2","2","1","0","1","1","0","0","0","1","0","1","-1","0","1","0","1","4","3","2","4","3","2","3","4","3","3","682910925522468864","颜","","","","","","","","","","","","","","","","","","","","","","","","","","","","","","","","","","","","","","","",""
"null","","null","html-keyboard-response","34","169770","0.0-6.0-1.0-4.0-0.0","3","2","3","3","3","3","3","3","4","4","4","3","4","3","4","3","4","3","4","4","2","3","4","3","4","4","3","2","2","1","0","1","1","0","0","0","1","0","1","-1","0","1","0","1","4","3","2","4","3","2","3","4","3","3","682910925522468864","颜","","","","","","","","","","","","","","","","","","","","","","","","","","","","","","","","","","","","","","","",""
"647","<p style=""color:white; font-size: 35px;"">诚信</p>","e","categorize-html","35","170418","0.0-6.0-1.0-4.0-1.0","3","2","3","3","3","3","3","3","4","4","4","3","4","3","4","3","4","3","4","4","2","3","4","3","4","4","3","2","2","1","0","1","1","0","0","0","1","0","1","-1","0","1","0","1","4","3","2","4","3","2","3","4","3","3","682910925522468864","颜","","","","","","","","","","","","","","","","","","","true","12","2","moral","647","positive","诚信","","","","","","","","","","","","","","",""
"null","","null","html-keyboard-response","36","170670","0.0-6.0-1.0-4.0-0.1","3","2","3","3","3","3","3","3","4","4","4","3","4","3","4","3","4","3","4","4","2","3","4","3","4","4","3","2","2","1","0","1","1","0","0","0","1","0","1","-1","0","1","0","1","4","3","2","4","3","2","3","4","3","3","682910925522468864","颜","","","","","","","","","","","","","","","","","","","","","","","","","","","","","","","","","","","","","","","",""
"492","<p style=""color:white; font-size: 35px;"">不孝</p>","i","categorize-html","37","171162","0.0-6.0-1.0-4.0-1.1","3","2","3","3","3","3","3","3","4","4","4","3","4","3","4","3","4","3","4","4","2","3","4","3","4","4","3","2","2","1","0","1","1","0","0","0","1","0","1","-1","0","1","0","1","4","3","2","4","3","2","3","4","3","3","682910925522468864","颜","","","","","","","","","","","","","","","","","","","true","12","2","moral","492","negative","不孝","","","","","","","","","","","","","","",""
"null","","null","html-keyboard-response","38","171413","0.0-6.0-1.0-4.0-0.2","3","2","3","3","3","3","3","3","4","4","4","3","4","3","4","3","4","3","4","4","2","3","4","3","4","4","3","2","2","1","0","1","1","0","0","0","1","0","1","-1","0","1","0","1","4","3","2","4","3","2","3","4","3","3","682910925522468864","颜","","","","","","","","","","","","","","","","","","","","","","","","","","","","","","","","","","","","","","","",""
"452","<p style=""color:white; font-size: 35px;"">善良</p>","e","categorize-html","39","171866","0.0-6.0-1.0-4.0-1.2","3","2","3","3","3","3","3","3","4","4","4","3","4","3","4","3","4","3","4","4","2","3","4","3","4","4","3","2","2","1","0","1","1","0","0","0","1","0","1","-1","0","1","0","1","4","3","2","4","3","2","3","4","3","3","682910925522468864","颜","","","","","","","","","","","","","","","","","","","true","12","2","moral","452","positive","善良","","","","","","","","","","","","","","",""
"null","","null","html-keyboard-response","40","172117","0.0-6.0-1.0-4.0-0.3","3","2","3","3","3","3","3","3","4","4","4","3","4","3","4","3","4","3","4","4","2","3","4","3","4","4","3","2","2","1","0","1","1","0","0","0","1","0","1","-1","0","1","0","1","4","3","2","4","3","2","3","4","3","3","682910925522468864","颜","","","","","","","","","","","","","","","","","","","","","","","","","","","","","","","","","","","","","","","",""
"445","<p style=""color:white; font-size: 35px;"">高尚</p>","e","categorize-html","41","172562","0.0-6.0-1.0-4.0-1.3","3","2","3","3","3","3","3","3","4","4","4","3","4","3","4","3","4","3","4","4","2","3","4","3","4","4","3","2","2","1","0","1","1","0","0","0","1","0","1","-1","0","1","0","1","4","3","2","4","3","2","3","4","3","3","682910925522468864","颜","","","","","","","","","","","","","","","","","","","true","12","2","moral","445","positive","高尚","","","","","","","","","","","","","","",""
"null","","null","html-keyboard-response","42","172813","0.0-6.0-1.0-4.0-0.4","3","2","3","3","3","3","3","3","4","4","4","3","4","3","4","3","4","3","4","4","2","3","4","3","4","4","3","2","2","1","0","1","1","0","0","0","1","0","1","-1","0","1","0","1","4","3","2","4","3","2","3","4","3","3","682910925522468864","颜","","","","","","","","","","","","","","","","","","","","","","","","","","","","","","","","","","","","","","","",""
"421","<p style=""color:white; font-size: 35px;"">黑心</p>","e","categorize-html","43","173585","0.0-6.0-1.0-4.0-1.4","3","2","3","3","3","3","3","3","4","4","4","3","4","3","4","3","4","3","4","4","2","3","4","3","4","4","3","2","2","1","0","1","1","0","0","0","1","0","1","-1","0","1","0","1","4","3","2","4","3","2","3","4","3","3","682910925522468864","颜","","","","","","","","","","","","","","","","","","","false","12","2","moral","421","negative","黑心","","","","","","","","","","","","","","",""
"null","","null","html-keyboard-response","44","173836","0.0-6.0-1.0-4.0-0.5","3","2","3","3","3","3","3","3","4","4","4","3","4","3","4","3","4","3","4","4","2","3","4","3","4","4","3","2","2","1","0","1","1","0","0","0","1","0","1","-1","0","1","0","1","4","3","2","4","3","2","3","4","3","3","682910925522468864","颜","","","","","","","","","","","","","","","","","","","","","","","","","","","","","","","","","","","","","","","",""
"604","<p style=""color:white; font-size: 35px;"">卑鄙</p>","i","categorize-html","45","174442","0.0-6.0-1.0-4.0-1.5","3","2","3","3","3","3","3","3","4","4","4","3","4","3","4","3","4","3","4","4","2","3","4","3","4","4","3","2","2","1","0","1","1","0","0","0","1","0","1","-1","0","1","0","1","4","3","2","4","3","2","3","4","3","3","682910925522468864","颜","","","","","","","","","","","","","","","","","","","true","12","2","moral","604","negative","卑鄙","","","","","","","","","","","","","","",""
"null","","null","html-keyboard-response","46","174693","0.0-6.0-1.0-4.0-0.6","3","2","3","3","3","3","3","3","4","4","4","3","4","3","4","3","4","3","4","4","2","3","4","3","4","4","3","2","2","1","0","1","1","0","0","0","1","0","1","-1","0","1","0","1","4","3","2","4","3","2","3","4","3","3","682910925522468864","颜","","","","","","","","","","","","","","","","","","","","","","","","","","","","","","","","","","","","","","","",""
"629","<p style=""color:white; font-size: 35px;"">廉正</p>","e","categorize-html","47","175322","0.0-6.0-1.0-4.0-1.6","3","2","3","3","3","3","3","3","4","4","4","3","4","3","4","3","4","3","4","4","2","3","4","3","4","4","3","2","2","1","0","1","1","0","0","0","1","0","1","-1","0","1","0","1","4","3","2","4","3","2","3","4","3","3","682910925522468864","颜","","","","","","","","","","","","","","","","","","","true","12","2","moral","629","positive","廉正","","","","","","","","","","","","","","",""
"null","","null","html-keyboard-response","48","175573","0.0-6.0-1.0-4.0-0.7","3","2","3","3","3","3","3","3","4","4","4","3","4","3","4","3","4","3","4","4","2","3","4","3","4","4","3","2","2","1","0","1","1","0","0","0","1","0","1","-1","0","1","0","1","4","3","2","4","3","2","3","4","3","3","682910925522468864","颜","","","","","","","","","","","","","","","","","","","","","","","","","","","","","","","","","","","","","","","",""
"581","<p style=""color:white; font-size: 35px;"">小人</p>","e","categorize-html","49","176490","0.0-6.0-1.0-4.0-1.7","3","2","3","3","3","3","3","3","4","4","4","3","4","3","4","3","4","3","4","4","2","3","4","3","4","4","3","2","2","1","0","1","1","0","0","0","1","0","1","-1","0","1","0","1","4","3","2","4","3","2","3","4","3","3","682910925522468864","颜","","","","","","","","","","","","","","","","","","","false","12","2","moral","581","negative","小人","","","","","","","","","","","","","","",""
"null","","null","html-keyboard-response","50","176741","0.0-6.0-1.0-4.0-0.8","3","2","3","3","3","3","3","3","4","4","4","3","4","3","4","3","4","3","4","4","2","3","4","3","4","4","3","2","2","1","0","1","1","0","0","0","1","0","1","-1","0","1","0","1","4","3","2","4","3","2","3","4","3","3","682910925522468864","颜","","","","","","","","","","","","","","","","","","","","","","","","","","","","","","","","","","","","","","","",""
"676","<p style=""color:white; font-size: 35px;"">缺德</p>","e","categorize-html","51","177794","0.0-6.0-1.0-4.0-1.8","3","2","3","3","3","3","3","3","4","4","4","3","4","3","4","3","4","3","4","4","2","3","4","3","4","4","3","2","2","1","0","1","1","0","0","0","1","0","1","-1","0","1","0","1","4","3","2","4","3","2","3","4","3","3","682910925522468864","颜","","","","","","","","","","","","","","","","","","","false","12","2","moral","676","negative","缺德","","","","","","","","","","","","","","",""
"null","","null","html-keyboard-response","52","178045","0.0-6.0-1.0-4.0-0.9","3","2","3","3","3","3","3","3","4","4","4","3","4","3","4","3","4","3","4","4","2","3","4","3","4","4","3","2","2","1","0","1","1","0","0","0","1","0","1","-1","0","1","0","1","4","3","2","4","3","2","3","4","3","3","682910925522468864","颜","","","","","","","","","","","","","","","","","","","","","","","","","","","","","","","","","","","","","","","",""
"548","<p style=""color:white; font-size: 35px;"">正直</p>","e","categorize-html","53","178594","0.0-6.0-1.0-4.0-1.9","3","2","3","3","3","3","3","3","4","4","4","3","4","3","4","3","4","3","4","4","2","3","4","3","4","4","3","2","2","1","0","1","1","0","0","0","1","0","1","-1","0","1","0","1","4","3","2","4","3","2","3","4","3","3","682910925522468864","颜","","","","","","","","","","","","","","","","","","","true","12","2","moral","548","positive","正直","","","","","","","","","","","","","","",""
"null","","null","html-keyboard-response","54","178845","0.0-6.0-1.0-4.0-0.10","3","2","3","3","3","3","3","3","4","4","4","3","4","3","4","3","4","3","4","4","2","3","4","3","4","4","3","2","2","1","0","1","1","0","0","0","1","0","1","-1","0","1","0","1","4","3","2","4","3","2","3","4","3","3","682910925522468864","颜","","","","","","","","","","","","","","","","","","","","","","","","","","","","","","","","","","","","","","","",""
"493","<p style=""color:white; font-size: 35px;"">不仁</p>","i","categorize-html","55","179339","0.0-6.0-1.0-4.0-1.10","3","2","3","3","3","3","3","3","4","4","4","3","4","3","4","3","4","3","4","4","2","3","4","3","4","4","3","2","2","1","0","1","1","0","0","0","1","0","1","-1","0","1","0","1","4","3","2","4","3","2","3","4","3","3","682910925522468864","颜","","","","","","","","","","","","","","","","","","","true","12","2","moral","493","negative","不仁","","","","","","","","","","","","","","",""
"null","","null","html-keyboard-response","56","179590","0.0-6.0-1.0-4.0-0.11","3","2","3","3","3","3","3","3","4","4","4","3","4","3","4","3","4","3","4","4","2","3","4","3","4","4","3","2","2","1","0","1","1","0","0","0","1","0","1","-1","0","1","0","1","4","3","2","4","3","2","3","4","3","3","682910925522468864","颜","","","","","","","","","","","","","","","","","","","","","","","","","","","","","","","","","","","","","","","",""
"587","<p style=""color:white; font-size: 35px;"">君子</p>","e","categorize-html","57","180178","0.0-6.0-1.0-4.0-1.11","3","2","3","3","3","3","3","3","4","4","4","3","4","3","4","3","4","3","4","4","2","3","4","3","4","4","3","2","2","1","0","1","1","0","0","0","1","0","1","-1","0","1","0","1","4","3","2","4","3","2","3","4","3","3","682910925522468864","颜","","","","","","","","","","","","","","","","","","","true","12","2","moral","587","positive","君子","","","","","","","","","","","","","","",""
"3696","
    <div class=""tag-bottom""><p>
    ―― 任务3：对“自我/积极”词和“他人/消极”词分类 ――<p/>
    <span style=""color:#78DCE8""><b>注意上方，之前的四类词语将混合在一起交替呈现</b></span><p/>
    <span style=""color:#FFD866""><b>请根据上方标签的提示，尽可能正确并且快速地做出按键反应</b></span><p/>
    当按键错误时屏幕中会出现<span style=""color:red""> X </span>，需要按另一个键纠正才能继续<br/><p/>
    请把双手食指分别放在键盘的“E”键和“I”键上<p/>
    按<空格键>开始
    </p></div>"," ","html-keyboard-response","58","183874","0.0-6.0-1.0-5.0","3","2","3","3","3","3","3","3","4","4","4","3","4","3","4","3","4","3","4","4","2","3","4","3","4","4","3","2","2","1","0","1","1","0","0","0","1","0","1","-1","0","1","0","1","4","3","2","4","3","2","3","4","3","3","682910925522468864","颜","","","","","","","","","","","","","","","","","","","","","","","","","","","","","","","","","","","","","","","",""
"null","","null","html-keyboard-response","59","184125","0.0-6.0-1.0-6.0-0.0","3","2","3","3","3","3","3","3","4","4","4","3","4","3","4","3","4","3","4","4","2","3","4","3","4","4","3","2","2","1","0","1","1","0","0","0","1","0","1","-1","0","1","0","1","4","3","2","4","3","2","3","4","3","3","682910925522468864","颜","","","","","","","","","","","","","","","","","","","","","","","","","","","","","","","","","","","","","","","",""
"787","<p style=""color:rgb(150, 250, 100); font-size: 35px;"">我</p>","e","categorize-html","60","184914","0.0-6.0-1.0-6.0-1.0","3","2","3","3","3","3","3","3","4","4","4","3","4","3","4","3","4","3","4","4","2","3","4","3","4","4","3","2","2","1","0","1","1","0","0","0","1","0","1","-1","0","1","0","1","4","3","2","4","3","2","3","4","3","3","682910925522468864","颜","","","","","","","","","","","","","","","","","","","true","13","3","moral","787","self","我","","","","","","","","","","","","","","",""
"null","","null","html-keyboard-response","61","185165","0.0-6.0-1.0-6.0-0.1","3","2","3","3","3","3","3","3","4","4","4","3","4","3","4","3","4","3","4","4","2","3","4","3","4","4","3","2","2","1","0","1","1","0","0","0","1","0","1","-1","0","1","0","1","4","3","2","4","3","2","3","4","3","3","682910925522468864","颜","","","","","","","","","","","","","","","","","","","","","","","","","","","","","","","","","","","","","","","",""
"685","<p style=""color:white; font-size: 35px;"">善良</p>","e","categorize-html","62","185850","0.0-6.0-1.0-6.0-1.1","3","2","3","3","3","3","3","3","4","4","4","3","4","3","4","3","4","3","4","4","2","3","4","3","4","4","3","2","2","1","0","1","1","0","0","0","1","0","1","-1","0","1","0","1","4","3","2","4","3","2","3","4","3","3","682910925522468864","颜","","","","","","","","","","","","","","","","","","","true","13","3","moral","685","positive","善良","","","","","","","","","","","","","","",""
"null","","null","html-keyboard-response","63","186101","0.0-6.0-1.0-6.0-0.2","3","2","3","3","3","3","3","3","4","4","4","3","4","3","4","3","4","3","4","4","2","3","4","3","4","4","3","2","2","1","0","1","1","0","0","0","1","0","1","-1","0","1","0","1","4","3","2","4","3","2","3","4","3","3","682910925522468864","颜","","","","","","","","","","","","","","","","","","","","","","","","","","","","","","","","","","","","","","","",""
"428","<p style=""color:rgb(150, 250, 100); font-size: 35px;"">他人</p>","e","categorize-html","64","186874","0.0-6.0-1.0-6.0-1.2","3","2","3","3","3","3","3","3","4","4","4","3","4","3","4","3","4","3","4","4","2","3","4","3","4","4","3","2","2","1","0","1","1","0","0","0","1","0","1","-1","0","1","0","1","4","3","2","4","3","2","3","4","3","3","682910925522468864","颜","","","","","","","","","","","","","","","","","","","false","13","3","moral","1259.047619047619","other","他人","","","","","","","","","","","","","","",""
"null","","null","html-keyboard-response","65","187124","0.0-6.0-1.0-6.0-0.3","3","2","3","3","3","3","3","3","4","4","4","3","4","3","4","3","4","3","4","4","2","3","4","3","4","4","3","2","2","1","0","1","1","0","0","0","1","0","1","-1","0","1","0","1","4","3","2","4","3","2","3","4","3","3","682910925522468864","颜","","","","","","","","","","","","","","","","","","","","","","","","","","","","","","","","","","","","","","","",""
"909","<p style=""color:white; font-size: 35px;"">不孝</p>","i","categorize-html","66","188034","0.0-6.0-1.0-6.0-1.3","3","2","3","3","3","3","3","3","4","4","4","3","4","3","4","3","4","3","4","4","2","3","4","3","4","4","3","2","2","1","0","1","1","0","0","0","1","0","1","-1","0","1","0","1","4","3","2","4","3","2","3","4","3","3","682910925522468864","颜","","","","","","","","","","","","","","","","","","","true","13","3","moral","909","negative","不孝","","","","","","","","","","","","","","",""
"null","","null","html-keyboard-response","67","188285","0.0-6.0-1.0-6.0-0.4","3","2","3","3","3","3","3","3","4","4","4","3","4","3","4","3","4","3","4","4","2","3","4","3","4","4","3","2","2","1","0","1","1","0","0","0","1","0","1","-1","0","1","0","1","4","3","2","4","3","2","3","4","3","3","682910925522468864","颜","","","","","","","","","","","","","","","","","","","","","","","","","","","","","","","","","","","","","","","",""
"509","<p style=""color:rgb(150, 250, 100); font-size: 35px;"">他人的</p>","i","categorize-html","68","188794","0.0-6.0-1.0-6.0-1.4","3","2","3","3","3","3","3","3","4","4","4","3","4","3","4","3","4","3","4","4","2","3","4","3","4","4","3","2","2","1","0","1","1","0","0","0","1","0","1","-1","0","1","0","1","4","3","2","4","3","2","3","4","3","3","682910925522468864","颜","","","","","","","","","","","","","","","","","","","true","13","3","moral","509","other","他人的","","","","","","","","","","","","","","",""
"null","","null","html-keyboard-response","69","189045","0.0-6.0-1.0-6.0-0.5","3","2","3","3","3","3","3","3","4","4","4","3","4","3","4","3","4","3","4","4","2","3","4","3","4","4","3","2","2","1","0","1","1","0","0","0","1","0","1","-1","0","1","0","1","4","3","2","4","3","2","3","4","3","3","682910925522468864","颜","","","","","","","","","","","","","","","","","","","","","","","","","","","","","","","","","","","","","","","",""
"917","<p style=""color:white; font-size: 35px;"">小人</p>","i","categorize-html","70","189962","0.0-6.0-1.0-6.0-1.5","3","2","3","3","3","3","3","3","4","4","4","3","4","3","4","3","4","3","4","4","2","3","4","3","4","4","3","2","2","1","0","1","1","0","0","0","1","0","1","-1","0","1","0","1","4","3","2","4","3","2","3","4","3","3","682910925522468864","颜","","","","","","","","","","","","","","","","","","","true","13","3","moral","917","negative","小人","","","","","","","","","","","","","","",""
"null","","null","html-keyboard-response","71","190214","0.0-6.0-1.0-6.0-0.6","3","2","3","3","3","3","3","3","4","4","4","3","4","3","4","3","4","3","4","4","2","3","4","3","4","4","3","2","2","1","0","1","1","0","0","0","1","0","1","-1","0","1","0","1","4","3","2","4","3","2","3","4","3","3","682910925522468864","颜","","","","","","","","","","","","","","","","","","","","","","","","","","","","","","","","","","","","","","","",""
"692","<p style=""color:rgb(150, 250, 100); font-size: 35px;"">我的</p>","e","categorize-html","72","190906","0.0-6.0-1.0-6.0-1.6","3","2","3","3","3","3","3","3","4","4","4","3","4","3","4","3","4","3","4","4","2","3","4","3","4","4","3","2","2","1","0","1","1","0","0","0","1","0","1","-1","0","1","0","1","4","3","2","4","3","2","3","4","3","3","682910925522468864","颜","","","","","","","","","","","","","","","","","","","true","13","3","moral","692","self","我的","","","","","","","","","","","","","","",""
"null","","null","html-keyboard-response","73","191157","0.0-6.0-1.0-6.0-0.7","3","2","3","3","3","3","3","3","4","4","4","3","4","3","4","3","4","3","4","4","2","3","4","3","4","4","3","2","2","1","0","1","1","0","0","0","1","0","1","-1","0","1","0","1","4","3","2","4","3","2","3","4","3","3","682910925522468864","颜","","","","","","","","","","","","","","","","","","","","","","","","","","","","","","","","","","","","","","","",""
"429","<p style=""color:white; font-size: 35px;"">高尚</p>","e","categorize-html","74","191587","0.0-6.0-1.0-6.0-1.7","3","2","3","3","3","3","3","3","4","4","4","3","4","3","4","3","4","3","4","4","2","3","4","3","4","4","3","2","2","1","0","1","1","0","0","0","1","0","1","-1","0","1","0","1","4","3","2","4","3","2","3","4","3","3","682910925522468864","颜","","","","","","","","","","","","","","","","","","","true","13","3","moral","429","positive","高尚","","","","","","","","","","","","","","",""
"null","","null","html-keyboard-response","75","191838","0.0-6.0-1.0-6.0-0.8","3","2","3","3","3","3","3","3","4","4","4","3","4","3","4","3","4","3","4","4","2","3","4","3","4","4","3","2","2","1","0","1","1","0","0","0","1","0","1","-1","0","1","0","1","4","3","2","4","3","2","3","4","3","3","682910925522468864","颜","","","","","","","","","","","","","","","","","","","","","","","","","","","","","","","","","","","","","","","",""
"540","<p style=""color:rgb(150, 250, 100); font-size: 35px;"">别人</p>","i","categorize-html","76","192375","0.0-6.0-1.0-6.0-1.8","3","2","3","3","3","3","3","3","4","4","4","3","4","3","4","3","4","3","4","4","2","3","4","3","4","4","3","2","2","1","0","1","1","0","0","0","1","0","1","-1","0","1","0","1","4","3","2","4","3","2","3","4","3","3","682910925522468864","颜","","","","","","","","","","","","","","","","","","","true","13","3","moral","540","other","别人","","","","","","","","","","","","","","",""
"null","","null","html-keyboard-response","77","192626","0.0-6.0-1.0-6.0-0.9","3","2","3","3","3","3","3","3","4","4","4","3","4","3","4","3","4","3","4","4","2","3","4","3","4","4","3","2","2","1","0","1","1","0","0","0","1","0","1","-1","0","1","0","1","4","3","2","4","3","2","3","4","3","3","682910925522468864","颜","","","","","","","","","","","","","","","","","","","","","","","","","","","","","","","","","","","","","","","",""
"596","<p style=""color:white; font-size: 35px;"">君子</p>","e","categorize-html","78","193223","0.0-6.0-1.0-6.0-1.9","3","2","3","3","3","3","3","3","4","4","4","3","4","3","4","3","4","3","4","4","2","3","4","3","4","4","3","2","2","1","0","1","1","0","0","0","1","0","1","-1","0","1","0","1","4","3","2","4","3","2","3","4","3","3","682910925522468864","颜","","","","","","","","","","","","","","","","","","","true","13","3","moral","596","positive","君子","","","","","","","","","","","","","","",""
"null","","null","html-keyboard-response","79","193473","0.0-6.0-1.0-6.0-0.10","3","2","3","3","3","3","3","3","4","4","4","3","4","3","4","3","4","3","4","4","2","3","4","3","4","4","3","2","2","1","0","1","1","0","0","0","1","0","1","-1","0","1","0","1","4","3","2","4","3","2","3","4","3","3","682910925522468864","颜","","","","","","","","","","","","","","","","","","","","","","","","","","","","","","","","","","","","","","","",""
"461","<p style=""color:rgb(150, 250, 100); font-size: 35px;"">自己</p>","e","categorize-html","80","193935","0.0-6.0-1.0-6.0-1.10","3","2","3","3","3","3","3","3","4","4","4","3","4","3","4","3","4","3","4","4","2","3","4","3","4","4","3","2","2","1","0","1","1","0","0","0","1","0","1","-1","0","1","0","1","4","3","2","4","3","2","3","4","3","3","682910925522468864","颜","","","","","","","","","","","","","","","","","","","true","13","3","moral","461","self","自己","","","","","","","","","","","","","","",""
"null","","null","html-keyboard-response","81","194187","0.0-6.0-1.0-6.0-0.11","3","2","3","3","3","3","3","3","4","4","4","3","4","3","4","3","4","3","4","4","2","3","4","3","4","4","3","2","2","1","0","1","1","0","0","0","1","0","1","-1","0","1","0","1","4","3","2","4","3","2","3","4","3","3","682910925522468864","颜","","","","","","","","","","","","","","","","","","","","","","","","","","","","","","","","","","","","","","","",""
"468","<p style=""color:white; font-size: 35px;"">黑心</p>","i","categorize-html","82","194655","0.0-6.0-1.0-6.0-1.11","3","2","3","3","3","3","3","3","4","4","4","3","4","3","4","3","4","3","4","4","2","3","4","3","4","4","3","2","2","1","0","1","1","0","0","0","1","0","1","-1","0","1","0","1","4","3","2","4","3","2","3","4","3","3","682910925522468864","颜","","","","","","","","","","","","","","","","","","","true","13","3","moral","468","negative","黑心","","","","","","","","","","","","","","",""
"null","","null","html-keyboard-response","83","194914","0.0-6.0-1.0-6.0-0.12","3","2","3","3","3","3","3","3","4","4","4","3","4","3","4","3","4","3","4","4","2","3","4","3","4","4","3","2","2","1","0","1","1","0","0","0","1","0","1","-1","0","1","0","1","4","3","2","4","3","2","3","4","3","3","682910925522468864","颜","","","","","","","","","","","","","","","","","","","","","","","","","","","","","","","","","","","","","","","",""
"484","<p style=""color:rgb(150, 250, 100); font-size: 35px;"">本人</p>","e","categorize-html","84","195399","0.0-6.0-1.0-6.0-1.12","3","2","3","3","3","3","3","3","4","4","4","3","4","3","4","3","4","3","4","4","2","3","4","3","4","4","3","2","2","1","0","1","1","0","0","0","1","0","1","-1","0","1","0","1","4","3","2","4","3","2","3","4","3","3","682910925522468864","颜","","","","","","","","","","","","","","","","","","","true","13","3","moral","484","self","本人","","","","","","","","","","","","","","",""
"null","","null","html-keyboard-response","85","195650","0.0-6.0-1.0-6.0-0.13","3","2","3","3","3","3","3","3","4","4","4","3","4","3","4","3","4","3","4","4","2","3","4","3","4","4","3","2","2","1","0","1","1","0","0","0","1","0","1","-1","0","1","0","1","4","3","2","4","3","2","3","4","3","3","682910925522468864","颜","","","","","","","","","","","","","","","","","","","","","","","","","","","","","","","","","","","","","","","",""
"660","<p style=""color:white; font-size: 35px;"">卑鄙</p>","i","categorize-html","86","196311","0.0-6.0-1.0-6.0-1.13","3","2","3","3","3","3","3","3","4","4","4","3","4","3","4","3","4","3","4","4","2","3","4","3","4","4","3","2","2","1","0","1","1","0","0","0","1","0","1","-1","0","1","0","1","4","3","2","4","3","2","3","4","3","3","682910925522468864","颜","","","","","","","","","","","","","","","","","","","true","13","3","moral","660","negative","卑鄙","","","","","","","","","","","","","","",""
"null","","null","html-keyboard-response","87","196562","0.0-6.0-1.0-6.0-0.14","3","2","3","3","3","3","3","3","4","4","4","3","4","3","4","3","4","3","4","4","2","3","4","3","4","4","3","2","2","1","0","1","1","0","0","0","1","0","1","-1","0","1","0","1","4","3","2","4","3","2","3","4","3","3","682910925522468864","颜","","","","","","","","","","","","","","","","","","","","","","","","","","","","","","","","","","","","","","","",""
"796","<p style=""color:rgb(150, 250, 100); font-size: 35px;"">他的</p>","i","categorize-html","88","197359","0.0-6.0-1.0-6.0-1.14","3","2","3","3","3","3","3","3","4","4","4","3","4","3","4","3","4","3","4","4","2","3","4","3","4","4","3","2","2","1","0","1","1","0","0","0","1","0","1","-1","0","1","0","1","4","3","2","4","3","2","3","4","3","3","682910925522468864","颜","","","","","","","","","","","","","","","","","","","true","13","3","moral","796","other","他的","","","","","","","","","","","","","","",""
"null","","null","html-keyboard-response","89","197610","0.0-6.0-1.0-6.0-0.15","3","2","3","3","3","3","3","3","4","4","4","3","4","3","4","3","4","3","4","4","2","3","4","3","4","4","3","2","2","1","0","1","1","0","0","0","1","0","1","-1","0","1","0","1","4","3","2","4","3","2","3","4","3","3","682910925522468864","颜","","","","","","","","","","","","","","","","","","","","","","","","","","","","","","","","","","","","","","","",""
"508","<p style=""color:white; font-size: 35px;"">正直</p>","i","categorize-html","90","198575","0.0-6.0-1.0-6.0-1.15","3","2","3","3","3","3","3","3","4","4","4","3","4","3","4","3","4","3","4","4","2","3","4","3","4","4","3","2","2","1","0","1","1","0","0","0","1","0","1","-1","0","1","0","1","4","3","2","4","3","2","3","4","3","3","682910925522468864","颜","","","","","","","","","","","","","","","","","","","false","13","3","moral","1259.047619047619","positive","正直","","","","","","","","","","","","","","",""
"null","","null","html-keyboard-response","91","198826","0.0-6.0-1.0-6.0-0.16","3","2","3","3","3","3","3","3","4","4","4","3","4","3","4","3","4","3","4","4","2","3","4","3","4","4","3","2","2","1","0","1","1","0","0","0","1","0","1","-1","0","1","0","1","4","3","2","4","3","2","3","4","3","3","682910925522468864","颜","","","","","","","","","","","","","","","","","","","","","","","","","","","","","","","","","","","","","","","",""
"717","<p style=""color:rgb(150, 250, 100); font-size: 35px;"">别人的</p>","i","categorize-html","92","199543","0.0-6.0-1.0-6.0-1.16","3","2","3","3","3","3","3","3","4","4","4","3","4","3","4","3","4","3","4","4","2","3","4","3","4","4","3","2","2","1","0","1","1","0","0","0","1","0","1","-1","0","1","0","1","4","3","2","4","3","2","3","4","3","3","682910925522468864","颜","","","","","","","","","","","","","","","","","","","true","13","3","moral","717","other","别人的","","","","","","","","","","","","","","",""
"null","","null","html-keyboard-response","93","199794","0.0-6.0-1.0-6.0-0.17","3","2","3","3","3","3","3","3","4","4","4","3","4","3","4","3","4","3","4","4","2","3","4","3","4","4","3","2","2","1","0","1","1","0","0","0","1","0","1","-1","0","1","0","1","4","3","2","4","3","2","3","4","3","3","682910925522468864","颜","","","","","","","","","","","","","","","","","","","","","","","","","","","","","","","","","","","","","","","",""
"500","<p style=""color:white; font-size: 35px;"">廉正</p>","e","categorize-html","94","200295","0.0-6.0-1.0-6.0-1.17","3","2","3","3","3","3","3","3","4","4","4","3","4","3","4","3","4","3","4","4","2","3","4","3","4","4","3","2","2","1","0","1","1","0","0","0","1","0","1","-1","0","1","0","1","4","3","2","4","3","2","3","4","3","3","682910925522468864","颜","","","","","","","","","","","","","","","","","","","true","13","3","moral","500","positive","廉正","","","","","","","","","","","","","","",""
"null","","null","html-keyboard-response","95","200545","0.0-6.0-1.0-6.0-0.18","3","2","3","3","3","3","3","3","4","4","4","3","4","3","4","3","4","3","4","4","2","3","4","3","4","4","3","2","2","1","0","1","1","0","0","0","1","0","1","-1","0","1","0","1","4","3","2","4","3","2","3","4","3","3","682910925522468864","颜","","","","","","","","","","","","","","","","","","","","","","","","","","","","","","","","","","","","","","","",""
"677","<p style=""color:rgb(150, 250, 100); font-size: 35px;"">本人的</p>","e","categorize-html","96","201223","0.0-6.0-1.0-6.0-1.18","3","2","3","3","3","3","3","3","4","4","4","3","4","3","4","3","4","3","4","4","2","3","4","3","4","4","3","2","2","1","0","1","1","0","0","0","1","0","1","-1","0","1","0","1","4","3","2","4","3","2","3","4","3","3","682910925522468864","颜","","","","","","","","","","","","","","","","","","","true","13","3","moral","677","self","本人的","","","","","","","","","","","","","","",""
"null","","null","html-keyboard-response","97","201473","0.0-6.0-1.0-6.0-0.19","3","2","3","3","3","3","3","3","4","4","4","3","4","3","4","3","4","3","4","4","2","3","4","3","4","4","3","2","2","1","0","1","1","0","0","0","1","0","1","-1","0","1","0","1","4","3","2","4","3","2","3","4","3","3","682910925522468864","颜","","","","","","","","","","","","","","","","","","","","","","","","","","","","","","","","","","","","","","","",""
"1453","<p style=""color:white; font-size: 35px;"">缺德</p>","i","categorize-html","98","202927","0.0-6.0-1.0-6.0-1.19","3","2","3","3","3","3","3","3","4","4","4","3","4","3","4","3","4","3","4","4","2","3","4","3","4","4","3","2","2","1","0","1","1","0","0","0","1","0","1","-1","0","1","0","1","4","3","2","4","3","2","3","4","3","3","682910925522468864","颜","","","","","","","","","","","","","","","","","","","true","13","3","moral","1453","negative","缺德","","","","","","","","","","","","","","",""
"null","","null","html-keyboard-response","99","203177","0.0-6.0-1.0-6.0-0.20","3","2","3","3","3","3","3","3","4","4","4","3","4","3","4","3","4","3","4","4","2","3","4","3","4","4","3","2","2","1","0","1","1","0","0","0","1","0","1","-1","0","1","0","1","4","3","2","4","3","2","3","4","3","3","682910925522468864","颜","","","","","","","","","","","","","","","","","","","","","","","","","","","","","","","","","","","","","","","",""
"429","<p style=""color:rgb(150, 250, 100); font-size: 35px;"">自己的</p>","e","categorize-html","100","203607","0.0-6.0-1.0-6.0-1.20","3","2","3","3","3","3","3","3","4","4","4","3","4","3","4","3","4","3","4","4","2","3","4","3","4","4","3","2","2","1","0","1","1","0","0","0","1","0","1","-1","0","1","0","1","4","3","2","4","3","2","3","4","3","3","682910925522468864","颜","","","","","","","","","","","","","","","","","","","true","13","3","moral","429","self","自己的","","","","","","","","","","","","","","",""
"null","","null","html-keyboard-response","101","203859","0.0-6.0-1.0-6.0-0.21","3","2","3","3","3","3","3","3","4","4","4","3","4","3","4","3","4","3","4","4","2","3","4","3","4","4","3","2","2","1","0","1","1","0","0","0","1","0","1","-1","0","1","0","1","4","3","2","4","3","2","3","4","3","3","682910925522468864","颜","","","","","","","","","","","","","","","","","","","","","","","","","","","","","","","","","","","","","","","",""
"651","<p style=""color:white; font-size: 35px;"">不仁</p>","i","categorize-html","102","204511","0.0-6.0-1.0-6.0-1.21","3","2","3","3","3","3","3","3","4","4","4","3","4","3","4","3","4","3","4","4","2","3","4","3","4","4","3","2","2","1","0","1","1","0","0","0","1","0","1","-1","0","1","0","1","4","3","2","4","3","2","3","4","3","3","682910925522468864","颜","","","","","","","","","","","","","","","","","","","true","13","3","moral","651","negative","不仁","","","","","","","","","","","","","","",""
"null","","null","html-keyboard-response","103","204762","0.0-6.0-1.0-6.0-0.22","3","2","3","3","3","3","3","3","4","4","4","3","4","3","4","3","4","3","4","4","2","3","4","3","4","4","3","2","2","1","0","1","1","0","0","0","1","0","1","-1","0","1","0","1","4","3","2","4","3","2","3","4","3","3","682910925522468864","颜","","","","","","","","","","","","","","","","","","","","","","","","","","","","","","","","","","","","","","","",""
"476","<p style=""color:rgb(150, 250, 100); font-size: 35px;"">他</p>","e","categorize-html","104","205799","0.0-6.0-1.0-6.0-1.22","3","2","3","3","3","3","3","3","4","4","4","3","4","3","4","3","4","3","4","4","2","3","4","3","4","4","3","2","2","1","0","1","1","0","0","0","1","0","1","-1","0","1","0","1","4","3","2","4","3","2","3","4","3","3","682910925522468864","颜","","","","","","","","","","","","","","","","","","","false","13","3","moral","1259.047619047619","other","他","","","","","","","","","","","","","","",""
"null","","null","html-keyboard-response","105","206062","0.0-6.0-1.0-6.0-0.23","3","2","3","3","3","3","3","3","4","4","4","3","4","3","4","3","4","3","4","4","2","3","4","3","4","4","3","2","2","1","0","1","1","0","0","0","1","0","1","-1","0","1","0","1","4","3","2","4","3","2","3","4","3","3","682910925522468864","颜","","","","","","","","","","","","","","","","","","","","","","","","","","","","","","","","","","","","","","","",""
"480","<p style=""color:white; font-size: 35px;"">诚信</p>","e","categorize-html","106","206543","0.0-6.0-1.0-6.0-1.23","3","2","3","3","3","3","3","3","4","4","4","3","4","3","4","3","4","3","4","4","2","3","4","3","4","4","3","2","2","1","0","1","1","0","0","0","1","0","1","-1","0","1","0","1","4","3","2","4","3","2","3","4","3","3","682910925522468864","颜","","","","","","","","","","","","","","","","","","","true","13","3","moral","480","positive","诚信","","","","","","","","","","","","","","",""
"15048","
    <div class=""tag-bottom""><p>
    ―― 任务4：对“自我/积极”词和“他人/消极”词分类 ――<p/>
    <span style=""color:#78DCE8""><b>与刚才的任务完全相同，请再次对这四类词语分类</b></span><p/>
    <span style=""color:#FFD866""><b>请根据上方标签的提示，尽可能正确并且快速地做出按键反应</b></span><p/>
    当按键错误时屏幕中会出现<span style=""color:red""> X </span>，需要按另一个键纠正才能继续<br/><p/>
    请把双手食指分别放在键盘的“E”键和“I”键上<p/>
    按<空格键>开始
    </p></div>"," ","html-keyboard-response","107","221591","0.0-6.0-1.0-7.0","3","2","3","3","3","3","3","3","4","4","4","3","4","3","4","3","4","3","4","4","2","3","4","3","4","4","3","2","2","1","0","1","1","0","0","0","1","0","1","-1","0","1","0","1","4","3","2","4","3","2","3","4","3","3","682910925522468864","颜","","","","","","","","","","","","","","","","","","","","","","","","","","","","","","","","","","","","","","","",""
"null","","null","html-keyboard-response","108","221843","0.0-6.0-1.0-8.0-0.0","3","2","3","3","3","3","3","3","4","4","4","3","4","3","4","3","4","3","4","4","2","3","4","3","4","4","3","2","2","1","0","1","1","0","0","0","1","0","1","-1","0","1","0","1","4","3","2","4","3","2","3","4","3","3","682910925522468864","颜","","","","","","","","","","","","","","","","","","","","","","","","","","","","","","","","","","","","","","","",""
"587","<p style=""color:rgb(150, 250, 100); font-size: 35px;"">我的</p>","e","categorize-html","109","222431","0.0-6.0-1.0-8.0-1.0","3","2","3","3","3","3","3","3","4","4","4","3","4","3","4","3","4","3","4","4","2","3","4","3","4","4","3","2","2","1","0","1","1","0","0","0","1","0","1","-1","0","1","0","1","4","3","2","4","3","2","3","4","3","3","682910925522468864","颜","","","","","","","","","","","","","","","","","","","true","14","4","moral","587","self","我的","","","","","","","","","","","","","","",""
"null","","null","html-keyboard-response","110","222683","0.0-6.0-1.0-8.0-0.1","3","2","3","3","3","3","3","3","4","4","4","3","4","3","4","3","4","3","4","4","2","3","4","3","4","4","3","2","2","1","0","1","1","0","0","0","1","0","1","-1","0","1","0","1","4","3","2","4","3","2","3","4","3","3","682910925522468864","颜","","","","","","","","","","","","","","","","","","","","","","","","","","","","","","","","","","","","","","","",""
"491","<p style=""color:white; font-size: 35px;"">廉正</p>","e","categorize-html","111","223175","0.0-6.0-1.0-8.0-1.1","3","2","3","3","3","3","3","3","4","4","4","3","4","3","4","3","4","3","4","4","2","3","4","3","4","4","3","2","2","1","0","1","1","0","0","0","1","0","1","-1","0","1","0","1","4","3","2","4","3","2","3","4","3","3","682910925522468864","颜","","","","","","","","","","","","","","","","","","","true","14","4","moral","491","positive","廉正","","","","","","","","","","","","","","",""
"null","","null","html-keyboard-response","112","223425","0.0-6.0-1.0-8.0-0.2","3","2","3","3","3","3","3","3","4","4","4","3","4","3","4","3","4","3","4","4","2","3","4","3","4","4","3","2","2","1","0","1","1","0","0","0","1","0","1","-1","0","1","0","1","4","3","2","4","3","2","3","4","3","3","682910925522468864","颜","","","","","","","","","","","","","","","","","","","","","","","","","","","","","","","","","","","","","","","",""
"549","<p style=""color:rgb(150, 250, 100); font-size: 35px;"">他人</p>","i","categorize-html","113","223975","0.0-6.0-1.0-8.0-1.2","3","2","3","3","3","3","3","3","4","4","4","3","4","3","4","3","4","3","4","4","2","3","4","3","4","4","3","2","2","1","0","1","1","0","0","0","1","0","1","-1","0","1","0","1","4","3","2","4","3","2","3","4","3","3","682910925522468864","颜","","","","","","","","","","","","","","","","","","","true","14","4","moral","549","other","他人","","","","","","","","","","","","","","",""
"null","","null","html-keyboard-response","114","224225","0.0-6.0-1.0-8.0-0.3","3","2","3","3","3","3","3","3","4","4","4","3","4","3","4","3","4","3","4","4","2","3","4","3","4","4","3","2","2","1","0","1","1","0","0","0","1","0","1","-1","0","1","0","1","4","3","2","4","3","2","3","4","3","3","682910925522468864","颜","","","","","","","","","","","","","","","","","","","","","","","","","","","","","","","","","","","","","","","",""
"590","<p style=""color:white; font-size: 35px;"">不孝</p>","i","categorize-html","115","224816","0.0-6.0-1.0-8.0-1.3","3","2","3","3","3","3","3","3","4","4","4","3","4","3","4","3","4","3","4","4","2","3","4","3","4","4","3","2","2","1","0","1","1","0","0","0","1","0","1","-1","0","1","0","1","4","3","2","4","3","2","3","4","3","3","682910925522468864","颜","","","","","","","","","","","","","","","","","","","true","14","4","moral","590","negative","不孝","","","","","","","","","","","","","","",""
"null","","null","html-keyboard-response","116","225067","0.0-6.0-1.0-8.0-0.4","3","2","3","3","3","3","3","3","4","4","4","3","4","3","4","3","4","3","4","4","2","3","4","3","4","4","3","2","2","1","0","1","1","0","0","0","1","0","1","-1","0","1","0","1","4","3","2","4","3","2","3","4","3","3","682910925522468864","颜","","","","","","","","","","","","","","","","","","","","","","","","","","","","","","","","","","","","","","","",""
"498","<p style=""color:rgb(150, 250, 100); font-size: 35px;"">本人的</p>","e","categorize-html","117","225566","0.0-6.0-1.0-8.0-1.4","3","2","3","3","3","3","3","3","4","4","4","3","4","3","4","3","4","3","4","4","2","3","4","3","4","4","3","2","2","1","0","1","1","0","0","0","1","0","1","-1","0","1","0","1","4","3","2","4","3","2","3","4","3","3","682910925522468864","颜","","","","","","","","","","","","","","","","","","","true","14","4","moral","498","self","本人的","","","","","","","","","","","","","","",""
"null","","null","html-keyboard-response","118","225818","0.0-6.0-1.0-8.0-0.5","3","2","3","3","3","3","3","3","4","4","4","3","4","3","4","3","4","3","4","4","2","3","4","3","4","4","3","2","2","1","0","1","1","0","0","0","1","0","1","-1","0","1","0","1","4","3","2","4","3","2","3","4","3","3","682910925522468864","颜","","","","","","","","","","","","","","","","","","","","","","","","","","","","","","","","","","","","","","","",""
"524","<p style=""color:white; font-size: 35px;"">正直</p>","e","categorize-html","119","226343","0.0-6.0-1.0-8.0-1.5","3","2","3","3","3","3","3","3","4","4","4","3","4","3","4","3","4","3","4","4","2","3","4","3","4","4","3","2","2","1","0","1","1","0","0","0","1","0","1","-1","0","1","0","1","4","3","2","4","3","2","3","4","3","3","682910925522468864","颜","","","","","","","","","","","","","","","","","","","true","14","4","moral","524","positive","正直","","","","","","","","","","","","","","",""
"null","","null","html-keyboard-response","120","226603","0.0-6.0-1.0-8.0-0.6","3","2","3","3","3","3","3","3","4","4","4","3","4","3","4","3","4","3","4","4","2","3","4","3","4","4","3","2","2","1","0","1","1","0","0","0","1","0","1","-1","0","1","0","1","4","3","2","4","3","2","3","4","3","3","682910925522468864","颜","","","","","","","","","","","","","","","","","","","","","","","","","","","","","","","","","","","","","","","",""
"500","<p style=""color:rgb(150, 250, 100); font-size: 35px;"">他人的</p>","i","categorize-html","121","227103","0.0-6.0-1.0-8.0-1.6","3","2","3","3","3","3","3","3","4","4","4","3","4","3","4","3","4","3","4","4","2","3","4","3","4","4","3","2","2","1","0","1","1","0","0","0","1","0","1","-1","0","1","0","1","4","3","2","4","3","2","3","4","3","3","682910925522468864","颜","","","","","","","","","","","","","","","","","","","true","14","4","moral","500","other","他人的","","","","","","","","","","","","","","",""
"null","","null","html-keyboard-response","122","227354","0.0-6.0-1.0-8.0-0.7","3","2","3","3","3","3","3","3","4","4","4","3","4","3","4","3","4","3","4","4","2","3","4","3","4","4","3","2","2","1","0","1","1","0","0","0","1","0","1","-1","0","1","0","1","4","3","2","4","3","2","3","4","3","3","682910925522468864","颜","","","","","","","","","","","","","","","","","","","","","","","","","","","","","","","","","","","","","","","",""
"1092","<p style=""color:white; font-size: 35px;"">缺德</p>","i","categorize-html","123","228447","0.0-6.0-1.0-8.0-1.7","3","2","3","3","3","3","3","3","4","4","4","3","4","3","4","3","4","3","4","4","2","3","4","3","4","4","3","2","2","1","0","1","1","0","0","0","1","0","1","-1","0","1","0","1","4","3","2","4","3","2","3","4","3","3","682910925522468864","颜","","","","","","","","","","","","","","","","","","","true","14","4","moral","1092","negative","缺德","","","","","","","","","","","","","","",""
"null","","null","html-keyboard-response","124","228699","0.0-6.0-1.0-8.0-0.8","3","2","3","3","3","3","3","3","4","4","4","3","4","3","4","3","4","3","4","4","2","3","4","3","4","4","3","2","2","1","0","1","1","0","0","0","1","0","1","-1","0","1","0","1","4","3","2","4","3","2","3","4","3","3","682910925522468864","颜","","","","","","","","","","","","","","","","","","","","","","","","","","","","","","","","","","","","","","","",""
"443","<p style=""color:rgb(150, 250, 100); font-size: 35px;"">他</p>","e","categorize-html","125","229551","0.0-6.0-1.0-8.0-1.8","3","2","3","3","3","3","3","3","4","4","4","3","4","3","4","3","4","3","4","4","2","3","4","3","4","4","3","2","2","1","0","1","1","0","0","0","1","0","1","-1","0","1","0","1","4","3","2","4","3","2","3","4","3","3","682910925522468864","颜","","","","","","","","","","","","","","","","","","","false","14","4","moral","1210.0238095238096","other","他","","","","","","","","","","","","","","",""
"null","","null","html-keyboard-response","126","229802","0.0-6.0-1.0-8.0-0.9","3","2","3","3","3","3","3","3","4","4","4","3","4","3","4","3","4","3","4","4","2","3","4","3","4","4","3","2","2","1","0","1","1","0","0","0","1","0","1","-1","0","1","0","1","4","3","2","4","3","2","3","4","3","3","682910925522468864","颜","","","","","","","","","","","","","","","","","","","","","","","","","","","","","","","","","","","","","","","",""
"524","<p style=""color:white; font-size: 35px;"">不仁</p>","e","categorize-html","127","230663","0.0-6.0-1.0-8.0-1.9","3","2","3","3","3","3","3","3","4","4","4","3","4","3","4","3","4","3","4","4","2","3","4","3","4","4","3","2","2","1","0","1","1","0","0","0","1","0","1","-1","0","1","0","1","4","3","2","4","3","2","3","4","3","3","682910925522468864","颜","","","","","","","","","","","","","","","","","","","false","14","4","moral","1210.0238095238096","negative","不仁","","","","","","","","","","","","","","",""
"null","","null","html-keyboard-response","128","230913","0.0-6.0-1.0-8.0-0.10","3","2","3","3","3","3","3","3","4","4","4","3","4","3","4","3","4","3","4","4","2","3","4","3","4","4","3","2","2","1","0","1","1","0","0","0","1","0","1","-1","0","1","0","1","4","3","2","4","3","2","3","4","3","3","682910925522468864","颜","","","","","","","","","","","","","","","","","","","","","","","","","","","","","","","","","","","","","","","",""
"405","<p style=""color:rgb(150, 250, 100); font-size: 35px;"">自己的</p>","e","categorize-html","129","231318","0.0-6.0-1.0-8.0-1.10","3","2","3","3","3","3","3","3","4","4","4","3","4","3","4","3","4","3","4","4","2","3","4","3","4","4","3","2","2","1","0","1","1","0","0","0","1","0","1","-1","0","1","0","1","4","3","2","4","3","2","3","4","3","3","682910925522468864","颜","","","","","","","","","","","","","","","","","","","true","14","4","moral","405","self","自己的","","","","","","","","","","","","","","",""
"null","","null","html-keyboard-response","130","231570","0.0-6.0-1.0-8.0-0.11","3","2","3","3","3","3","3","3","4","4","4","3","4","3","4","3","4","3","4","4","2","3","4","3","4","4","3","2","2","1","0","1","1","0","0","0","1","0","1","-1","0","1","0","1","4","3","2","4","3","2","3","4","3","3","682910925522468864","颜","","","","","","","","","","","","","","","","","","","","","","","","","","","","","","","","","","","","","","","",""
"749","<p style=""color:white; font-size: 35px;"">高尚</p>","e","categorize-html","131","232320","0.0-6.0-1.0-8.0-1.11","3","2","3","3","3","3","3","3","4","4","4","3","4","3","4","3","4","3","4","4","2","3","4","3","4","4","3","2","2","1","0","1","1","0","0","0","1","0","1","-1","0","1","0","1","4","3","2","4","3","2","3","4","3","3","682910925522468864","颜","","","","","","","","","","","","","","","","","","","true","14","4","moral","749","positive","高尚","","","","","","","","","","","","","","",""
"null","","null","html-keyboard-response","132","232571","0.0-6.0-1.0-8.0-0.12","3","2","3","3","3","3","3","3","4","4","4","3","4","3","4","3","4","3","4","4","2","3","4","3","4","4","3","2","2","1","0","1","1","0","0","0","1","0","1","-1","0","1","0","1","4","3","2","4","3","2","3","4","3","3","682910925522468864","颜","","","","","","","","","","","","","","","","","","","","","","","","","","","","","","","","","","","","","","","",""
"411","<p style=""color:rgb(150, 250, 100); font-size: 35px;"">本人</p>","e","categorize-html","133","232983","0.0-6.0-1.0-8.0-1.12","3","2","3","3","3","3","3","3","4","4","4","3","4","3","4","3","4","3","4","4","2","3","4","3","4","4","3","2","2","1","0","1","1","0","0","0","1","0","1","-1","0","1","0","1","4","3","2","4","3","2","3","4","3","3","682910925522468864","颜","","","","","","","","","","","","","","","","","","","true","14","4","moral","411","self","本人","","","","","","","","","","","","","","",""
"null","","null","html-keyboard-response","134","233234","0.0-6.0-1.0-8.0-0.13","3","2","3","3","3","3","3","3","4","4","4","3","4","3","4","3","4","3","4","4","2","3","4","3","4","4","3","2","2","1","0","1","1","0","0","0","1","0","1","-1","0","1","0","1","4","3","2","4","3","2","3","4","3","3","682910925522468864","颜","","","","","","","","","","","","","","","","","","","","","","","","","","","","","","","","","","","","","","","",""
"516","<p style=""color:white; font-size: 35px;"">缺德</p>","i","categorize-html","135","233751","0.0-6.0-1.0-8.0-1.13","3","2","3","3","3","3","3","3","4","4","4","3","4","3","4","3","4","3","4","4","2","3","4","3","4","4","3","2","2","1","0","1","1","0","0","0","1","0","1","-1","0","1","0","1","4","3","2","4","3","2","3","4","3","3","682910925522468864","颜","","","","","","","","","","","","","","","","","","","true","14","4","moral","516","negative","缺德","","","","","","","","","","","","","","",""
"null","","null","html-keyboard-response","136","234003","0.0-6.0-1.0-8.0-0.14","3","2","3","3","3","3","3","3","4","4","4","3","4","3","4","3","4","3","4","4","2","3","4","3","4","4","3","2","2","1","0","1","1","0","0","0","1","0","1","-1","0","1","0","1","4","3","2","4","3","2","3","4","3","3","682910925522468864","颜","","","","","","","","","","","","","","","","","","","","","","","","","","","","","","","","","","","","","","","",""
"523","<p style=""color:rgb(150, 250, 100); font-size: 35px;"">别人</p>","e","categorize-html","137","234895","0.0-6.0-1.0-8.0-1.14","3","2","3","3","3","3","3","3","4","4","4","3","4","3","4","3","4","3","4","4","2","3","4","3","4","4","3","2","2","1","0","1","1","0","0","0","1","0","1","-1","0","1","0","1","4","3","2","4","3","2","3","4","3","3","682910925522468864","颜","","","","","","","","","","","","","","","","","","","false","14","4","moral","1210.0238095238096","other","别人","","","","","","","","","","","","","","",""
"null","","null","html-keyboard-response","138","235146","0.0-6.0-1.0-8.0-0.15","3","2","3","3","3","3","3","3","4","4","4","3","4","3","4","3","4","3","4","4","2","3","4","3","4","4","3","2","2","1","0","1","1","0","0","0","1","0","1","-1","0","1","0","1","4","3","2","4","3","2","3","4","3","3","682910925522468864","颜","","","","","","","","","","","","","","","","","","","","","","","","","","","","","","","","","","","","","","","",""
"483","<p style=""color:white; font-size: 35px;"">君子</p>","e","categorize-html","139","235630","0.0-6.0-1.0-8.0-1.15","3","2","3","3","3","3","3","3","4","4","4","3","4","3","4","3","4","3","4","4","2","3","4","3","4","4","3","2","2","1","0","1","1","0","0","0","1","0","1","-1","0","1","0","1","4","3","2","4","3","2","3","4","3","3","682910925522468864","颜","","","","","","","","","","","","","","","","","","","true","14","4","moral","483","positive","君子","","","","","","","","","","","","","","",""
"null","","null","html-keyboard-response","140","235882","0.0-6.0-1.0-8.0-0.16","3","2","3","3","3","3","3","3","4","4","4","3","4","3","4","3","4","3","4","4","2","3","4","3","4","4","3","2","2","1","0","1","1","0","0","0","1","0","1","-1","0","1","0","1","4","3","2","4","3","2","3","4","3","3","682910925522468864","颜","","","","","","","","","","","","","","","","","","","","","","","","","","","","","","","","","","","","","","","",""
"461","<p style=""color:rgb(150, 250, 100); font-size: 35px;"">别人的</p>","i","categorize-html","141","236343","0.0-6.0-1.0-8.0-1.16","3","2","3","3","3","3","3","3","4","4","4","3","4","3","4","3","4","3","4","4","2","3","4","3","4","4","3","2","2","1","0","1","1","0","0","0","1","0","1","-1","0","1","0","1","4","3","2","4","3","2","3","4","3","3","682910925522468864","颜","","","","","","","","","","","","","","","","","","","true","14","4","moral","461","other","别人的","","","","","","","","","","","","","","",""
"null","","null","html-keyboard-response","142","236595","0.0-6.0-1.0-8.0-0.17","3","2","3","3","3","3","3","3","4","4","4","3","4","3","4","3","4","3","4","4","2","3","4","3","4","4","3","2","2","1","0","1","1","0","0","0","1","0","1","-1","0","1","0","1","4","3","2","4","3","2","3","4","3","3","682910925522468864","颜","","","","","","","","","","","","","","","","","","","","","","","","","","","","","","","","","","","","","","","",""
"547","<p style=""color:white; font-size: 35px;"">正直</p>","e","categorize-html","143","237143","0.0-6.0-1.0-8.0-1.17","3","2","3","3","3","3","3","3","4","4","4","3","4","3","4","3","4","3","4","4","2","3","4","3","4","4","3","2","2","1","0","1","1","0","0","0","1","0","1","-1","0","1","0","1","4","3","2","4","3","2","3","4","3","3","682910925522468864","颜","","","","","","","","","","","","","","","","","","","true","14","4","moral","547","positive","正直","","","","","","","","","","","","","","",""
"null","","null","html-keyboard-response","144","237394","0.0-6.0-1.0-8.0-0.18","3","2","3","3","3","3","3","3","4","4","4","3","4","3","4","3","4","3","4","4","2","3","4","3","4","4","3","2","2","1","0","1","1","0","0","0","1","0","1","-1","0","1","0","1","4","3","2","4","3","2","3","4","3","3","682910925522468864","颜","","","","","","","","","","","","","","","","","","","","","","","","","","","","","","","","","","","","","","","",""
"564","<p style=""color:rgb(150, 250, 100); font-size: 35px;"">本人</p>","e","categorize-html","145","237959","0.0-6.0-1.0-8.0-1.18","3","2","3","3","3","3","3","3","4","4","4","3","4","3","4","3","4","3","4","4","2","3","4","3","4","4","3","2","2","1","0","1","1","0","0","0","1","0","1","-1","0","1","0","1","4","3","2","4","3","2","3","4","3","3","682910925522468864","颜","","","","","","","","","","","","","","","","","","","true","14","4","moral","564","self","本人","","","","","","","","","","","","","","",""
"null","","null","html-keyboard-response","146","238216","0.0-6.0-1.0-8.0-0.19","3","2","3","3","3","3","3","3","4","4","4","3","4","3","4","3","4","3","4","4","2","3","4","3","4","4","3","2","2","1","0","1","1","0","0","0","1","0","1","-1","0","1","0","1","4","3","2","4","3","2","3","4","3","3","682910925522468864","颜","","","","","","","","","","","","","","","","","","","","","","","","","","","","","","","","","","","","","","","",""
"630","<p style=""color:white; font-size: 35px;"">不仁</p>","i","categorize-html","147","238847","0.0-6.0-1.0-8.0-1.19","3","2","3","3","3","3","3","3","4","4","4","3","4","3","4","3","4","3","4","4","2","3","4","3","4","4","3","2","2","1","0","1","1","0","0","0","1","0","1","-1","0","1","0","1","4","3","2","4","3","2","3","4","3","3","682910925522468864","颜","","","","","","","","","","","","","","","","","","","true","14","4","moral","630","negative","不仁","","","","","","","","","","","","","","",""
"null","","null","html-keyboard-response","148","239097","0.0-6.0-1.0-8.0-0.20","3","2","3","3","3","3","3","3","4","4","4","3","4","3","4","3","4","3","4","4","2","3","4","3","4","4","3","2","2","1","0","1","1","0","0","0","1","0","1","-1","0","1","0","1","4","3","2","4","3","2","3","4","3","3","682910925522468864","颜","","","","","","","","","","","","","","","","","","","","","","","","","","","","","","","","","","","","","","","",""
"540","<p style=""color:rgb(150, 250, 100); font-size: 35px;"">我的</p>","e","categorize-html","149","239639","0.0-6.0-1.0-8.0-1.20","3","2","3","3","3","3","3","3","4","4","4","3","4","3","4","3","4","3","4","4","2","3","4","3","4","4","3","2","2","1","0","1","1","0","0","0","1","0","1","-1","0","1","0","1","4","3","2","4","3","2","3","4","3","3","682910925522468864","颜","","","","","","","","","","","","","","","","","","","true","14","4","moral","540","self","我的","","","","","","","","","","","","","","",""
"null","","null","html-keyboard-response","150","239889","0.0-6.0-1.0-8.0-0.21","3","2","3","3","3","3","3","3","4","4","4","3","4","3","4","3","4","3","4","4","2","3","4","3","4","4","3","2","2","1","0","1","1","0","0","0","1","0","1","-1","0","1","0","1","4","3","2","4","3","2","3","4","3","3","682910925522468864","颜","","","","","","","","","","","","","","","","","","","","","","","","","","","","","","","","","","","","","","","",""
"572","<p style=""color:white; font-size: 35px;"">黑心</p>","i","categorize-html","151","240462","0.0-6.0-1.0-8.0-1.21","3","2","3","3","3","3","3","3","4","4","4","3","4","3","4","3","4","3","4","4","2","3","4","3","4","4","3","2","2","1","0","1","1","0","0","0","1","0","1","-1","0","1","0","1","4","3","2","4","3","2","3","4","3","3","682910925522468864","颜","","","","","","","","","","","","","","","","","","","true","14","4","moral","572","negative","黑心","","","","","","","","","","","","","","",""
"null","","null","html-keyboard-response","152","240713","0.0-6.0-1.0-8.0-0.22","3","2","3","3","3","3","3","3","4","4","4","3","4","3","4","3","4","3","4","4","2","3","4","3","4","4","3","2","2","1","0","1","1","0","0","0","1","0","1","-1","0","1","0","1","4","3","2","4","3","2","3","4","3","3","682910925522468864","颜","","","","","","","","","","","","","","","","","","","","","","","","","","","","","","","","","","","","","","","",""
"852","<p style=""color:rgb(150, 250, 100); font-size: 35px;"">他的</p>","i","categorize-html","153","241566","0.0-6.0-1.0-8.0-1.22","3","2","3","3","3","3","3","3","4","4","4","3","4","3","4","3","4","3","4","4","2","3","4","3","4","4","3","2","2","1","0","1","1","0","0","0","1","0","1","-1","0","1","0","1","4","3","2","4","3","2","3","4","3","3","682910925522468864","颜","","","","","","","","","","","","","","","","","","","true","14","4","moral","852","other","他的","","","","","","","","","","","","","","",""
"null","","null","html-keyboard-response","154","241817","0.0-6.0-1.0-8.0-0.23","3","2","3","3","3","3","3","3","4","4","4","3","4","3","4","3","4","3","4","4","2","3","4","3","4","4","3","2","2","1","0","1","1","0","0","0","1","0","1","-1","0","1","0","1","4","3","2","4","3","2","3","4","3","3","682910925522468864","颜","","","","","","","","","","","","","","","","","","","","","","","","","","","","","","","","","","","","","","","",""
"493","<p style=""color:white; font-size: 35px;"">善良</p>","e","categorize-html","155","242311","0.0-6.0-1.0-8.0-1.23","3","2","3","3","3","3","3","3","4","4","4","3","4","3","4","3","4","3","4","4","2","3","4","3","4","4","3","2","2","1","0","1","1","0","0","0","1","0","1","-1","0","1","0","1","4","3","2","4","3","2","3","4","3","3","682910925522468864","颜","","","","","","","","","","","","","","","","","","","true","14","4","moral","493","positive","善良","","","","","","","","","","","","","","",""
"null","","null","html-keyboard-response","156","242562","0.0-6.0-1.0-8.0-0.24","3","2","3","3","3","3","3","3","4","4","4","3","4","3","4","3","4","3","4","4","2","3","4","3","4","4","3","2","2","1","0","1","1","0","0","0","1","0","1","-1","0","1","0","1","4","3","2","4","3","2","3","4","3","3","682910925522468864","颜","","","","","","","","","","","","","","","","","","","","","","","","","","","","","","","","","","","","","","","",""
"606","<p style=""color:rgb(150, 250, 100); font-size: 35px;"">他</p>","i","categorize-html","157","243168","0.0-6.0-1.0-8.0-1.24","3","2","3","3","3","3","3","3","4","4","4","3","4","3","4","3","4","3","4","4","2","3","4","3","4","4","3","2","2","1","0","1","1","0","0","0","1","0","1","-1","0","1","0","1","4","3","2","4","3","2","3","4","3","3","682910925522468864","颜","","","","","","","","","","","","","","","","","","","true","14","4","moral","606","other","他","","","","","","","","","","","","","","",""
"null","","null","html-keyboard-response","158","243419","0.0-6.0-1.0-8.0-0.25","3","2","3","3","3","3","3","3","4","4","4","3","4","3","4","3","4","3","4","4","2","3","4","3","4","4","3","2","2","1","0","1","1","0","0","0","1","0","1","-1","0","1","0","1","4","3","2","4","3","2","3","4","3","3","682910925522468864","颜","","","","","","","","","","","","","","","","","","","","","","","","","","","","","","","","","","","","","","","",""
"579","<p style=""color:white; font-size: 35px;"">善良</p>","e","categorize-html","159","243999","0.0-6.0-1.0-8.0-1.25","3","2","3","3","3","3","3","3","4","4","4","3","4","3","4","3","4","3","4","4","2","3","4","3","4","4","3","2","2","1","0","1","1","0","0","0","1","0","1","-1","0","1","0","1","4","3","2","4","3","2","3","4","3","3","682910925522468864","颜","","","","","","","","","","","","","","","","","","","true","14","4","moral","579","positive","善良","","","","","","","","","","","","","","",""
"null","","null","html-keyboard-response","160","244251","0.0-6.0-1.0-8.0-0.26","3","2","3","3","3","3","3","3","4","4","4","3","4","3","4","3","4","3","4","4","2","3","4","3","4","4","3","2","2","1","0","1","1","0","0","0","1","0","1","-1","0","1","0","1","4","3","2","4","3","2","3","4","3","3","682910925522468864","颜","","","","","","","","","","","","","","","","","","","","","","","","","","","","","","","","","","","","","","","",""
"740","<p style=""color:rgb(150, 250, 100); font-size: 35px;"">我</p>","e","categorize-html","161","244991","0.0-6.0-1.0-8.0-1.26","3","2","3","3","3","3","3","3","4","4","4","3","4","3","4","3","4","3","4","4","2","3","4","3","4","4","3","2","2","1","0","1","1","0","0","0","1","0","1","-1","0","1","0","1","4","3","2","4","3","2","3","4","3","3","682910925522468864","颜","","","","","","","","","","","","","","","","","","","true","14","4","moral","740","self","我","","","","","","","","","","","","","","",""
"null","","null","html-keyboard-response","162","245242","0.0-6.0-1.0-8.0-0.27","3","2","3","3","3","3","3","3","4","4","4","3","4","3","4","3","4","3","4","4","2","3","4","3","4","4","3","2","2","1","0","1","1","0","0","0","1","0","1","-1","0","1","0","1","4","3","2","4","3","2","3","4","3","3","682910925522468864","颜","","","","","","","","","","","","","","","","","","","","","","","","","","","","","","","","","","","","","","","",""
"2204","<p style=""color:white; font-size: 35px;"">黑心</p>","i","categorize-html","163","247447","0.0-6.0-1.0-8.0-1.27","3","2","3","3","3","3","3","3","4","4","4","3","4","3","4","3","4","3","4","4","2","3","4","3","4","4","3","2","2","1","0","1","1","0","0","0","1","0","1","-1","0","1","0","1","4","3","2","4","3","2","3","4","3","3","682910925522468864","颜","","","","","","","","","","","","","","","","","","","true","14","4","moral","2204","negative","黑心","","","","","","","","","","","","","","",""
"null","","null","html-keyboard-response","164","247698","0.0-6.0-1.0-8.0-0.28","3","2","3","3","3","3","3","3","4","4","4","3","4","3","4","3","4","3","4","4","2","3","4","3","4","4","3","2","2","1","0","1","1","0","0","0","1","0","1","-1","0","1","0","1","4","3","2","4","3","2","3","4","3","3","682910925522468864","颜","","","","","","","","","","","","","","","","","","","","","","","","","","","","","","","","","","","","","","","",""
"1060","<p style=""color:rgb(150, 250, 100); font-size: 35px;"">他的</p>","i","categorize-html","165","248759","0.0-6.0-1.0-8.0-1.28","3","2","3","3","3","3","3","3","4","4","4","3","4","3","4","3","4","3","4","4","2","3","4","3","4","4","3","2","2","1","0","1","1","0","0","0","1","0","1","-1","0","1","0","1","4","3","2","4","3","2","3","4","3","3","682910925522468864","颜","","","","","","","","","","","","","","","","","","","true","14","4","moral","1060","other","他的","","","","","","","","","","","","","","",""
"null","","null","html-keyboard-response","166","249010","0.0-6.0-1.0-8.0-0.29","3","2","3","3","3","3","3","3","4","4","4","3","4","3","4","3","4","3","4","4","2","3","4","3","4","4","3","2","2","1","0","1","1","0","0","0","1","0","1","-1","0","1","0","1","4","3","2","4","3","2","3","4","3","3","682910925522468864","颜","","","","","","","","","","","","","","","","","","","","","","","","","","","","","","","","","","","","","","","",""
"508","<p style=""color:white; font-size: 35px;"">廉正</p>","e","categorize-html","167","249519","0.0-6.0-1.0-8.0-1.29","3","2","3","3","3","3","3","3","4","4","4","3","4","3","4","3","4","3","4","4","2","3","4","3","4","4","3","2","2","1","0","1","1","0","0","0","1","0","1","-1","0","1","0","1","4","3","2","4","3","2","3","4","3","3","682910925522468864","颜","","","","","","","","","","","","","","","","","","","true","14","4","moral","508","positive","廉正","","","","","","","","","","","","","","",""
"null","","null","html-keyboard-response","168","249770","0.0-6.0-1.0-8.0-0.30","3","2","3","3","3","3","3","3","4","4","4","3","4","3","4","3","4","3","4","4","2","3","4","3","4","4","3","2","2","1","0","1","1","0","0","0","1","0","1","-1","0","1","0","1","4","3","2","4","3","2","3","4","3","3","682910925522468864","颜","","","","","","","","","","","","","","","","","","","","","","","","","","","","","","","","","","","","","","","",""
"532","<p style=""color:rgb(150, 250, 100); font-size: 35px;"">自己</p>","e","categorize-html","169","250303","0.0-6.0-1.0-8.0-1.30","3","2","3","3","3","3","3","3","4","4","4","3","4","3","4","3","4","3","4","4","2","3","4","3","4","4","3","2","2","1","0","1","1","0","0","0","1","0","1","-1","0","1","0","1","4","3","2","4","3","2","3","4","3","3","682910925522468864","颜","","","","","","","","","","","","","","","","","","","true","14","4","moral","532","self","自己","","","","","","","","","","","","","","",""
"null","","null","html-keyboard-response","170","250565","0.0-6.0-1.0-8.0-0.31","3","2","3","3","3","3","3","3","4","4","4","3","4","3","4","3","4","3","4","4","2","3","4","3","4","4","3","2","2","1","0","1","1","0","0","0","1","0","1","-1","0","1","0","1","4","3","2","4","3","2","3","4","3","3","682910925522468864","颜","","","","","","","","","","","","","","","","","","","","","","","","","","","","","","","","","","","","","","","",""
"497","<p style=""color:white; font-size: 35px;"">不孝</p>","i","categorize-html","171","251062","0.0-6.0-1.0-8.0-1.31","3","2","3","3","3","3","3","3","4","4","4","3","4","3","4","3","4","3","4","4","2","3","4","3","4","4","3","2","2","1","0","1","1","0","0","0","1","0","1","-1","0","1","0","1","4","3","2","4","3","2","3","4","3","3","682910925522468864","颜","","","","","","","","","","","","","","","","","","","true","14","4","moral","497","negative","不孝","","","","","","","","","","","","","","",""
"null","","null","html-keyboard-response","172","251313","0.0-6.0-1.0-8.0-0.32","3","2","3","3","3","3","3","3","4","4","4","3","4","3","4","3","4","3","4","4","2","3","4","3","4","4","3","2","2","1","0","1","1","0","0","0","1","0","1","-1","0","1","0","1","4","3","2","4","3","2","3","4","3","3","682910925522468864","颜","","","","","","","","","","","","","","","","","","","","","","","","","","","","","","","","","","","","","","","",""
"565","<p style=""color:rgb(150, 250, 100); font-size: 35px;"">别人的</p>","i","categorize-html","173","251879","0.0-6.0-1.0-8.0-1.32","3","2","3","3","3","3","3","3","4","4","4","3","4","3","4","3","4","3","4","4","2","3","4","3","4","4","3","2","2","1","0","1","1","0","0","0","1","0","1","-1","0","1","0","1","4","3","2","4","3","2","3","4","3","3","682910925522468864","颜","","","","","","","","","","","","","","","","","","","true","14","4","moral","565","other","别人的","","","","","","","","","","","","","","",""
"null","","null","html-keyboard-response","174","252128","0.0-6.0-1.0-8.0-0.33","3","2","3","3","3","3","3","3","4","4","4","3","4","3","4","3","4","3","4","4","2","3","4","3","4","4","3","2","2","1","0","1","1","0","0","0","1","0","1","-1","0","1","0","1","4","3","2","4","3","2","3","4","3","3","682910925522468864","颜","","","","","","","","","","","","","","","","","","","","","","","","","","","","","","","","","","","","","","","",""
"467","<p style=""color:white; font-size: 35px;"">诚信</p>","e","categorize-html","175","252596","0.0-6.0-1.0-8.0-1.33","3","2","3","3","3","3","3","3","4","4","4","3","4","3","4","3","4","3","4","4","2","3","4","3","4","4","3","2","2","1","0","1","1","0","0","0","1","0","1","-1","0","1","0","1","4","3","2","4","3","2","3","4","3","3","682910925522468864","颜","","","","","","","","","","","","","","","","","","","true","14","4","moral","467","positive","诚信","","","","","","","","","","","","","","",""
"null","","null","html-keyboard-response","176","252847","0.0-6.0-1.0-8.0-0.34","3","2","3","3","3","3","3","3","4","4","4","3","4","3","4","3","4","3","4","4","2","3","4","3","4","4","3","2","2","1","0","1","1","0","0","0","1","0","1","-1","0","1","0","1","4","3","2","4","3","2","3","4","3","3","682910925522468864","颜","","","","","","","","","","","","","","","","","","","","","","","","","","","","","","","","","","","","","","","",""
"509","<p style=""color:rgb(150, 250, 100); font-size: 35px;"">自己</p>","e","categorize-html","177","253357","0.0-6.0-1.0-8.0-1.34","3","2","3","3","3","3","3","3","4","4","4","3","4","3","4","3","4","3","4","4","2","3","4","3","4","4","3","2","2","1","0","1","1","0","0","0","1","0","1","-1","0","1","0","1","4","3","2","4","3","2","3","4","3","3","682910925522468864","颜","","","","","","","","","","","","","","","","","","","true","14","4","moral","509","self","自己","","","","","","","","","","","","","","",""
"null","","null","html-keyboard-response","178","253608","0.0-6.0-1.0-8.0-0.35","3","2","3","3","3","3","3","3","4","4","4","3","4","3","4","3","4","3","4","4","2","3","4","3","4","4","3","2","2","1","0","1","1","0","0","0","1","0","1","-1","0","1","0","1","4","3","2","4","3","2","3","4","3","3","682910925522468864","颜","","","","","","","","","","","","","","","","","","","","","","","","","","","","","","","","","","","","","","","",""
"420","<p style=""color:white; font-size: 35px;"">卑鄙</p>","e","categorize-html","179","254484","0.0-6.0-1.0-8.0-1.35","3","2","3","3","3","3","3","3","4","4","4","3","4","3","4","3","4","3","4","4","2","3","4","3","4","4","3","2","2","1","0","1","1","0","0","0","1","0","1","-1","0","1","0","1","4","3","2","4","3","2","3","4","3","3","682910925522468864","颜","","","","","","","","","","","","","","","","","","","false","14","4","moral","1210.0238095238096","negative","卑鄙","","","","","","","","","","","","","","",""
"null","","null","html-keyboard-response","180","254736","0.0-6.0-1.0-8.0-0.36","3","2","3","3","3","3","3","3","4","4","4","3","4","3","4","3","4","3","4","4","2","3","4","3","4","4","3","2","2","1","0","1","1","0","0","0","1","0","1","-1","0","1","0","1","4","3","2","4","3","2","3","4","3","3","682910925522468864","颜","","","","","","","","","","","","","","","","","","","","","","","","","","","","","","","","","","","","","","","",""
"548","<p style=""color:rgb(150, 250, 100); font-size: 35px;"">他人的</p>","i","categorize-html","181","255284","0.0-6.0-1.0-8.0-1.36","3","2","3","3","3","3","3","3","4","4","4","3","4","3","4","3","4","3","4","4","2","3","4","3","4","4","3","2","2","1","0","1","1","0","0","0","1","0","1","-1","0","1","0","1","4","3","2","4","3","2","3","4","3","3","682910925522468864","颜","","","","","","","","","","","","","","","","","","","true","14","4","moral","548","other","他人的","","","","","","","","","","","","","","",""
"null","","null","html-keyboard-response","182","255536","0.0-6.0-1.0-8.0-0.37","3","2","3","3","3","3","3","3","4","4","4","3","4","3","4","3","4","3","4","4","2","3","4","3","4","4","3","2","2","1","0","1","1","0","0","0","1","0","1","-1","0","1","0","1","4","3","2","4","3","2","3","4","3","3","682910925522468864","颜","","","","","","","","","","","","","","","","","","","","","","","","","","","","","","","","","","","","","","","",""
"483","<p style=""color:white; font-size: 35px;"">小人</p>","i","categorize-html","183","256020","0.0-6.0-1.0-8.0-1.37","3","2","3","3","3","3","3","3","4","4","4","3","4","3","4","3","4","3","4","4","2","3","4","3","4","4","3","2","2","1","0","1","1","0","0","0","1","0","1","-1","0","1","0","1","4","3","2","4","3","2","3","4","3","3","682910925522468864","颜","","","","","","","","","","","","","","","","","","","true","14","4","moral","483","negative","小人","","","","","","","","","","","","","","",""
"null","","null","html-keyboard-response","184","256271","0.0-6.0-1.0-8.0-0.38","3","2","3","3","3","3","3","3","4","4","4","3","4","3","4","3","4","3","4","4","2","3","4","3","4","4","3","2","2","1","0","1","1","0","0","0","1","0","1","-1","0","1","0","1","4","3","2","4","3","2","3","4","3","3","682910925522468864","颜","","","","","","","","","","","","","","","","","","","","","","","","","","","","","","","","","","","","","","","",""
"428","<p style=""color:rgb(150, 250, 100); font-size: 35px;"">本人的</p>","e","categorize-html","185","256700","0.0-6.0-1.0-8.0-1.38","3","2","3","3","3","3","3","3","4","4","4","3","4","3","4","3","4","3","4","4","2","3","4","3","4","4","3","2","2","1","0","1","1","0","0","0","1","0","1","-1","0","1","0","1","4","3","2","4","3","2","3","4","3","3","682910925522468864","颜","","","","","","","","","","","","","","","","","","","true","14","4","moral","428","self","本人的","","","","","","","","","","","","","","",""
"null","","null","html-keyboard-response","186","256951","0.0-6.0-1.0-8.0-0.39","3","2","3","3","3","3","3","3","4","4","4","3","4","3","4","3","4","3","4","4","2","3","4","3","4","4","3","2","2","1","0","1","1","0","0","0","1","0","1","-1","0","1","0","1","4","3","2","4","3","2","3","4","3","3","682910925522468864","颜","","","","","","","","","","","","","","","","","","","","","","","","","","","","","","","","","","","","","","","",""
"397","<p style=""color:white; font-size: 35px;"">君子</p>","e","categorize-html","187","257348","0.0-6.0-1.0-8.0-1.39","3","2","3","3","3","3","3","3","4","4","4","3","4","3","4","3","4","3","4","4","2","3","4","3","4","4","3","2","2","1","0","1","1","0","0","0","1","0","1","-1","0","1","0","1","4","3","2","4","3","2","3","4","3","3","682910925522468864","颜","","","","","","","","","","","","","","","","","","","true","14","4","moral","397","positive","君子","","","","","","","","","","","","","","",""
"null","","null","html-keyboard-response","188","257599","0.0-6.0-1.0-8.0-0.40","3","2","3","3","3","3","3","3","4","4","4","3","4","3","4","3","4","3","4","4","2","3","4","3","4","4","3","2","2","1","0","1","1","0","0","0","1","0","1","-1","0","1","0","1","4","3","2","4","3","2","3","4","3","3","682910925522468864","颜","","","","","","","","","","","","","","","","","","","","","","","","","","","","","","","","","","","","","","","",""
"397","<p style=""color:rgb(150, 250, 100); font-size: 35px;"">他人</p>","e","categorize-html","189","258348","0.0-6.0-1.0-8.0-1.40","3","2","3","3","3","3","3","3","4","4","4","3","4","3","4","3","4","3","4","4","2","3","4","3","4","4","3","2","2","1","0","1","1","0","0","0","1","0","1","-1","0","1","0","1","4","3","2","4","3","2","3","4","3","3","682910925522468864","颜","","","","","","","","","","","","","","","","","","","false","14","4","moral","1210.0238095238096","other","他人","","","","","","","","","","","","","","",""
"null","","null","html-keyboard-response","190","258599","0.0-6.0-1.0-8.0-0.41","3","2","3","3","3","3","3","3","4","4","4","3","4","3","4","3","4","3","4","4","2","3","4","3","4","4","3","2","2","1","0","1","1","0","0","0","1","0","1","-1","0","1","0","1","4","3","2","4","3","2","3","4","3","3","682910925522468864","颜","","","","","","","","","","","","","","","","","","","","","","","","","","","","","","","","","","","","","","","",""
"437","<p style=""color:white; font-size: 35px;"">高尚</p>","e","categorize-html","191","259036","0.0-6.0-1.0-8.0-1.41","3","2","3","3","3","3","3","3","4","4","4","3","4","3","4","3","4","3","4","4","2","3","4","3","4","4","3","2","2","1","0","1","1","0","0","0","1","0","1","-1","0","1","0","1","4","3","2","4","3","2","3","4","3","3","682910925522468864","颜","","","","","","","","","","","","","","","","","","","true","14","4","moral","437","positive","高尚","","","","","","","","","","","","","","",""
"null","","null","html-keyboard-response","192","259288","0.0-6.0-1.0-8.0-0.42","3","2","3","3","3","3","3","3","4","4","4","3","4","3","4","3","4","3","4","4","2","3","4","3","4","4","3","2","2","1","0","1","1","0","0","0","1","0","1","-1","0","1","0","1","4","3","2","4","3","2","3","4","3","3","682910925522468864","颜","","","","","","","","","","","","","","","","","","","","","","","","","","","","","","","","","","","","","","","",""
"452","<p style=""color:rgb(150, 250, 100); font-size: 35px;"">我</p>","e","categorize-html","193","259740","0.0-6.0-1.0-8.0-1.42","3","2","3","3","3","3","3","3","4","4","4","3","4","3","4","3","4","3","4","4","2","3","4","3","4","4","3","2","2","1","0","1","1","0","0","0","1","0","1","-1","0","1","0","1","4","3","2","4","3","2","3","4","3","3","682910925522468864","颜","","","","","","","","","","","","","","","","","","","true","14","4","moral","452","self","我","","","","","","","","","","","","","","",""
"null","","null","html-keyboard-response","194","259991","0.0-6.0-1.0-8.0-0.43","3","2","3","3","3","3","3","3","4","4","4","3","4","3","4","3","4","3","4","4","2","3","4","3","4","4","3","2","2","1","0","1","1","0","0","0","1","0","1","-1","0","1","0","1","4","3","2","4","3","2","3","4","3","3","682910925522468864","颜","","","","","","","","","","","","","","","","","","","","","","","","","","","","","","","","","","","","","","","",""
"621","<p style=""color:white; font-size: 35px;"">小人</p>","i","categorize-html","195","260613","0.0-6.0-1.0-8.0-1.43","3","2","3","3","3","3","3","3","4","4","4","3","4","3","4","3","4","3","4","4","2","3","4","3","4","4","3","2","2","1","0","1","1","0","0","0","1","0","1","-1","0","1","0","1","4","3","2","4","3","2","3","4","3","3","682910925522468864","颜","","","","","","","","","","","","","","","","","","","true","14","4","moral","621","negative","小人","","","","","","","","","","","","","","",""
"null","","null","html-keyboard-response","196","260863","0.0-6.0-1.0-8.0-0.44","3","2","3","3","3","3","3","3","4","4","4","3","4","3","4","3","4","3","4","4","2","3","4","3","4","4","3","2","2","1","0","1","1","0","0","0","1","0","1","-1","0","1","0","1","4","3","2","4","3","2","3","4","3","3","682910925522468864","颜","","","","","","","","","","","","","","","","","","","","","","","","","","","","","","","","","","","","","","","",""
"613","<p style=""color:rgb(150, 250, 100); font-size: 35px;"">自己的</p>","e","categorize-html","197","261477","0.0-6.0-1.0-8.0-1.44","3","2","3","3","3","3","3","3","4","4","4","3","4","3","4","3","4","3","4","4","2","3","4","3","4","4","3","2","2","1","0","1","1","0","0","0","1","0","1","-1","0","1","0","1","4","3","2","4","3","2","3","4","3","3","682910925522468864","颜","","","","","","","","","","","","","","","","","","","true","14","4","moral","613","self","自己的","","","","","","","","","","","","","","",""
"null","","null","html-keyboard-response","198","261728","0.0-6.0-1.0-8.0-0.45","3","2","3","3","3","3","3","3","4","4","4","3","4","3","4","3","4","3","4","4","2","3","4","3","4","4","3","2","2","1","0","1","1","0","0","0","1","0","1","-1","0","1","0","1","4","3","2","4","3","2","3","4","3","3","682910925522468864","颜","","","","","","","","","","","","","","","","","","","","","","","","","","","","","","","","","","","","","","","",""
