"rt","stimulus","response","trial_type","trial_index","time_elapsed","internal_node_id","ses_1","ses_2","ses_3","ses_4","ses_5","ses_6","ses_7","ses_8","ses_9","ses_10","coreself_1","coreself_2","coreself_3","coreself_4","coreself_5","coreself_6","coreself_7","coreself_8","coreself_9","coreself_10","SGPS_1","SGPS_2","SGPS_3","SGPS_4","SGPS_5","SGPS_6","SGPS_7","SGPS_8","SGPS_9","NPI1","NPI2","NPI3","NPI4","NPI5","NPI6","NPI7","NPI8","NPI9","NPI10","NPI11","NPI12","NPI13","NPI14","NPI15","hsns_1","hsns_2","hsns_3","hsns_4","hsns_5","hsns_6","hsns_7","hsns_8","hsns_9","hsns_10","subj_idx","friend_name","value","success","user_agent","responses","item_order","radio_event_ids","radio_event_times","key_event_times","mouse_event_times","straightlining","zigzagging","honeypot","timeout","failed_images","failed_audio","failed_video","version_attrib","version_target","correct","IAT","screen_id","task_id","RT","condition","word","varname","summary","version_attrib2","version_target2","time_stamp","view_history","response_type","key_press","avg_frame_time","center_x","center_y","correct_response","identity","Image","question_order"
"3622","
   <p><div style = ""color: white;font-size:25px;"">您好，欢迎参加本次实验。</div> </p>
   <p><div style = ""color: white;font-size:25px;"">为充分保障您的权利，请确保您已经知晓并同意《参与实验同意书》以及《数据公开知情同意书》。</div></p>
   <p><div style = ""color: white;font-size:25px;"">如果您未见过上述内容，请咨询实验员。</div></p>
   <p><div style = ""color: white;font-size:25px;"">如果您选择继续实验，则表示您已经清楚两份知情同意书的内容并同意。</div></p>
   <p> <div style = ""color: green;font-size:25px;""><按空格键至下页></div> </p>
   "," ","html-keyboard-response","0","3632","0.0-0.0","2","2","2","2","2","2","2","2","2","2","4","2","1","3","2","3","2","2","3","2","4","5","3","4","3","3","4","3","4","1","0","1","1","0","0","1","1","0","1","-1","0","1","0","1","5","4","4","3","4","3","4","4","3","3","690857936225828864","叶","","","","","","","","","","","","","","","","","","","","","","","","","","","","","","","","","","","","","","","",""
"","","","call-function","1","3638","0.0-1.0-0.0","2","2","2","2","2","2","2","2","2","2","4","2","1","3","2","3","2","2","3","2","4","5","3","4","3","3","4","3","4","1","0","1","1","0","0","1","1","0","1","-1","0","1","0","1","5","4","4","3","4","3","4","4","3","3","690857936225828864","叶","","","","","","","","","","","","","","","","","","","","","","","","","","","","","","","","","","","","","","","",""
"10693","","{""friend_name"":""叶""}","survey-html-form","2","14333","0.0-1.0-1.0","2","2","2","2","2","2","2","2","2","2","4","2","1","3","2","3","2","2","3","2","4","5","3","4","3","3","4","3","4","1","0","1","1","0","0","1","1","0","1","-1","0","1","0","1","5","4","4","3","4","3","4","4","3","3","690857936225828864","叶","","","","","","","","","","","","","","","","","","","","","","","","","","","","","","","","","","","","","","","",""
"","","","fullscreen","3","42641","0.0-2.0","2","2","2","2","2","2","2","2","2","2","4","2","1","3","2","3","2","2","3","2","4","5","3","4","3","3","4","3","4","1","0","1","1","0","0","1","1","0","1","-1","0","1","0","1","5","4","4","3","4","3","4","4","3","3","690857936225828864","叶","","true","{}","","","","","","","","","","","","","","","","","","","","","","","","","","","","","","","","","","","","",""
"70561.5","","{""Q01"":""2"",""Q02"":""2"",""Q03"":""2"",""Q04"":""2"",""Q05"":""2"",""Q06"":""2"",""Q07"":""2"",""Q08"":""2"",""Q09"":""2"",""Q10"":""2""}","survey-template","4","113210","0.0-3.0","2","2","2","2","2","2","2","2","2","2","4","2","1","3","2","3","2","2","3","2","4","5","3","4","3","3","4","3","4","1","0","1","1","0","0","1","1","0","1","-1","0","1","0","1","5","4","4","3","4","3","4","4","3","3","690857936225828864","叶","","","","{""Q01"":""2"",""Q02"":""2"",""Q03"":""2"",""Q04"":""2"",""Q05"":""2"",""Q06"":""2"",""Q07"":""2"",""Q08"":""2"",""Q09"":""2"",""Q10"":""2""}","[0,1,2,3,4,5,6,7,8,9]","[""Q01"",""Q02"",""Q03"",""Q04"",""Q05"",""Q06"",""Q07"",""Q08"",""Q09"",""Q10""]","[54830.5,57661.90000000002,58629.70000000007,61013.90000000002,62565.70000000007,64477.70000000007,65837.80000000005,67213.70000000007,68365.5,69741.5]","[]","[54830.5,57661.90000000002,58629.70000000007,61013.90000000002,62565.70000000007,64477.70000000007,65837.80000000005,67213.70000000007,68365.5,69741.5,70557.80000000005]","0.5","0.5555555555555556","0","","","","","","","","","","","","","","","","","","","","","","","","","","","",""
"28064.70000000007","","{""Q01"":""4"",""Q02"":""2"",""Q03"":""1"",""Q04"":""3"",""Q05"":""2"",""Q06"":""3"",""Q07"":""2"",""Q08"":""2"",""Q09"":""3"",""Q10"":""2""}","survey-template","5","141297","0.0-4.0","2","2","2","2","2","2","2","2","2","2","4","2","1","3","2","3","2","2","3","2","4","5","3","4","3","3","4","3","4","1","0","1","1","0","0","1","1","0","1","-1","0","1","0","1","5","4","4","3","4","3","4","4","3","3","690857936225828864","叶","","","","{""Q01"":""4"",""Q02"":""2"",""Q03"":""1"",""Q04"":""3"",""Q05"":""2"",""Q06"":""3"",""Q07"":""2"",""Q08"":""2"",""Q09"":""3"",""Q10"":""2""}","[0,1,2,3,4,5,6,7,8,9]","[""Q01"",""Q02"",""Q03"",""Q04"",""Q05"",""Q06"",""Q07"",""Q08"",""Q09"",""Q10""]","[10397.400000000023,13277.20000000007,14476.70000000007,16269.300000000047,18621.20000000007,19893.20000000007,22461,23676.900000000023,25029,27148.900000000023]","[]","[10397.400000000023,13277.20000000007,14476.70000000007,16269.300000000047,18621.20000000007,19893.20000000007,22461,23676.900000000023,25029,26365.300000000047,27148.900000000023,28061.20000000007]","0.6","0.6666666666666666","0","","","","","","","","","","","","","","","","","","","","","","","","","","","",""
"","","","preload","6","142215","0.0-5.0","2","2","2","2","2","2","2","2","2","2","4","2","1","3","2","3","2","2","3","2","4","5","3","4","3","3","4","3","4","1","0","1","1","0","0","1","1","0","1","-1","0","1","0","1","5","4","4","3","4","3","4","4","3","3","690857936225828864","叶","","true","","","","","","","","","","","false","[]","[]","[]","","","","","","","","","","","","","","","","","","","","","","","",""
"21665","
    <h3>词语分类任务</h3>
    <p>在接下来的任务中，你需要对一系列词语进行分类。</p>
    <p>请先熟悉这些词语，这有利于你完成接下来的任务。</p>
    <table align=""center"" border=1 cellpadding=3 cellspacing=0>
    <tr> <th>类别</th> <th>词语</th> </tr>
    <tr> <td>&emsp;积极&emsp;</td> <td>&emsp;能干、全能、全才、高效、精干、天才&emsp;</td> </tr>
    <tr> <td>&emsp;消极&emsp;</td> <td>&emsp;无能、低能、废物、拙笨、愚钝、蠢笨&emsp;</td> </tr>
    <tr> <td>&emsp;自我&emsp;</td> <td>&emsp;我、我的、自己、自己的、本人、本人的&emsp;</td> </tr>
    <tr> <td>&emsp;他人&emsp;</td> <td>&emsp;他、他的、别人、别人的、他人、他人的&emsp;</td> </tr>
    </table><br/>","0","html-button-response","7","163885","0.0-6.0-0.0-0.0","2","2","2","2","2","2","2","2","2","2","4","2","1","3","2","3","2","2","3","2","4","5","3","4","3","3","4","3","4","1","0","1","1","0","0","1","1","0","1","-1","0","1","0","1","5","4","4","3","4","3","4","4","3","3","690857936225828864","叶","","","","","","","","","","","","","","","","","2","2","","","","","","","","","","","","","","","","","","","","","",""
"13748","
    <div class=""tag-bottom"">
    <p> ―― 任务1：对“他人”词和“自我”词分类 ――<p/>
    不同词语会出现在屏幕中央，类别标签将始终显示在屏幕上方<p/>   
    <span style=""color:#FFD866""><b>请根据上方标签的提示，尽可能正确并且快速地做出按键反应</b></span><p/>
    当按键错误时屏幕中会出现<span style=""color:red""> X </span>，需要按另一个键纠正才能继续<br/><p/>
    请把双手食指分别放在键盘的“E”键和“I”键上<p/>
    按<空格键>开始
    </p></div>"," ","html-keyboard-response","8","177643","0.0-6.0-0.0-1.0","2","2","2","2","2","2","2","2","2","2","4","2","1","3","2","3","2","2","3","2","4","5","3","4","3","3","4","3","4","1","0","1","1","0","0","1","1","0","1","-1","0","1","0","1","5","4","4","3","4","3","4","4","3","3","690857936225828864","叶","","","","","","","","","","","","","","","","","","","","","","","","","","","","","","","","","","","","","","","",""
"null","","null","html-keyboard-response","9","177900","0.0-6.0-0.0-2.0-0.0","2","2","2","2","2","2","2","2","2","2","4","2","1","3","2","3","2","2","3","2","4","5","3","4","3","3","4","3","4","1","0","1","1","0","0","1","1","0","1","-1","0","1","0","1","5","4","4","3","4","3","4","4","3","3","690857936225828864","叶","","","","","","","","","","","","","","","","","","","","","","","","","","","","","","","","","","","","","","","",""
"972","<p style=""color:rgb(150, 250, 100); font-size: 35px;"">本人</p>","i","categorize-html","10","178876","0.0-6.0-0.0-2.0-1.0","2","2","2","2","2","2","2","2","2","2","4","2","1","3","2","3","2","2","3","2","4","5","3","4","3","3","4","3","4","1","0","1","1","0","0","1","1","0","1","-1","0","1","0","1","5","4","4","3","4","3","4","4","3","3","690857936225828864","叶","","","","","","","","","","","","","","","","","","","true","1","1","ability","972","self","本人","","","","","","","","","","","","","","",""
"null","","null","html-keyboard-response","11","179132","0.0-6.0-0.0-2.0-0.1","2","2","2","2","2","2","2","2","2","2","4","2","1","3","2","3","2","2","3","2","4","5","3","4","3","3","4","3","4","1","0","1","1","0","0","1","1","0","1","-1","0","1","0","1","5","4","4","3","4","3","4","4","3","3","690857936225828864","叶","","","","","","","","","","","","","","","","","","","","","","","","","","","","","","","","","","","","","","","",""
"694","<p style=""color:rgb(150, 250, 100); font-size: 35px;"">他人</p>","e","categorize-html","12","179828","0.0-6.0-0.0-2.0-1.1","2","2","2","2","2","2","2","2","2","2","4","2","1","3","2","3","2","2","3","2","4","5","3","4","3","3","4","3","4","1","0","1","1","0","0","1","1","0","1","-1","0","1","0","1","5","4","4","3","4","3","4","4","3","3","690857936225828864","叶","","","","","","","","","","","","","","","","","","","true","1","1","ability","694","other","他人","","","","","","","","","","","","","","",""
"null","","null","html-keyboard-response","13","180084","0.0-6.0-0.0-2.0-0.2","2","2","2","2","2","2","2","2","2","2","4","2","1","3","2","3","2","2","3","2","4","5","3","4","3","3","4","3","4","1","0","1","1","0","0","1","1","0","1","-1","0","1","0","1","5","4","4","3","4","3","4","4","3","3","690857936225828864","叶","","","","","","","","","","","","","","","","","","","","","","","","","","","","","","","","","","","","","","","",""
"558","<p style=""color:rgb(150, 250, 100); font-size: 35px;"">我的</p>","i","categorize-html","14","180644","0.0-6.0-0.0-2.0-1.2","2","2","2","2","2","2","2","2","2","2","4","2","1","3","2","3","2","2","3","2","4","5","3","4","3","3","4","3","4","1","0","1","1","0","0","1","1","0","1","-1","0","1","0","1","5","4","4","3","4","3","4","4","3","3","690857936225828864","叶","","","","","","","","","","","","","","","","","","","true","1","1","ability","558","self","我的","","","","","","","","","","","","","","",""
"null","","null","html-keyboard-response","15","180900","0.0-6.0-0.0-2.0-0.3","2","2","2","2","2","2","2","2","2","2","4","2","1","3","2","3","2","2","3","2","4","5","3","4","3","3","4","3","4","1","0","1","1","0","0","1","1","0","1","-1","0","1","0","1","5","4","4","3","4","3","4","4","3","3","690857936225828864","叶","","","","","","","","","","","","","","","","","","","","","","","","","","","","","","","","","","","","","","","",""
"493","<p style=""color:rgb(150, 250, 100); font-size: 35px;"">我</p>","i","categorize-html","16","181396","0.0-6.0-0.0-2.0-1.3","2","2","2","2","2","2","2","2","2","2","4","2","1","3","2","3","2","2","3","2","4","5","3","4","3","3","4","3","4","1","0","1","1","0","0","1","1","0","1","-1","0","1","0","1","5","4","4","3","4","3","4","4","3","3","690857936225828864","叶","","","","","","","","","","","","","","","","","","","true","1","1","ability","493","self","我","","","","","","","","","","","","","","",""
"null","","null","html-keyboard-response","17","181652","0.0-6.0-0.0-2.0-0.4","2","2","2","2","2","2","2","2","2","2","4","2","1","3","2","3","2","2","3","2","4","5","3","4","3","3","4","3","4","1","0","1","1","0","0","1","1","0","1","-1","0","1","0","1","5","4","4","3","4","3","4","4","3","3","690857936225828864","叶","","","","","","","","","","","","","","","","","","","","","","","","","","","","","","","","","","","","","","","",""
"589","<p style=""color:rgb(150, 250, 100); font-size: 35px;"">他的</p>","e","categorize-html","18","182244","0.0-6.0-0.0-2.0-1.4","2","2","2","2","2","2","2","2","2","2","4","2","1","3","2","3","2","2","3","2","4","5","3","4","3","3","4","3","4","1","0","1","1","0","0","1","1","0","1","-1","0","1","0","1","5","4","4","3","4","3","4","4","3","3","690857936225828864","叶","","","","","","","","","","","","","","","","","","","true","1","1","ability","589","other","他的","","","","","","","","","","","","","","",""
"null","","null","html-keyboard-response","19","182500","0.0-6.0-0.0-2.0-0.5","2","2","2","2","2","2","2","2","2","2","4","2","1","3","2","3","2","2","3","2","4","5","3","4","3","3","4","3","4","1","0","1","1","0","0","1","1","0","1","-1","0","1","0","1","5","4","4","3","4","3","4","4","3","3","690857936225828864","叶","","","","","","","","","","","","","","","","","","","","","","","","","","","","","","","","","","","","","","","",""
"621","<p style=""color:rgb(150, 250, 100); font-size: 35px;"">他人的</p>","e","categorize-html","20","183124","0.0-6.0-0.0-2.0-1.5","2","2","2","2","2","2","2","2","2","2","4","2","1","3","2","3","2","2","3","2","4","5","3","4","3","3","4","3","4","1","0","1","1","0","0","1","1","0","1","-1","0","1","0","1","5","4","4","3","4","3","4","4","3","3","690857936225828864","叶","","","","","","","","","","","","","","","","","","","true","1","1","ability","621","other","他人的","","","","","","","","","","","","","","",""
"null","","null","html-keyboard-response","21","183380","0.0-6.0-0.0-2.0-0.6","2","2","2","2","2","2","2","2","2","2","4","2","1","3","2","3","2","2","3","2","4","5","3","4","3","3","4","3","4","1","0","1","1","0","0","1","1","0","1","-1","0","1","0","1","5","4","4","3","4","3","4","4","3","3","690857936225828864","叶","","","","","","","","","","","","","","","","","","","","","","","","","","","","","","","","","","","","","","","",""
"669","<p style=""color:rgb(150, 250, 100); font-size: 35px;"">本人的</p>","i","categorize-html","22","184054","0.0-6.0-0.0-2.0-1.6","2","2","2","2","2","2","2","2","2","2","4","2","1","3","2","3","2","2","3","2","4","5","3","4","3","3","4","3","4","1","0","1","1","0","0","1","1","0","1","-1","0","1","0","1","5","4","4","3","4","3","4","4","3","3","690857936225828864","叶","","","","","","","","","","","","","","","","","","","true","1","1","ability","669","self","本人的","","","","","","","","","","","","","","",""
"null","","null","html-keyboard-response","23","184308","0.0-6.0-0.0-2.0-0.7","2","2","2","2","2","2","2","2","2","2","4","2","1","3","2","3","2","2","3","2","4","5","3","4","3","3","4","3","4","1","0","1","1","0","0","1","1","0","1","-1","0","1","0","1","5","4","4","3","4","3","4","4","3","3","690857936225828864","叶","","","","","","","","","","","","","","","","","","","","","","","","","","","","","","","","","","","","","","","",""
"589","<p style=""color:rgb(150, 250, 100); font-size: 35px;"">自己</p>","i","categorize-html","24","184900","0.0-6.0-0.0-2.0-1.7","2","2","2","2","2","2","2","2","2","2","4","2","1","3","2","3","2","2","3","2","4","5","3","4","3","3","4","3","4","1","0","1","1","0","0","1","1","0","1","-1","0","1","0","1","5","4","4","3","4","3","4","4","3","3","690857936225828864","叶","","","","","","","","","","","","","","","","","","","true","1","1","ability","589","self","自己","","","","","","","","","","","","","","",""
"null","","null","html-keyboard-response","25","185156","0.0-6.0-0.0-2.0-0.8","2","2","2","2","2","2","2","2","2","2","4","2","1","3","2","3","2","2","3","2","4","5","3","4","3","3","4","3","4","1","0","1","1","0","0","1","1","0","1","-1","0","1","0","1","5","4","4","3","4","3","4","4","3","3","690857936225828864","叶","","","","","","","","","","","","","","","","","","","","","","","","","","","","","","","","","","","","","","","",""
"565","<p style=""color:rgb(150, 250, 100); font-size: 35px;"">自己的</p>","i","categorize-html","26","185724","0.0-6.0-0.0-2.0-1.8","2","2","2","2","2","2","2","2","2","2","4","2","1","3","2","3","2","2","3","2","4","5","3","4","3","3","4","3","4","1","0","1","1","0","0","1","1","0","1","-1","0","1","0","1","5","4","4","3","4","3","4","4","3","3","690857936225828864","叶","","","","","","","","","","","","","","","","","","","true","1","1","ability","565","self","自己的","","","","","","","","","","","","","","",""
"null","","null","html-keyboard-response","27","185979","0.0-6.0-0.0-2.0-0.9","2","2","2","2","2","2","2","2","2","2","4","2","1","3","2","3","2","2","3","2","4","5","3","4","3","3","4","3","4","1","0","1","1","0","0","1","1","0","1","-1","0","1","0","1","5","4","4","3","4","3","4","4","3","3","690857936225828864","叶","","","","","","","","","","","","","","","","","","","","","","","","","","","","","","","","","","","","","","","",""
"638","<p style=""color:rgb(150, 250, 100); font-size: 35px;"">别人的</p>","e","categorize-html","28","186620","0.0-6.0-0.0-2.0-1.9","2","2","2","2","2","2","2","2","2","2","4","2","1","3","2","3","2","2","3","2","4","5","3","4","3","3","4","3","4","1","0","1","1","0","0","1","1","0","1","-1","0","1","0","1","5","4","4","3","4","3","4","4","3","3","690857936225828864","叶","","","","","","","","","","","","","","","","","","","true","1","1","ability","638","other","别人的","","","","","","","","","","","","","","",""
"null","","null","html-keyboard-response","29","186875","0.0-6.0-0.0-2.0-0.10","2","2","2","2","2","2","2","2","2","2","4","2","1","3","2","3","2","2","3","2","4","5","3","4","3","3","4","3","4","1","0","1","1","0","0","1","1","0","1","-1","0","1","0","1","5","4","4","3","4","3","4","4","3","3","690857936225828864","叶","","","","","","","","","","","","","","","","","","","","","","","","","","","","","","","","","","","","","","","",""
"1062","<p style=""color:rgb(150, 250, 100); font-size: 35px;"">别人</p>","e","categorize-html","30","187940","0.0-6.0-0.0-2.0-1.10","2","2","2","2","2","2","2","2","2","2","4","2","1","3","2","3","2","2","3","2","4","5","3","4","3","3","4","3","4","1","0","1","1","0","0","1","1","0","1","-1","0","1","0","1","5","4","4","3","4","3","4","4","3","3","690857936225828864","叶","","","","","","","","","","","","","","","","","","","true","1","1","ability","1062","other","别人","","","","","","","","","","","","","","",""
"null","","null","html-keyboard-response","31","188195","0.0-6.0-0.0-2.0-0.11","2","2","2","2","2","2","2","2","2","2","4","2","1","3","2","3","2","2","3","2","4","5","3","4","3","3","4","3","4","1","0","1","1","0","0","1","1","0","1","-1","0","1","0","1","5","4","4","3","4","3","4","4","3","3","690857936225828864","叶","","","","","","","","","","","","","","","","","","","","","","","","","","","","","","","","","","","","","","","",""
"598","<p style=""color:rgb(150, 250, 100); font-size: 35px;"">他</p>","e","categorize-html","32","188796","0.0-6.0-0.0-2.0-1.11","2","2","2","2","2","2","2","2","2","2","4","2","1","3","2","3","2","2","3","2","4","5","3","4","3","3","4","3","4","1","0","1","1","0","0","1","1","0","1","-1","0","1","0","1","5","4","4","3","4","3","4","4","3","3","690857936225828864","叶","","","","","","","","","","","","","","","","","","","true","1","1","ability","598","other","他","","","","","","","","","","","","","","",""
"6062","
    <div class=""tag-bottom""><p>
    ―― 任务2：对“消极”词和“积极”词分类 ――<p/>   
    <span style=""color:#78DCE8""><b>注意上方，类别标签和需要分类的词语都已经改变</b></span><p/>
    <span style=""color:#FFD866""><b>请根据上方标签的提示，尽可能正确并且快速地做出按键反应</b></span><p/>
    当按键错误时屏幕中会出现<span style=""color:red""> X </span>，需要按另一个键纠正才能继续<br/><p/>
    请把双手食指分别放在键盘的“E”键和“I”键上<p/>
    按<空格键>开始
    </p></div>"," ","html-keyboard-response","33","194858","0.0-6.0-0.0-3.0","2","2","2","2","2","2","2","2","2","2","4","2","1","3","2","3","2","2","3","2","4","5","3","4","3","3","4","3","4","1","0","1","1","0","0","1","1","0","1","-1","0","1","0","1","5","4","4","3","4","3","4","4","3","3","690857936225828864","叶","","","","","","","","","","","","","","","","","","","","","","","","","","","","","","","","","","","","","","","",""
"null","","null","html-keyboard-response","34","195115","0.0-6.0-0.0-4.0-0.0","2","2","2","2","2","2","2","2","2","2","4","2","1","3","2","3","2","2","3","2","4","5","3","4","3","3","4","3","4","1","0","1","1","0","0","1","1","0","1","-1","0","1","0","1","5","4","4","3","4","3","4","4","3","3","690857936225828864","叶","","","","","","","","","","","","","","","","","","","","","","","","","","","","","","","","","","","","","","","",""
"1293","<p style=""color:white; font-size: 35px;"">蠢笨</p>","e","categorize-html","35","196412","0.0-6.0-0.0-4.0-1.0","2","2","2","2","2","2","2","2","2","2","4","2","1","3","2","3","2","2","3","2","4","5","3","4","3","3","4","3","4","1","0","1","1","0","0","1","1","0","1","-1","0","1","0","1","5","4","4","3","4","3","4","4","3","3","690857936225828864","叶","","","","","","","","","","","","","","","","","","","true","2","2","ability","1293","negative","蠢笨","","","","","","","","","","","","","","",""
"null","","null","html-keyboard-response","36","196666","0.0-6.0-0.0-4.0-0.1","2","2","2","2","2","2","2","2","2","2","4","2","1","3","2","3","2","2","3","2","4","5","3","4","3","3","4","3","4","1","0","1","1","0","0","1","1","0","1","-1","0","1","0","1","5","4","4","3","4","3","4","4","3","3","690857936225828864","叶","","","","","","","","","","","","","","","","","","","","","","","","","","","","","","","","","","","","","","","",""
"591","<p style=""color:white; font-size: 35px;"">低能</p>","e","categorize-html","37","197259","0.0-6.0-0.0-4.0-1.1","2","2","2","2","2","2","2","2","2","2","4","2","1","3","2","3","2","2","3","2","4","5","3","4","3","3","4","3","4","1","0","1","1","0","0","1","1","0","1","-1","0","1","0","1","5","4","4","3","4","3","4","4","3","3","690857936225828864","叶","","","","","","","","","","","","","","","","","","","true","2","2","ability","591","negative","低能","","","","","","","","","","","","","","",""
"null","","null","html-keyboard-response","38","197516","0.0-6.0-0.0-4.0-0.2","2","2","2","2","2","2","2","2","2","2","4","2","1","3","2","3","2","2","3","2","4","5","3","4","3","3","4","3","4","1","0","1","1","0","0","1","1","0","1","-1","0","1","0","1","5","4","4","3","4","3","4","4","3","3","690857936225828864","叶","","","","","","","","","","","","","","","","","","","","","","","","","","","","","","","","","","","","","","","",""
"606","<p style=""color:white; font-size: 35px;"">能干</p>","i","categorize-html","39","198124","0.0-6.0-0.0-4.0-1.2","2","2","2","2","2","2","2","2","2","2","4","2","1","3","2","3","2","2","3","2","4","5","3","4","3","3","4","3","4","1","0","1","1","0","0","1","1","0","1","-1","0","1","0","1","5","4","4","3","4","3","4","4","3","3","690857936225828864","叶","","","","","","","","","","","","","","","","","","","true","2","2","ability","606","positive","能干","","","","","","","","","","","","","","",""
"null","","null","html-keyboard-response","40","198380","0.0-6.0-0.0-4.0-0.3","2","2","2","2","2","2","2","2","2","2","4","2","1","3","2","3","2","2","3","2","4","5","3","4","3","3","4","3","4","1","0","1","1","0","0","1","1","0","1","-1","0","1","0","1","5","4","4","3","4","3","4","4","3","3","690857936225828864","叶","","","","","","","","","","","","","","","","","","","","","","","","","","","","","","","","","","","","","","","",""
"709","<p style=""color:white; font-size: 35px;"">拙笨</p>","e","categorize-html","41","199092","0.0-6.0-0.0-4.0-1.3","2","2","2","2","2","2","2","2","2","2","4","2","1","3","2","3","2","2","3","2","4","5","3","4","3","3","4","3","4","1","0","1","1","0","0","1","1","0","1","-1","0","1","0","1","5","4","4","3","4","3","4","4","3","3","690857936225828864","叶","","","","","","","","","","","","","","","","","","","true","2","2","ability","709","negative","拙笨","","","","","","","","","","","","","","",""
"null","","null","html-keyboard-response","42","199348","0.0-6.0-0.0-4.0-0.4","2","2","2","2","2","2","2","2","2","2","4","2","1","3","2","3","2","2","3","2","4","5","3","4","3","3","4","3","4","1","0","1","1","0","0","1","1","0","1","-1","0","1","0","1","5","4","4","3","4","3","4","4","3","3","690857936225828864","叶","","","","","","","","","","","","","","","","","","","","","","","","","","","","","","","","","","","","","","","",""
"1237","<p style=""color:white; font-size: 35px;"">无能</p>","e","categorize-html","43","200588","0.0-6.0-0.0-4.0-1.4","2","2","2","2","2","2","2","2","2","2","4","2","1","3","2","3","2","2","3","2","4","5","3","4","3","3","4","3","4","1","0","1","1","0","0","1","1","0","1","-1","0","1","0","1","5","4","4","3","4","3","4","4","3","3","690857936225828864","叶","","","","","","","","","","","","","","","","","","","true","2","2","ability","1237","negative","无能","","","","","","","","","","","","","","",""
"null","","null","html-keyboard-response","44","200844","0.0-6.0-0.0-4.0-0.5","2","2","2","2","2","2","2","2","2","2","4","2","1","3","2","3","2","2","3","2","4","5","3","4","3","3","4","3","4","1","0","1","1","0","0","1","1","0","1","-1","0","1","0","1","5","4","4","3","4","3","4","4","3","3","690857936225828864","叶","","","","","","","","","","","","","","","","","","","","","","","","","","","","","","","","","","","","","","","",""
"533","<p style=""color:white; font-size: 35px;"">废物</p>","e","categorize-html","45","201379","0.0-6.0-0.0-4.0-1.5","2","2","2","2","2","2","2","2","2","2","4","2","1","3","2","3","2","2","3","2","4","5","3","4","3","3","4","3","4","1","0","1","1","0","0","1","1","0","1","-1","0","1","0","1","5","4","4","3","4","3","4","4","3","3","690857936225828864","叶","","","","","","","","","","","","","","","","","","","true","2","2","ability","533","negative","废物","","","","","","","","","","","","","","",""
"null","","null","html-keyboard-response","46","201636","0.0-6.0-0.0-4.0-0.6","2","2","2","2","2","2","2","2","2","2","4","2","1","3","2","3","2","2","3","2","4","5","3","4","3","3","4","3","4","1","0","1","1","0","0","1","1","0","1","-1","0","1","0","1","5","4","4","3","4","3","4","4","3","3","690857936225828864","叶","","","","","","","","","","","","","","","","","","","","","","","","","","","","","","","","","","","","","","","",""
"565","<p style=""color:white; font-size: 35px;"">愚钝</p>","e","categorize-html","47","202204","0.0-6.0-0.0-4.0-1.6","2","2","2","2","2","2","2","2","2","2","4","2","1","3","2","3","2","2","3","2","4","5","3","4","3","3","4","3","4","1","0","1","1","0","0","1","1","0","1","-1","0","1","0","1","5","4","4","3","4","3","4","4","3","3","690857936225828864","叶","","","","","","","","","","","","","","","","","","","true","2","2","ability","565","negative","愚钝","","","","","","","","","","","","","","",""
"null","","null","html-keyboard-response","48","202460","0.0-6.0-0.0-4.0-0.7","2","2","2","2","2","2","2","2","2","2","4","2","1","3","2","3","2","2","3","2","4","5","3","4","3","3","4","3","4","1","0","1","1","0","0","1","1","0","1","-1","0","1","0","1","5","4","4","3","4","3","4","4","3","3","690857936225828864","叶","","","","","","","","","","","","","","","","","","","","","","","","","","","","","","","","","","","","","","","",""
"806","<p style=""color:white; font-size: 35px;"">全才</p>","i","categorize-html","49","203269","0.0-6.0-0.0-4.0-1.7","2","2","2","2","2","2","2","2","2","2","4","2","1","3","2","3","2","2","3","2","4","5","3","4","3","3","4","3","4","1","0","1","1","0","0","1","1","0","1","-1","0","1","0","1","5","4","4","3","4","3","4","4","3","3","690857936225828864","叶","","","","","","","","","","","","","","","","","","","true","2","2","ability","806","positive","全才","","","","","","","","","","","","","","",""
"null","","null","html-keyboard-response","50","203522","0.0-6.0-0.0-4.0-0.8","2","2","2","2","2","2","2","2","2","2","4","2","1","3","2","3","2","2","3","2","4","5","3","4","3","3","4","3","4","1","0","1","1","0","0","1","1","0","1","-1","0","1","0","1","5","4","4","3","4","3","4","4","3","3","690857936225828864","叶","","","","","","","","","","","","","","","","","","","","","","","","","","","","","","","","","","","","","","","",""
"551","<p style=""color:white; font-size: 35px;"">全能</p>","i","categorize-html","51","204078","0.0-6.0-0.0-4.0-1.8","2","2","2","2","2","2","2","2","2","2","4","2","1","3","2","3","2","2","3","2","4","5","3","4","3","3","4","3","4","1","0","1","1","0","0","1","1","0","1","-1","0","1","0","1","5","4","4","3","4","3","4","4","3","3","690857936225828864","叶","","","","","","","","","","","","","","","","","","","true","2","2","ability","551","positive","全能","","","","","","","","","","","","","","",""
"null","","null","html-keyboard-response","52","204332","0.0-6.0-0.0-4.0-0.9","2","2","2","2","2","2","2","2","2","2","4","2","1","3","2","3","2","2","3","2","4","5","3","4","3","3","4","3","4","1","0","1","1","0","0","1","1","0","1","-1","0","1","0","1","5","4","4","3","4","3","4","4","3","3","690857936225828864","叶","","","","","","","","","","","","","","","","","","","","","","","","","","","","","","","","","","","","","","","",""
"509","<p style=""color:white; font-size: 35px;"">天才</p>","i","categorize-html","53","204844","0.0-6.0-0.0-4.0-1.9","2","2","2","2","2","2","2","2","2","2","4","2","1","3","2","3","2","2","3","2","4","5","3","4","3","3","4","3","4","1","0","1","1","0","0","1","1","0","1","-1","0","1","0","1","5","4","4","3","4","3","4","4","3","3","690857936225828864","叶","","","","","","","","","","","","","","","","","","","true","2","2","ability","509","positive","天才","","","","","","","","","","","","","","",""
"null","","null","html-keyboard-response","54","205100","0.0-6.0-0.0-4.0-0.10","2","2","2","2","2","2","2","2","2","2","4","2","1","3","2","3","2","2","3","2","4","5","3","4","3","3","4","3","4","1","0","1","1","0","0","1","1","0","1","-1","0","1","0","1","5","4","4","3","4","3","4","4","3","3","690857936225828864","叶","","","","","","","","","","","","","","","","","","","","","","","","","","","","","","","","","","","","","","","",""
"613","<p style=""color:white; font-size: 35px;"">高效</p>","i","categorize-html","55","205718","0.0-6.0-0.0-4.0-1.10","2","2","2","2","2","2","2","2","2","2","4","2","1","3","2","3","2","2","3","2","4","5","3","4","3","3","4","3","4","1","0","1","1","0","0","1","1","0","1","-1","0","1","0","1","5","4","4","3","4","3","4","4","3","3","690857936225828864","叶","","","","","","","","","","","","","","","","","","","true","2","2","ability","613","positive","高效","","","","","","","","","","","","","","",""
"null","","null","html-keyboard-response","56","205972","0.0-6.0-0.0-4.0-0.11","2","2","2","2","2","2","2","2","2","2","4","2","1","3","2","3","2","2","3","2","4","5","3","4","3","3","4","3","4","1","0","1","1","0","0","1","1","0","1","-1","0","1","0","1","5","4","4","3","4","3","4","4","3","3","690857936225828864","叶","","","","","","","","","","","","","","","","","","","","","","","","","","","","","","","","","","","","","","","",""
"541","<p style=""color:white; font-size: 35px;"">精干</p>","i","categorize-html","57","206517","0.0-6.0-0.0-4.0-1.11","2","2","2","2","2","2","2","2","2","2","4","2","1","3","2","3","2","2","3","2","4","5","3","4","3","3","4","3","4","1","0","1","1","0","0","1","1","0","1","-1","0","1","0","1","5","4","4","3","4","3","4","4","3","3","690857936225828864","叶","","","","","","","","","","","","","","","","","","","true","2","2","ability","541","positive","精干","","","","","","","","","","","","","","",""
"1005","
    <div class=""tag-bottom""><p>
    ―― 任务3：对“他人/消极”词和“自我/积极”词分类 ――<p/>
    <span style=""color:#78DCE8""><b>注意上方，之前的四类词语将混合在一起交替呈现</b></span><p/>
    <span style=""color:#FFD866""><b>请根据上方标签的提示，尽可能正确并且快速地做出按键反应</b></span><p/>
    当按键错误时屏幕中会出现<span style=""color:red""> X </span>，需要按另一个键纠正才能继续<br/><p/>
    请把双手食指分别放在键盘的“E”键和“I”键上<p/>
    按<空格键>开始
    </p></div>"," ","html-keyboard-response","58","207522","0.0-6.0-0.0-5.0","2","2","2","2","2","2","2","2","2","2","4","2","1","3","2","3","2","2","3","2","4","5","3","4","3","3","4","3","4","1","0","1","1","0","0","1","1","0","1","-1","0","1","0","1","5","4","4","3","4","3","4","4","3","3","690857936225828864","叶","","","","","","","","","","","","","","","","","","","","","","","","","","","","","","","","","","","","","","","",""
"null","","null","html-keyboard-response","59","207780","0.0-6.0-0.0-6.0-0.0","2","2","2","2","2","2","2","2","2","2","4","2","1","3","2","3","2","2","3","2","4","5","3","4","3","3","4","3","4","1","0","1","1","0","0","1","1","0","1","-1","0","1","0","1","5","4","4","3","4","3","4","4","3","3","690857936225828864","叶","","","","","","","","","","","","","","","","","","","","","","","","","","","","","","","","","","","","","","","",""
"4228","<p style=""color:rgb(150, 250, 100); font-size: 35px;"">我</p>","i","categorize-html","60","212014","0.0-6.0-0.0-6.0-1.0","2","2","2","2","2","2","2","2","2","2","4","2","1","3","2","3","2","2","3","2","4","5","3","4","3","3","4","3","4","1","0","1","1","0","0","1","1","0","1","-1","0","1","0","1","5","4","4","3","4","3","4","4","3","3","690857936225828864","叶","","","","","","","","","","","","","","","","","","","true","3","3","ability","4228","self","我","","","","","","","","","","","","","","",""
"null","","null","html-keyboard-response","61","212267","0.0-6.0-0.0-6.0-0.1","2","2","2","2","2","2","2","2","2","2","4","2","1","3","2","3","2","2","3","2","4","5","3","4","3","3","4","3","4","1","0","1","1","0","0","1","1","0","1","-1","0","1","0","1","5","4","4","3","4","3","4","4","3","3","690857936225828864","叶","","","","","","","","","","","","","","","","","","","","","","","","","","","","","","","","","","","","","","","",""
"3973","<p style=""color:white; font-size: 35px;"">能干</p>","i","categorize-html","62","216244","0.0-6.0-0.0-6.0-1.1","2","2","2","2","2","2","2","2","2","2","4","2","1","3","2","3","2","2","3","2","4","5","3","4","3","3","4","3","4","1","0","1","1","0","0","1","1","0","1","-1","0","1","0","1","5","4","4","3","4","3","4","4","3","3","690857936225828864","叶","","","","","","","","","","","","","","","","","","","true","3","3","ability","3973","positive","能干","","","","","","","","","","","","","","",""
"null","","null","html-keyboard-response","63","216499","0.0-6.0-0.0-6.0-0.2","2","2","2","2","2","2","2","2","2","2","4","2","1","3","2","3","2","2","3","2","4","5","3","4","3","3","4","3","4","1","0","1","1","0","0","1","1","0","1","-1","0","1","0","1","5","4","4","3","4","3","4","4","3","3","690857936225828864","叶","","","","","","","","","","","","","","","","","","","","","","","","","","","","","","","","","","","","","","","",""
"1341","<p style=""color:rgb(150, 250, 100); font-size: 35px;"">他人的</p>","e","categorize-html","64","217846","0.0-6.0-0.0-6.0-1.2","2","2","2","2","2","2","2","2","2","2","4","2","1","3","2","3","2","2","3","2","4","5","3","4","3","3","4","3","4","1","0","1","1","0","0","1","1","0","1","-1","0","1","0","1","5","4","4","3","4","3","4","4","3","3","690857936225828864","叶","","","","","","","","","","","","","","","","","","","true","3","3","ability","1341","other","他人的","","","","","","","","","","","","","","",""
"null","","null","html-keyboard-response","65","218099","0.0-6.0-0.0-6.0-0.3","2","2","2","2","2","2","2","2","2","2","4","2","1","3","2","3","2","2","3","2","4","5","3","4","3","3","4","3","4","1","0","1","1","0","0","1","1","0","1","-1","0","1","0","1","5","4","4","3","4","3","4","4","3","3","690857936225828864","叶","","","","","","","","","","","","","","","","","","","","","","","","","","","","","","","","","","","","","","","",""
"1565","<p style=""color:white; font-size: 35px;"">废物</p>","e","categorize-html","66","219670","0.0-6.0-0.0-6.0-1.3","2","2","2","2","2","2","2","2","2","2","4","2","1","3","2","3","2","2","3","2","4","5","3","4","3","3","4","3","4","1","0","1","1","0","0","1","1","0","1","-1","0","1","0","1","5","4","4","3","4","3","4","4","3","3","690857936225828864","叶","","","","","","","","","","","","","","","","","","","true","3","3","ability","1565","negative","废物","","","","","","","","","","","","","","",""
"null","","null","html-keyboard-response","67","219924","0.0-6.0-0.0-6.0-0.4","2","2","2","2","2","2","2","2","2","2","4","2","1","3","2","3","2","2","3","2","4","5","3","4","3","3","4","3","4","1","0","1","1","0","0","1","1","0","1","-1","0","1","0","1","5","4","4","3","4","3","4","4","3","3","690857936225828864","叶","","","","","","","","","","","","","","","","","","","","","","","","","","","","","","","","","","","","","","","",""
"557","<p style=""color:rgb(150, 250, 100); font-size: 35px;"">他</p>","e","categorize-html","68","220485","0.0-6.0-0.0-6.0-1.4","2","2","2","2","2","2","2","2","2","2","4","2","1","3","2","3","2","2","3","2","4","5","3","4","3","3","4","3","4","1","0","1","1","0","0","1","1","0","1","-1","0","1","0","1","5","4","4","3","4","3","4","4","3","3","690857936225828864","叶","","","","","","","","","","","","","","","","","","","true","3","3","ability","557","other","他","","","","","","","","","","","","","","",""
"null","","null","html-keyboard-response","69","220740","0.0-6.0-0.0-6.0-0.5","2","2","2","2","2","2","2","2","2","2","4","2","1","3","2","3","2","2","3","2","4","5","3","4","3","3","4","3","4","1","0","1","1","0","0","1","1","0","1","-1","0","1","0","1","5","4","4","3","4","3","4","4","3","3","690857936225828864","叶","","","","","","","","","","","","","","","","","","","","","","","","","","","","","","","","","","","","","","","",""
"621","<p style=""color:white; font-size: 35px;"">低能</p>","e","categorize-html","70","221368","0.0-6.0-0.0-6.0-1.5","2","2","2","2","2","2","2","2","2","2","4","2","1","3","2","3","2","2","3","2","4","5","3","4","3","3","4","3","4","1","0","1","1","0","0","1","1","0","1","-1","0","1","0","1","5","4","4","3","4","3","4","4","3","3","690857936225828864","叶","","","","","","","","","","","","","","","","","","","true","3","3","ability","621","negative","低能","","","","","","","","","","","","","","",""
"null","","null","html-keyboard-response","71","221619","0.0-6.0-0.0-6.0-0.6","2","2","2","2","2","2","2","2","2","2","4","2","1","3","2","3","2","2","3","2","4","5","3","4","3","3","4","3","4","1","0","1","1","0","0","1","1","0","1","-1","0","1","0","1","5","4","4","3","4","3","4","4","3","3","690857936225828864","叶","","","","","","","","","","","","","","","","","","","","","","","","","","","","","","","","","","","","","","","",""
"622","<p style=""color:rgb(150, 250, 100); font-size: 35px;"">自己</p>","i","categorize-html","72","222246","0.0-6.0-0.0-6.0-1.6","2","2","2","2","2","2","2","2","2","2","4","2","1","3","2","3","2","2","3","2","4","5","3","4","3","3","4","3","4","1","0","1","1","0","0","1","1","0","1","-1","0","1","0","1","5","4","4","3","4","3","4","4","3","3","690857936225828864","叶","","","","","","","","","","","","","","","","","","","true","3","3","ability","622","self","自己","","","","","","","","","","","","","","",""
"null","","null","html-keyboard-response","73","222500","0.0-6.0-0.0-6.0-0.7","2","2","2","2","2","2","2","2","2","2","4","2","1","3","2","3","2","2","3","2","4","5","3","4","3","3","4","3","4","1","0","1","1","0","0","1","1","0","1","-1","0","1","0","1","5","4","4","3","4","3","4","4","3","3","690857936225828864","叶","","","","","","","","","","","","","","","","","","","","","","","","","","","","","","","","","","","","","","","",""
"693","<p style=""color:white; font-size: 35px;"">高效</p>","i","categorize-html","74","223199","0.0-6.0-0.0-6.0-1.7","2","2","2","2","2","2","2","2","2","2","4","2","1","3","2","3","2","2","3","2","4","5","3","4","3","3","4","3","4","1","0","1","1","0","0","1","1","0","1","-1","0","1","0","1","5","4","4","3","4","3","4","4","3","3","690857936225828864","叶","","","","","","","","","","","","","","","","","","","true","3","3","ability","693","positive","高效","","","","","","","","","","","","","","",""
"null","","null","html-keyboard-response","75","223453","0.0-6.0-0.0-6.0-0.8","2","2","2","2","2","2","2","2","2","2","4","2","1","3","2","3","2","2","3","2","4","5","3","4","3","3","4","3","4","1","0","1","1","0","0","1","1","0","1","-1","0","1","0","1","5","4","4","3","4","3","4","4","3","3","690857936225828864","叶","","","","","","","","","","","","","","","","","","","","","","","","","","","","","","","","","","","","","","","",""
"797","<p style=""color:rgb(150, 250, 100); font-size: 35px;"">本人</p>","i","categorize-html","76","224255","0.0-6.0-0.0-6.0-1.8","2","2","2","2","2","2","2","2","2","2","4","2","1","3","2","3","2","2","3","2","4","5","3","4","3","3","4","3","4","1","0","1","1","0","0","1","1","0","1","-1","0","1","0","1","5","4","4","3","4","3","4","4","3","3","690857936225828864","叶","","","","","","","","","","","","","","","","","","","true","3","3","ability","797","self","本人","","","","","","","","","","","","","","",""
"null","","null","html-keyboard-response","77","224509","0.0-6.0-0.0-6.0-0.9","2","2","2","2","2","2","2","2","2","2","4","2","1","3","2","3","2","2","3","2","4","5","3","4","3","3","4","3","4","1","0","1","1","0","0","1","1","0","1","-1","0","1","0","1","5","4","4","3","4","3","4","4","3","3","690857936225828864","叶","","","","","","","","","","","","","","","","","","","","","","","","","","","","","","","","","","","","","","","",""
"684","<p style=""color:white; font-size: 35px;"">无能</p>","e","categorize-html","78","225197","0.0-6.0-0.0-6.0-1.9","2","2","2","2","2","2","2","2","2","2","4","2","1","3","2","3","2","2","3","2","4","5","3","4","3","3","4","3","4","1","0","1","1","0","0","1","1","0","1","-1","0","1","0","1","5","4","4","3","4","3","4","4","3","3","690857936225828864","叶","","","","","","","","","","","","","","","","","","","true","3","3","ability","684","negative","无能","","","","","","","","","","","","","","",""
"null","","null","html-keyboard-response","79","225453","0.0-6.0-0.0-6.0-0.10","2","2","2","2","2","2","2","2","2","2","4","2","1","3","2","3","2","2","3","2","4","5","3","4","3","3","4","3","4","1","0","1","1","0","0","1","1","0","1","-1","0","1","0","1","5","4","4","3","4","3","4","4","3","3","690857936225828864","叶","","","","","","","","","","","","","","","","","","","","","","","","","","","","","","","","","","","","","","","",""
"909","<p style=""color:rgb(150, 250, 100); font-size: 35px;"">他人</p>","e","categorize-html","80","226366","0.0-6.0-0.0-6.0-1.10","2","2","2","2","2","2","2","2","2","2","4","2","1","3","2","3","2","2","3","2","4","5","3","4","3","3","4","3","4","1","0","1","1","0","0","1","1","0","1","-1","0","1","0","1","5","4","4","3","4","3","4","4","3","3","690857936225828864","叶","","","","","","","","","","","","","","","","","","","true","3","3","ability","909","other","他人","","","","","","","","","","","","","","",""
"null","","null","html-keyboard-response","81","226621","0.0-6.0-0.0-6.0-0.11","2","2","2","2","2","2","2","2","2","2","4","2","1","3","2","3","2","2","3","2","4","5","3","4","3","3","4","3","4","1","0","1","1","0","0","1","1","0","1","-1","0","1","0","1","5","4","4","3","4","3","4","4","3","3","690857936225828864","叶","","","","","","","","","","","","","","","","","","","","","","","","","","","","","","","","","","","","","","","",""
"820","<p style=""color:white; font-size: 35px;"">全才</p>","i","categorize-html","82","227446","0.0-6.0-0.0-6.0-1.11","2","2","2","2","2","2","2","2","2","2","4","2","1","3","2","3","2","2","3","2","4","5","3","4","3","3","4","3","4","1","0","1","1","0","0","1","1","0","1","-1","0","1","0","1","5","4","4","3","4","3","4","4","3","3","690857936225828864","叶","","","","","","","","","","","","","","","","","","","true","3","3","ability","820","positive","全才","","","","","","","","","","","","","","",""
"null","","null","html-keyboard-response","83","227701","0.0-6.0-0.0-6.0-0.12","2","2","2","2","2","2","2","2","2","2","4","2","1","3","2","3","2","2","3","2","4","5","3","4","3","3","4","3","4","1","0","1","1","0","0","1","1","0","1","-1","0","1","0","1","5","4","4","3","4","3","4","4","3","3","690857936225828864","叶","","","","","","","","","","","","","","","","","","","","","","","","","","","","","","","","","","","","","","","",""
"805","<p style=""color:rgb(150, 250, 100); font-size: 35px;"">别人的</p>","e","categorize-html","84","228511","0.0-6.0-0.0-6.0-1.12","2","2","2","2","2","2","2","2","2","2","4","2","1","3","2","3","2","2","3","2","4","5","3","4","3","3","4","3","4","1","0","1","1","0","0","1","1","0","1","-1","0","1","0","1","5","4","4","3","4","3","4","4","3","3","690857936225828864","叶","","","","","","","","","","","","","","","","","","","true","3","3","ability","805","other","别人的","","","","","","","","","","","","","","",""
"null","","null","html-keyboard-response","85","228771","0.0-6.0-0.0-6.0-0.13","2","2","2","2","2","2","2","2","2","2","4","2","1","3","2","3","2","2","3","2","4","5","3","4","3","3","4","3","4","1","0","1","1","0","0","1","1","0","1","-1","0","1","0","1","5","4","4","3","4","3","4","4","3","3","690857936225828864","叶","","","","","","","","","","","","","","","","","","","","","","","","","","","","","","","","","","","","","","","",""
"1615","<p style=""color:white; font-size: 35px;"">精干</p>","i","categorize-html","86","230390","0.0-6.0-0.0-6.0-1.13","2","2","2","2","2","2","2","2","2","2","4","2","1","3","2","3","2","2","3","2","4","5","3","4","3","3","4","3","4","1","0","1","1","0","0","1","1","0","1","-1","0","1","0","1","5","4","4","3","4","3","4","4","3","3","690857936225828864","叶","","","","","","","","","","","","","","","","","","","true","3","3","ability","1615","positive","精干","","","","","","","","","","","","","","",""
"null","","null","html-keyboard-response","87","230645","0.0-6.0-0.0-6.0-0.14","2","2","2","2","2","2","2","2","2","2","4","2","1","3","2","3","2","2","3","2","4","5","3","4","3","3","4","3","4","1","0","1","1","0","0","1","1","0","1","-1","0","1","0","1","5","4","4","3","4","3","4","4","3","3","690857936225828864","叶","","","","","","","","","","","","","","","","","","","","","","","","","","","","","","","","","","","","","","","",""
"628","<p style=""color:rgb(150, 250, 100); font-size: 35px;"">我的</p>","i","categorize-html","88","231278","0.0-6.0-0.0-6.0-1.14","2","2","2","2","2","2","2","2","2","2","4","2","1","3","2","3","2","2","3","2","4","5","3","4","3","3","4","3","4","1","0","1","1","0","0","1","1","0","1","-1","0","1","0","1","5","4","4","3","4","3","4","4","3","3","690857936225828864","叶","","","","","","","","","","","","","","","","","","","true","3","3","ability","628","self","我的","","","","","","","","","","","","","","",""
"null","","null","html-keyboard-response","89","231533","0.0-6.0-0.0-6.0-0.15","2","2","2","2","2","2","2","2","2","2","4","2","1","3","2","3","2","2","3","2","4","5","3","4","3","3","4","3","4","1","0","1","1","0","0","1","1","0","1","-1","0","1","0","1","5","4","4","3","4","3","4","4","3","3","690857936225828864","叶","","","","","","","","","","","","","","","","","","","","","","","","","","","","","","","","","","","","","","","",""
"1196","<p style=""color:white; font-size: 35px;"">拙笨</p>","e","categorize-html","90","232732","0.0-6.0-0.0-6.0-1.15","2","2","2","2","2","2","2","2","2","2","4","2","1","3","2","3","2","2","3","2","4","5","3","4","3","3","4","3","4","1","0","1","1","0","0","1","1","0","1","-1","0","1","0","1","5","4","4","3","4","3","4","4","3","3","690857936225828864","叶","","","","","","","","","","","","","","","","","","","true","3","3","ability","1196","negative","拙笨","","","","","","","","","","","","","","",""
"null","","null","html-keyboard-response","91","232989","0.0-6.0-0.0-6.0-0.16","2","2","2","2","2","2","2","2","2","2","4","2","1","3","2","3","2","2","3","2","4","5","3","4","3","3","4","3","4","1","0","1","1","0","0","1","1","0","1","-1","0","1","0","1","5","4","4","3","4","3","4","4","3","3","690857936225828864","叶","","","","","","","","","","","","","","","","","","","","","","","","","","","","","","","","","","","","","","","",""
"644","<p style=""color:rgb(150, 250, 100); font-size: 35px;"">他的</p>","e","categorize-html","92","233642","0.0-6.0-0.0-6.0-1.16","2","2","2","2","2","2","2","2","2","2","4","2","1","3","2","3","2","2","3","2","4","5","3","4","3","3","4","3","4","1","0","1","1","0","0","1","1","0","1","-1","0","1","0","1","5","4","4","3","4","3","4","4","3","3","690857936225828864","叶","","","","","","","","","","","","","","","","","","","true","3","3","ability","644","other","他的","","","","","","","","","","","","","","",""
"null","","null","html-keyboard-response","93","233901","0.0-6.0-0.0-6.0-0.17","2","2","2","2","2","2","2","2","2","2","4","2","1","3","2","3","2","2","3","2","4","5","3","4","3","3","4","3","4","1","0","1","1","0","0","1","1","0","1","-1","0","1","0","1","5","4","4","3","4","3","4","4","3","3","690857936225828864","叶","","","","","","","","","","","","","","","","","","","","","","","","","","","","","","","","","","","","","","","",""
"588","<p style=""color:white; font-size: 35px;"">愚钝</p>","e","categorize-html","94","234492","0.0-6.0-0.0-6.0-1.17","2","2","2","2","2","2","2","2","2","2","4","2","1","3","2","3","2","2","3","2","4","5","3","4","3","3","4","3","4","1","0","1","1","0","0","1","1","0","1","-1","0","1","0","1","5","4","4","3","4","3","4","4","3","3","690857936225828864","叶","","","","","","","","","","","","","","","","","","","true","3","3","ability","588","negative","愚钝","","","","","","","","","","","","","","",""
"null","","null","html-keyboard-response","95","234749","0.0-6.0-0.0-6.0-0.18","2","2","2","2","2","2","2","2","2","2","4","2","1","3","2","3","2","2","3","2","4","5","3","4","3","3","4","3","4","1","0","1","1","0","0","1","1","0","1","-1","0","1","0","1","5","4","4","3","4","3","4","4","3","3","690857936225828864","叶","","","","","","","","","","","","","","","","","","","","","","","","","","","","","","","","","","","","","","","",""
"708","<p style=""color:rgb(150, 250, 100); font-size: 35px;"">本人的</p>","i","categorize-html","96","235462","0.0-6.0-0.0-6.0-1.18","2","2","2","2","2","2","2","2","2","2","4","2","1","3","2","3","2","2","3","2","4","5","3","4","3","3","4","3","4","1","0","1","1","0","0","1","1","0","1","-1","0","1","0","1","5","4","4","3","4","3","4","4","3","3","690857936225828864","叶","","","","","","","","","","","","","","","","","","","true","3","3","ability","708","self","本人的","","","","","","","","","","","","","","",""
"null","","null","html-keyboard-response","97","235717","0.0-6.0-0.0-6.0-0.19","2","2","2","2","2","2","2","2","2","2","4","2","1","3","2","3","2","2","3","2","4","5","3","4","3","3","4","3","4","1","0","1","1","0","0","1","1","0","1","-1","0","1","0","1","5","4","4","3","4","3","4","4","3","3","690857936225828864","叶","","","","","","","","","","","","","","","","","","","","","","","","","","","","","","","","","","","","","","","",""
"692","<p style=""color:white; font-size: 35px;"">全能</p>","i","categorize-html","98","236415","0.0-6.0-0.0-6.0-1.19","2","2","2","2","2","2","2","2","2","2","4","2","1","3","2","3","2","2","3","2","4","5","3","4","3","3","4","3","4","1","0","1","1","0","0","1","1","0","1","-1","0","1","0","1","5","4","4","3","4","3","4","4","3","3","690857936225828864","叶","","","","","","","","","","","","","","","","","","","true","3","3","ability","692","positive","全能","","","","","","","","","","","","","","",""
"null","","null","html-keyboard-response","99","236670","0.0-6.0-0.0-6.0-0.20","2","2","2","2","2","2","2","2","2","2","4","2","1","3","2","3","2","2","3","2","4","5","3","4","3","3","4","3","4","1","0","1","1","0","0","1","1","0","1","-1","0","1","0","1","5","4","4","3","4","3","4","4","3","3","690857936225828864","叶","","","","","","","","","","","","","","","","","","","","","","","","","","","","","","","","","","","","","","","",""
"1084","<p style=""color:rgb(150, 250, 100); font-size: 35px;"">自己的</p>","i","categorize-html","100","237758","0.0-6.0-0.0-6.0-1.20","2","2","2","2","2","2","2","2","2","2","4","2","1","3","2","3","2","2","3","2","4","5","3","4","3","3","4","3","4","1","0","1","1","0","0","1","1","0","1","-1","0","1","0","1","5","4","4","3","4","3","4","4","3","3","690857936225828864","叶","","","","","","","","","","","","","","","","","","","true","3","3","ability","1084","self","自己的","","","","","","","","","","","","","","",""
"null","","null","html-keyboard-response","101","238012","0.0-6.0-0.0-6.0-0.21","2","2","2","2","2","2","2","2","2","2","4","2","1","3","2","3","2","2","3","2","4","5","3","4","3","3","4","3","4","1","0","1","1","0","0","1","1","0","1","-1","0","1","0","1","5","4","4","3","4","3","4","4","3","3","690857936225828864","叶","","","","","","","","","","","","","","","","","","","","","","","","","","","","","","","","","","","","","","","",""
"749","<p style=""color:white; font-size: 35px;"">蠢笨</p>","e","categorize-html","102","238766","0.0-6.0-0.0-6.0-1.21","2","2","2","2","2","2","2","2","2","2","4","2","1","3","2","3","2","2","3","2","4","5","3","4","3","3","4","3","4","1","0","1","1","0","0","1","1","0","1","-1","0","1","0","1","5","4","4","3","4","3","4","4","3","3","690857936225828864","叶","","","","","","","","","","","","","","","","","","","true","3","3","ability","749","negative","蠢笨","","","","","","","","","","","","","","",""
"null","","null","html-keyboard-response","103","239021","0.0-6.0-0.0-6.0-0.22","2","2","2","2","2","2","2","2","2","2","4","2","1","3","2","3","2","2","3","2","4","5","3","4","3","3","4","3","4","1","0","1","1","0","0","1","1","0","1","-1","0","1","0","1","5","4","4","3","4","3","4","4","3","3","690857936225828864","叶","","","","","","","","","","","","","","","","","","","","","","","","","","","","","","","","","","","","","","","",""
"1333","<p style=""color:rgb(150, 250, 100); font-size: 35px;"">别人</p>","e","categorize-html","104","240358","0.0-6.0-0.0-6.0-1.22","2","2","2","2","2","2","2","2","2","2","4","2","1","3","2","3","2","2","3","2","4","5","3","4","3","3","4","3","4","1","0","1","1","0","0","1","1","0","1","-1","0","1","0","1","5","4","4","3","4","3","4","4","3","3","690857936225828864","叶","","","","","","","","","","","","","","","","","","","true","3","3","ability","1333","other","别人","","","","","","","","","","","","","","",""
"null","","null","html-keyboard-response","105","240613","0.0-6.0-0.0-6.0-0.23","2","2","2","2","2","2","2","2","2","2","4","2","1","3","2","3","2","2","3","2","4","5","3","4","3","3","4","3","4","1","0","1","1","0","0","1","1","0","1","-1","0","1","0","1","5","4","4","3","4","3","4","4","3","3","690857936225828864","叶","","","","","","","","","","","","","","","","","","","","","","","","","","","","","","","","","","","","","","","",""
"1180","<p style=""color:white; font-size: 35px;"">天才</p>","i","categorize-html","106","241796","0.0-6.0-0.0-6.0-1.23","2","2","2","2","2","2","2","2","2","2","4","2","1","3","2","3","2","2","3","2","4","5","3","4","3","3","4","3","4","1","0","1","1","0","0","1","1","0","1","-1","0","1","0","1","5","4","4","3","4","3","4","4","3","3","690857936225828864","叶","","","","","","","","","","","","","","","","","","","true","3","3","ability","1180","positive","天才","","","","","","","","","","","","","","",""
"1598","
    <div class=""tag-bottom""><p>
    ―― 任务4：对“他人/消极”词和“自我/积极”词分类 ――<p/>
    <span style=""color:#78DCE8""><b>与刚才的任务完全相同，请再次对这四类词语分类</b></span><p/>
    <span style=""color:#FFD866""><b>请根据上方标签的提示，尽可能正确并且快速地做出按键反应</b></span><p/>
    当按键错误时屏幕中会出现<span style=""color:red""> X </span>，需要按另一个键纠正才能继续<br/><p/>
    请把双手食指分别放在键盘的“E”键和“I”键上<p/>
    按<空格键>开始
    </p></div>"," ","html-keyboard-response","107","243395","0.0-6.0-0.0-7.0","2","2","2","2","2","2","2","2","2","2","4","2","1","3","2","3","2","2","3","2","4","5","3","4","3","3","4","3","4","1","0","1","1","0","0","1","1","0","1","-1","0","1","0","1","5","4","4","3","4","3","4","4","3","3","690857936225828864","叶","","","","","","","","","","","","","","","","","","","","","","","","","","","","","","","","","","","","","","","",""
"null","","null","html-keyboard-response","108","243653","0.0-6.0-0.0-8.0-0.0","2","2","2","2","2","2","2","2","2","2","4","2","1","3","2","3","2","2","3","2","4","5","3","4","3","3","4","3","4","1","0","1","1","0","0","1","1","0","1","-1","0","1","0","1","5","4","4","3","4","3","4","4","3","3","690857936225828864","叶","","","","","","","","","","","","","","","","","","","","","","","","","","","","","","","","","","","","","","","",""
"2020","<p style=""color:rgb(150, 250, 100); font-size: 35px;"">别人的</p>","e","categorize-html","109","245680","0.0-6.0-0.0-8.0-1.0","2","2","2","2","2","2","2","2","2","2","4","2","1","3","2","3","2","2","3","2","4","5","3","4","3","3","4","3","4","1","0","1","1","0","0","1","1","0","1","-1","0","1","0","1","5","4","4","3","4","3","4","4","3","3","690857936225828864","叶","","","","","","","","","","","","","","","","","","","true","4","4","ability","2020","other","别人的","","","","","","","","","","","","","","",""
"null","","null","html-keyboard-response","110","245933","0.0-6.0-0.0-8.0-0.1","2","2","2","2","2","2","2","2","2","2","4","2","1","3","2","3","2","2","3","2","4","5","3","4","3","3","4","3","4","1","0","1","1","0","0","1","1","0","1","-1","0","1","0","1","5","4","4","3","4","3","4","4","3","3","690857936225828864","叶","","","","","","","","","","","","","","","","","","","","","","","","","","","","","","","","","","","","","","","",""
"956","<p style=""color:white; font-size: 35px;"">全能</p>","i","categorize-html","111","246894","0.0-6.0-0.0-8.0-1.1","2","2","2","2","2","2","2","2","2","2","4","2","1","3","2","3","2","2","3","2","4","5","3","4","3","3","4","3","4","1","0","1","1","0","0","1","1","0","1","-1","0","1","0","1","5","4","4","3","4","3","4","4","3","3","690857936225828864","叶","","","","","","","","","","","","","","","","","","","true","4","4","ability","956","positive","全能","","","","","","","","","","","","","","",""
"null","","null","html-keyboard-response","112","247149","0.0-6.0-0.0-8.0-0.2","2","2","2","2","2","2","2","2","2","2","4","2","1","3","2","3","2","2","3","2","4","5","3","4","3","3","4","3","4","1","0","1","1","0","0","1","1","0","1","-1","0","1","0","1","5","4","4","3","4","3","4","4","3","3","690857936225828864","叶","","","","","","","","","","","","","","","","","","","","","","","","","","","","","","","","","","","","","","","",""
"852","<p style=""color:rgb(150, 250, 100); font-size: 35px;"">我的</p>","i","categorize-html","113","248004","0.0-6.0-0.0-8.0-1.2","2","2","2","2","2","2","2","2","2","2","4","2","1","3","2","3","2","2","3","2","4","5","3","4","3","3","4","3","4","1","0","1","1","0","0","1","1","0","1","-1","0","1","0","1","5","4","4","3","4","3","4","4","3","3","690857936225828864","叶","","","","","","","","","","","","","","","","","","","true","4","4","ability","852","self","我的","","","","","","","","","","","","","","",""
"null","","null","html-keyboard-response","114","248261","0.0-6.0-0.0-8.0-0.3","2","2","2","2","2","2","2","2","2","2","4","2","1","3","2","3","2","2","3","2","4","5","3","4","3","3","4","3","4","1","0","1","1","0","0","1","1","0","1","-1","0","1","0","1","5","4","4","3","4","3","4","4","3","3","690857936225828864","叶","","","","","","","","","","","","","","","","","","","","","","","","","","","","","","","","","","","","","","","",""
"709","<p style=""color:white; font-size: 35px;"">低能</p>","e","categorize-html","115","248974","0.0-6.0-0.0-8.0-1.3","2","2","2","2","2","2","2","2","2","2","4","2","1","3","2","3","2","2","3","2","4","5","3","4","3","3","4","3","4","1","0","1","1","0","0","1","1","0","1","-1","0","1","0","1","5","4","4","3","4","3","4","4","3","3","690857936225828864","叶","","","","","","","","","","","","","","","","","","","true","4","4","ability","709","negative","低能","","","","","","","","","","","","","","",""
"null","","null","html-keyboard-response","116","249229","0.0-6.0-0.0-8.0-0.4","2","2","2","2","2","2","2","2","2","2","4","2","1","3","2","3","2","2","3","2","4","5","3","4","3","3","4","3","4","1","0","1","1","0","0","1","1","0","1","-1","0","1","0","1","5","4","4","3","4","3","4","4","3","3","690857936225828864","叶","","","","","","","","","","","","","","","","","","","","","","","","","","","","","","","","","","","","","","","",""
"604","<p style=""color:rgb(150, 250, 100); font-size: 35px;"">自己</p>","i","categorize-html","117","249836","0.0-6.0-0.0-8.0-1.4","2","2","2","2","2","2","2","2","2","2","4","2","1","3","2","3","2","2","3","2","4","5","3","4","3","3","4","3","4","1","0","1","1","0","0","1","1","0","1","-1","0","1","0","1","5","4","4","3","4","3","4","4","3","3","690857936225828864","叶","","","","","","","","","","","","","","","","","","","true","4","4","ability","604","self","自己","","","","","","","","","","","","","","",""
"null","","null","html-keyboard-response","118","250093","0.0-6.0-0.0-8.0-0.5","2","2","2","2","2","2","2","2","2","2","4","2","1","3","2","3","2","2","3","2","4","5","3","4","3","3","4","3","4","1","0","1","1","0","0","1","1","0","1","-1","0","1","0","1","5","4","4","3","4","3","4","4","3","3","690857936225828864","叶","","","","","","","","","","","","","","","","","","","","","","","","","","","","","","","","","","","","","","","",""
"1108","<p style=""color:white; font-size: 35px;"">全才</p>","i","categorize-html","119","251203","0.0-6.0-0.0-8.0-1.5","2","2","2","2","2","2","2","2","2","2","4","2","1","3","2","3","2","2","3","2","4","5","3","4","3","3","4","3","4","1","0","1","1","0","0","1","1","0","1","-1","0","1","0","1","5","4","4","3","4","3","4","4","3","3","690857936225828864","叶","","","","","","","","","","","","","","","","","","","true","4","4","ability","1108","positive","全才","","","","","","","","","","","","","","",""
"null","","null","html-keyboard-response","120","251461","0.0-6.0-0.0-8.0-0.6","2","2","2","2","2","2","2","2","2","2","4","2","1","3","2","3","2","2","3","2","4","5","3","4","3","3","4","3","4","1","0","1","1","0","0","1","1","0","1","-1","0","1","0","1","5","4","4","3","4","3","4","4","3","3","690857936225828864","叶","","","","","","","","","","","","","","","","","","","","","","","","","","","","","","","","","","","","","","","",""
"821","<p style=""color:rgb(150, 250, 100); font-size: 35px;"">他的</p>","e","categorize-html","121","252287","0.0-6.0-0.0-8.0-1.6","2","2","2","2","2","2","2","2","2","2","4","2","1","3","2","3","2","2","3","2","4","5","3","4","3","3","4","3","4","1","0","1","1","0","0","1","1","0","1","-1","0","1","0","1","5","4","4","3","4","3","4","4","3","3","690857936225828864","叶","","","","","","","","","","","","","","","","","","","true","4","4","ability","821","other","他的","","","","","","","","","","","","","","",""
"null","","null","html-keyboard-response","122","252549","0.0-6.0-0.0-8.0-0.7","2","2","2","2","2","2","2","2","2","2","4","2","1","3","2","3","2","2","3","2","4","5","3","4","3","3","4","3","4","1","0","1","1","0","0","1","1","0","1","-1","0","1","0","1","5","4","4","3","4","3","4","4","3","3","690857936225828864","叶","","","","","","","","","","","","","","","","","","","","","","","","","","","","","","","","","","","","","","","",""
"1172","<p style=""color:white; font-size: 35px;"">蠢笨</p>","e","categorize-html","123","253726","0.0-6.0-0.0-8.0-1.7","2","2","2","2","2","2","2","2","2","2","4","2","1","3","2","3","2","2","3","2","4","5","3","4","3","3","4","3","4","1","0","1","1","0","0","1","1","0","1","-1","0","1","0","1","5","4","4","3","4","3","4","4","3","3","690857936225828864","叶","","","","","","","","","","","","","","","","","","","true","4","4","ability","1172","negative","蠢笨","","","","","","","","","","","","","","",""
"null","","null","html-keyboard-response","124","253981","0.0-6.0-0.0-8.0-0.8","2","2","2","2","2","2","2","2","2","2","4","2","1","3","2","3","2","2","3","2","4","5","3","4","3","3","4","3","4","1","0","1","1","0","0","1","1","0","1","-1","0","1","0","1","5","4","4","3","4","3","4","4","3","3","690857936225828864","叶","","","","","","","","","","","","","","","","","","","","","","","","","","","","","","","","","","","","","","","",""
"948","<p style=""color:rgb(150, 250, 100); font-size: 35px;"">他人</p>","e","categorize-html","125","254934","0.0-6.0-0.0-8.0-1.8","2","2","2","2","2","2","2","2","2","2","4","2","1","3","2","3","2","2","3","2","4","5","3","4","3","3","4","3","4","1","0","1","1","0","0","1","1","0","1","-1","0","1","0","1","5","4","4","3","4","3","4","4","3","3","690857936225828864","叶","","","","","","","","","","","","","","","","","","","true","4","4","ability","948","other","他人","","","","","","","","","","","","","","",""
"null","","null","html-keyboard-response","126","255189","0.0-6.0-0.0-8.0-0.9","2","2","2","2","2","2","2","2","2","2","4","2","1","3","2","3","2","2","3","2","4","5","3","4","3","3","4","3","4","1","0","1","1","0","0","1","1","0","1","-1","0","1","0","1","5","4","4","3","4","3","4","4","3","3","690857936225828864","叶","","","","","","","","","","","","","","","","","","","","","","","","","","","","","","","","","","","","","","","",""
"1436","<p style=""color:white; font-size: 35px;"">高效</p>","i","categorize-html","127","256630","0.0-6.0-0.0-8.0-1.9","2","2","2","2","2","2","2","2","2","2","4","2","1","3","2","3","2","2","3","2","4","5","3","4","3","3","4","3","4","1","0","1","1","0","0","1","1","0","1","-1","0","1","0","1","5","4","4","3","4","3","4","4","3","3","690857936225828864","叶","","","","","","","","","","","","","","","","","","","true","4","4","ability","1436","positive","高效","","","","","","","","","","","","","","",""
"null","","null","html-keyboard-response","128","256885","0.0-6.0-0.0-8.0-0.10","2","2","2","2","2","2","2","2","2","2","4","2","1","3","2","3","2","2","3","2","4","5","3","4","3","3","4","3","4","1","0","1","1","0","0","1","1","0","1","-1","0","1","0","1","5","4","4","3","4","3","4","4","3","3","690857936225828864","叶","","","","","","","","","","","","","","","","","","","","","","","","","","","","","","","","","","","","","","","",""
"715","<p style=""color:rgb(150, 250, 100); font-size: 35px;"">本人</p>","i","categorize-html","129","257604","0.0-6.0-0.0-8.0-1.10","2","2","2","2","2","2","2","2","2","2","4","2","1","3","2","3","2","2","3","2","4","5","3","4","3","3","4","3","4","1","0","1","1","0","0","1","1","0","1","-1","0","1","0","1","5","4","4","3","4","3","4","4","3","3","690857936225828864","叶","","","","","","","","","","","","","","","","","","","true","4","4","ability","715","self","本人","","","","","","","","","","","","","","",""
"null","","null","html-keyboard-response","130","257858","0.0-6.0-0.0-8.0-0.11","2","2","2","2","2","2","2","2","2","2","4","2","1","3","2","3","2","2","3","2","4","5","3","4","3","3","4","3","4","1","0","1","1","0","0","1","1","0","1","-1","0","1","0","1","5","4","4","3","4","3","4","4","3","3","690857936225828864","叶","","","","","","","","","","","","","","","","","","","","","","","","","","","","","","","","","","","","","","","",""
"679","<p style=""color:white; font-size: 35px;"">废物</p>","e","categorize-html","131","258542","0.0-6.0-0.0-8.0-1.11","2","2","2","2","2","2","2","2","2","2","4","2","1","3","2","3","2","2","3","2","4","5","3","4","3","3","4","3","4","1","0","1","1","0","0","1","1","0","1","-1","0","1","0","1","5","4","4","3","4","3","4","4","3","3","690857936225828864","叶","","","","","","","","","","","","","","","","","","","true","4","4","ability","679","negative","废物","","","","","","","","","","","","","","",""
"null","","null","html-keyboard-response","132","258797","0.0-6.0-0.0-8.0-0.12","2","2","2","2","2","2","2","2","2","2","4","2","1","3","2","3","2","2","3","2","4","5","3","4","3","3","4","3","4","1","0","1","1","0","0","1","1","0","1","-1","0","1","0","1","5","4","4","3","4","3","4","4","3","3","690857936225828864","叶","","","","","","","","","","","","","","","","","","","","","","","","","","","","","","","","","","","","","","","",""
"788","<p style=""color:rgb(150, 250, 100); font-size: 35px;"">本人的</p>","i","categorize-html","133","259590","0.0-6.0-0.0-8.0-1.12","2","2","2","2","2","2","2","2","2","2","4","2","1","3","2","3","2","2","3","2","4","5","3","4","3","3","4","3","4","1","0","1","1","0","0","1","1","0","1","-1","0","1","0","1","5","4","4","3","4","3","4","4","3","3","690857936225828864","叶","","","","","","","","","","","","","","","","","","","true","4","4","ability","788","self","本人的","","","","","","","","","","","","","","",""
"null","","null","html-keyboard-response","134","259845","0.0-6.0-0.0-8.0-0.13","2","2","2","2","2","2","2","2","2","2","4","2","1","3","2","3","2","2","3","2","4","5","3","4","3","3","4","3","4","1","0","1","1","0","0","1","1","0","1","-1","0","1","0","1","5","4","4","3","4","3","4","4","3","3","690857936225828864","叶","","","","","","","","","","","","","","","","","","","","","","","","","","","","","","","","","","","","","","","",""
"980","<p style=""color:white; font-size: 35px;"">低能</p>","e","categorize-html","135","260830","0.0-6.0-0.0-8.0-1.13","2","2","2","2","2","2","2","2","2","2","4","2","1","3","2","3","2","2","3","2","4","5","3","4","3","3","4","3","4","1","0","1","1","0","0","1","1","0","1","-1","0","1","0","1","5","4","4","3","4","3","4","4","3","3","690857936225828864","叶","","","","","","","","","","","","","","","","","","","true","4","4","ability","980","negative","低能","","","","","","","","","","","","","","",""
"null","","null","html-keyboard-response","136","261085","0.0-6.0-0.0-8.0-0.14","2","2","2","2","2","2","2","2","2","2","4","2","1","3","2","3","2","2","3","2","4","5","3","4","3","3","4","3","4","1","0","1","1","0","0","1","1","0","1","-1","0","1","0","1","5","4","4","3","4","3","4","4","3","3","690857936225828864","叶","","","","","","","","","","","","","","","","","","","","","","","","","","","","","","","","","","","","","","","",""
"1412","<p style=""color:rgb(150, 250, 100); font-size: 35px;"">他人的</p>","e","categorize-html","137","262502","0.0-6.0-0.0-8.0-1.14","2","2","2","2","2","2","2","2","2","2","4","2","1","3","2","3","2","2","3","2","4","5","3","4","3","3","4","3","4","1","0","1","1","0","0","1","1","0","1","-1","0","1","0","1","5","4","4","3","4","3","4","4","3","3","690857936225828864","叶","","","","","","","","","","","","","","","","","","","true","4","4","ability","1412","other","他人的","","","","","","","","","","","","","","",""
"null","","null","html-keyboard-response","138","262757","0.0-6.0-0.0-8.0-0.15","2","2","2","2","2","2","2","2","2","2","4","2","1","3","2","3","2","2","3","2","4","5","3","4","3","3","4","3","4","1","0","1","1","0","0","1","1","0","1","-1","0","1","0","1","5","4","4","3","4","3","4","4","3","3","690857936225828864","叶","","","","","","","","","","","","","","","","","","","","","","","","","","","","","","","","","","","","","","","",""
"1116","<p style=""color:white; font-size: 35px;"">精干</p>","i","categorize-html","139","263878","0.0-6.0-0.0-8.0-1.15","2","2","2","2","2","2","2","2","2","2","4","2","1","3","2","3","2","2","3","2","4","5","3","4","3","3","4","3","4","1","0","1","1","0","0","1","1","0","1","-1","0","1","0","1","5","4","4","3","4","3","4","4","3","3","690857936225828864","叶","","","","","","","","","","","","","","","","","","","true","4","4","ability","1116","positive","精干","","","","","","","","","","","","","","",""
"null","","null","html-keyboard-response","140","264132","0.0-6.0-0.0-8.0-0.16","2","2","2","2","2","2","2","2","2","2","4","2","1","3","2","3","2","2","3","2","4","5","3","4","3","3","4","3","4","1","0","1","1","0","0","1","1","0","1","-1","0","1","0","1","5","4","4","3","4","3","4","4","3","3","690857936225828864","叶","","","","","","","","","","","","","","","","","","","","","","","","","","","","","","","","","","","","","","","",""
"708","<p style=""color:rgb(150, 250, 100); font-size: 35px;"">我</p>","i","categorize-html","141","264846","0.0-6.0-0.0-8.0-1.16","2","2","2","2","2","2","2","2","2","2","4","2","1","3","2","3","2","2","3","2","4","5","3","4","3","3","4","3","4","1","0","1","1","0","0","1","1","0","1","-1","0","1","0","1","5","4","4","3","4","3","4","4","3","3","690857936225828864","叶","","","","","","","","","","","","","","","","","","","true","4","4","ability","708","self","我","","","","","","","","","","","","","","",""
"null","","null","html-keyboard-response","142","265100","0.0-6.0-0.0-8.0-0.17","2","2","2","2","2","2","2","2","2","2","4","2","1","3","2","3","2","2","3","2","4","5","3","4","3","3","4","3","4","1","0","1","1","0","0","1","1","0","1","-1","0","1","0","1","5","4","4","3","4","3","4","4","3","3","690857936225828864","叶","","","","","","","","","","","","","","","","","","","","","","","","","","","","","","","","","","","","","","","",""
"1140","<p style=""color:white; font-size: 35px;"">拙笨</p>","e","categorize-html","143","266245","0.0-6.0-0.0-8.0-1.17","2","2","2","2","2","2","2","2","2","2","4","2","1","3","2","3","2","2","3","2","4","5","3","4","3","3","4","3","4","1","0","1","1","0","0","1","1","0","1","-1","0","1","0","1","5","4","4","3","4","3","4","4","3","3","690857936225828864","叶","","","","","","","","","","","","","","","","","","","true","4","4","ability","1140","negative","拙笨","","","","","","","","","","","","","","",""
"null","","null","html-keyboard-response","144","266501","0.0-6.0-0.0-8.0-0.18","2","2","2","2","2","2","2","2","2","2","4","2","1","3","2","3","2","2","3","2","4","5","3","4","3","3","4","3","4","1","0","1","1","0","0","1","1","0","1","-1","0","1","0","1","5","4","4","3","4","3","4","4","3","3","690857936225828864","叶","","","","","","","","","","","","","","","","","","","","","","","","","","","","","","","","","","","","","","","",""
"916","<p style=""color:rgb(150, 250, 100); font-size: 35px;"">他的</p>","e","categorize-html","145","267422","0.0-6.0-0.0-8.0-1.18","2","2","2","2","2","2","2","2","2","2","4","2","1","3","2","3","2","2","3","2","4","5","3","4","3","3","4","3","4","1","0","1","1","0","0","1","1","0","1","-1","0","1","0","1","5","4","4","3","4","3","4","4","3","3","690857936225828864","叶","","","","","","","","","","","","","","","","","","","true","4","4","ability","916","other","他的","","","","","","","","","","","","","","",""
"null","","null","html-keyboard-response","146","267677","0.0-6.0-0.0-8.0-0.19","2","2","2","2","2","2","2","2","2","2","4","2","1","3","2","3","2","2","3","2","4","5","3","4","3","3","4","3","4","1","0","1","1","0","0","1","1","0","1","-1","0","1","0","1","5","4","4","3","4","3","4","4","3","3","690857936225828864","叶","","","","","","","","","","","","","","","","","","","","","","","","","","","","","","","","","","","","","","","",""
"868","<p style=""color:white; font-size: 35px;"">全能</p>","i","categorize-html","147","268549","0.0-6.0-0.0-8.0-1.19","2","2","2","2","2","2","2","2","2","2","4","2","1","3","2","3","2","2","3","2","4","5","3","4","3","3","4","3","4","1","0","1","1","0","0","1","1","0","1","-1","0","1","0","1","5","4","4","3","4","3","4","4","3","3","690857936225828864","叶","","","","","","","","","","","","","","","","","","","true","4","4","ability","868","positive","全能","","","","","","","","","","","","","","",""
"null","","null","html-keyboard-response","148","268805","0.0-6.0-0.0-8.0-0.20","2","2","2","2","2","2","2","2","2","2","4","2","1","3","2","3","2","2","3","2","4","5","3","4","3","3","4","3","4","1","0","1","1","0","0","1","1","0","1","-1","0","1","0","1","5","4","4","3","4","3","4","4","3","3","690857936225828864","叶","","","","","","","","","","","","","","","","","","","","","","","","","","","","","","","","","","","","","","","",""
"1564","<p style=""color:rgb(150, 250, 100); font-size: 35px;"">他</p>","e","categorize-html","149","270374","0.0-6.0-0.0-8.0-1.20","2","2","2","2","2","2","2","2","2","2","4","2","1","3","2","3","2","2","3","2","4","5","3","4","3","3","4","3","4","1","0","1","1","0","0","1","1","0","1","-1","0","1","0","1","5","4","4","3","4","3","4","4","3","3","690857936225828864","叶","","","","","","","","","","","","","","","","","","","true","4","4","ability","1564","other","他","","","","","","","","","","","","","","",""
"null","","null","html-keyboard-response","150","270629","0.0-6.0-0.0-8.0-0.21","2","2","2","2","2","2","2","2","2","2","4","2","1","3","2","3","2","2","3","2","4","5","3","4","3","3","4","3","4","1","0","1","1","0","0","1","1","0","1","-1","0","1","0","1","5","4","4","3","4","3","4","4","3","3","690857936225828864","叶","","","","","","","","","","","","","","","","","","","","","","","","","","","","","","","","","","","","","","","",""
"932","<p style=""color:white; font-size: 35px;"">精干</p>","i","categorize-html","151","271565","0.0-6.0-0.0-8.0-1.21","2","2","2","2","2","2","2","2","2","2","4","2","1","3","2","3","2","2","3","2","4","5","3","4","3","3","4","3","4","1","0","1","1","0","0","1","1","0","1","-1","0","1","0","1","5","4","4","3","4","3","4","4","3","3","690857936225828864","叶","","","","","","","","","","","","","","","","","","","true","4","4","ability","932","positive","精干","","","","","","","","","","","","","","",""
"null","","null","html-keyboard-response","152","271821","0.0-6.0-0.0-8.0-0.22","2","2","2","2","2","2","2","2","2","2","4","2","1","3","2","3","2","2","3","2","4","5","3","4","3","3","4","3","4","1","0","1","1","0","0","1","1","0","1","-1","0","1","0","1","5","4","4","3","4","3","4","4","3","3","690857936225828864","叶","","","","","","","","","","","","","","","","","","","","","","","","","","","","","","","","","","","","","","","",""
"676","<p style=""color:rgb(150, 250, 100); font-size: 35px;"">本人</p>","i","categorize-html","153","272501","0.0-6.0-0.0-8.0-1.22","2","2","2","2","2","2","2","2","2","2","4","2","1","3","2","3","2","2","3","2","4","5","3","4","3","3","4","3","4","1","0","1","1","0","0","1","1","0","1","-1","0","1","0","1","5","4","4","3","4","3","4","4","3","3","690857936225828864","叶","","","","","","","","","","","","","","","","","","","true","4","4","ability","676","self","本人","","","","","","","","","","","","","","",""
"null","","null","html-keyboard-response","154","272757","0.0-6.0-0.0-8.0-0.23","2","2","2","2","2","2","2","2","2","2","4","2","1","3","2","3","2","2","3","2","4","5","3","4","3","3","4","3","4","1","0","1","1","0","0","1","1","0","1","-1","0","1","0","1","5","4","4","3","4","3","4","4","3","3","690857936225828864","叶","","","","","","","","","","","","","","","","","","","","","","","","","","","","","","","","","","","","","","","",""
"1236","<p style=""color:white; font-size: 35px;"">拙笨</p>","e","categorize-html","155","273994","0.0-6.0-0.0-8.0-1.23","2","2","2","2","2","2","2","2","2","2","4","2","1","3","2","3","2","2","3","2","4","5","3","4","3","3","4","3","4","1","0","1","1","0","0","1","1","0","1","-1","0","1","0","1","5","4","4","3","4","3","4","4","3","3","690857936225828864","叶","","","","","","","","","","","","","","","","","","","true","4","4","ability","1236","negative","拙笨","","","","","","","","","","","","","","",""
"null","","null","html-keyboard-response","156","274253","0.0-6.0-0.0-8.0-0.24","2","2","2","2","2","2","2","2","2","2","4","2","1","3","2","3","2","2","3","2","4","5","3","4","3","3","4","3","4","1","0","1","1","0","0","1","1","0","1","-1","0","1","0","1","5","4","4","3","4","3","4","4","3","3","690857936225828864","叶","","","","","","","","","","","","","","","","","","","","","","","","","","","","","","","","","","","","","","","",""
"804","<p style=""color:rgb(150, 250, 100); font-size: 35px;"">我的</p>","i","categorize-html","157","275062","0.0-6.0-0.0-8.0-1.24","2","2","2","2","2","2","2","2","2","2","4","2","1","3","2","3","2","2","3","2","4","5","3","4","3","3","4","3","4","1","0","1","1","0","0","1","1","0","1","-1","0","1","0","1","5","4","4","3","4","3","4","4","3","3","690857936225828864","叶","","","","","","","","","","","","","","","","","","","true","4","4","ability","804","self","我的","","","","","","","","","","","","","","",""
"null","","null","html-keyboard-response","158","275317","0.0-6.0-0.0-8.0-0.25","2","2","2","2","2","2","2","2","2","2","4","2","1","3","2","3","2","2","3","2","4","5","3","4","3","3","4","3","4","1","0","1","1","0","0","1","1","0","1","-1","0","1","0","1","5","4","4","3","4","3","4","4","3","3","690857936225828864","叶","","","","","","","","","","","","","","","","","","","","","","","","","","","","","","","","","","","","","","","",""
"692","<p style=""color:white; font-size: 35px;"">高效</p>","i","categorize-html","159","276014","0.0-6.0-0.0-8.0-1.25","2","2","2","2","2","2","2","2","2","2","4","2","1","3","2","3","2","2","3","2","4","5","3","4","3","3","4","3","4","1","0","1","1","0","0","1","1","0","1","-1","0","1","0","1","5","4","4","3","4","3","4","4","3","3","690857936225828864","叶","","","","","","","","","","","","","","","","","","","true","4","4","ability","692","positive","高效","","","","","","","","","","","","","","",""
"null","","null","html-keyboard-response","160","276269","0.0-6.0-0.0-8.0-0.26","2","2","2","2","2","2","2","2","2","2","4","2","1","3","2","3","2","2","3","2","4","5","3","4","3","3","4","3","4","1","0","1","1","0","0","1","1","0","1","-1","0","1","0","1","5","4","4","3","4","3","4","4","3","3","690857936225828864","叶","","","","","","","","","","","","","","","","","","","","","","","","","","","","","","","","","","","","","","","",""
"805","<p style=""color:rgb(150, 250, 100); font-size: 35px;"">他</p>","e","categorize-html","161","277077","0.0-6.0-0.0-8.0-1.26","2","2","2","2","2","2","2","2","2","2","4","2","1","3","2","3","2","2","3","2","4","5","3","4","3","3","4","3","4","1","0","1","1","0","0","1","1","0","1","-1","0","1","0","1","5","4","4","3","4","3","4","4","3","3","690857936225828864","叶","","","","","","","","","","","","","","","","","","","true","4","4","ability","805","other","他","","","","","","","","","","","","","","",""
"null","","null","html-keyboard-response","162","277333","0.0-6.0-0.0-8.0-0.27","2","2","2","2","2","2","2","2","2","2","4","2","1","3","2","3","2","2","3","2","4","5","3","4","3","3","4","3","4","1","0","1","1","0","0","1","1","0","1","-1","0","1","0","1","5","4","4","3","4","3","4","4","3","3","690857936225828864","叶","","","","","","","","","","","","","","","","","","","","","","","","","","","","","","","","","","","","","","","",""
"1156","<p style=""color:white; font-size: 35px;"">无能</p>","e","categorize-html","163","278492","0.0-6.0-0.0-8.0-1.27","2","2","2","2","2","2","2","2","2","2","4","2","1","3","2","3","2","2","3","2","4","5","3","4","3","3","4","3","4","1","0","1","1","0","0","1","1","0","1","-1","0","1","0","1","5","4","4","3","4","3","4","4","3","3","690857936225828864","叶","","","","","","","","","","","","","","","","","","","true","4","4","ability","1156","negative","无能","","","","","","","","","","","","","","",""
"null","","null","html-keyboard-response","164","278749","0.0-6.0-0.0-8.0-0.28","2","2","2","2","2","2","2","2","2","2","4","2","1","3","2","3","2","2","3","2","4","5","3","4","3","3","4","3","4","1","0","1","1","0","0","1","1","0","1","-1","0","1","0","1","5","4","4","3","4","3","4","4","3","3","690857936225828864","叶","","","","","","","","","","","","","","","","","","","","","","","","","","","","","","","","","","","","","","","",""
"875","<p style=""color:rgb(150, 250, 100); font-size: 35px;"">自己的</p>","i","categorize-html","165","279630","0.0-6.0-0.0-8.0-1.28","2","2","2","2","2","2","2","2","2","2","4","2","1","3","2","3","2","2","3","2","4","5","3","4","3","3","4","3","4","1","0","1","1","0","0","1","1","0","1","-1","0","1","0","1","5","4","4","3","4","3","4","4","3","3","690857936225828864","叶","","","","","","","","","","","","","","","","","","","true","4","4","ability","875","self","自己的","","","","","","","","","","","","","","",""
"null","","null","html-keyboard-response","166","279885","0.0-6.0-0.0-8.0-0.29","2","2","2","2","2","2","2","2","2","2","4","2","1","3","2","3","2","2","3","2","4","5","3","4","3","3","4","3","4","1","0","1","1","0","0","1","1","0","1","-1","0","1","0","1","5","4","4","3","4","3","4","4","3","3","690857936225828864","叶","","","","","","","","","","","","","","","","","","","","","","","","","","","","","","","","","","","","","","","",""
"1604","<p style=""color:white; font-size: 35px;"">蠢笨</p>","e","categorize-html","167","281494","0.0-6.0-0.0-8.0-1.29","2","2","2","2","2","2","2","2","2","2","4","2","1","3","2","3","2","2","3","2","4","5","3","4","3","3","4","3","4","1","0","1","1","0","0","1","1","0","1","-1","0","1","0","1","5","4","4","3","4","3","4","4","3","3","690857936225828864","叶","","","","","","","","","","","","","","","","","","","true","4","4","ability","1604","negative","蠢笨","","","","","","","","","","","","","","",""
"null","","null","html-keyboard-response","168","281749","0.0-6.0-0.0-8.0-0.30","2","2","2","2","2","2","2","2","2","2","4","2","1","3","2","3","2","2","3","2","4","5","3","4","3","3","4","3","4","1","0","1","1","0","0","1","1","0","1","-1","0","1","0","1","5","4","4","3","4","3","4","4","3","3","690857936225828864","叶","","","","","","","","","","","","","","","","","","","","","","","","","","","","","","","","","","","","","","","",""
"947","<p style=""color:rgb(150, 250, 100); font-size: 35px;"">他人的</p>","e","categorize-html","169","282701","0.0-6.0-0.0-8.0-1.30","2","2","2","2","2","2","2","2","2","2","4","2","1","3","2","3","2","2","3","2","4","5","3","4","3","3","4","3","4","1","0","1","1","0","0","1","1","0","1","-1","0","1","0","1","5","4","4","3","4","3","4","4","3","3","690857936225828864","叶","","","","","","","","","","","","","","","","","","","true","4","4","ability","947","other","他人的","","","","","","","","","","","","","","",""
"null","","null","html-keyboard-response","170","282957","0.0-6.0-0.0-8.0-0.31","2","2","2","2","2","2","2","2","2","2","4","2","1","3","2","3","2","2","3","2","4","5","3","4","3","3","4","3","4","1","0","1","1","0","0","1","1","0","1","-1","0","1","0","1","5","4","4","3","4","3","4","4","3","3","690857936225828864","叶","","","","","","","","","","","","","","","","","","","","","","","","","","","","","","","","","","","","","","","",""
"1364","<p style=""color:white; font-size: 35px;"">能干</p>","i","categorize-html","171","284327","0.0-6.0-0.0-8.0-1.31","2","2","2","2","2","2","2","2","2","2","4","2","1","3","2","3","2","2","3","2","4","5","3","4","3","3","4","3","4","1","0","1","1","0","0","1","1","0","1","-1","0","1","0","1","5","4","4","3","4","3","4","4","3","3","690857936225828864","叶","","","","","","","","","","","","","","","","","","","true","4","4","ability","1364","positive","能干","","","","","","","","","","","","","","",""
"null","","null","html-keyboard-response","172","284583","0.0-6.0-0.0-8.0-0.32","2","2","2","2","2","2","2","2","2","2","4","2","1","3","2","3","2","2","3","2","4","5","3","4","3","3","4","3","4","1","0","1","1","0","0","1","1","0","1","-1","0","1","0","1","5","4","4","3","4","3","4","4","3","3","690857936225828864","叶","","","","","","","","","","","","","","","","","","","","","","","","","","","","","","","","","","","","","","","",""
"979","<p style=""color:rgb(150, 250, 100); font-size: 35px;"">别人</p>","e","categorize-html","173","285567","0.0-6.0-0.0-8.0-1.32","2","2","2","2","2","2","2","2","2","2","4","2","1","3","2","3","2","2","3","2","4","5","3","4","3","3","4","3","4","1","0","1","1","0","0","1","1","0","1","-1","0","1","0","1","5","4","4","3","4","3","4","4","3","3","690857936225828864","叶","","","","","","","","","","","","","","","","","","","true","4","4","ability","979","other","别人","","","","","","","","","","","","","","",""
"null","","null","html-keyboard-response","174","285823","0.0-6.0-0.0-8.0-0.33","2","2","2","2","2","2","2","2","2","2","4","2","1","3","2","3","2","2","3","2","4","5","3","4","3","3","4","3","4","1","0","1","1","0","0","1","1","0","1","-1","0","1","0","1","5","4","4","3","4","3","4","4","3","3","690857936225828864","叶","","","","","","","","","","","","","","","","","","","","","","","","","","","","","","","","","","","","","","","",""
"651","<p style=""color:white; font-size: 35px;"">无能</p>","e","categorize-html","175","286479","0.0-6.0-0.0-8.0-1.33","2","2","2","2","2","2","2","2","2","2","4","2","1","3","2","3","2","2","3","2","4","5","3","4","3","3","4","3","4","1","0","1","1","0","0","1","1","0","1","-1","0","1","0","1","5","4","4","3","4","3","4","4","3","3","690857936225828864","叶","","","","","","","","","","","","","","","","","","","true","4","4","ability","651","negative","无能","","","","","","","","","","","","","","",""
"null","","null","html-keyboard-response","176","286735","0.0-6.0-0.0-8.0-0.34","2","2","2","2","2","2","2","2","2","2","4","2","1","3","2","3","2","2","3","2","4","5","3","4","3","3","4","3","4","1","0","1","1","0","0","1","1","0","1","-1","0","1","0","1","5","4","4","3","4","3","4","4","3","3","690857936225828864","叶","","","","","","","","","","","","","","","","","","","","","","","","","","","","","","","","","","","","","","","",""
"867","<p style=""color:rgb(150, 250, 100); font-size: 35px;"">自己的</p>","i","categorize-html","177","287607","0.0-6.0-0.0-8.0-1.34","2","2","2","2","2","2","2","2","2","2","4","2","1","3","2","3","2","2","3","2","4","5","3","4","3","3","4","3","4","1","0","1","1","0","0","1","1","0","1","-1","0","1","0","1","5","4","4","3","4","3","4","4","3","3","690857936225828864","叶","","","","","","","","","","","","","","","","","","","true","4","4","ability","867","self","自己的","","","","","","","","","","","","","","",""
"null","","null","html-keyboard-response","178","287863","0.0-6.0-0.0-8.0-0.35","2","2","2","2","2","2","2","2","2","2","4","2","1","3","2","3","2","2","3","2","4","5","3","4","3","3","4","3","4","1","0","1","1","0","0","1","1","0","1","-1","0","1","0","1","5","4","4","3","4","3","4","4","3","3","690857936225828864","叶","","","","","","","","","","","","","","","","","","","","","","","","","","","","","","","","","","","","","","","",""
"2419","<p style=""color:white; font-size: 35px;"">能干</p>","i","categorize-html","179","290289","0.0-6.0-0.0-8.0-1.35","2","2","2","2","2","2","2","2","2","2","4","2","1","3","2","3","2","2","3","2","4","5","3","4","3","3","4","3","4","1","0","1","1","0","0","1","1","0","1","-1","0","1","0","1","5","4","4","3","4","3","4","4","3","3","690857936225828864","叶","","","","","","","","","","","","","","","","","","","true","4","4","ability","2419","positive","能干","","","","","","","","","","","","","","",""
"null","","null","html-keyboard-response","180","290543","0.0-6.0-0.0-8.0-0.36","2","2","2","2","2","2","2","2","2","2","4","2","1","3","2","3","2","2","3","2","4","5","3","4","3","3","4","3","4","1","0","1","1","0","0","1","1","0","1","-1","0","1","0","1","5","4","4","3","4","3","4","4","3","3","690857936225828864","叶","","","","","","","","","","","","","","","","","","","","","","","","","","","","","","","","","","","","","","","",""
"2651","<p style=""color:rgb(150, 250, 100); font-size: 35px;"">别人的</p>","e","categorize-html","181","293197","0.0-6.0-0.0-8.0-1.36","2","2","2","2","2","2","2","2","2","2","4","2","1","3","2","3","2","2","3","2","4","5","3","4","3","3","4","3","4","1","0","1","1","0","0","1","1","0","1","-1","0","1","0","1","5","4","4","3","4","3","4","4","3","3","690857936225828864","叶","","","","","","","","","","","","","","","","","","","true","4","4","ability","2651","other","别人的","","","","","","","","","","","","","","",""
"null","","null","html-keyboard-response","182","293454","0.0-6.0-0.0-8.0-0.37","2","2","2","2","2","2","2","2","2","2","4","2","1","3","2","3","2","2","3","2","4","5","3","4","3","3","4","3","4","1","0","1","1","0","0","1","1","0","1","-1","0","1","0","1","5","4","4","3","4","3","4","4","3","3","690857936225828864","叶","","","","","","","","","","","","","","","","","","","","","","","","","","","","","","","","","","","","","","","",""
"1532","<p style=""color:white; font-size: 35px;"">愚钝</p>","e","categorize-html","183","294990","0.0-6.0-0.0-8.0-1.37","2","2","2","2","2","2","2","2","2","2","4","2","1","3","2","3","2","2","3","2","4","5","3","4","3","3","4","3","4","1","0","1","1","0","0","1","1","0","1","-1","0","1","0","1","5","4","4","3","4","3","4","4","3","3","690857936225828864","叶","","","","","","","","","","","","","","","","","","","true","4","4","ability","1532","negative","愚钝","","","","","","","","","","","","","","",""
"null","","null","html-keyboard-response","184","295246","0.0-6.0-0.0-8.0-0.38","2","2","2","2","2","2","2","2","2","2","4","2","1","3","2","3","2","2","3","2","4","5","3","4","3","3","4","3","4","1","0","1","1","0","0","1","1","0","1","-1","0","1","0","1","5","4","4","3","4","3","4","4","3","3","690857936225828864","叶","","","","","","","","","","","","","","","","","","","","","","","","","","","","","","","","","","","","","","","",""
"1404","<p style=""color:rgb(150, 250, 100); font-size: 35px;"">自己</p>","i","categorize-html","185","296655","0.0-6.0-0.0-8.0-1.38","2","2","2","2","2","2","2","2","2","2","4","2","1","3","2","3","2","2","3","2","4","5","3","4","3","3","4","3","4","1","0","1","1","0","0","1","1","0","1","-1","0","1","0","1","5","4","4","3","4","3","4","4","3","3","690857936225828864","叶","","","","","","","","","","","","","","","","","","","true","4","4","ability","1404","self","自己","","","","","","","","","","","","","","",""
"null","","null","html-keyboard-response","186","296910","0.0-6.0-0.0-8.0-0.39","2","2","2","2","2","2","2","2","2","2","4","2","1","3","2","3","2","2","3","2","4","5","3","4","3","3","4","3","4","1","0","1","1","0","0","1","1","0","1","-1","0","1","0","1","5","4","4","3","4","3","4","4","3","3","690857936225828864","叶","","","","","","","","","","","","","","","","","","","","","","","","","","","","","","","","","","","","","","","",""
"1083","<p style=""color:white; font-size: 35px;"">天才</p>","i","categorize-html","187","297999","0.0-6.0-0.0-8.0-1.39","2","2","2","2","2","2","2","2","2","2","4","2","1","3","2","3","2","2","3","2","4","5","3","4","3","3","4","3","4","1","0","1","1","0","0","1","1","0","1","-1","0","1","0","1","5","4","4","3","4","3","4","4","3","3","690857936225828864","叶","","","","","","","","","","","","","","","","","","","true","4","4","ability","1083","positive","天才","","","","","","","","","","","","","","",""
"null","","null","html-keyboard-response","188","298254","0.0-6.0-0.0-8.0-0.40","2","2","2","2","2","2","2","2","2","2","4","2","1","3","2","3","2","2","3","2","4","5","3","4","3","3","4","3","4","1","0","1","1","0","0","1","1","0","1","-1","0","1","0","1","5","4","4","3","4","3","4","4","3","3","690857936225828864","叶","","","","","","","","","","","","","","","","","","","","","","","","","","","","","","","","","","","","","","","",""
"2403","<p style=""color:rgb(150, 250, 100); font-size: 35px;"">别人</p>","e","categorize-html","189","300662","0.0-6.0-0.0-8.0-1.40","2","2","2","2","2","2","2","2","2","2","4","2","1","3","2","3","2","2","3","2","4","5","3","4","3","3","4","3","4","1","0","1","1","0","0","1","1","0","1","-1","0","1","0","1","5","4","4","3","4","3","4","4","3","3","690857936225828864","叶","","","","","","","","","","","","","","","","","","","true","4","4","ability","2403","other","别人","","","","","","","","","","","","","","",""
"null","","null","html-keyboard-response","190","300918","0.0-6.0-0.0-8.0-0.41","2","2","2","2","2","2","2","2","2","2","4","2","1","3","2","3","2","2","3","2","4","5","3","4","3","3","4","3","4","1","0","1","1","0","0","1","1","0","1","-1","0","1","0","1","5","4","4","3","4","3","4","4","3","3","690857936225828864","叶","","","","","","","","","","","","","","","","","","","","","","","","","","","","","","","","","","","","","","","",""
"795","<p style=""color:white; font-size: 35px;"">天才</p>","i","categorize-html","191","301721","0.0-6.0-0.0-8.0-1.41","2","2","2","2","2","2","2","2","2","2","4","2","1","3","2","3","2","2","3","2","4","5","3","4","3","3","4","3","4","1","0","1","1","0","0","1","1","0","1","-1","0","1","0","1","5","4","4","3","4","3","4","4","3","3","690857936225828864","叶","","","","","","","","","","","","","","","","","","","true","4","4","ability","795","positive","天才","","","","","","","","","","","","","","",""
"null","","null","html-keyboard-response","192","301975","0.0-6.0-0.0-8.0-0.42","2","2","2","2","2","2","2","2","2","2","4","2","1","3","2","3","2","2","3","2","4","5","3","4","3","3","4","3","4","1","0","1","1","0","0","1","1","0","1","-1","0","1","0","1","5","4","4","3","4","3","4","4","3","3","690857936225828864","叶","","","","","","","","","","","","","","","","","","","","","","","","","","","","","","","","","","","","","","","",""
"787","<p style=""color:rgb(150, 250, 100); font-size: 35px;"">本人的</p>","i","categorize-html","193","302766","0.0-6.0-0.0-8.0-1.42","2","2","2","2","2","2","2","2","2","2","4","2","1","3","2","3","2","2","3","2","4","5","3","4","3","3","4","3","4","1","0","1","1","0","0","1","1","0","1","-1","0","1","0","1","5","4","4","3","4","3","4","4","3","3","690857936225828864","叶","","","","","","","","","","","","","","","","","","","true","4","4","ability","787","self","本人的","","","","","","","","","","","","","","",""
"null","","null","html-keyboard-response","194","303023","0.0-6.0-0.0-8.0-0.43","2","2","2","2","2","2","2","2","2","2","4","2","1","3","2","3","2","2","3","2","4","5","3","4","3","3","4","3","4","1","0","1","1","0","0","1","1","0","1","-1","0","1","0","1","5","4","4","3","4","3","4","4","3","3","690857936225828864","叶","","","","","","","","","","","","","","","","","","","","","","","","","","","","","","","","","","","","","","","",""
"915","<p style=""color:white; font-size: 35px;"">愚钝</p>","e","categorize-html","195","303942","0.0-6.0-0.0-8.0-1.43","2","2","2","2","2","2","2","2","2","2","4","2","1","3","2","3","2","2","3","2","4","5","3","4","3","3","4","3","4","1","0","1","1","0","0","1","1","0","1","-1","0","1","0","1","5","4","4","3","4","3","4","4","3","3","690857936225828864","叶","","","","","","","","","","","","","","","","","","","true","4","4","ability","915","negative","愚钝","","","","","","","","","","","","","","",""
"null","","null","html-keyboard-response","196","304199","0.0-6.0-0.0-8.0-0.44","2","2","2","2","2","2","2","2","2","2","4","2","1","3","2","3","2","2","3","2","4","5","3","4","3","3","4","3","4","1","0","1","1","0","0","1","1","0","1","-1","0","1","0","1","5","4","4","3","4","3","4","4","3","3","690857936225828864","叶","","","","","","","","","","","","","","","","","","","","","","","","","","","","","","","","","","","","","","","",""
"819","<p style=""color:rgb(150, 250, 100); font-size: 35px;"">我</p>","i","categorize-html","197","305023","0.0-6.0-0.0-8.0-1.44","2","2","2","2","2","2","2","2","2","2","4","2","1","3","2","3","2","2","3","2","4","5","3","4","3","3","4","3","4","1","0","1","1","0","0","1","1","0","1","-1","0","1","0","1","5","4","4","3","4","3","4","4","3","3","690857936225828864","叶","","","","","","","","","","","","","","","","","","","true","4","4","ability","819","self","我","","","","","","","","","","","","","","",""
"null","","null","html-keyboard-response","198","305279","0.0-6.0-0.0-8.0-0.45","2","2","2","2","2","2","2","2","2","2","4","2","1","3","2","3","2","2","3","2","4","5","3","4","3","3","4","3","4","1","0","1","1","0","0","1","1","0","1","-1","0","1","0","1","5","4","4","3","4","3","4","4","3","3","690857936225828864","叶","","","","","","","","","","","","","","","","","","","","","","","","","","","","","","","","","","","","","","","",""
