"rt","stimulus","response","trial_type","trial_index","time_elapsed","internal_node_id","ses_1","ses_2","ses_3","ses_4","ses_5","ses_6","ses_7","ses_8","ses_9","ses_10","coreself_1","coreself_2","coreself_3","coreself_4","coreself_5","coreself_6","coreself_7","coreself_8","coreself_9","coreself_10","SGPS_1","SGPS_2","SGPS_3","SGPS_4","SGPS_5","SGPS_6","SGPS_7","SGPS_8","SGPS_9","NPI1","NPI2","NPI3","NPI4","NPI5","NPI6","NPI7","NPI8","NPI9","NPI10","NPI11","NPI12","NPI13","NPI14","NPI15","hsns_1","hsns_2","hsns_3","hsns_4","hsns_5","hsns_6","hsns_7","hsns_8","hsns_9","hsns_10","subj_idx","friend_name","value","success","user_agent","responses","item_order","radio_event_ids","radio_event_times","key_event_times","mouse_event_times","straightlining","zigzagging","honeypot","timeout","failed_images","failed_audio","failed_video","version_attrib","version_target","correct","IAT","screen_id","task_id","RT","condition","word","varname","summary","version_attrib2","version_target2","time_stamp","view_history","response_type","key_press","avg_frame_time","center_x","center_y","correct_response","identity","Image","question_order"
"3916","
   <p><div style = ""color: white;font-size:25px;"">您好，欢迎参加本次实验。</div> </p>
   <p><div style = ""color: white;font-size:25px;"">为充分保障您的权利，请确保您已经知晓并同意《参与实验同意书》以及《数据公开知情同意书》。</div></p>
   <p><div style = ""color: white;font-size:25px;"">如果您未见过上述内容，请咨询实验员。</div></p>
   <p><div style = ""color: white;font-size:25px;"">如果您选择继续实验，则表示您已经清楚两份知情同意书的内容并同意。</div></p>
   <p> <div style = ""color: green;font-size:25px;""><按空格键至下页></div> </p>
   "," ","html-keyboard-response","0","3920","0.0-0.0","3","3","3","4","2","3","2","2","2","2","4","2","1","3","2","2","2","2","4","4","4","5","4","4","5","4","4","4","4","1","0","1","1","0","0","1","1","1","1","-1","0","1","0","1","3","4","5","4","5","4","4","4","2","2","735606541780258817","谢","","","","","","","","","","","","","","","","","","","","","","","","","","","","","","","","","","","","","","","",""
"","","","call-function","1","3923","0.0-1.0-0.0","3","3","3","4","2","3","2","2","2","2","4","2","1","3","2","2","2","2","4","4","4","5","4","4","5","4","4","4","4","1","0","1","1","0","0","1","1","1","1","-1","0","1","0","1","3","4","5","4","5","4","4","4","2","2","735606541780258817","谢","","","","","","","","","","","","","","","","","","","","","","","","","","","","","","","","","","","","","","","",""
"12877","","{""friend_name"":""谢""}","survey-html-form","2","16802","0.0-1.0-1.0","3","3","3","4","2","3","2","2","2","2","4","2","1","3","2","2","2","2","4","4","4","5","4","4","5","4","4","4","4","1","0","1","1","0","0","1","1","1","1","-1","0","1","0","1","3","4","5","4","5","4","4","4","2","2","735606541780258817","谢","","","","","","","","","","","","","","","","","","","","","","","","","","","","","","","","","","","","","","","",""
"","","","fullscreen","3","34100","0.0-2.0","3","3","3","4","2","3","2","2","2","2","4","2","1","3","2","2","2","2","4","4","4","5","4","4","5","4","4","4","4","1","0","1","1","0","0","1","1","1","1","-1","0","1","0","1","3","4","5","4","5","4","4","4","2","2","735606541780258817","谢","","true","{}","","","","","","","","","","","","","","","","","","","","","","","","","","","","","","","","","","","","",""
"25472.599999904633","","{""Q01"":""3"",""Q02"":""3"",""Q03"":""3"",""Q04"":""4"",""Q05"":""2"",""Q06"":""3"",""Q07"":""2"",""Q08"":""2"",""Q09"":""2"",""Q10"":""2""}","survey-template","4","59579","0.0-3.0","3","3","3","4","2","3","2","2","2","2","4","2","1","3","2","2","2","2","4","4","4","5","4","4","5","4","4","4","4","1","0","1","1","0","0","1","1","1","1","-1","0","1","0","1","3","4","5","4","5","4","4","4","2","2","735606541780258817","谢","","","","{""Q01"":""3"",""Q02"":""3"",""Q03"":""3"",""Q04"":""4"",""Q05"":""2"",""Q06"":""3"",""Q07"":""2"",""Q08"":""2"",""Q09"":""2"",""Q10"":""2""}","[0,1,2,3,4,5,6,7,8,9]","[""Q01"",""Q02"",""Q03"",""Q04"",""Q05"",""Q06"",""Q07"",""Q08"",""Q09"",""Q10""]","[4333.5,5637.900000095367,7676.599999904633,10659.400000095367,12797.700000047684,14817.599999904633,16159.099999904633,19517.099999904633,21306.299999952316,24420.099999904633]","[]","[4333.5,5637.900000095367,7676.599999904633,10659.400000095367,12797.700000047684,14817.599999904633,16159.099999904633,19517.099999904633,21306.299999952316,24420.099999904633,25471]","0.7","0.4444444444444444","0","","","","","","","","","","","","","","","","","","","","","","","","","","","",""
"37875.199999809265","","{""Q01"":""4"",""Q02"":""2"",""Q03"":""1"",""Q04"":""3"",""Q05"":""2"",""Q06"":""2"",""Q07"":""2"",""Q08"":""2"",""Q09"":""4"",""Q10"":""4""}","survey-template","5","97461","0.0-4.0","3","3","3","4","2","3","2","2","2","2","4","2","1","3","2","2","2","2","4","4","4","5","4","4","5","4","4","4","4","1","0","1","1","0","0","1","1","1","1","-1","0","1","0","1","3","4","5","4","5","4","4","4","2","2","735606541780258817","谢","","","","{""Q01"":""4"",""Q02"":""2"",""Q03"":""1"",""Q04"":""3"",""Q05"":""2"",""Q06"":""2"",""Q07"":""2"",""Q08"":""2"",""Q09"":""4"",""Q10"":""4""}","[0,1,2,3,4,5,6,7,8,9]","[""Q01"",""Q02"",""Q03"",""Q04"",""Q05"",""Q06"",""Q07"",""Q08"",""Q09"",""Q10""]","[5150.5,7931,9291.199999809265,12086.899999856949,16930.199999809265,18076.39999985695,21172.599999904633,30135.699999809265,31515.599999904633,34515.59999990463]","[]","[5150.5,7931,9291.199999809265,12086.899999856949,16625.89999985695,16930.199999809265,17740.799999952316,18076.39999985695,21172.599999904633,30135.699999809265,31515.599999904633,34515.59999990463,37872.89999985695]","0.6","0.2222222222222222","0","","","","","","","","","","","","","","","","","","","","","","","","","","","",""
"","","","preload","6","97759","0.0-5.0","3","3","3","4","2","3","2","2","2","2","4","2","1","3","2","2","2","2","4","4","4","5","4","4","5","4","4","4","4","1","0","1","1","0","0","1","1","1","1","-1","0","1","0","1","3","4","5","4","5","4","4","4","2","2","735606541780258817","谢","","true","","","","","","","","","","","false","[]","[]","[]","","","","","","","","","","","","","","","","","","","","","","","",""
"18594","
    <h3>词语分类任务</h3>
    <p>在接下来的任务中，你需要对一系列词语进行分类。</p>
    <p>请先熟悉这些词语，这有利于你完成接下来的任务。</p>
    <table align=""center"" border=1 cellpadding=3 cellspacing=0>
    <tr> <th>类别</th> <th>词语</th> </tr>
    <tr> <td>&emsp;积极&emsp;</td> <td>&emsp;能干、全能、全才、高效、精干、天才&emsp;</td> </tr>
    <tr> <td>&emsp;消极&emsp;</td> <td>&emsp;无能、低能、废物、拙笨、愚钝、蠢笨&emsp;</td> </tr>
    <tr> <td>&emsp;自我&emsp;</td> <td>&emsp;我、我的、自己、自己的、本人、本人的&emsp;</td> </tr>
    <tr> <td>&emsp;他人&emsp;</td> <td>&emsp;他、他的、别人、别人的、他人、他人的&emsp;</td> </tr>
    </table><br/>","0","html-button-response","7","116356","0.0-6.0-0.0-0.0","3","3","3","4","2","3","2","2","2","2","4","2","1","3","2","2","2","2","4","4","4","5","4","4","5","4","4","4","4","1","0","1","1","0","0","1","1","1","1","-1","0","1","0","1","3","4","5","4","5","4","4","4","2","2","735606541780258817","谢","","","","","","","","","","","","","","","","","2","2","","","","","","","","","","","","","","","","","","","","","",""
"46397","
    <div class=""tag-bottom"">
    <p> ―― 任务1：对“他人”词和“自我”词分类 ――<p/>
    不同词语会出现在屏幕中央，类别标签将始终显示在屏幕上方<p/>   
    <span style=""color:#FFD866""><b>请根据上方标签的提示，尽可能正确并且快速地做出按键反应</b></span><p/>
    当按键错误时屏幕中会出现<span style=""color:red""> X </span>，需要按另一个键纠正才能继续<br/><p/>
    请把双手食指分别放在键盘的“E”键和“I”键上<p/>
    按<空格键>开始
    </p></div>"," ","html-keyboard-response","8","162757","0.0-6.0-0.0-1.0","3","3","3","4","2","3","2","2","2","2","4","2","1","3","2","2","2","2","4","4","4","5","4","4","5","4","4","4","4","1","0","1","1","0","0","1","1","1","1","-1","0","1","0","1","3","4","5","4","5","4","4","4","2","2","735606541780258817","谢","","","","","","","","","","","","","","","","","","","","","","","","","","","","","","","","","","","","","","","",""
"null","","null","html-keyboard-response","9","163009","0.0-6.0-0.0-2.0-0.0","3","3","3","4","2","3","2","2","2","2","4","2","1","3","2","2","2","2","4","4","4","5","4","4","5","4","4","4","4","1","0","1","1","0","0","1","1","1","1","-1","0","1","0","1","3","4","5","4","5","4","4","4","2","2","735606541780258817","谢","","","","","","","","","","","","","","","","","","","","","","","","","","","","","","","","","","","","","","","",""
"1272","<p style=""color:rgb(150, 250, 100); font-size: 35px;"">自己的</p>","i","categorize-html","10","164287","0.0-6.0-0.0-2.0-1.0","3","3","3","4","2","3","2","2","2","2","4","2","1","3","2","2","2","2","4","4","4","5","4","4","5","4","4","4","4","1","0","1","1","0","0","1","1","1","1","-1","0","1","0","1","3","4","5","4","5","4","4","4","2","2","735606541780258817","谢","","","","","","","","","","","","","","","","","","","true","1","1","ability","1272","self","自己的","","","","","","","","","","","","","","",""
"null","","null","html-keyboard-response","11","164539","0.0-6.0-0.0-2.0-0.1","3","3","3","4","2","3","2","2","2","2","4","2","1","3","2","2","2","2","4","4","4","5","4","4","5","4","4","4","4","1","0","1","1","0","0","1","1","1","1","-1","0","1","0","1","3","4","5","4","5","4","4","4","2","2","735606541780258817","谢","","","","","","","","","","","","","","","","","","","","","","","","","","","","","","","","","","","","","","","",""
"900","<p style=""color:rgb(150, 250, 100); font-size: 35px;"">别人的</p>","e","categorize-html","12","165442","0.0-6.0-0.0-2.0-1.1","3","3","3","4","2","3","2","2","2","2","4","2","1","3","2","2","2","2","4","4","4","5","4","4","5","4","4","4","4","1","0","1","1","0","0","1","1","1","1","-1","0","1","0","1","3","4","5","4","5","4","4","4","2","2","735606541780258817","谢","","","","","","","","","","","","","","","","","","","true","1","1","ability","900","other","别人的","","","","","","","","","","","","","","",""
"null","","null","html-keyboard-response","13","165693","0.0-6.0-0.0-2.0-0.2","3","3","3","4","2","3","2","2","2","2","4","2","1","3","2","2","2","2","4","4","4","5","4","4","5","4","4","4","4","1","0","1","1","0","0","1","1","1","1","-1","0","1","0","1","3","4","5","4","5","4","4","4","2","2","735606541780258817","谢","","","","","","","","","","","","","","","","","","","","","","","","","","","","","","","","","","","","","","","",""
"503","<p style=""color:rgb(150, 250, 100); font-size: 35px;"">自己</p>","i","categorize-html","14","166201","0.0-6.0-0.0-2.0-1.2","3","3","3","4","2","3","2","2","2","2","4","2","1","3","2","2","2","2","4","4","4","5","4","4","5","4","4","4","4","1","0","1","1","0","0","1","1","1","1","-1","0","1","0","1","3","4","5","4","5","4","4","4","2","2","735606541780258817","谢","","","","","","","","","","","","","","","","","","","true","1","1","ability","503","self","自己","","","","","","","","","","","","","","",""
"null","","null","html-keyboard-response","15","166452","0.0-6.0-0.0-2.0-0.3","3","3","3","4","2","3","2","2","2","2","4","2","1","3","2","2","2","2","4","4","4","5","4","4","5","4","4","4","4","1","0","1","1","0","0","1","1","1","1","-1","0","1","0","1","3","4","5","4","5","4","4","4","2","2","735606541780258817","谢","","","","","","","","","","","","","","","","","","","","","","","","","","","","","","","","","","","","","","","",""
"806","<p style=""color:rgb(150, 250, 100); font-size: 35px;"">他的</p>","e","categorize-html","16","167261","0.0-6.0-0.0-2.0-1.3","3","3","3","4","2","3","2","2","2","2","4","2","1","3","2","2","2","2","4","4","4","5","4","4","5","4","4","4","4","1","0","1","1","0","0","1","1","1","1","-1","0","1","0","1","3","4","5","4","5","4","4","4","2","2","735606541780258817","谢","","","","","","","","","","","","","","","","","","","true","1","1","ability","806","other","他的","","","","","","","","","","","","","","",""
"null","","null","html-keyboard-response","17","167514","0.0-6.0-0.0-2.0-0.4","3","3","3","4","2","3","2","2","2","2","4","2","1","3","2","2","2","2","4","4","4","5","4","4","5","4","4","4","4","1","0","1","1","0","0","1","1","1","1","-1","0","1","0","1","3","4","5","4","5","4","4","4","2","2","735606541780258817","谢","","","","","","","","","","","","","","","","","","","","","","","","","","","","","","","","","","","","","","","",""
"571","<p style=""color:rgb(150, 250, 100); font-size: 35px;"">他人</p>","e","categorize-html","18","168091","0.0-6.0-0.0-2.0-1.4","3","3","3","4","2","3","2","2","2","2","4","2","1","3","2","2","2","2","4","4","4","5","4","4","5","4","4","4","4","1","0","1","1","0","0","1","1","1","1","-1","0","1","0","1","3","4","5","4","5","4","4","4","2","2","735606541780258817","谢","","","","","","","","","","","","","","","","","","","true","1","1","ability","571","other","他人","","","","","","","","","","","","","","",""
"null","","null","html-keyboard-response","19","168342","0.0-6.0-0.0-2.0-0.5","3","3","3","4","2","3","2","2","2","2","4","2","1","3","2","2","2","2","4","4","4","5","4","4","5","4","4","4","4","1","0","1","1","0","0","1","1","1","1","-1","0","1","0","1","3","4","5","4","5","4","4","4","2","2","735606541780258817","谢","","","","","","","","","","","","","","","","","","","","","","","","","","","","","","","","","","","","","","","",""
"538","<p style=""color:rgb(150, 250, 100); font-size: 35px;"">我的</p>","i","categorize-html","20","168884","0.0-6.0-0.0-2.0-1.5","3","3","3","4","2","3","2","2","2","2","4","2","1","3","2","2","2","2","4","4","4","5","4","4","5","4","4","4","4","1","0","1","1","0","0","1","1","1","1","-1","0","1","0","1","3","4","5","4","5","4","4","4","2","2","735606541780258817","谢","","","","","","","","","","","","","","","","","","","true","1","1","ability","538","self","我的","","","","","","","","","","","","","","",""
"null","","null","html-keyboard-response","21","169136","0.0-6.0-0.0-2.0-0.6","3","3","3","4","2","3","2","2","2","2","4","2","1","3","2","2","2","2","4","4","4","5","4","4","5","4","4","4","4","1","0","1","1","0","0","1","1","1","1","-1","0","1","0","1","3","4","5","4","5","4","4","4","2","2","735606541780258817","谢","","","","","","","","","","","","","","","","","","","","","","","","","","","","","","","","","","","","","","","",""
"512","<p style=""color:rgb(150, 250, 100); font-size: 35px;"">本人的</p>","i","categorize-html","22","169652","0.0-6.0-0.0-2.0-1.6","3","3","3","4","2","3","2","2","2","2","4","2","1","3","2","2","2","2","4","4","4","5","4","4","5","4","4","4","4","1","0","1","1","0","0","1","1","1","1","-1","0","1","0","1","3","4","5","4","5","4","4","4","2","2","735606541780258817","谢","","","","","","","","","","","","","","","","","","","true","1","1","ability","512","self","本人的","","","","","","","","","","","","","","",""
"null","","null","html-keyboard-response","23","169903","0.0-6.0-0.0-2.0-0.7","3","3","3","4","2","3","2","2","2","2","4","2","1","3","2","2","2","2","4","4","4","5","4","4","5","4","4","4","4","1","0","1","1","0","0","1","1","1","1","-1","0","1","0","1","3","4","5","4","5","4","4","4","2","2","735606541780258817","谢","","","","","","","","","","","","","","","","","","","","","","","","","","","","","","","","","","","","","","","",""
"599","<p style=""color:rgb(150, 250, 100); font-size: 35px;"">我</p>","i","categorize-html","24","170505","0.0-6.0-0.0-2.0-1.7","3","3","3","4","2","3","2","2","2","2","4","2","1","3","2","2","2","2","4","4","4","5","4","4","5","4","4","4","4","1","0","1","1","0","0","1","1","1","1","-1","0","1","0","1","3","4","5","4","5","4","4","4","2","2","735606541780258817","谢","","","","","","","","","","","","","","","","","","","true","1","1","ability","599","self","我","","","","","","","","","","","","","","",""
"null","","null","html-keyboard-response","25","170756","0.0-6.0-0.0-2.0-0.8","3","3","3","4","2","3","2","2","2","2","4","2","1","3","2","2","2","2","4","4","4","5","4","4","5","4","4","4","4","1","0","1","1","0","0","1","1","1","1","-1","0","1","0","1","3","4","5","4","5","4","4","4","2","2","735606541780258817","谢","","","","","","","","","","","","","","","","","","","","","","","","","","","","","","","","","","","","","","","",""
"486","<p style=""color:rgb(150, 250, 100); font-size: 35px;"">别人</p>","e","categorize-html","26","171245","0.0-6.0-0.0-2.0-1.8","3","3","3","4","2","3","2","2","2","2","4","2","1","3","2","2","2","2","4","4","4","5","4","4","5","4","4","4","4","1","0","1","1","0","0","1","1","1","1","-1","0","1","0","1","3","4","5","4","5","4","4","4","2","2","735606541780258817","谢","","","","","","","","","","","","","","","","","","","true","1","1","ability","486","other","别人","","","","","","","","","","","","","","",""
"null","","null","html-keyboard-response","27","171497","0.0-6.0-0.0-2.0-0.9","3","3","3","4","2","3","2","2","2","2","4","2","1","3","2","2","2","2","4","4","4","5","4","4","5","4","4","4","4","1","0","1","1","0","0","1","1","1","1","-1","0","1","0","1","3","4","5","4","5","4","4","4","2","2","735606541780258817","谢","","","","","","","","","","","","","","","","","","","","","","","","","","","","","","","","","","","","","","","",""
"558","<p style=""color:rgb(150, 250, 100); font-size: 35px;"">他人的</p>","e","categorize-html","28","172061","0.0-6.0-0.0-2.0-1.9","3","3","3","4","2","3","2","2","2","2","4","2","1","3","2","2","2","2","4","4","4","5","4","4","5","4","4","4","4","1","0","1","1","0","0","1","1","1","1","-1","0","1","0","1","3","4","5","4","5","4","4","4","2","2","735606541780258817","谢","","","","","","","","","","","","","","","","","","","true","1","1","ability","558","other","他人的","","","","","","","","","","","","","","",""
"null","","null","html-keyboard-response","29","172312","0.0-6.0-0.0-2.0-0.10","3","3","3","4","2","3","2","2","2","2","4","2","1","3","2","2","2","2","4","4","4","5","4","4","5","4","4","4","4","1","0","1","1","0","0","1","1","1","1","-1","0","1","0","1","3","4","5","4","5","4","4","4","2","2","735606541780258817","谢","","","","","","","","","","","","","","","","","","","","","","","","","","","","","","","","","","","","","","","",""
"418","<p style=""color:rgb(150, 250, 100); font-size: 35px;"">他</p>","e","categorize-html","30","172736","0.0-6.0-0.0-2.0-1.10","3","3","3","4","2","3","2","2","2","2","4","2","1","3","2","2","2","2","4","4","4","5","4","4","5","4","4","4","4","1","0","1","1","0","0","1","1","1","1","-1","0","1","0","1","3","4","5","4","5","4","4","4","2","2","735606541780258817","谢","","","","","","","","","","","","","","","","","","","true","1","1","ability","418","other","他","","","","","","","","","","","","","","",""
"null","","null","html-keyboard-response","31","172987","0.0-6.0-0.0-2.0-0.11","3","3","3","4","2","3","2","2","2","2","4","2","1","3","2","2","2","2","4","4","4","5","4","4","5","4","4","4","4","1","0","1","1","0","0","1","1","1","1","-1","0","1","0","1","3","4","5","4","5","4","4","4","2","2","735606541780258817","谢","","","","","","","","","","","","","","","","","","","","","","","","","","","","","","","","","","","","","","","",""
"494","<p style=""color:rgb(150, 250, 100); font-size: 35px;"">本人</p>","i","categorize-html","32","173485","0.0-6.0-0.0-2.0-1.11","3","3","3","4","2","3","2","2","2","2","4","2","1","3","2","2","2","2","4","4","4","5","4","4","5","4","4","4","4","1","0","1","1","0","0","1","1","1","1","-1","0","1","0","1","3","4","5","4","5","4","4","4","2","2","735606541780258817","谢","","","","","","","","","","","","","","","","","","","true","1","1","ability","494","self","本人","","","","","","","","","","","","","","",""
"20074","
    <div class=""tag-bottom""><p>
    ―― 任务2：对“消极”词和“积极”词分类 ――<p/>   
    <span style=""color:#78DCE8""><b>注意上方，类别标签和需要分类的词语都已经改变</b></span><p/>
    <span style=""color:#FFD866""><b>请根据上方标签的提示，尽可能正确并且快速地做出按键反应</b></span><p/>
    当按键错误时屏幕中会出现<span style=""color:red""> X </span>，需要按另一个键纠正才能继续<br/><p/>
    请把双手食指分别放在键盘的“E”键和“I”键上<p/>
    按<空格键>开始
    </p></div>"," ","html-keyboard-response","33","193559","0.0-6.0-0.0-3.0","3","3","3","4","2","3","2","2","2","2","4","2","1","3","2","2","2","2","4","4","4","5","4","4","5","4","4","4","4","1","0","1","1","0","0","1","1","1","1","-1","0","1","0","1","3","4","5","4","5","4","4","4","2","2","735606541780258817","谢","","","","","","","","","","","","","","","","","","","","","","","","","","","","","","","","","","","","","","","",""
"null","","null","html-keyboard-response","34","193812","0.0-6.0-0.0-4.0-0.0","3","3","3","4","2","3","2","2","2","2","4","2","1","3","2","2","2","2","4","4","4","5","4","4","5","4","4","4","4","1","0","1","1","0","0","1","1","1","1","-1","0","1","0","1","3","4","5","4","5","4","4","4","2","2","735606541780258817","谢","","","","","","","","","","","","","","","","","","","","","","","","","","","","","","","","","","","","","","","",""
"673","<p style=""color:white; font-size: 35px;"">全能</p>","i","categorize-html","35","194490","0.0-6.0-0.0-4.0-1.0","3","3","3","4","2","3","2","2","2","2","4","2","1","3","2","2","2","2","4","4","4","5","4","4","5","4","4","4","4","1","0","1","1","0","0","1","1","1","1","-1","0","1","0","1","3","4","5","4","5","4","4","4","2","2","735606541780258817","谢","","","","","","","","","","","","","","","","","","","true","2","2","ability","673","positive","全能","","","","","","","","","","","","","","",""
"null","","null","html-keyboard-response","36","194742","0.0-6.0-0.0-4.0-0.1","3","3","3","4","2","3","2","2","2","2","4","2","1","3","2","2","2","2","4","4","4","5","4","4","5","4","4","4","4","1","0","1","1","0","0","1","1","1","1","-1","0","1","0","1","3","4","5","4","5","4","4","4","2","2","735606541780258817","谢","","","","","","","","","","","","","","","","","","","","","","","","","","","","","","","","","","","","","","","",""
"594","<p style=""color:white; font-size: 35px;"">蠢笨</p>","e","categorize-html","37","195339","0.0-6.0-0.0-4.0-1.1","3","3","3","4","2","3","2","2","2","2","4","2","1","3","2","2","2","2","4","4","4","5","4","4","5","4","4","4","4","1","0","1","1","0","0","1","1","1","1","-1","0","1","0","1","3","4","5","4","5","4","4","4","2","2","735606541780258817","谢","","","","","","","","","","","","","","","","","","","true","2","2","ability","594","negative","蠢笨","","","","","","","","","","","","","","",""
"null","","null","html-keyboard-response","38","195592","0.0-6.0-0.0-4.0-0.2","3","3","3","4","2","3","2","2","2","2","4","2","1","3","2","2","2","2","4","4","4","5","4","4","5","4","4","4","4","1","0","1","1","0","0","1","1","1","1","-1","0","1","0","1","3","4","5","4","5","4","4","4","2","2","735606541780258817","谢","","","","","","","","","","","","","","","","","","","","","","","","","","","","","","","","","","","","","","","",""
"493","<p style=""color:white; font-size: 35px;"">愚钝</p>","e","categorize-html","39","196088","0.0-6.0-0.0-4.0-1.2","3","3","3","4","2","3","2","2","2","2","4","2","1","3","2","2","2","2","4","4","4","5","4","4","5","4","4","4","4","1","0","1","1","0","0","1","1","1","1","-1","0","1","0","1","3","4","5","4","5","4","4","4","2","2","735606541780258817","谢","","","","","","","","","","","","","","","","","","","true","2","2","ability","493","negative","愚钝","","","","","","","","","","","","","","",""
"null","","null","html-keyboard-response","40","196340","0.0-6.0-0.0-4.0-0.3","3","3","3","4","2","3","2","2","2","2","4","2","1","3","2","2","2","2","4","4","4","5","4","4","5","4","4","4","4","1","0","1","1","0","0","1","1","1","1","-1","0","1","0","1","3","4","5","4","5","4","4","4","2","2","735606541780258817","谢","","","","","","","","","","","","","","","","","","","","","","","","","","","","","","","","","","","","","","","",""
"410","<p style=""color:white; font-size: 35px;"">废物</p>","e","categorize-html","41","196753","0.0-6.0-0.0-4.0-1.3","3","3","3","4","2","3","2","2","2","2","4","2","1","3","2","2","2","2","4","4","4","5","4","4","5","4","4","4","4","1","0","1","1","0","0","1","1","1","1","-1","0","1","0","1","3","4","5","4","5","4","4","4","2","2","735606541780258817","谢","","","","","","","","","","","","","","","","","","","true","2","2","ability","410","negative","废物","","","","","","","","","","","","","","",""
"null","","null","html-keyboard-response","42","197004","0.0-6.0-0.0-4.0-0.4","3","3","3","4","2","3","2","2","2","2","4","2","1","3","2","2","2","2","4","4","4","5","4","4","5","4","4","4","4","1","0","1","1","0","0","1","1","1","1","-1","0","1","0","1","3","4","5","4","5","4","4","4","2","2","735606541780258817","谢","","","","","","","","","","","","","","","","","","","","","","","","","","","","","","","","","","","","","","","",""
"491","<p style=""color:white; font-size: 35px;"">全才</p>","i","categorize-html","43","197498","0.0-6.0-0.0-4.0-1.4","3","3","3","4","2","3","2","2","2","2","4","2","1","3","2","2","2","2","4","4","4","5","4","4","5","4","4","4","4","1","0","1","1","0","0","1","1","1","1","-1","0","1","0","1","3","4","5","4","5","4","4","4","2","2","735606541780258817","谢","","","","","","","","","","","","","","","","","","","true","2","2","ability","491","positive","全才","","","","","","","","","","","","","","",""
"null","","null","html-keyboard-response","44","197750","0.0-6.0-0.0-4.0-0.5","3","3","3","4","2","3","2","2","2","2","4","2","1","3","2","2","2","2","4","4","4","5","4","4","5","4","4","4","4","1","0","1","1","0","0","1","1","1","1","-1","0","1","0","1","3","4","5","4","5","4","4","4","2","2","735606541780258817","谢","","","","","","","","","","","","","","","","","","","","","","","","","","","","","","","","","","","","","","","",""
"429","<p style=""color:white; font-size: 35px;"">天才</p>","i","categorize-html","45","198183","0.0-6.0-0.0-4.0-1.5","3","3","3","4","2","3","2","2","2","2","4","2","1","3","2","2","2","2","4","4","4","5","4","4","5","4","4","4","4","1","0","1","1","0","0","1","1","1","1","-1","0","1","0","1","3","4","5","4","5","4","4","4","2","2","735606541780258817","谢","","","","","","","","","","","","","","","","","","","true","2","2","ability","429","positive","天才","","","","","","","","","","","","","","",""
"null","","null","html-keyboard-response","46","198434","0.0-6.0-0.0-4.0-0.6","3","3","3","4","2","3","2","2","2","2","4","2","1","3","2","2","2","2","4","4","4","5","4","4","5","4","4","4","4","1","0","1","1","0","0","1","1","1","1","-1","0","1","0","1","3","4","5","4","5","4","4","4","2","2","735606541780258817","谢","","","","","","","","","","","","","","","","","","","","","","","","","","","","","","","","","","","","","","","",""
"481","<p style=""color:white; font-size: 35px;"">无能</p>","e","categorize-html","47","198919","0.0-6.0-0.0-4.0-1.6","3","3","3","4","2","3","2","2","2","2","4","2","1","3","2","2","2","2","4","4","4","5","4","4","5","4","4","4","4","1","0","1","1","0","0","1","1","1","1","-1","0","1","0","1","3","4","5","4","5","4","4","4","2","2","735606541780258817","谢","","","","","","","","","","","","","","","","","","","true","2","2","ability","481","negative","无能","","","","","","","","","","","","","","",""
"null","","null","html-keyboard-response","48","199171","0.0-6.0-0.0-4.0-0.7","3","3","3","4","2","3","2","2","2","2","4","2","1","3","2","2","2","2","4","4","4","5","4","4","5","4","4","4","4","1","0","1","1","0","0","1","1","1","1","-1","0","1","0","1","3","4","5","4","5","4","4","4","2","2","735606541780258817","谢","","","","","","","","","","","","","","","","","","","","","","","","","","","","","","","","","","","","","","","",""
"623","<p style=""color:white; font-size: 35px;"">精干</p>","i","categorize-html","49","199798","0.0-6.0-0.0-4.0-1.7","3","3","3","4","2","3","2","2","2","2","4","2","1","3","2","2","2","2","4","4","4","5","4","4","5","4","4","4","4","1","0","1","1","0","0","1","1","1","1","-1","0","1","0","1","3","4","5","4","5","4","4","4","2","2","735606541780258817","谢","","","","","","","","","","","","","","","","","","","true","2","2","ability","623","positive","精干","","","","","","","","","","","","","","",""
"null","","null","html-keyboard-response","50","200050","0.0-6.0-0.0-4.0-0.8","3","3","3","4","2","3","2","2","2","2","4","2","1","3","2","2","2","2","4","4","4","5","4","4","5","4","4","4","4","1","0","1","1","0","0","1","1","1","1","-1","0","1","0","1","3","4","5","4","5","4","4","4","2","2","735606541780258817","谢","","","","","","","","","","","","","","","","","","","","","","","","","","","","","","","","","","","","","","","",""
"738","<p style=""color:white; font-size: 35px;"">能干</p>","i","categorize-html","51","200792","0.0-6.0-0.0-4.0-1.8","3","3","3","4","2","3","2","2","2","2","4","2","1","3","2","2","2","2","4","4","4","5","4","4","5","4","4","4","4","1","0","1","1","0","0","1","1","1","1","-1","0","1","0","1","3","4","5","4","5","4","4","4","2","2","735606541780258817","谢","","","","","","","","","","","","","","","","","","","true","2","2","ability","738","positive","能干","","","","","","","","","","","","","","",""
"null","","null","html-keyboard-response","52","201044","0.0-6.0-0.0-4.0-0.9","3","3","3","4","2","3","2","2","2","2","4","2","1","3","2","2","2","2","4","4","4","5","4","4","5","4","4","4","4","1","0","1","1","0","0","1","1","1","1","-1","0","1","0","1","3","4","5","4","5","4","4","4","2","2","735606541780258817","谢","","","","","","","","","","","","","","","","","","","","","","","","","","","","","","","","","","","","","","","",""
"558","<p style=""color:white; font-size: 35px;"">低能</p>","e","categorize-html","53","201606","0.0-6.0-0.0-4.0-1.9","3","3","3","4","2","3","2","2","2","2","4","2","1","3","2","2","2","2","4","4","4","5","4","4","5","4","4","4","4","1","0","1","1","0","0","1","1","1","1","-1","0","1","0","1","3","4","5","4","5","4","4","4","2","2","735606541780258817","谢","","","","","","","","","","","","","","","","","","","true","2","2","ability","558","negative","低能","","","","","","","","","","","","","","",""
"null","","null","html-keyboard-response","54","201857","0.0-6.0-0.0-4.0-0.10","3","3","3","4","2","3","2","2","2","2","4","2","1","3","2","2","2","2","4","4","4","5","4","4","5","4","4","4","4","1","0","1","1","0","0","1","1","1","1","-1","0","1","0","1","3","4","5","4","5","4","4","4","2","2","735606541780258817","谢","","","","","","","","","","","","","","","","","","","","","","","","","","","","","","","","","","","","","","","",""
"667","<p style=""color:white; font-size: 35px;"">高效</p>","i","categorize-html","55","202530","0.0-6.0-0.0-4.0-1.10","3","3","3","4","2","3","2","2","2","2","4","2","1","3","2","2","2","2","4","4","4","5","4","4","5","4","4","4","4","1","0","1","1","0","0","1","1","1","1","-1","0","1","0","1","3","4","5","4","5","4","4","4","2","2","735606541780258817","谢","","","","","","","","","","","","","","","","","","","true","2","2","ability","667","positive","高效","","","","","","","","","","","","","","",""
"null","","null","html-keyboard-response","56","202782","0.0-6.0-0.0-4.0-0.11","3","3","3","4","2","3","2","2","2","2","4","2","1","3","2","2","2","2","4","4","4","5","4","4","5","4","4","4","4","1","0","1","1","0","0","1","1","1","1","-1","0","1","0","1","3","4","5","4","5","4","4","4","2","2","735606541780258817","谢","","","","","","","","","","","","","","","","","","","","","","","","","","","","","","","","","","","","","","","",""
"1086","<p style=""color:white; font-size: 35px;"">拙笨</p>","e","categorize-html","57","203870","0.0-6.0-0.0-4.0-1.11","3","3","3","4","2","3","2","2","2","2","4","2","1","3","2","2","2","2","4","4","4","5","4","4","5","4","4","4","4","1","0","1","1","0","0","1","1","1","1","-1","0","1","0","1","3","4","5","4","5","4","4","4","2","2","735606541780258817","谢","","","","","","","","","","","","","","","","","","","true","2","2","ability","1086","negative","拙笨","","","","","","","","","","","","","","",""
"40519","
    <div class=""tag-bottom""><p>
    ―― 任务3：对“他人/消极”词和“自我/积极”词分类 ――<p/>
    <span style=""color:#78DCE8""><b>注意上方，之前的四类词语将混合在一起交替呈现</b></span><p/>
    <span style=""color:#FFD866""><b>请根据上方标签的提示，尽可能正确并且快速地做出按键反应</b></span><p/>
    当按键错误时屏幕中会出现<span style=""color:red""> X </span>，需要按另一个键纠正才能继续<br/><p/>
    请把双手食指分别放在键盘的“E”键和“I”键上<p/>
    按<空格键>开始
    </p></div>"," ","html-keyboard-response","58","244390","0.0-6.0-0.0-5.0","3","3","3","4","2","3","2","2","2","2","4","2","1","3","2","2","2","2","4","4","4","5","4","4","5","4","4","4","4","1","0","1","1","0","0","1","1","1","1","-1","0","1","0","1","3","4","5","4","5","4","4","4","2","2","735606541780258817","谢","","","","","","","","","","","","","","","","","","","","","","","","","","","","","","","","","","","","","","","",""
"null","","null","html-keyboard-response","59","244642","0.0-6.0-0.0-6.0-0.0","3","3","3","4","2","3","2","2","2","2","4","2","1","3","2","2","2","2","4","4","4","5","4","4","5","4","4","4","4","1","0","1","1","0","0","1","1","1","1","-1","0","1","0","1","3","4","5","4","5","4","4","4","2","2","735606541780258817","谢","","","","","","","","","","","","","","","","","","","","","","","","","","","","","","","","","","","","","","","",""
"795","<p style=""color:rgb(150, 250, 100); font-size: 35px;"">本人的</p>","i","categorize-html","60","245442","0.0-6.0-0.0-6.0-1.0","3","3","3","4","2","3","2","2","2","2","4","2","1","3","2","2","2","2","4","4","4","5","4","4","5","4","4","4","4","1","0","1","1","0","0","1","1","1","1","-1","0","1","0","1","3","4","5","4","5","4","4","4","2","2","735606541780258817","谢","","","","","","","","","","","","","","","","","","","true","3","3","ability","795","self","本人的","","","","","","","","","","","","","","",""
"null","","null","html-keyboard-response","61","245695","0.0-6.0-0.0-6.0-0.1","3","3","3","4","2","3","2","2","2","2","4","2","1","3","2","2","2","2","4","4","4","5","4","4","5","4","4","4","4","1","0","1","1","0","0","1","1","1","1","-1","0","1","0","1","3","4","5","4","5","4","4","4","2","2","735606541780258817","谢","","","","","","","","","","","","","","","","","","","","","","","","","","","","","","","","","","","","","","","",""
"835","<p style=""color:white; font-size: 35px;"">高效</p>","i","categorize-html","62","246533","0.0-6.0-0.0-6.0-1.1","3","3","3","4","2","3","2","2","2","2","4","2","1","3","2","2","2","2","4","4","4","5","4","4","5","4","4","4","4","1","0","1","1","0","0","1","1","1","1","-1","0","1","0","1","3","4","5","4","5","4","4","4","2","2","735606541780258817","谢","","","","","","","","","","","","","","","","","","","true","3","3","ability","835","positive","高效","","","","","","","","","","","","","","",""
"null","","null","html-keyboard-response","63","246785","0.0-6.0-0.0-6.0-0.2","3","3","3","4","2","3","2","2","2","2","4","2","1","3","2","2","2","2","4","4","4","5","4","4","5","4","4","4","4","1","0","1","1","0","0","1","1","1","1","-1","0","1","0","1","3","4","5","4","5","4","4","4","2","2","735606541780258817","谢","","","","","","","","","","","","","","","","","","","","","","","","","","","","","","","","","","","","","","","",""
"659","<p style=""color:rgb(150, 250, 100); font-size: 35px;"">他人的</p>","e","categorize-html","64","247448","0.0-6.0-0.0-6.0-1.2","3","3","3","4","2","3","2","2","2","2","4","2","1","3","2","2","2","2","4","4","4","5","4","4","5","4","4","4","4","1","0","1","1","0","0","1","1","1","1","-1","0","1","0","1","3","4","5","4","5","4","4","4","2","2","735606541780258817","谢","","","","","","","","","","","","","","","","","","","true","3","3","ability","659","other","他人的","","","","","","","","","","","","","","",""
"null","","null","html-keyboard-response","65","247700","0.0-6.0-0.0-6.0-0.3","3","3","3","4","2","3","2","2","2","2","4","2","1","3","2","2","2","2","4","4","4","5","4","4","5","4","4","4","4","1","0","1","1","0","0","1","1","1","1","-1","0","1","0","1","3","4","5","4","5","4","4","4","2","2","735606541780258817","谢","","","","","","","","","","","","","","","","","","","","","","","","","","","","","","","","","","","","","","","",""
"568","<p style=""color:white; font-size: 35px;"">低能</p>","e","categorize-html","66","248272","0.0-6.0-0.0-6.0-1.3","3","3","3","4","2","3","2","2","2","2","4","2","1","3","2","2","2","2","4","4","4","5","4","4","5","4","4","4","4","1","0","1","1","0","0","1","1","1","1","-1","0","1","0","1","3","4","5","4","5","4","4","4","2","2","735606541780258817","谢","","","","","","","","","","","","","","","","","","","true","3","3","ability","568","negative","低能","","","","","","","","","","","","","","",""
"null","","null","html-keyboard-response","67","248524","0.0-6.0-0.0-6.0-0.4","3","3","3","4","2","3","2","2","2","2","4","2","1","3","2","2","2","2","4","4","4","5","4","4","5","4","4","4","4","1","0","1","1","0","0","1","1","1","1","-1","0","1","0","1","3","4","5","4","5","4","4","4","2","2","735606541780258817","谢","","","","","","","","","","","","","","","","","","","","","","","","","","","","","","","","","","","","","","","",""
"620","<p style=""color:rgb(150, 250, 100); font-size: 35px;"">别人的</p>","e","categorize-html","68","249148","0.0-6.0-0.0-6.0-1.4","3","3","3","4","2","3","2","2","2","2","4","2","1","3","2","2","2","2","4","4","4","5","4","4","5","4","4","4","4","1","0","1","1","0","0","1","1","1","1","-1","0","1","0","1","3","4","5","4","5","4","4","4","2","2","735606541780258817","谢","","","","","","","","","","","","","","","","","","","true","3","3","ability","620","other","别人的","","","","","","","","","","","","","","",""
"null","","null","html-keyboard-response","69","249402","0.0-6.0-0.0-6.0-0.5","3","3","3","4","2","3","2","2","2","2","4","2","1","3","2","2","2","2","4","4","4","5","4","4","5","4","4","4","4","1","0","1","1","0","0","1","1","1","1","-1","0","1","0","1","3","4","5","4","5","4","4","4","2","2","735606541780258817","谢","","","","","","","","","","","","","","","","","","","","","","","","","","","","","","","","","","","","","","","",""
"613","<p style=""color:white; font-size: 35px;"">拙笨</p>","e","categorize-html","70","250019","0.0-6.0-0.0-6.0-1.5","3","3","3","4","2","3","2","2","2","2","4","2","1","3","2","2","2","2","4","4","4","5","4","4","5","4","4","4","4","1","0","1","1","0","0","1","1","1","1","-1","0","1","0","1","3","4","5","4","5","4","4","4","2","2","735606541780258817","谢","","","","","","","","","","","","","","","","","","","true","3","3","ability","613","negative","拙笨","","","","","","","","","","","","","","",""
"null","","null","html-keyboard-response","71","250270","0.0-6.0-0.0-6.0-0.6","3","3","3","4","2","3","2","2","2","2","4","2","1","3","2","2","2","2","4","4","4","5","4","4","5","4","4","4","4","1","0","1","1","0","0","1","1","1","1","-1","0","1","0","1","3","4","5","4","5","4","4","4","2","2","735606541780258817","谢","","","","","","","","","","","","","","","","","","","","","","","","","","","","","","","","","","","","","","","",""
"553","<p style=""color:rgb(150, 250, 100); font-size: 35px;"">自己的</p>","i","categorize-html","72","250827","0.0-6.0-0.0-6.0-1.6","3","3","3","4","2","3","2","2","2","2","4","2","1","3","2","2","2","2","4","4","4","5","4","4","5","4","4","4","4","1","0","1","1","0","0","1","1","1","1","-1","0","1","0","1","3","4","5","4","5","4","4","4","2","2","735606541780258817","谢","","","","","","","","","","","","","","","","","","","true","3","3","ability","553","self","自己的","","","","","","","","","","","","","","",""
"null","","null","html-keyboard-response","73","251079","0.0-6.0-0.0-6.0-0.7","3","3","3","4","2","3","2","2","2","2","4","2","1","3","2","2","2","2","4","4","4","5","4","4","5","4","4","4","4","1","0","1","1","0","0","1","1","1","1","-1","0","1","0","1","3","4","5","4","5","4","4","4","2","2","735606541780258817","谢","","","","","","","","","","","","","","","","","","","","","","","","","","","","","","","","","","","","","","","",""
"545","<p style=""color:white; font-size: 35px;"">能干</p>","i","categorize-html","74","251628","0.0-6.0-0.0-6.0-1.7","3","3","3","4","2","3","2","2","2","2","4","2","1","3","2","2","2","2","4","4","4","5","4","4","5","4","4","4","4","1","0","1","1","0","0","1","1","1","1","-1","0","1","0","1","3","4","5","4","5","4","4","4","2","2","735606541780258817","谢","","","","","","","","","","","","","","","","","","","true","3","3","ability","545","positive","能干","","","","","","","","","","","","","","",""
"null","","null","html-keyboard-response","75","251880","0.0-6.0-0.0-6.0-0.8","3","3","3","4","2","3","2","2","2","2","4","2","1","3","2","2","2","2","4","4","4","5","4","4","5","4","4","4","4","1","0","1","1","0","0","1","1","1","1","-1","0","1","0","1","3","4","5","4","5","4","4","4","2","2","735606541780258817","谢","","","","","","","","","","","","","","","","","","","","","","","","","","","","","","","","","","","","","","","",""
"574","<p style=""color:rgb(150, 250, 100); font-size: 35px;"">自己</p>","i","categorize-html","76","252455","0.0-6.0-0.0-6.0-1.8","3","3","3","4","2","3","2","2","2","2","4","2","1","3","2","2","2","2","4","4","4","5","4","4","5","4","4","4","4","1","0","1","1","0","0","1","1","1","1","-1","0","1","0","1","3","4","5","4","5","4","4","4","2","2","735606541780258817","谢","","","","","","","","","","","","","","","","","","","true","3","3","ability","574","self","自己","","","","","","","","","","","","","","",""
"null","","null","html-keyboard-response","77","252707","0.0-6.0-0.0-6.0-0.9","3","3","3","4","2","3","2","2","2","2","4","2","1","3","2","2","2","2","4","4","4","5","4","4","5","4","4","4","4","1","0","1","1","0","0","1","1","1","1","-1","0","1","0","1","3","4","5","4","5","4","4","4","2","2","735606541780258817","谢","","","","","","","","","","","","","","","","","","","","","","","","","","","","","","","","","","","","","","","",""
"737","<p style=""color:white; font-size: 35px;"">愚钝</p>","e","categorize-html","78","253446","0.0-6.0-0.0-6.0-1.9","3","3","3","4","2","3","2","2","2","2","4","2","1","3","2","2","2","2","4","4","4","5","4","4","5","4","4","4","4","1","0","1","1","0","0","1","1","1","1","-1","0","1","0","1","3","4","5","4","5","4","4","4","2","2","735606541780258817","谢","","","","","","","","","","","","","","","","","","","true","3","3","ability","737","negative","愚钝","","","","","","","","","","","","","","",""
"null","","null","html-keyboard-response","79","253699","0.0-6.0-0.0-6.0-0.10","3","3","3","4","2","3","2","2","2","2","4","2","1","3","2","2","2","2","4","4","4","5","4","4","5","4","4","4","4","1","0","1","1","0","0","1","1","1","1","-1","0","1","0","1","3","4","5","4","5","4","4","4","2","2","735606541780258817","谢","","","","","","","","","","","","","","","","","","","","","","","","","","","","","","","","","","","","","","","",""
"494","<p style=""color:rgb(150, 250, 100); font-size: 35px;"">他</p>","e","categorize-html","80","254196","0.0-6.0-0.0-6.0-1.10","3","3","3","4","2","3","2","2","2","2","4","2","1","3","2","2","2","2","4","4","4","5","4","4","5","4","4","4","4","1","0","1","1","0","0","1","1","1","1","-1","0","1","0","1","3","4","5","4","5","4","4","4","2","2","735606541780258817","谢","","","","","","","","","","","","","","","","","","","true","3","3","ability","494","other","他","","","","","","","","","","","","","","",""
"null","","null","html-keyboard-response","81","254448","0.0-6.0-0.0-6.0-0.11","3","3","3","4","2","3","2","2","2","2","4","2","1","3","2","2","2","2","4","4","4","5","4","4","5","4","4","4","4","1","0","1","1","0","0","1","1","1","1","-1","0","1","0","1","3","4","5","4","5","4","4","4","2","2","735606541780258817","谢","","","","","","","","","","","","","","","","","","","","","","","","","","","","","","","","","","","","","","","",""
"511","<p style=""color:white; font-size: 35px;"">天才</p>","i","categorize-html","82","254963","0.0-6.0-0.0-6.0-1.11","3","3","3","4","2","3","2","2","2","2","4","2","1","3","2","2","2","2","4","4","4","5","4","4","5","4","4","4","4","1","0","1","1","0","0","1","1","1","1","-1","0","1","0","1","3","4","5","4","5","4","4","4","2","2","735606541780258817","谢","","","","","","","","","","","","","","","","","","","true","3","3","ability","511","positive","天才","","","","","","","","","","","","","","",""
"null","","null","html-keyboard-response","83","255214","0.0-6.0-0.0-6.0-0.12","3","3","3","4","2","3","2","2","2","2","4","2","1","3","2","2","2","2","4","4","4","5","4","4","5","4","4","4","4","1","0","1","1","0","0","1","1","1","1","-1","0","1","0","1","3","4","5","4","5","4","4","4","2","2","735606541780258817","谢","","","","","","","","","","","","","","","","","","","","","","","","","","","","","","","","","","","","","","","",""
"960","<p style=""color:rgb(150, 250, 100); font-size: 35px;"">本人</p>","i","categorize-html","84","256177","0.0-6.0-0.0-6.0-1.12","3","3","3","4","2","3","2","2","2","2","4","2","1","3","2","2","2","2","4","4","4","5","4","4","5","4","4","4","4","1","0","1","1","0","0","1","1","1","1","-1","0","1","0","1","3","4","5","4","5","4","4","4","2","2","735606541780258817","谢","","","","","","","","","","","","","","","","","","","true","3","3","ability","960","self","本人","","","","","","","","","","","","","","",""
"null","","null","html-keyboard-response","85","256430","0.0-6.0-0.0-6.0-0.13","3","3","3","4","2","3","2","2","2","2","4","2","1","3","2","2","2","2","4","4","4","5","4","4","5","4","4","4","4","1","0","1","1","0","0","1","1","1","1","-1","0","1","0","1","3","4","5","4","5","4","4","4","2","2","735606541780258817","谢","","","","","","","","","","","","","","","","","","","","","","","","","","","","","","","","","","","","","","","",""
"654","<p style=""color:white; font-size: 35px;"">无能</p>","e","categorize-html","86","257088","0.0-6.0-0.0-6.0-1.13","3","3","3","4","2","3","2","2","2","2","4","2","1","3","2","2","2","2","4","4","4","5","4","4","5","4","4","4","4","1","0","1","1","0","0","1","1","1","1","-1","0","1","0","1","3","4","5","4","5","4","4","4","2","2","735606541780258817","谢","","","","","","","","","","","","","","","","","","","true","3","3","ability","654","negative","无能","","","","","","","","","","","","","","",""
"null","","null","html-keyboard-response","87","257339","0.0-6.0-0.0-6.0-0.14","3","3","3","4","2","3","2","2","2","2","4","2","1","3","2","2","2","2","4","4","4","5","4","4","5","4","4","4","4","1","0","1","1","0","0","1","1","1","1","-1","0","1","0","1","3","4","5","4","5","4","4","4","2","2","735606541780258817","谢","","","","","","","","","","","","","","","","","","","","","","","","","","","","","","","","","","","","","","","",""
"616","<p style=""color:rgb(150, 250, 100); font-size: 35px;"">他人</p>","e","categorize-html","88","257959","0.0-6.0-0.0-6.0-1.14","3","3","3","4","2","3","2","2","2","2","4","2","1","3","2","2","2","2","4","4","4","5","4","4","5","4","4","4","4","1","0","1","1","0","0","1","1","1","1","-1","0","1","0","1","3","4","5","4","5","4","4","4","2","2","735606541780258817","谢","","","","","","","","","","","","","","","","","","","true","3","3","ability","616","other","他人","","","","","","","","","","","","","","",""
"null","","null","html-keyboard-response","89","258211","0.0-6.0-0.0-6.0-0.15","3","3","3","4","2","3","2","2","2","2","4","2","1","3","2","2","2","2","4","4","4","5","4","4","5","4","4","4","4","1","0","1","1","0","0","1","1","1","1","-1","0","1","0","1","3","4","5","4","5","4","4","4","2","2","735606541780258817","谢","","","","","","","","","","","","","","","","","","","","","","","","","","","","","","","","","","","","","","","",""
"607","<p style=""color:white; font-size: 35px;"">全才</p>","i","categorize-html","90","258822","0.0-6.0-0.0-6.0-1.15","3","3","3","4","2","3","2","2","2","2","4","2","1","3","2","2","2","2","4","4","4","5","4","4","5","4","4","4","4","1","0","1","1","0","0","1","1","1","1","-1","0","1","0","1","3","4","5","4","5","4","4","4","2","2","735606541780258817","谢","","","","","","","","","","","","","","","","","","","true","3","3","ability","607","positive","全才","","","","","","","","","","","","","","",""
"null","","null","html-keyboard-response","91","259074","0.0-6.0-0.0-6.0-0.16","3","3","3","4","2","3","2","2","2","2","4","2","1","3","2","2","2","2","4","4","4","5","4","4","5","4","4","4","4","1","0","1","1","0","0","1","1","1","1","-1","0","1","0","1","3","4","5","4","5","4","4","4","2","2","735606541780258817","谢","","","","","","","","","","","","","","","","","","","","","","","","","","","","","","","","","","","","","","","",""
"651","<p style=""color:rgb(150, 250, 100); font-size: 35px;"">他的</p>","e","categorize-html","92","259729","0.0-6.0-0.0-6.0-1.16","3","3","3","4","2","3","2","2","2","2","4","2","1","3","2","2","2","2","4","4","4","5","4","4","5","4","4","4","4","1","0","1","1","0","0","1","1","1","1","-1","0","1","0","1","3","4","5","4","5","4","4","4","2","2","735606541780258817","谢","","","","","","","","","","","","","","","","","","","true","3","3","ability","651","other","他的","","","","","","","","","","","","","","",""
"null","","null","html-keyboard-response","93","259981","0.0-6.0-0.0-6.0-0.17","3","3","3","4","2","3","2","2","2","2","4","2","1","3","2","2","2","2","4","4","4","5","4","4","5","4","4","4","4","1","0","1","1","0","0","1","1","1","1","-1","0","1","0","1","3","4","5","4","5","4","4","4","2","2","735606541780258817","谢","","","","","","","","","","","","","","","","","","","","","","","","","","","","","","","","","","","","","","","",""
"576","<p style=""color:white; font-size: 35px;"">精干</p>","i","categorize-html","94","260561","0.0-6.0-0.0-6.0-1.17","3","3","3","4","2","3","2","2","2","2","4","2","1","3","2","2","2","2","4","4","4","5","4","4","5","4","4","4","4","1","0","1","1","0","0","1","1","1","1","-1","0","1","0","1","3","4","5","4","5","4","4","4","2","2","735606541780258817","谢","","","","","","","","","","","","","","","","","","","true","3","3","ability","576","positive","精干","","","","","","","","","","","","","","",""
"null","","null","html-keyboard-response","95","260812","0.0-6.0-0.0-6.0-0.18","3","3","3","4","2","3","2","2","2","2","4","2","1","3","2","2","2","2","4","4","4","5","4","4","5","4","4","4","4","1","0","1","1","0","0","1","1","1","1","-1","0","1","0","1","3","4","5","4","5","4","4","4","2","2","735606541780258817","谢","","","","","","","","","","","","","","","","","","","","","","","","","","","","","","","","","","","","","","","",""
"556","<p style=""color:rgb(150, 250, 100); font-size: 35px;"">我的</p>","i","categorize-html","96","261372","0.0-6.0-0.0-6.0-1.18","3","3","3","4","2","3","2","2","2","2","4","2","1","3","2","2","2","2","4","4","4","5","4","4","5","4","4","4","4","1","0","1","1","0","0","1","1","1","1","-1","0","1","0","1","3","4","5","4","5","4","4","4","2","2","735606541780258817","谢","","","","","","","","","","","","","","","","","","","true","3","3","ability","556","self","我的","","","","","","","","","","","","","","",""
"null","","null","html-keyboard-response","97","261624","0.0-6.0-0.0-6.0-0.19","3","3","3","4","2","3","2","2","2","2","4","2","1","3","2","2","2","2","4","4","4","5","4","4","5","4","4","4","4","1","0","1","1","0","0","1","1","1","1","-1","0","1","0","1","3","4","5","4","5","4","4","4","2","2","735606541780258817","谢","","","","","","","","","","","","","","","","","","","","","","","","","","","","","","","","","","","","","","","",""
"544","<p style=""color:white; font-size: 35px;"">蠢笨</p>","e","categorize-html","98","262172","0.0-6.0-0.0-6.0-1.19","3","3","3","4","2","3","2","2","2","2","4","2","1","3","2","2","2","2","4","4","4","5","4","4","5","4","4","4","4","1","0","1","1","0","0","1","1","1","1","-1","0","1","0","1","3","4","5","4","5","4","4","4","2","2","735606541780258817","谢","","","","","","","","","","","","","","","","","","","true","3","3","ability","544","negative","蠢笨","","","","","","","","","","","","","","",""
"null","","null","html-keyboard-response","99","262424","0.0-6.0-0.0-6.0-0.20","3","3","3","4","2","3","2","2","2","2","4","2","1","3","2","2","2","2","4","4","4","5","4","4","5","4","4","4","4","1","0","1","1","0","0","1","1","1","1","-1","0","1","0","1","3","4","5","4","5","4","4","4","2","2","735606541780258817","谢","","","","","","","","","","","","","","","","","","","","","","","","","","","","","","","","","","","","","","","",""
"515","<p style=""color:rgb(150, 250, 100); font-size: 35px;"">别人</p>","e","categorize-html","100","262942","0.0-6.0-0.0-6.0-1.20","3","3","3","4","2","3","2","2","2","2","4","2","1","3","2","2","2","2","4","4","4","5","4","4","5","4","4","4","4","1","0","1","1","0","0","1","1","1","1","-1","0","1","0","1","3","4","5","4","5","4","4","4","2","2","735606541780258817","谢","","","","","","","","","","","","","","","","","","","true","3","3","ability","515","other","别人","","","","","","","","","","","","","","",""
"null","","null","html-keyboard-response","101","263194","0.0-6.0-0.0-6.0-0.21","3","3","3","4","2","3","2","2","2","2","4","2","1","3","2","2","2","2","4","4","4","5","4","4","5","4","4","4","4","1","0","1","1","0","0","1","1","1","1","-1","0","1","0","1","3","4","5","4","5","4","4","4","2","2","735606541780258817","谢","","","","","","","","","","","","","","","","","","","","","","","","","","","","","","","","","","","","","","","",""
"703","<p style=""color:white; font-size: 35px;"">全能</p>","i","categorize-html","102","263900","0.0-6.0-0.0-6.0-1.21","3","3","3","4","2","3","2","2","2","2","4","2","1","3","2","2","2","2","4","4","4","5","4","4","5","4","4","4","4","1","0","1","1","0","0","1","1","1","1","-1","0","1","0","1","3","4","5","4","5","4","4","4","2","2","735606541780258817","谢","","","","","","","","","","","","","","","","","","","true","3","3","ability","703","positive","全能","","","","","","","","","","","","","","",""
"null","","null","html-keyboard-response","103","264152","0.0-6.0-0.0-6.0-0.22","3","3","3","4","2","3","2","2","2","2","4","2","1","3","2","2","2","2","4","4","4","5","4","4","5","4","4","4","4","1","0","1","1","0","0","1","1","1","1","-1","0","1","0","1","3","4","5","4","5","4","4","4","2","2","735606541780258817","谢","","","","","","","","","","","","","","","","","","","","","","","","","","","","","","","","","","","","","","","",""
"713","<p style=""color:rgb(150, 250, 100); font-size: 35px;"">我</p>","i","categorize-html","104","264867","0.0-6.0-0.0-6.0-1.22","3","3","3","4","2","3","2","2","2","2","4","2","1","3","2","2","2","2","4","4","4","5","4","4","5","4","4","4","4","1","0","1","1","0","0","1","1","1","1","-1","0","1","0","1","3","4","5","4","5","4","4","4","2","2","735606541780258817","谢","","","","","","","","","","","","","","","","","","","true","3","3","ability","713","self","我","","","","","","","","","","","","","","",""
"null","","null","html-keyboard-response","105","265118","0.0-6.0-0.0-6.0-0.23","3","3","3","4","2","3","2","2","2","2","4","2","1","3","2","2","2","2","4","4","4","5","4","4","5","4","4","4","4","1","0","1","1","0","0","1","1","1","1","-1","0","1","0","1","3","4","5","4","5","4","4","4","2","2","735606541780258817","谢","","","","","","","","","","","","","","","","","","","","","","","","","","","","","","","","","","","","","","","",""
"601","<p style=""color:white; font-size: 35px;"">废物</p>","e","categorize-html","106","265722","0.0-6.0-0.0-6.0-1.23","3","3","3","4","2","3","2","2","2","2","4","2","1","3","2","2","2","2","4","4","4","5","4","4","5","4","4","4","4","1","0","1","1","0","0","1","1","1","1","-1","0","1","0","1","3","4","5","4","5","4","4","4","2","2","735606541780258817","谢","","","","","","","","","","","","","","","","","","","true","3","3","ability","601","negative","废物","","","","","","","","","","","","","","",""
"8880","
    <div class=""tag-bottom""><p>
    ―― 任务4：对“他人/消极”词和“自我/积极”词分类 ――<p/>
    <span style=""color:#78DCE8""><b>与刚才的任务完全相同，请再次对这四类词语分类</b></span><p/>
    <span style=""color:#FFD866""><b>请根据上方标签的提示，尽可能正确并且快速地做出按键反应</b></span><p/>
    当按键错误时屏幕中会出现<span style=""color:red""> X </span>，需要按另一个键纠正才能继续<br/><p/>
    请把双手食指分别放在键盘的“E”键和“I”键上<p/>
    按<空格键>开始
    </p></div>"," ","html-keyboard-response","107","274602","0.0-6.0-0.0-7.0","3","3","3","4","2","3","2","2","2","2","4","2","1","3","2","2","2","2","4","4","4","5","4","4","5","4","4","4","4","1","0","1","1","0","0","1","1","1","1","-1","0","1","0","1","3","4","5","4","5","4","4","4","2","2","735606541780258817","谢","","","","","","","","","","","","","","","","","","","","","","","","","","","","","","","","","","","","","","","",""
"null","","null","html-keyboard-response","108","274854","0.0-6.0-0.0-8.0-0.0","3","3","3","4","2","3","2","2","2","2","4","2","1","3","2","2","2","2","4","4","4","5","4","4","5","4","4","4","4","1","0","1","1","0","0","1","1","1","1","-1","0","1","0","1","3","4","5","4","5","4","4","4","2","2","735606541780258817","谢","","","","","","","","","","","","","","","","","","","","","","","","","","","","","","","","","","","","","","","",""
"625","<p style=""color:rgb(150, 250, 100); font-size: 35px;"">别人</p>","e","categorize-html","109","275482","0.0-6.0-0.0-8.0-1.0","3","3","3","4","2","3","2","2","2","2","4","2","1","3","2","2","2","2","4","4","4","5","4","4","5","4","4","4","4","1","0","1","1","0","0","1","1","1","1","-1","0","1","0","1","3","4","5","4","5","4","4","4","2","2","735606541780258817","谢","","","","","","","","","","","","","","","","","","","true","4","4","ability","625","other","别人","","","","","","","","","","","","","","",""
"null","","null","html-keyboard-response","110","275734","0.0-6.0-0.0-8.0-0.1","3","3","3","4","2","3","2","2","2","2","4","2","1","3","2","2","2","2","4","4","4","5","4","4","5","4","4","4","4","1","0","1","1","0","0","1","1","1","1","-1","0","1","0","1","3","4","5","4","5","4","4","4","2","2","735606541780258817","谢","","","","","","","","","","","","","","","","","","","","","","","","","","","","","","","","","","","","","","","",""
"561","<p style=""color:white; font-size: 35px;"">天才</p>","i","categorize-html","111","276299","0.0-6.0-0.0-8.0-1.1","3","3","3","4","2","3","2","2","2","2","4","2","1","3","2","2","2","2","4","4","4","5","4","4","5","4","4","4","4","1","0","1","1","0","0","1","1","1","1","-1","0","1","0","1","3","4","5","4","5","4","4","4","2","2","735606541780258817","谢","","","","","","","","","","","","","","","","","","","true","4","4","ability","561","positive","天才","","","","","","","","","","","","","","",""
"null","","null","html-keyboard-response","112","276550","0.0-6.0-0.0-8.0-0.2","3","3","3","4","2","3","2","2","2","2","4","2","1","3","2","2","2","2","4","4","4","5","4","4","5","4","4","4","4","1","0","1","1","0","0","1","1","1","1","-1","0","1","0","1","3","4","5","4","5","4","4","4","2","2","735606541780258817","谢","","","","","","","","","","","","","","","","","","","","","","","","","","","","","","","","","","","","","","","",""
"537","<p style=""color:rgb(150, 250, 100); font-size: 35px;"">我的</p>","i","categorize-html","113","277092","0.0-6.0-0.0-8.0-1.2","3","3","3","4","2","3","2","2","2","2","4","2","1","3","2","2","2","2","4","4","4","5","4","4","5","4","4","4","4","1","0","1","1","0","0","1","1","1","1","-1","0","1","0","1","3","4","5","4","5","4","4","4","2","2","735606541780258817","谢","","","","","","","","","","","","","","","","","","","true","4","4","ability","537","self","我的","","","","","","","","","","","","","","",""
"null","","null","html-keyboard-response","114","277344","0.0-6.0-0.0-8.0-0.3","3","3","3","4","2","3","2","2","2","2","4","2","1","3","2","2","2","2","4","4","4","5","4","4","5","4","4","4","4","1","0","1","1","0","0","1","1","1","1","-1","0","1","0","1","3","4","5","4","5","4","4","4","2","2","735606541780258817","谢","","","","","","","","","","","","","","","","","","","","","","","","","","","","","","","","","","","","","","","",""
"654","<p style=""color:white; font-size: 35px;"">蠢笨</p>","e","categorize-html","115","278003","0.0-6.0-0.0-8.0-1.3","3","3","3","4","2","3","2","2","2","2","4","2","1","3","2","2","2","2","4","4","4","5","4","4","5","4","4","4","4","1","0","1","1","0","0","1","1","1","1","-1","0","1","0","1","3","4","5","4","5","4","4","4","2","2","735606541780258817","谢","","","","","","","","","","","","","","","","","","","true","4","4","ability","654","negative","蠢笨","","","","","","","","","","","","","","",""
"null","","null","html-keyboard-response","116","278254","0.0-6.0-0.0-8.0-0.4","3","3","3","4","2","3","2","2","2","2","4","2","1","3","2","2","2","2","4","4","4","5","4","4","5","4","4","4","4","1","0","1","1","0","0","1","1","1","1","-1","0","1","0","1","3","4","5","4","5","4","4","4","2","2","735606541780258817","谢","","","","","","","","","","","","","","","","","","","","","","","","","","","","","","","","","","","","","","","",""
"736","<p style=""color:rgb(150, 250, 100); font-size: 35px;"">他的</p>","e","categorize-html","117","278994","0.0-6.0-0.0-8.0-1.4","3","3","3","4","2","3","2","2","2","2","4","2","1","3","2","2","2","2","4","4","4","5","4","4","5","4","4","4","4","1","0","1","1","0","0","1","1","1","1","-1","0","1","0","1","3","4","5","4","5","4","4","4","2","2","735606541780258817","谢","","","","","","","","","","","","","","","","","","","true","4","4","ability","736","other","他的","","","","","","","","","","","","","","",""
"null","","null","html-keyboard-response","118","279246","0.0-6.0-0.0-8.0-0.5","3","3","3","4","2","3","2","2","2","2","4","2","1","3","2","2","2","2","4","4","4","5","4","4","5","4","4","4","4","1","0","1","1","0","0","1","1","1","1","-1","0","1","0","1","3","4","5","4","5","4","4","4","2","2","735606541780258817","谢","","","","","","","","","","","","","","","","","","","","","","","","","","","","","","","","","","","","","","","",""
"691","<p style=""color:white; font-size: 35px;"">拙笨</p>","e","categorize-html","119","279941","0.0-6.0-0.0-8.0-1.5","3","3","3","4","2","3","2","2","2","2","4","2","1","3","2","2","2","2","4","4","4","5","4","4","5","4","4","4","4","1","0","1","1","0","0","1","1","1","1","-1","0","1","0","1","3","4","5","4","5","4","4","4","2","2","735606541780258817","谢","","","","","","","","","","","","","","","","","","","true","4","4","ability","691","negative","拙笨","","","","","","","","","","","","","","",""
"null","","null","html-keyboard-response","120","280193","0.0-6.0-0.0-8.0-0.6","3","3","3","4","2","3","2","2","2","2","4","2","1","3","2","2","2","2","4","4","4","5","4","4","5","4","4","4","4","1","0","1","1","0","0","1","1","1","1","-1","0","1","0","1","3","4","5","4","5","4","4","4","2","2","735606541780258817","谢","","","","","","","","","","","","","","","","","","","","","","","","","","","","","","","","","","","","","","","",""
"569","<p style=""color:rgb(150, 250, 100); font-size: 35px;"">我</p>","i","categorize-html","121","280766","0.0-6.0-0.0-8.0-1.6","3","3","3","4","2","3","2","2","2","2","4","2","1","3","2","2","2","2","4","4","4","5","4","4","5","4","4","4","4","1","0","1","1","0","0","1","1","1","1","-1","0","1","0","1","3","4","5","4","5","4","4","4","2","2","735606541780258817","谢","","","","","","","","","","","","","","","","","","","true","4","4","ability","569","self","我","","","","","","","","","","","","","","",""
"null","","null","html-keyboard-response","122","281017","0.0-6.0-0.0-8.0-0.7","3","3","3","4","2","3","2","2","2","2","4","2","1","3","2","2","2","2","4","4","4","5","4","4","5","4","4","4","4","1","0","1","1","0","0","1","1","1","1","-1","0","1","0","1","3","4","5","4","5","4","4","4","2","2","735606541780258817","谢","","","","","","","","","","","","","","","","","","","","","","","","","","","","","","","","","","","","","","","",""
"658","<p style=""color:white; font-size: 35px;"">能干</p>","i","categorize-html","123","281678","0.0-6.0-0.0-8.0-1.7","3","3","3","4","2","3","2","2","2","2","4","2","1","3","2","2","2","2","4","4","4","5","4","4","5","4","4","4","4","1","0","1","1","0","0","1","1","1","1","-1","0","1","0","1","3","4","5","4","5","4","4","4","2","2","735606541780258817","谢","","","","","","","","","","","","","","","","","","","true","4","4","ability","658","positive","能干","","","","","","","","","","","","","","",""
"null","","null","html-keyboard-response","124","281930","0.0-6.0-0.0-8.0-0.8","3","3","3","4","2","3","2","2","2","2","4","2","1","3","2","2","2","2","4","4","4","5","4","4","5","4","4","4","4","1","0","1","1","0","0","1","1","1","1","-1","0","1","0","1","3","4","5","4","5","4","4","4","2","2","735606541780258817","谢","","","","","","","","","","","","","","","","","","","","","","","","","","","","","","","","","","","","","","","",""
"487","<p style=""color:rgb(150, 250, 100); font-size: 35px;"">自己</p>","i","categorize-html","125","282422","0.0-6.0-0.0-8.0-1.8","3","3","3","4","2","3","2","2","2","2","4","2","1","3","2","2","2","2","4","4","4","5","4","4","5","4","4","4","4","1","0","1","1","0","0","1","1","1","1","-1","0","1","0","1","3","4","5","4","5","4","4","4","2","2","735606541780258817","谢","","","","","","","","","","","","","","","","","","","true","4","4","ability","487","self","自己","","","","","","","","","","","","","","",""
"null","","null","html-keyboard-response","126","282673","0.0-6.0-0.0-8.0-0.9","3","3","3","4","2","3","2","2","2","2","4","2","1","3","2","2","2","2","4","4","4","5","4","4","5","4","4","4","4","1","0","1","1","0","0","1","1","1","1","-1","0","1","0","1","3","4","5","4","5","4","4","4","2","2","735606541780258817","谢","","","","","","","","","","","","","","","","","","","","","","","","","","","","","","","","","","","","","","","",""
"498","<p style=""color:white; font-size: 35px;"">无能</p>","e","categorize-html","127","283175","0.0-6.0-0.0-8.0-1.9","3","3","3","4","2","3","2","2","2","2","4","2","1","3","2","2","2","2","4","4","4","5","4","4","5","4","4","4","4","1","0","1","1","0","0","1","1","1","1","-1","0","1","0","1","3","4","5","4","5","4","4","4","2","2","735606541780258817","谢","","","","","","","","","","","","","","","","","","","true","4","4","ability","498","negative","无能","","","","","","","","","","","","","","",""
"null","","null","html-keyboard-response","128","283427","0.0-6.0-0.0-8.0-0.10","3","3","3","4","2","3","2","2","2","2","4","2","1","3","2","2","2","2","4","4","4","5","4","4","5","4","4","4","4","1","0","1","1","0","0","1","1","1","1","-1","0","1","0","1","3","4","5","4","5","4","4","4","2","2","735606541780258817","谢","","","","","","","","","","","","","","","","","","","","","","","","","","","","","","","","","","","","","","","",""
"843","<p style=""color:rgb(150, 250, 100); font-size: 35px;"">别人</p>","e","categorize-html","129","284274","0.0-6.0-0.0-8.0-1.10","3","3","3","4","2","3","2","2","2","2","4","2","1","3","2","2","2","2","4","4","4","5","4","4","5","4","4","4","4","1","0","1","1","0","0","1","1","1","1","-1","0","1","0","1","3","4","5","4","5","4","4","4","2","2","735606541780258817","谢","","","","","","","","","","","","","","","","","","","true","4","4","ability","843","other","别人","","","","","","","","","","","","","","",""
"null","","null","html-keyboard-response","130","284525","0.0-6.0-0.0-8.0-0.11","3","3","3","4","2","3","2","2","2","2","4","2","1","3","2","2","2","2","4","4","4","5","4","4","5","4","4","4","4","1","0","1","1","0","0","1","1","1","1","-1","0","1","0","1","3","4","5","4","5","4","4","4","2","2","735606541780258817","谢","","","","","","","","","","","","","","","","","","","","","","","","","","","","","","","","","","","","","","","",""
"885","<p style=""color:white; font-size: 35px;"">能干</p>","i","categorize-html","131","285414","0.0-6.0-0.0-8.0-1.11","3","3","3","4","2","3","2","2","2","2","4","2","1","3","2","2","2","2","4","4","4","5","4","4","5","4","4","4","4","1","0","1","1","0","0","1","1","1","1","-1","0","1","0","1","3","4","5","4","5","4","4","4","2","2","735606541780258817","谢","","","","","","","","","","","","","","","","","","","true","4","4","ability","885","positive","能干","","","","","","","","","","","","","","",""
"null","","null","html-keyboard-response","132","285666","0.0-6.0-0.0-8.0-0.12","3","3","3","4","2","3","2","2","2","2","4","2","1","3","2","2","2","2","4","4","4","5","4","4","5","4","4","4","4","1","0","1","1","0","0","1","1","1","1","-1","0","1","0","1","3","4","5","4","5","4","4","4","2","2","735606541780258817","谢","","","","","","","","","","","","","","","","","","","","","","","","","","","","","","","","","","","","","","","",""
"1008","<p style=""color:rgb(150, 250, 100); font-size: 35px;"">他人的</p>","e","categorize-html","133","286677","0.0-6.0-0.0-8.0-1.12","3","3","3","4","2","3","2","2","2","2","4","2","1","3","2","2","2","2","4","4","4","5","4","4","5","4","4","4","4","1","0","1","1","0","0","1","1","1","1","-1","0","1","0","1","3","4","5","4","5","4","4","4","2","2","735606541780258817","谢","","","","","","","","","","","","","","","","","","","true","4","4","ability","1008","other","他人的","","","","","","","","","","","","","","",""
"null","","null","html-keyboard-response","134","286929","0.0-6.0-0.0-8.0-0.13","3","3","3","4","2","3","2","2","2","2","4","2","1","3","2","2","2","2","4","4","4","5","4","4","5","4","4","4","4","1","0","1","1","0","0","1","1","1","1","-1","0","1","0","1","3","4","5","4","5","4","4","4","2","2","735606541780258817","谢","","","","","","","","","","","","","","","","","","","","","","","","","","","","","","","","","","","","","","","",""
"833","<p style=""color:white; font-size: 35px;"">精干</p>","i","categorize-html","135","287765","0.0-6.0-0.0-8.0-1.13","3","3","3","4","2","3","2","2","2","2","4","2","1","3","2","2","2","2","4","4","4","5","4","4","5","4","4","4","4","1","0","1","1","0","0","1","1","1","1","-1","0","1","0","1","3","4","5","4","5","4","4","4","2","2","735606541780258817","谢","","","","","","","","","","","","","","","","","","","true","4","4","ability","833","positive","精干","","","","","","","","","","","","","","",""
"null","","null","html-keyboard-response","136","288018","0.0-6.0-0.0-8.0-0.14","3","3","3","4","2","3","2","2","2","2","4","2","1","3","2","2","2","2","4","4","4","5","4","4","5","4","4","4","4","1","0","1","1","0","0","1","1","1","1","-1","0","1","0","1","3","4","5","4","5","4","4","4","2","2","735606541780258817","谢","","","","","","","","","","","","","","","","","","","","","","","","","","","","","","","","","","","","","","","",""
"827","<p style=""color:rgb(150, 250, 100); font-size: 35px;"">我</p>","i","categorize-html","137","288848","0.0-6.0-0.0-8.0-1.14","3","3","3","4","2","3","2","2","2","2","4","2","1","3","2","2","2","2","4","4","4","5","4","4","5","4","4","4","4","1","0","1","1","0","0","1","1","1","1","-1","0","1","0","1","3","4","5","4","5","4","4","4","2","2","735606541780258817","谢","","","","","","","","","","","","","","","","","","","true","4","4","ability","827","self","我","","","","","","","","","","","","","","",""
"null","","null","html-keyboard-response","138","289101","0.0-6.0-0.0-8.0-0.15","3","3","3","4","2","3","2","2","2","2","4","2","1","3","2","2","2","2","4","4","4","5","4","4","5","4","4","4","4","1","0","1","1","0","0","1","1","1","1","-1","0","1","0","1","3","4","5","4","5","4","4","4","2","2","735606541780258817","谢","","","","","","","","","","","","","","","","","","","","","","","","","","","","","","","","","","","","","","","",""
"699","<p style=""color:white; font-size: 35px;"">低能</p>","e","categorize-html","139","289805","0.0-6.0-0.0-8.0-1.15","3","3","3","4","2","3","2","2","2","2","4","2","1","3","2","2","2","2","4","4","4","5","4","4","5","4","4","4","4","1","0","1","1","0","0","1","1","1","1","-1","0","1","0","1","3","4","5","4","5","4","4","4","2","2","735606541780258817","谢","","","","","","","","","","","","","","","","","","","true","4","4","ability","699","negative","低能","","","","","","","","","","","","","","",""
"null","","null","html-keyboard-response","140","290056","0.0-6.0-0.0-8.0-0.16","3","3","3","4","2","3","2","2","2","2","4","2","1","3","2","2","2","2","4","4","4","5","4","4","5","4","4","4","4","1","0","1","1","0","0","1","1","1","1","-1","0","1","0","1","3","4","5","4","5","4","4","4","2","2","735606541780258817","谢","","","","","","","","","","","","","","","","","","","","","","","","","","","","","","","","","","","","","","","",""
"793","<p style=""color:rgb(150, 250, 100); font-size: 35px;"">他的</p>","e","categorize-html","141","290853","0.0-6.0-0.0-8.0-1.16","3","3","3","4","2","3","2","2","2","2","4","2","1","3","2","2","2","2","4","4","4","5","4","4","5","4","4","4","4","1","0","1","1","0","0","1","1","1","1","-1","0","1","0","1","3","4","5","4","5","4","4","4","2","2","735606541780258817","谢","","","","","","","","","","","","","","","","","","","true","4","4","ability","793","other","他的","","","","","","","","","","","","","","",""
"null","","null","html-keyboard-response","142","291105","0.0-6.0-0.0-8.0-0.17","3","3","3","4","2","3","2","2","2","2","4","2","1","3","2","2","2","2","4","4","4","5","4","4","5","4","4","4","4","1","0","1","1","0","0","1","1","1","1","-1","0","1","0","1","3","4","5","4","5","4","4","4","2","2","735606541780258817","谢","","","","","","","","","","","","","","","","","","","","","","","","","","","","","","","","","","","","","","","",""
"665","<p style=""color:white; font-size: 35px;"">废物</p>","e","categorize-html","143","291774","0.0-6.0-0.0-8.0-1.17","3","3","3","4","2","3","2","2","2","2","4","2","1","3","2","2","2","2","4","4","4","5","4","4","5","4","4","4","4","1","0","1","1","0","0","1","1","1","1","-1","0","1","0","1","3","4","5","4","5","4","4","4","2","2","735606541780258817","谢","","","","","","","","","","","","","","","","","","","true","4","4","ability","665","negative","废物","","","","","","","","","","","","","","",""
"null","","null","html-keyboard-response","144","292025","0.0-6.0-0.0-8.0-0.18","3","3","3","4","2","3","2","2","2","2","4","2","1","3","2","2","2","2","4","4","4","5","4","4","5","4","4","4","4","1","0","1","1","0","0","1","1","1","1","-1","0","1","0","1","3","4","5","4","5","4","4","4","2","2","735606541780258817","谢","","","","","","","","","","","","","","","","","","","","","","","","","","","","","","","","","","","","","","","",""
"616","<p style=""color:rgb(150, 250, 100); font-size: 35px;"">自己</p>","i","categorize-html","145","292645","0.0-6.0-0.0-8.0-1.18","3","3","3","4","2","3","2","2","2","2","4","2","1","3","2","2","2","2","4","4","4","5","4","4","5","4","4","4","4","1","0","1","1","0","0","1","1","1","1","-1","0","1","0","1","3","4","5","4","5","4","4","4","2","2","735606541780258817","谢","","","","","","","","","","","","","","","","","","","true","4","4","ability","616","self","自己","","","","","","","","","","","","","","",""
"null","","null","html-keyboard-response","146","292897","0.0-6.0-0.0-8.0-0.19","3","3","3","4","2","3","2","2","2","2","4","2","1","3","2","2","2","2","4","4","4","5","4","4","5","4","4","4","4","1","0","1","1","0","0","1","1","1","1","-1","0","1","0","1","3","4","5","4","5","4","4","4","2","2","735606541780258817","谢","","","","","","","","","","","","","","","","","","","","","","","","","","","","","","","","","","","","","","","",""
"813","<p style=""color:white; font-size: 35px;"">全能</p>","i","categorize-html","147","293712","0.0-6.0-0.0-8.0-1.19","3","3","3","4","2","3","2","2","2","2","4","2","1","3","2","2","2","2","4","4","4","5","4","4","5","4","4","4","4","1","0","1","1","0","0","1","1","1","1","-1","0","1","0","1","3","4","5","4","5","4","4","4","2","2","735606541780258817","谢","","","","","","","","","","","","","","","","","","","true","4","4","ability","813","positive","全能","","","","","","","","","","","","","","",""
"null","","null","html-keyboard-response","148","293963","0.0-6.0-0.0-8.0-0.20","3","3","3","4","2","3","2","2","2","2","4","2","1","3","2","2","2","2","4","4","4","5","4","4","5","4","4","4","4","1","0","1","1","0","0","1","1","1","1","-1","0","1","0","1","3","4","5","4","5","4","4","4","2","2","735606541780258817","谢","","","","","","","","","","","","","","","","","","","","","","","","","","","","","","","","","","","","","","","",""
"713","<p style=""color:rgb(150, 250, 100); font-size: 35px;"">本人的</p>","i","categorize-html","149","294680","0.0-6.0-0.0-8.0-1.20","3","3","3","4","2","3","2","2","2","2","4","2","1","3","2","2","2","2","4","4","4","5","4","4","5","4","4","4","4","1","0","1","1","0","0","1","1","1","1","-1","0","1","0","1","3","4","5","4","5","4","4","4","2","2","735606541780258817","谢","","","","","","","","","","","","","","","","","","","true","4","4","ability","713","self","本人的","","","","","","","","","","","","","","",""
"null","","null","html-keyboard-response","150","294933","0.0-6.0-0.0-8.0-0.21","3","3","3","4","2","3","2","2","2","2","4","2","1","3","2","2","2","2","4","4","4","5","4","4","5","4","4","4","4","1","0","1","1","0","0","1","1","1","1","-1","0","1","0","1","3","4","5","4","5","4","4","4","2","2","735606541780258817","谢","","","","","","","","","","","","","","","","","","","","","","","","","","","","","","","","","","","","","","","",""
"573","<p style=""color:white; font-size: 35px;"">高效</p>","i","categorize-html","151","295511","0.0-6.0-0.0-8.0-1.21","3","3","3","4","2","3","2","2","2","2","4","2","1","3","2","2","2","2","4","4","4","5","4","4","5","4","4","4","4","1","0","1","1","0","0","1","1","1","1","-1","0","1","0","1","3","4","5","4","5","4","4","4","2","2","735606541780258817","谢","","","","","","","","","","","","","","","","","","","true","4","4","ability","573","positive","高效","","","","","","","","","","","","","","",""
"null","","null","html-keyboard-response","152","295763","0.0-6.0-0.0-8.0-0.22","3","3","3","4","2","3","2","2","2","2","4","2","1","3","2","2","2","2","4","4","4","5","4","4","5","4","4","4","4","1","0","1","1","0","0","1","1","1","1","-1","0","1","0","1","3","4","5","4","5","4","4","4","2","2","735606541780258817","谢","","","","","","","","","","","","","","","","","","","","","","","","","","","","","","","","","","","","","","","",""
"751","<p style=""color:rgb(150, 250, 100); font-size: 35px;"">别人的</p>","e","categorize-html","153","296518","0.0-6.0-0.0-8.0-1.22","3","3","3","4","2","3","2","2","2","2","4","2","1","3","2","2","2","2","4","4","4","5","4","4","5","4","4","4","4","1","0","1","1","0","0","1","1","1","1","-1","0","1","0","1","3","4","5","4","5","4","4","4","2","2","735606541780258817","谢","","","","","","","","","","","","","","","","","","","true","4","4","ability","751","other","别人的","","","","","","","","","","","","","","",""
"null","","null","html-keyboard-response","154","296770","0.0-6.0-0.0-8.0-0.23","3","3","3","4","2","3","2","2","2","2","4","2","1","3","2","2","2","2","4","4","4","5","4","4","5","4","4","4","4","1","0","1","1","0","0","1","1","1","1","-1","0","1","0","1","3","4","5","4","5","4","4","4","2","2","735606541780258817","谢","","","","","","","","","","","","","","","","","","","","","","","","","","","","","","","","","","","","","","","",""
"927","<p style=""color:white; font-size: 35px;"">低能</p>","e","categorize-html","155","297702","0.0-6.0-0.0-8.0-1.23","3","3","3","4","2","3","2","2","2","2","4","2","1","3","2","2","2","2","4","4","4","5","4","4","5","4","4","4","4","1","0","1","1","0","0","1","1","1","1","-1","0","1","0","1","3","4","5","4","5","4","4","4","2","2","735606541780258817","谢","","","","","","","","","","","","","","","","","","","true","4","4","ability","927","negative","低能","","","","","","","","","","","","","","",""
"null","","null","html-keyboard-response","156","297954","0.0-6.0-0.0-8.0-0.24","3","3","3","4","2","3","2","2","2","2","4","2","1","3","2","2","2","2","4","4","4","5","4","4","5","4","4","4","4","1","0","1","1","0","0","1","1","1","1","-1","0","1","0","1","3","4","5","4","5","4","4","4","2","2","735606541780258817","谢","","","","","","","","","","","","","","","","","","","","","","","","","","","","","","","","","","","","","","","",""
"595","<p style=""color:rgb(150, 250, 100); font-size: 35px;"">本人</p>","i","categorize-html","157","298552","0.0-6.0-0.0-8.0-1.24","3","3","3","4","2","3","2","2","2","2","4","2","1","3","2","2","2","2","4","4","4","5","4","4","5","4","4","4","4","1","0","1","1","0","0","1","1","1","1","-1","0","1","0","1","3","4","5","4","5","4","4","4","2","2","735606541780258817","谢","","","","","","","","","","","","","","","","","","","true","4","4","ability","595","self","本人","","","","","","","","","","","","","","",""
"null","","null","html-keyboard-response","158","298804","0.0-6.0-0.0-8.0-0.25","3","3","3","4","2","3","2","2","2","2","4","2","1","3","2","2","2","2","4","4","4","5","4","4","5","4","4","4","4","1","0","1","1","0","0","1","1","1","1","-1","0","1","0","1","3","4","5","4","5","4","4","4","2","2","735606541780258817","谢","","","","","","","","","","","","","","","","","","","","","","","","","","","","","","","","","","","","","","","",""
"727","<p style=""color:white; font-size: 35px;"">拙笨</p>","e","categorize-html","159","299535","0.0-6.0-0.0-8.0-1.25","3","3","3","4","2","3","2","2","2","2","4","2","1","3","2","2","2","2","4","4","4","5","4","4","5","4","4","4","4","1","0","1","1","0","0","1","1","1","1","-1","0","1","0","1","3","4","5","4","5","4","4","4","2","2","735606541780258817","谢","","","","","","","","","","","","","","","","","","","true","4","4","ability","727","negative","拙笨","","","","","","","","","","","","","","",""
"null","","null","html-keyboard-response","160","299787","0.0-6.0-0.0-8.0-0.26","3","3","3","4","2","3","2","2","2","2","4","2","1","3","2","2","2","2","4","4","4","5","4","4","5","4","4","4","4","1","0","1","1","0","0","1","1","1","1","-1","0","1","0","1","3","4","5","4","5","4","4","4","2","2","735606541780258817","谢","","","","","","","","","","","","","","","","","","","","","","","","","","","","","","","","","","","","","","","",""
"1052","<p style=""color:rgb(150, 250, 100); font-size: 35px;"">他人的</p>","e","categorize-html","161","300842","0.0-6.0-0.0-8.0-1.26","3","3","3","4","2","3","2","2","2","2","4","2","1","3","2","2","2","2","4","4","4","5","4","4","5","4","4","4","4","1","0","1","1","0","0","1","1","1","1","-1","0","1","0","1","3","4","5","4","5","4","4","4","2","2","735606541780258817","谢","","","","","","","","","","","","","","","","","","","true","4","4","ability","1052","other","他人的","","","","","","","","","","","","","","",""
"null","","null","html-keyboard-response","162","301095","0.0-6.0-0.0-8.0-0.27","3","3","3","4","2","3","2","2","2","2","4","2","1","3","2","2","2","2","4","4","4","5","4","4","5","4","4","4","4","1","0","1","1","0","0","1","1","1","1","-1","0","1","0","1","3","4","5","4","5","4","4","4","2","2","735606541780258817","谢","","","","","","","","","","","","","","","","","","","","","","","","","","","","","","","","","","","","","","","",""
"552","<p style=""color:white; font-size: 35px;"">高效</p>","i","categorize-html","163","301650","0.0-6.0-0.0-8.0-1.27","3","3","3","4","2","3","2","2","2","2","4","2","1","3","2","2","2","2","4","4","4","5","4","4","5","4","4","4","4","1","0","1","1","0","0","1","1","1","1","-1","0","1","0","1","3","4","5","4","5","4","4","4","2","2","735606541780258817","谢","","","","","","","","","","","","","","","","","","","true","4","4","ability","552","positive","高效","","","","","","","","","","","","","","",""
"null","","null","html-keyboard-response","164","301902","0.0-6.0-0.0-8.0-0.28","3","3","3","4","2","3","2","2","2","2","4","2","1","3","2","2","2","2","4","4","4","5","4","4","5","4","4","4","4","1","0","1","1","0","0","1","1","1","1","-1","0","1","0","1","3","4","5","4","5","4","4","4","2","2","735606541780258817","谢","","","","","","","","","","","","","","","","","","","","","","","","","","","","","","","","","","","","","","","",""
"744","<p style=""color:rgb(150, 250, 100); font-size: 35px;"">别人的</p>","e","categorize-html","165","302650","0.0-6.0-0.0-8.0-1.28","3","3","3","4","2","3","2","2","2","2","4","2","1","3","2","2","2","2","4","4","4","5","4","4","5","4","4","4","4","1","0","1","1","0","0","1","1","1","1","-1","0","1","0","1","3","4","5","4","5","4","4","4","2","2","735606541780258817","谢","","","","","","","","","","","","","","","","","","","true","4","4","ability","744","other","别人的","","","","","","","","","","","","","","",""
"null","","null","html-keyboard-response","166","302901","0.0-6.0-0.0-8.0-0.29","3","3","3","4","2","3","2","2","2","2","4","2","1","3","2","2","2","2","4","4","4","5","4","4","5","4","4","4","4","1","0","1","1","0","0","1","1","1","1","-1","0","1","0","1","3","4","5","4","5","4","4","4","2","2","735606541780258817","谢","","","","","","","","","","","","","","","","","","","","","","","","","","","","","","","","","","","","","","","",""
"508","<p style=""color:white; font-size: 35px;"">天才</p>","i","categorize-html","167","303413","0.0-6.0-0.0-8.0-1.29","3","3","3","4","2","3","2","2","2","2","4","2","1","3","2","2","2","2","4","4","4","5","4","4","5","4","4","4","4","1","0","1","1","0","0","1","1","1","1","-1","0","1","0","1","3","4","5","4","5","4","4","4","2","2","735606541780258817","谢","","","","","","","","","","","","","","","","","","","true","4","4","ability","508","positive","天才","","","","","","","","","","","","","","",""
"null","","null","html-keyboard-response","168","303666","0.0-6.0-0.0-8.0-0.30","3","3","3","4","2","3","2","2","2","2","4","2","1","3","2","2","2","2","4","4","4","5","4","4","5","4","4","4","4","1","0","1","1","0","0","1","1","1","1","-1","0","1","0","1","3","4","5","4","5","4","4","4","2","2","735606541780258817","谢","","","","","","","","","","","","","","","","","","","","","","","","","","","","","","","","","","","","","","","",""
"543","<p style=""color:rgb(150, 250, 100); font-size: 35px;"">本人的</p>","i","categorize-html","169","304213","0.0-6.0-0.0-8.0-1.30","3","3","3","4","2","3","2","2","2","2","4","2","1","3","2","2","2","2","4","4","4","5","4","4","5","4","4","4","4","1","0","1","1","0","0","1","1","1","1","-1","0","1","0","1","3","4","5","4","5","4","4","4","2","2","735606541780258817","谢","","","","","","","","","","","","","","","","","","","true","4","4","ability","543","self","本人的","","","","","","","","","","","","","","",""
"null","","null","html-keyboard-response","170","304464","0.0-6.0-0.0-8.0-0.31","3","3","3","4","2","3","2","2","2","2","4","2","1","3","2","2","2","2","4","4","4","5","4","4","5","4","4","4","4","1","0","1","1","0","0","1","1","1","1","-1","0","1","0","1","3","4","5","4","5","4","4","4","2","2","735606541780258817","谢","","","","","","","","","","","","","","","","","","","","","","","","","","","","","","","","","","","","","","","",""
"519","<p style=""color:white; font-size: 35px;"">蠢笨</p>","e","categorize-html","171","304988","0.0-6.0-0.0-8.0-1.31","3","3","3","4","2","3","2","2","2","2","4","2","1","3","2","2","2","2","4","4","4","5","4","4","5","4","4","4","4","1","0","1","1","0","0","1","1","1","1","-1","0","1","0","1","3","4","5","4","5","4","4","4","2","2","735606541780258817","谢","","","","","","","","","","","","","","","","","","","true","4","4","ability","519","negative","蠢笨","","","","","","","","","","","","","","",""
"null","","null","html-keyboard-response","172","305240","0.0-6.0-0.0-8.0-0.32","3","3","3","4","2","3","2","2","2","2","4","2","1","3","2","2","2","2","4","4","4","5","4","4","5","4","4","4","4","1","0","1","1","0","0","1","1","1","1","-1","0","1","0","1","3","4","5","4","5","4","4","4","2","2","735606541780258817","谢","","","","","","","","","","","","","","","","","","","","","","","","","","","","","","","","","","","","","","","",""
"445","<p style=""color:rgb(150, 250, 100); font-size: 35px;"">自己的</p>","i","categorize-html","173","305689","0.0-6.0-0.0-8.0-1.32","3","3","3","4","2","3","2","2","2","2","4","2","1","3","2","2","2","2","4","4","4","5","4","4","5","4","4","4","4","1","0","1","1","0","0","1","1","1","1","-1","0","1","0","1","3","4","5","4","5","4","4","4","2","2","735606541780258817","谢","","","","","","","","","","","","","","","","","","","true","4","4","ability","445","self","自己的","","","","","","","","","","","","","","",""
"null","","null","html-keyboard-response","174","305941","0.0-6.0-0.0-8.0-0.33","3","3","3","4","2","3","2","2","2","2","4","2","1","3","2","2","2","2","4","4","4","5","4","4","5","4","4","4","4","1","0","1","1","0","0","1","1","1","1","-1","0","1","0","1","3","4","5","4","5","4","4","4","2","2","735606541780258817","谢","","","","","","","","","","","","","","","","","","","","","","","","","","","","","","","","","","","","","","","",""
"514","<p style=""color:white; font-size: 35px;"">废物</p>","e","categorize-html","175","306459","0.0-6.0-0.0-8.0-1.33","3","3","3","4","2","3","2","2","2","2","4","2","1","3","2","2","2","2","4","4","4","5","4","4","5","4","4","4","4","1","0","1","1","0","0","1","1","1","1","-1","0","1","0","1","3","4","5","4","5","4","4","4","2","2","735606541780258817","谢","","","","","","","","","","","","","","","","","","","true","4","4","ability","514","negative","废物","","","","","","","","","","","","","","",""
"null","","null","html-keyboard-response","176","306732","0.0-6.0-0.0-8.0-0.34","3","3","3","4","2","3","2","2","2","2","4","2","1","3","2","2","2","2","4","4","4","5","4","4","5","4","4","4","4","1","0","1","1","0","0","1","1","1","1","-1","0","1","0","1","3","4","5","4","5","4","4","4","2","2","735606541780258817","谢","","","","","","","","","","","","","","","","","","","","","","","","","","","","","","","","","","","","","","","",""
"628","<p style=""color:rgb(150, 250, 100); font-size: 35px;"">他</p>","e","categorize-html","177","307366","0.0-6.0-0.0-8.0-1.34","3","3","3","4","2","3","2","2","2","2","4","2","1","3","2","2","2","2","4","4","4","5","4","4","5","4","4","4","4","1","0","1","1","0","0","1","1","1","1","-1","0","1","0","1","3","4","5","4","5","4","4","4","2","2","735606541780258817","谢","","","","","","","","","","","","","","","","","","","true","4","4","ability","628","other","他","","","","","","","","","","","","","","",""
"null","","null","html-keyboard-response","178","307617","0.0-6.0-0.0-8.0-0.35","3","3","3","4","2","3","2","2","2","2","4","2","1","3","2","2","2","2","4","4","4","5","4","4","5","4","4","4","4","1","0","1","1","0","0","1","1","1","1","-1","0","1","0","1","3","4","5","4","5","4","4","4","2","2","735606541780258817","谢","","","","","","","","","","","","","","","","","","","","","","","","","","","","","","","","","","","","","","","",""
"508","<p style=""color:white; font-size: 35px;"">全能</p>","i","categorize-html","179","308128","0.0-6.0-0.0-8.0-1.35","3","3","3","4","2","3","2","2","2","2","4","2","1","3","2","2","2","2","4","4","4","5","4","4","5","4","4","4","4","1","0","1","1","0","0","1","1","1","1","-1","0","1","0","1","3","4","5","4","5","4","4","4","2","2","735606541780258817","谢","","","","","","","","","","","","","","","","","","","true","4","4","ability","508","positive","全能","","","","","","","","","","","","","","",""
"null","","null","html-keyboard-response","180","308380","0.0-6.0-0.0-8.0-0.36","3","3","3","4","2","3","2","2","2","2","4","2","1","3","2","2","2","2","4","4","4","5","4","4","5","4","4","4","4","1","0","1","1","0","0","1","1","1","1","-1","0","1","0","1","3","4","5","4","5","4","4","4","2","2","735606541780258817","谢","","","","","","","","","","","","","","","","","","","","","","","","","","","","","","","","","","","","","","","",""
"576","<p style=""color:rgb(150, 250, 100); font-size: 35px;"">他人</p>","e","categorize-html","181","308961","0.0-6.0-0.0-8.0-1.36","3","3","3","4","2","3","2","2","2","2","4","2","1","3","2","2","2","2","4","4","4","5","4","4","5","4","4","4","4","1","0","1","1","0","0","1","1","1","1","-1","0","1","0","1","3","4","5","4","5","4","4","4","2","2","735606541780258817","谢","","","","","","","","","","","","","","","","","","","true","4","4","ability","576","other","他人","","","","","","","","","","","","","","",""
"null","","null","html-keyboard-response","182","309212","0.0-6.0-0.0-8.0-0.37","3","3","3","4","2","3","2","2","2","2","4","2","1","3","2","2","2","2","4","4","4","5","4","4","5","4","4","4","4","1","0","1","1","0","0","1","1","1","1","-1","0","1","0","1","3","4","5","4","5","4","4","4","2","2","735606541780258817","谢","","","","","","","","","","","","","","","","","","","","","","","","","","","","","","","","","","","","","","","",""
"524","<p style=""color:white; font-size: 35px;"">全才</p>","i","categorize-html","183","309739","0.0-6.0-0.0-8.0-1.37","3","3","3","4","2","3","2","2","2","2","4","2","1","3","2","2","2","2","4","4","4","5","4","4","5","4","4","4","4","1","0","1","1","0","0","1","1","1","1","-1","0","1","0","1","3","4","5","4","5","4","4","4","2","2","735606541780258817","谢","","","","","","","","","","","","","","","","","","","true","4","4","ability","524","positive","全才","","","","","","","","","","","","","","",""
"null","","null","html-keyboard-response","184","309991","0.0-6.0-0.0-8.0-0.38","3","3","3","4","2","3","2","2","2","2","4","2","1","3","2","2","2","2","4","4","4","5","4","4","5","4","4","4","4","1","0","1","1","0","0","1","1","1","1","-1","0","1","0","1","3","4","5","4","5","4","4","4","2","2","735606541780258817","谢","","","","","","","","","","","","","","","","","","","","","","","","","","","","","","","","","","","","","","","",""
"487","<p style=""color:rgb(150, 250, 100); font-size: 35px;"">本人</p>","e","categorize-html","185","313022","0.0-6.0-0.0-8.0-1.38","3","3","3","4","2","3","2","2","2","2","4","2","1","3","2","2","2","2","4","4","4","5","4","4","5","4","4","4","4","1","0","1","1","0","0","1","1","1","1","-1","0","1","0","1","3","4","5","4","5","4","4","4","2","2","735606541780258817","谢","","","","","","","","","","","","","","","","","","","false","4","4","ability","1283.1702127659573","self","本人","","","","","","","","","","","","","","",""
"null","","null","html-keyboard-response","186","313274","0.0-6.0-0.0-8.0-0.39","3","3","3","4","2","3","2","2","2","2","4","2","1","3","2","2","2","2","4","4","4","5","4","4","5","4","4","4","4","1","0","1","1","0","0","1","1","1","1","-1","0","1","0","1","3","4","5","4","5","4","4","4","2","2","735606541780258817","谢","","","","","","","","","","","","","","","","","","","","","","","","","","","","","","","","","","","","","","","",""
"1226","<p style=""color:white; font-size: 35px;"">愚钝</p>","e","categorize-html","187","314504","0.0-6.0-0.0-8.0-1.39","3","3","3","4","2","3","2","2","2","2","4","2","1","3","2","2","2","2","4","4","4","5","4","4","5","4","4","4","4","1","0","1","1","0","0","1","1","1","1","-1","0","1","0","1","3","4","5","4","5","4","4","4","2","2","735606541780258817","谢","","","","","","","","","","","","","","","","","","","true","4","4","ability","1226","negative","愚钝","","","","","","","","","","","","","","",""
"null","","null","html-keyboard-response","188","314755","0.0-6.0-0.0-8.0-0.40","3","3","3","4","2","3","2","2","2","2","4","2","1","3","2","2","2","2","4","4","4","5","4","4","5","4","4","4","4","1","0","1","1","0","0","1","1","1","1","-1","0","1","0","1","3","4","5","4","5","4","4","4","2","2","735606541780258817","谢","","","","","","","","","","","","","","","","","","","","","","","","","","","","","","","","","","","","","","","",""
"539","<p style=""color:rgb(150, 250, 100); font-size: 35px;"">自己的</p>","i","categorize-html","189","315300","0.0-6.0-0.0-8.0-1.40","3","3","3","4","2","3","2","2","2","2","4","2","1","3","2","2","2","2","4","4","4","5","4","4","5","4","4","4","4","1","0","1","1","0","0","1","1","1","1","-1","0","1","0","1","3","4","5","4","5","4","4","4","2","2","735606541780258817","谢","","","","","","","","","","","","","","","","","","","true","4","4","ability","539","self","自己的","","","","","","","","","","","","","","",""
"null","","null","html-keyboard-response","190","315551","0.0-6.0-0.0-8.0-0.41","3","3","3","4","2","3","2","2","2","2","4","2","1","3","2","2","2","2","4","4","4","5","4","4","5","4","4","4","4","1","0","1","1","0","0","1","1","1","1","-1","0","1","0","1","3","4","5","4","5","4","4","4","2","2","735606541780258817","谢","","","","","","","","","","","","","","","","","","","","","","","","","","","","","","","","","","","","","","","",""
"667","<p style=""color:white; font-size: 35px;"">愚钝</p>","e","categorize-html","191","316222","0.0-6.0-0.0-8.0-1.41","3","3","3","4","2","3","2","2","2","2","4","2","1","3","2","2","2","2","4","4","4","5","4","4","5","4","4","4","4","1","0","1","1","0","0","1","1","1","1","-1","0","1","0","1","3","4","5","4","5","4","4","4","2","2","735606541780258817","谢","","","","","","","","","","","","","","","","","","","true","4","4","ability","667","negative","愚钝","","","","","","","","","","","","","","",""
"null","","null","html-keyboard-response","192","316473","0.0-6.0-0.0-8.0-0.42","3","3","3","4","2","3","2","2","2","2","4","2","1","3","2","2","2","2","4","4","4","5","4","4","5","4","4","4","4","1","0","1","1","0","0","1","1","1","1","-1","0","1","0","1","3","4","5","4","5","4","4","4","2","2","735606541780258817","谢","","","","","","","","","","","","","","","","","","","","","","","","","","","","","","","","","","","","","","","",""
"907","<p style=""color:rgb(150, 250, 100); font-size: 35px;"">他</p>","e","categorize-html","193","317385","0.0-6.0-0.0-8.0-1.42","3","3","3","4","2","3","2","2","2","2","4","2","1","3","2","2","2","2","4","4","4","5","4","4","5","4","4","4","4","1","0","1","1","0","0","1","1","1","1","-1","0","1","0","1","3","4","5","4","5","4","4","4","2","2","735606541780258817","谢","","","","","","","","","","","","","","","","","","","true","4","4","ability","907","other","他","","","","","","","","","","","","","","",""
"null","","null","html-keyboard-response","194","317636","0.0-6.0-0.0-8.0-0.43","3","3","3","4","2","3","2","2","2","2","4","2","1","3","2","2","2","2","4","4","4","5","4","4","5","4","4","4","4","1","0","1","1","0","0","1","1","1","1","-1","0","1","0","1","3","4","5","4","5","4","4","4","2","2","735606541780258817","谢","","","","","","","","","","","","","","","","","","","","","","","","","","","","","","","","","","","","","","","",""
"500","<p style=""color:white; font-size: 35px;"">全才</p>","i","categorize-html","195","318140","0.0-6.0-0.0-8.0-1.43","3","3","3","4","2","3","2","2","2","2","4","2","1","3","2","2","2","2","4","4","4","5","4","4","5","4","4","4","4","1","0","1","1","0","0","1","1","1","1","-1","0","1","0","1","3","4","5","4","5","4","4","4","2","2","735606541780258817","谢","","","","","","","","","","","","","","","","","","","true","4","4","ability","500","positive","全才","","","","","","","","","","","","","","",""
"null","","null","html-keyboard-response","196","318391","0.0-6.0-0.0-8.0-0.44","3","3","3","4","2","3","2","2","2","2","4","2","1","3","2","2","2","2","4","4","4","5","4","4","5","4","4","4","4","1","0","1","1","0","0","1","1","1","1","-1","0","1","0","1","3","4","5","4","5","4","4","4","2","2","735606541780258817","谢","","","","","","","","","","","","","","","","","","","","","","","","","","","","","","","","","","","","","","","",""
"852","<p style=""color:rgb(150, 250, 100); font-size: 35px;"">他人</p>","e","categorize-html","197","319248","0.0-6.0-0.0-8.0-1.44","3","3","3","4","2","3","2","2","2","2","4","2","1","3","2","2","2","2","4","4","4","5","4","4","5","4","4","4","4","1","0","1","1","0","0","1","1","1","1","-1","0","1","0","1","3","4","5","4","5","4","4","4","2","2","735606541780258817","谢","","","","","","","","","","","","","","","","","","","true","4","4","ability","852","other","他人","","","","","","","","","","","","","","",""
"null","","null","html-keyboard-response","198","319500","0.0-6.0-0.0-8.0-0.45","3","3","3","4","2","3","2","2","2","2","4","2","1","3","2","2","2","2","4","4","4","5","4","4","5","4","4","4","4","1","0","1","1","0","0","1","1","1","1","-1","0","1","0","1","3","4","5","4","5","4","4","4","2","2","735606541780258817","谢","","","","","","","","","","","","","","","","","","","","","","","","","","","","","","","","","","","","","","","",""
