"rt","stimulus","response","trial_type","trial_index","time_elapsed","internal_node_id","ses_1","ses_2","ses_3","ses_4","ses_5","ses_6","ses_7","ses_8","ses_9","ses_10","coreself_1","coreself_2","coreself_3","coreself_4","coreself_5","coreself_6","coreself_7","coreself_8","coreself_9","coreself_10","SGPS_1","SGPS_2","SGPS_3","SGPS_4","SGPS_5","SGPS_6","SGPS_7","SGPS_8","SGPS_9","NPI1","NPI2","NPI3","NPI4","NPI5","NPI6","NPI7","NPI8","NPI9","NPI10","NPI11","NPI12","NPI13","NPI14","NPI15","hsns_1","hsns_2","hsns_3","hsns_4","hsns_5","hsns_6","hsns_7","hsns_8","hsns_9","hsns_10","subj_idx","friend_name","value","success","user_agent","responses","item_order","radio_event_ids","radio_event_times","key_event_times","mouse_event_times","straightlining","zigzagging","honeypot","timeout","failed_images","failed_audio","failed_video","view_history","response_type","key_press","avg_frame_time","center_x","center_y","correct_response","correct","identity","Image","word","condition","task_id","screen_id","time_stamp","version_attrib2","version_target2","IAT","RT","varname","summary","version_attrib","version_target","question_order"
"18272","
   <p><div style = ""color: white;font-size:25px;"">您好，欢迎参加本次实验。</div> </p>
   <p><div style = ""color: white;font-size:25px;"">为充分保障您的权利，请确保您已经知晓并同意《参与实验同意书》以及《数据公开知情同意书》。</div></p>
   <p><div style = ""color: white;font-size:25px;"">如果您未见过上述内容，请咨询实验员。</div></p>
   <p><div style = ""color: white;font-size:25px;"">如果您选择继续实验，则表示您已经清楚两份知情同意书的内容并同意。</div></p>
   <p> <div style = ""color: green;font-size:25px;""><按空格键至下页></div> </p>
   "," ","html-keyboard-response","0","18276","0.0-0.0","3","3","4","3","3","3","3","2","3","3","4","3","2","4","4","4","4","3","4","4","2","3","3","2","2","2","2","3","2","1","0","0","1","0","0","1","1","1","1","-1","0","0","0","1","4","3","2","2","4","2","4","4","3","1","755507503227473921","陈","","","","","","","","","","","","","","","","","","","","","","","","","","","","","","","","","","","","","","","",""
"","","","call-function","1","18282","0.0-1.0-0.0","3","3","4","3","3","3","3","2","3","3","4","3","2","4","4","4","4","3","4","4","2","3","3","2","2","2","2","3","2","1","0","0","1","0","0","1","1","1","1","-1","0","0","0","1","4","3","2","2","4","2","4","4","3","1","755507503227473921","陈","","","","","","","","","","","","","","","","","","","","","","","","","","","","","","","","","","","","","","","",""
"47033","","{""friend_name"":""陈""}","survey-html-form","2","65312","0.0-1.0-1.0","3","3","4","3","3","3","3","2","3","3","4","3","2","4","4","4","4","3","4","4","2","3","3","2","2","2","2","3","2","1","0","0","1","0","0","1","1","1","1","-1","0","0","0","1","4","3","2","2","4","2","4","4","3","1","755507503227473921","陈","","","","","","","","","","","","","","","","","","","","","","","","","","","","","","","","","","","","","","","",""
"","","","fullscreen","3","71022","0.0-2.0","3","3","4","3","3","3","3","2","3","3","4","3","2","4","4","4","4","3","4","4","2","3","3","2","2","2","2","3","2","1","0","0","1","0","0","1","1","1","1","-1","0","0","0","1","4","3","2","2","4","2","4","4","3","1","755507503227473921","陈","","true","{}","","","","","","","","","","","","","","","","","","","","","","","","","","","","","","","","","","","","",""
"53543.39999999851","","{""Q01"":""3"",""Q02"":""3"",""Q03"":""4"",""Q04"":""3"",""Q05"":""3"",""Q06"":""3"",""Q07"":""3"",""Q08"":""2"",""Q09"":""3"",""Q10"":""3""}","survey-template","4","124566","0.0-3.0","3","3","4","3","3","3","3","2","3","3","4","3","2","4","4","4","4","3","4","4","2","3","3","2","2","2","2","3","2","1","0","0","1","0","0","1","1","1","1","-1","0","0","0","1","4","3","2","2","4","2","4","4","3","1","755507503227473921","陈","","","","{""Q01"":""3"",""Q02"":""3"",""Q03"":""4"",""Q04"":""3"",""Q05"":""3"",""Q06"":""3"",""Q07"":""3"",""Q08"":""2"",""Q09"":""3"",""Q10"":""3""}","[0,1,2,3,4,5,6,7,8,9]","[""Q01"",""Q02"",""Q03"",""Q04"",""Q03"",""Q05"",""Q06"",""Q07"",""Q10"",""Q09"",""Q08""]","[5638.10000000149,9597.79999999702,11621.89999999851,15429.89999999851,18933.5,23309.60000000149,25029.60000000149,29117.69999999553,36837.89999999851,39765.69999999553,50045.60000000149]","[]","[5638.10000000149,7685.79999999702,9053.5,9390.39999999851,9597.79999999702,11621.89999999851,15429.89999999851,18933.5,23309.60000000149,25029.60000000149,29117.69999999553,36837.89999999851,39765.69999999553,47773.69999999553,48253.79999999702,50045.60000000149,53541.69999999553]","0.6","0.3333333333333333","0","","","","","","","","","","","","","","","","","","","","","","","","","","","",""
"52286.30000000447","","{""Q01"":""4"",""Q02"":""3"",""Q03"":""2"",""Q04"":""4"",""Q05"":""4"",""Q06"":""4"",""Q07"":""4"",""Q08"":""3"",""Q09"":""4"",""Q10"":""4""}","survey-template","5","176855","0.0-4.0","3","3","4","3","3","3","3","2","3","3","4","3","2","4","4","4","4","3","4","4","2","3","3","2","2","2","2","3","2","1","0","0","1","0","0","1","1","1","1","-1","0","0","0","1","4","3","2","2","4","2","4","4","3","1","755507503227473921","陈","","","","{""Q01"":""4"",""Q02"":""3"",""Q03"":""2"",""Q04"":""4"",""Q05"":""4"",""Q06"":""4"",""Q07"":""4"",""Q08"":""3"",""Q09"":""4"",""Q10"":""4""}","[0,1,2,3,4,5,6,7,8,9]","[""Q01"",""Q02"",""Q03"",""Q04"",""Q05"",""Q06"",""Q07"",""Q10"",""Q09"",""Q08""]","[3284.39999999851,4956.5,10052.5,13732.30000000447,15452.5,16804.39999999851,23052.30000000447,30012.30000000447,31372.20000000298,36364.39999999851]","[]","[3284.39999999851,4956.5,10052.5,13732.30000000447,15452.5,16388.30000000447,16804.39999999851,23052.30000000447,30012.30000000447,31372.20000000298,35212.30000000447,36364.39999999851,52284.30000000447]","0.5","0.4444444444444444","0","","","","","","","","","","","","","","","","","","","","","","","","","","","",""
"","","","preload","6","177274","0.0-5.0","3","3","4","3","3","3","3","2","3","3","4","3","2","4","4","4","4","3","4","4","2","3","3","2","2","2","2","3","2","1","0","0","1","0","0","1","1","1","1","-1","0","0","0","1","4","3","2","2","4","2","4","4","3","1","755507503227473921","陈","","true","","","","","","","","","","","false","[]","[]","[]","","","","","","","","","","","","","","","","","","","","","","","",""
"16649","","","instructions","7","193925","0.0-6.0","3","3","4","3","3","3","3","2","3","3","4","3","2","4","4","4","4","3","4","4","2","3","3","2","2","2","2","3","2","1","0","0","1","0","0","1","1","1","1","-1","0","0","0","1","4","3","2","2","4","2","4","4","3","1","755507503227473921","陈","","","","","","","","","","","","","","","","","[{""page_index"":0,""viewing_time"":16648}]","","","","","","","","","","","","","","","","","","","","","","",""
"49405","","","instructions","8","243328","0.0-7.0-0.0-0.0","3","3","4","3","3","3","3","2","3","3","4","3","2","4","4","4","4","3","4","4","2","3","3","2","2","2","2","3","2","1","0","0","1","0","0","1","1","1","1","-1","0","0","0","1","4","3","2","2","4","2","4","4","3","1","755507503227473921","陈","","","","","","","","","","","","","","","","","[{""page_index"":0,""viewing_time"":37957},{""page_index"":1,""viewing_time"":8320},{""page_index"":2,""viewing_time"":3128}]","","","","","","","","","","","","","","","","","","","","","","",""
"null","","null","psychophysics","9","245538","0.0-7.0-0.0-1.0-0.0-0.0","3","3","4","3","3","3","3","2","3","3","4","3","2","4","4","4","4","3","4","4","2","3","3","2","2","2","2","3","2","1","0","0","1","0","0","1","1","1","1","-1","0","0","0","1","4","3","2","2","4","2","4","4","3","1","755507503227473921","陈","","","","null","","","","","","","","","","","","","","key","null","16.669742424242333","720","446","f","false","match","img/pentagon.png","五边","五边","ALT1_1","prac_ALT1_1","","","","","","","","","",""
"null","<span class='add_' style='color:yellow; font-size: 70px;'> 太慢! </span>","null","html-keyboard-response","10","246041","0.0-7.0-0.0-1.0-0.0-1.0","3","3","4","3","3","3","3","2","3","3","4","3","2","4","4","4","4","3","4","4","2","3","3","2","2","2","2","3","2","1","0","0","1","0","0","1","1","1","1","-1","0","0","0","1","4","3","2","2","4","2","4","4","3","1","755507503227473921","陈","","","","","","","","","","","","","","","","","","","","","","","","","","","","","","feedback_test","","","","","","","","","",""
"null","","null","psychophysics","11","248247","0.0-7.0-0.0-1.0-0.0-0.1","3","3","4","3","3","3","3","2","3","3","4","3","2","4","4","4","4","3","4","4","2","3","3","2","2","2","2","3","2","1","0","0","1","0","0","1","1","1","1","-1","0","0","0","1","4","3","2","2","4","2","4","4","3","1","755507503227473921","陈","","","","null","","","","","","","","","","","","","","key","null","16.667053435114436","720","446","f","false","match","img/ellipse.png","椭圆","椭圆","ALT1_1","prac_ALT1_1","","","","","","","","","",""
"null","<span class='add_' style='color:yellow; font-size: 70px;'> 太慢! </span>","null","html-keyboard-response","12","248749","0.0-7.0-0.0-1.0-0.0-1.1","3","3","4","3","3","3","3","2","3","3","4","3","2","4","4","4","4","3","4","4","2","3","3","2","2","2","2","3","2","1","0","0","1","0","0","1","1","1","1","-1","0","0","0","1","4","3","2","2","4","2","4","4","3","1","755507503227473921","陈","","","","","","","","","","","","","","","","","","","","","","","","","","","","","","feedback_test","","","","","","","","","",""
"null","","null","psychophysics","13","250955","0.0-7.0-0.0-1.0-0.0-0.2","3","3","4","3","3","3","3","2","3","3","4","3","2","4","4","4","4","3","4","4","2","3","3","2","2","2","2","3","2","1","0","0","1","0","0","1","1","1","1","-1","0","0","0","1","4","3","2","2","4","2","4","4","3","1","755507503227473921","陈","","","","null","","","","","","","","","","","","","","key","null","16.659610687023008","720","446","f","false","match","img/square.png","方形","方形","ALT1_1","prac_ALT1_1","","","","","","","","","",""
"null","<span class='add_' style='color:yellow; font-size: 70px;'> 太慢! </span>","null","html-keyboard-response","14","251457","0.0-7.0-0.0-1.0-0.0-1.2","3","3","4","3","3","3","3","2","3","3","4","3","2","4","4","4","4","3","4","4","2","3","3","2","2","2","2","3","2","1","0","0","1","0","0","1","1","1","1","-1","0","0","0","1","4","3","2","2","4","2","4","4","3","1","755507503227473921","陈","","","","","","","","","","","","","","","","","","","","","","","","","","","","","","feedback_test","","","","","","","","","",""
"null","","null","psychophysics","15","253665","0.0-7.0-0.0-1.0-0.0-0.3","3","3","4","3","3","3","3","2","3","3","4","3","2","4","4","4","4","3","4","4","2","3","3","2","2","2","2","3","2","1","0","0","1","0","0","1","1","1","1","-1","0","0","0","1","4","3","2","2","4","2","4","4","3","1","755507503227473921","陈","","","","null","","","","","","","","","","","","","","key","null","16.669786259541972","720","446","j","false","nonmatch","img/triangle.png","五边","三角","ALT1_1","prac_ALT1_1","","","","","","","","","",""
"null","<span class='add_' style='color:yellow; font-size: 70px;'> 太慢! </span>","null","html-keyboard-response","16","254167","0.0-7.0-0.0-1.0-0.0-1.3","3","3","4","3","3","3","3","2","3","3","4","3","2","4","4","4","4","3","4","4","2","3","3","2","2","2","2","3","2","1","0","0","1","0","0","1","1","1","1","-1","0","0","0","1","4","3","2","2","4","2","4","4","3","1","755507503227473921","陈","","","","","","","","","","","","","","","","","","","","","","","","","","","","","","feedback_test","","","","","","","","","",""
"795","","f","psychophysics","17","255966","0.0-7.0-0.0-1.0-0.0-0.4","3","3","4","3","3","3","3","2","3","3","4","3","2","4","4","4","4","3","4","4","2","3","3","2","2","2","2","3","2","1","0","0","1","0","0","1","1","1","1","-1","0","0","0","1","4","3","2","2","4","2","4","4","3","1","755507503227473921","陈","","","","match","","","","","","","","","","","","","","key","f","16.66980188679228","720","446","f","true","match","img/pentagon.png","五边","五边","ALT1_1","prac_ALT1_1","","","","","","","","","",""
"null","<span style='color:GreenYellow; font-size: 70px;'>正确! </span>","null","html-keyboard-response","18","256468","0.0-7.0-0.0-1.0-0.0-1.4","3","3","4","3","3","3","3","2","3","3","4","3","2","4","4","4","4","3","4","4","2","3","3","2","2","2","2","3","2","1","0","0","1","0","0","1","1","1","1","-1","0","0","0","1","4","3","2","2","4","2","4","4","3","1","755507503227473921","陈","","","","","","","","","","","","","","","","","","","","","","","","","","","","","","feedback_test","","","","","","","","","",""
"605","","f","psychophysics","19","258076","0.0-7.0-0.0-1.0-0.0-0.5","3","3","4","3","3","3","3","2","3","3","4","3","2","4","4","4","4","3","4","4","2","3","3","2","2","2","2","3","2","1","0","0","1","0","0","1","1","1","1","-1","0","0","0","1","4","3","2","2","4","2","4","4","3","1","755507503227473921","陈","","","","match","","","","","","","","","","","","","","key","f","16.670252631578936","720","446","j","false","nonmatch","img/triangle.png","椭圆","三角","ALT1_1","prac_ALT1_1","","","","","","","","","",""
"null","<span style='color:red; font-size: 70px;'>错误! </span>","null","html-keyboard-response","20","258578","0.0-7.0-0.0-1.0-0.0-1.5","3","3","4","3","3","3","3","2","3","3","4","3","2","4","4","4","4","3","4","4","2","3","3","2","2","2","2","3","2","1","0","0","1","0","0","1","1","1","1","-1","0","0","0","1","4","3","2","2","4","2","4","4","3","1","755507503227473921","陈","","","","","","","","","","","","","","","","","","","","","","","","","","","","","","feedback_test","","","","","","","","","",""
"759","","j","psychophysics","21","260342","0.0-7.0-0.0-1.0-0.0-0.6","3","3","4","3","3","3","3","2","3","3","4","3","2","4","4","4","4","3","4","4","2","3","3","2","2","2","2","3","2","1","0","0","1","0","0","1","1","1","1","-1","0","0","0","1","4","3","2","2","4","2","4","4","3","1","755507503227473921","陈","","","","nonmatch","","","","","","","","","","","","","","key","j","16.669219047618874","720","446","j","true","nonmatch","img/triangle.png","方形","三角","ALT1_1","prac_ALT1_1","","","","","","","","","",""
"null","<span style='color:GreenYellow; font-size: 70px;'>正确! </span>","null","html-keyboard-response","22","260844","0.0-7.0-0.0-1.0-0.0-1.6","3","3","4","3","3","3","3","2","3","3","4","3","2","4","4","4","4","3","4","4","2","3","3","2","2","2","2","3","2","1","0","0","1","0","0","1","1","1","1","-1","0","0","0","1","4","3","2","2","4","2","4","4","3","1","755507503227473921","陈","","","","","","","","","","","","","","","","","","","","","","","","","","","","","","feedback_test","","","","","","","","","",""
"660","","f","psychophysics","23","262507","0.0-7.0-0.0-1.0-0.0-0.7","3","3","4","3","3","3","3","2","3","3","4","3","2","4","4","4","4","3","4","4","2","3","3","2","2","2","2","3","2","1","0","0","1","0","0","1","1","1","1","-1","0","0","0","1","4","3","2","2","4","2","4","4","3","1","755507503227473921","陈","","","","match","","","","","","","","","","","","","","key","f","16.669050505050254","720","446","f","true","match","img/triangle.png","三角","三角","ALT1_1","prac_ALT1_1","","","","","","","","","",""
"null","<span style='color:GreenYellow; font-size: 70px;'>正确! </span>","null","html-keyboard-response","24","263010","0.0-7.0-0.0-1.0-0.0-1.7","3","3","4","3","3","3","3","2","3","3","4","3","2","4","4","4","4","3","4","4","2","3","3","2","2","2","2","3","2","1","0","0","1","0","0","1","1","1","1","-1","0","0","0","1","4","3","2","2","4","2","4","4","3","1","755507503227473921","陈","","","","","","","","","","","","","","","","","","","","","","","","","","","","","","feedback_test","","","","","","","","","",""
"620","","f","psychophysics","25","264632","0.0-7.0-0.0-1.0-0.0-0.8","3","3","4","3","3","3","3","2","3","3","4","3","2","4","4","4","4","3","4","4","2","3","3","2","2","2","2","3","2","1","0","0","1","0","0","1","1","1","1","-1","0","0","0","1","4","3","2","2","4","2","4","4","3","1","755507503227473921","陈","","","","match","","","","","","","","","","","","","","key","f","16.6700416666669","720","446","f","true","match","img/triangle.png","三角","三角","ALT1_1","prac_ALT1_1","","","","","","","","","",""
"null","<span style='color:GreenYellow; font-size: 70px;'>正确! </span>","null","html-keyboard-response","26","265135","0.0-7.0-0.0-1.0-0.0-1.8","3","3","4","3","3","3","3","2","3","3","4","3","2","4","4","4","4","3","4","4","2","3","3","2","2","2","2","3","2","1","0","0","1","0","0","1","1","1","1","-1","0","0","0","1","4","3","2","2","4","2","4","4","3","1","755507503227473921","陈","","","","","","","","","","","","","","","","","","","","","","","","","","","","","","feedback_test","","","","","","","","","",""
"848","","f","psychophysics","27","266986","0.0-7.0-0.0-1.0-0.0-0.9","3","3","4","3","3","3","3","2","3","3","4","3","2","4","4","4","4","3","4","4","2","3","3","2","2","2","2","3","2","1","0","0","1","0","0","1","1","1","1","-1","0","0","0","1","4","3","2","2","4","2","4","4","3","1","755507503227473921","陈","","","","match","","","","","","","","","","","","","","key","f","16.66914678899061","720","446","j","false","nonmatch","img/ellipse.png","方形","椭圆","ALT1_1","prac_ALT1_1","","","","","","","","","",""
"null","<span style='color:red; font-size: 70px;'>错误! </span>","null","html-keyboard-response","28","267489","0.0-7.0-0.0-1.0-0.0-1.9","3","3","4","3","3","3","3","2","3","3","4","3","2","4","4","4","4","3","4","4","2","3","3","2","2","2","2","3","2","1","0","0","1","0","0","1","1","1","1","-1","0","0","0","1","4","3","2","2","4","2","4","4","3","1","755507503227473921","陈","","","","","","","","","","","","","","","","","","","","","","","","","","","","","","feedback_test","","","","","","","","","",""
"836","","j","psychophysics","29","269328","0.0-7.0-0.0-1.0-0.0-0.10","3","3","4","3","3","3","3","2","3","3","4","3","2","4","4","4","4","3","4","4","2","3","3","2","2","2","2","3","2","1","0","0","1","0","0","1","1","1","1","-1","0","0","0","1","4","3","2","2","4","2","4","4","3","1","755507503227473921","陈","","","","nonmatch","","","","","","","","","","","","","","key","j","16.668807339449756","720","446","j","true","nonmatch","img/pentagon.png","方形","五边","ALT1_1","prac_ALT1_1","","","","","","","","","",""
"null","<span style='color:GreenYellow; font-size: 70px;'>正确! </span>","null","html-keyboard-response","30","269830","0.0-7.0-0.0-1.0-0.0-1.10","3","3","4","3","3","3","3","2","3","3","4","3","2","4","4","4","4","3","4","4","2","3","3","2","2","2","2","3","2","1","0","0","1","0","0","1","1","1","1","-1","0","0","0","1","4","3","2","2","4","2","4","4","3","1","755507503227473921","陈","","","","","","","","","","","","","","","","","","","","","","","","","","","","","","feedback_test","","","","","","","","","",""
"959","","f","psychophysics","31","271793","0.0-7.0-0.0-1.0-0.0-0.11","3","3","4","3","3","3","3","2","3","3","4","3","2","4","4","4","4","3","4","4","2","3","3","2","2","2","2","3","2","1","0","0","1","0","0","1","1","1","1","-1","0","0","0","1","4","3","2","2","4","2","4","4","3","1","755507503227473921","陈","","","","match","","","","","","","","","","","","","","key","f","16.669649572649963","720","446","f","true","match","img/square.png","方形","方形","ALT1_1","prac_ALT1_1","","","","","","","","","",""
"null","<span style='color:GreenYellow; font-size: 70px;'>正确! </span>","null","html-keyboard-response","32","272295","0.0-7.0-0.0-1.0-0.0-1.11","3","3","4","3","3","3","3","2","3","3","4","3","2","4","4","4","4","3","4","4","2","3","3","2","2","2","2","3","2","1","0","0","1","0","0","1","1","1","1","-1","0","0","0","1","4","3","2","2","4","2","4","4","3","1","755507503227473921","陈","","","","","","","","","","","","","","","","","","","","","","","","","","","","","","feedback_test","","","","","","","","","",""
"918","","f","psychophysics","33","274211","0.0-7.0-0.0-1.0-0.0-0.12","3","3","4","3","3","3","3","2","3","3","4","3","2","4","4","4","4","3","4","4","2","3","3","2","2","2","2","3","2","1","0","0","1","0","0","1","1","1","1","-1","0","0","0","1","4","3","2","2","4","2","4","4","3","1","755507503227473921","陈","","","","match","","","","","","","","","","","","","","key","f","16.66866666666669","720","446","f","true","match","img/ellipse.png","椭圆","椭圆","ALT1_1","prac_ALT1_1","","","","","","","","","",""
"null","<span style='color:GreenYellow; font-size: 70px;'>正确! </span>","null","html-keyboard-response","34","274712","0.0-7.0-0.0-1.0-0.0-1.12","3","3","4","3","3","3","3","2","3","3","4","3","2","4","4","4","4","3","4","4","2","3","3","2","2","2","2","3","2","1","0","0","1","0","0","1","1","1","1","-1","0","0","0","1","4","3","2","2","4","2","4","4","3","1","755507503227473921","陈","","","","","","","","","","","","","","","","","","","","","","","","","","","","","","feedback_test","","","","","","","","","",""
"711","","j","psychophysics","35","276427","0.0-7.0-0.0-1.0-0.0-0.13","3","3","4","3","3","3","3","2","3","3","4","3","2","4","4","4","4","3","4","4","2","3","3","2","2","2","2","3","2","1","0","0","1","0","0","1","1","1","1","-1","0","0","0","1","4","3","2","2","4","2","4","4","3","1","755507503227473921","陈","","","","nonmatch","","","","","","","","","","","","","","key","j","16.658069306930948","720","446","j","true","nonmatch","img/ellipse.png","三角","椭圆","ALT1_1","prac_ALT1_1","","","","","","","","","",""
"null","<span style='color:GreenYellow; font-size: 70px;'>正确! </span>","null","html-keyboard-response","36","276929","0.0-7.0-0.0-1.0-0.0-1.13","3","3","4","3","3","3","3","2","3","3","4","3","2","4","4","4","4","3","4","4","2","3","3","2","2","2","2","3","2","1","0","0","1","0","0","1","1","1","1","-1","0","0","0","1","4","3","2","2","4","2","4","4","3","1","755507503227473921","陈","","","","","","","","","","","","","","","","","","","","","","","","","","","","","","feedback_test","","","","","","","","","",""
"882","","f","psychophysics","37","278813","0.0-7.0-0.0-1.0-0.0-0.14","3","3","4","3","3","3","3","2","3","3","4","3","2","4","4","4","4","3","4","4","2","3","3","2","2","2","2","3","2","1","0","0","1","0","0","1","1","1","1","-1","0","0","0","1","4","3","2","2","4","2","4","4","3","1","755507503227473921","陈","","","","match","","","","","","","","","","","","","","key","f","16.664189189189504","720","446","j","false","nonmatch","img/pentagon.png","椭圆","五边","ALT1_1","prac_ALT1_1","","","","","","","","","",""
"null","<span style='color:red; font-size: 70px;'>错误! </span>","null","html-keyboard-response","38","279317","0.0-7.0-0.0-1.0-0.0-1.14","3","3","4","3","3","3","3","2","3","3","4","3","2","4","4","4","4","3","4","4","2","3","3","2","2","2","2","3","2","1","0","0","1","0","0","1","1","1","1","-1","0","0","0","1","4","3","2","2","4","2","4","4","3","1","755507503227473921","陈","","","","","","","","","","","","","","","","","","","","","","","","","","","","","","feedback_test","","","","","","","","","",""
"850","","j","psychophysics","39","281170","0.0-7.0-0.0-1.0-0.0-0.15","3","3","4","3","3","3","3","2","3","3","4","3","2","4","4","4","4","3","4","4","2","3","3","2","2","2","2","3","2","1","0","0","1","0","0","1","1","1","1","-1","0","0","0","1","4","3","2","2","4","2","4","4","3","1","755507503227473921","陈","","","","nonmatch","","","","","","","","","","","","","","key","j","16.66722727272691","720","446","j","true","nonmatch","img/square.png","椭圆","方形","ALT1_1","prac_ALT1_1","","","","","","","","","",""
"null","<span style='color:GreenYellow; font-size: 70px;'>正确! </span>","null","html-keyboard-response","40","281672","0.0-7.0-0.0-1.0-0.0-1.15","3","3","4","3","3","3","3","2","3","3","4","3","2","4","4","4","4","3","4","4","2","3","3","2","2","2","2","3","2","1","0","0","1","0","0","1","1","1","1","-1","0","0","0","1","4","3","2","2","4","2","4","4","3","1","755507503227473921","陈","","","","","","","","","","","","","","","","","","","","","","","","","","","","","","feedback_test","","","","","","","","","",""
"829","","j","psychophysics","41","283503","0.0-7.0-0.0-1.0-0.0-0.16","3","3","4","3","3","3","3","2","3","3","4","3","2","4","4","4","4","3","4","4","2","3","3","2","2","2","2","3","2","1","0","0","1","0","0","1","1","1","1","-1","0","0","0","1","4","3","2","2","4","2","4","4","3","1","755507503227473921","陈","","","","nonmatch","","","","","","","","","","","","","","key","j","16.66833027522934","720","446","f","false","match","img/ellipse.png","椭圆","椭圆","ALT1_1","prac_ALT1_1","","","","","","","","","",""
"null","<span style='color:red; font-size: 70px;'>错误! </span>","null","html-keyboard-response","42","284007","0.0-7.0-0.0-1.0-0.0-1.16","3","3","4","3","3","3","3","2","3","3","4","3","2","4","4","4","4","3","4","4","2","3","3","2","2","2","2","3","2","1","0","0","1","0","0","1","1","1","1","-1","0","0","0","1","4","3","2","2","4","2","4","4","3","1","755507503227473921","陈","","","","","","","","","","","","","","","","","","","","","","","","","","","","","","feedback_test","","","","","","","","","",""
"697","","j","psychophysics","43","285707","0.0-7.0-0.0-1.0-0.0-0.17","3","3","4","3","3","3","3","2","3","3","4","3","2","4","4","4","4","3","4","4","2","3","3","2","2","2","2","3","2","1","0","0","1","0","0","1","1","1","1","-1","0","0","0","1","4","3","2","2","4","2","4","4","3","1","755507503227473921","陈","","","","nonmatch","","","","","","","","","","","","","","key","j","16.669376237623364","720","446","j","true","nonmatch","img/square.png","三角","方形","ALT1_1","prac_ALT1_1","","","","","","","","","",""
"null","<span style='color:GreenYellow; font-size: 70px;'>正确! </span>","null","html-keyboard-response","44","286208","0.0-7.0-0.0-1.0-0.0-1.17","3","3","4","3","3","3","3","2","3","3","4","3","2","4","4","4","4","3","4","4","2","3","3","2","2","2","2","3","2","1","0","0","1","0","0","1","1","1","1","-1","0","0","0","1","4","3","2","2","4","2","4","4","3","1","755507503227473921","陈","","","","","","","","","","","","","","","","","","","","","","","","","","","","","","feedback_test","","","","","","","","","",""
"858","","j","psychophysics","45","288071","0.0-7.0-0.0-1.0-0.0-0.18","3","3","4","3","3","3","3","2","3","3","4","3","2","4","4","4","4","3","4","4","2","3","3","2","2","2","2","3","2","1","0","0","1","0","0","1","1","1","1","-1","0","0","0","1","4","3","2","2","4","2","4","4","3","1","755507503227473921","陈","","","","nonmatch","","","","","","","","","","","","","","key","j","16.66981981981961","720","446","j","true","nonmatch","img/pentagon.png","三角","五边","ALT1_1","prac_ALT1_1","","","","","","","","","",""
"null","<span style='color:GreenYellow; font-size: 70px;'>正确! </span>","null","html-keyboard-response","46","288574","0.0-7.0-0.0-1.0-0.0-1.18","3","3","4","3","3","3","3","2","3","3","4","3","2","4","4","4","4","3","4","4","2","3","3","2","2","2","2","3","2","1","0","0","1","0","0","1","1","1","1","-1","0","0","0","1","4","3","2","2","4","2","4","4","3","1","755507503227473921","陈","","","","","","","","","","","","","","","","","","","","","","","","","","","","","","feedback_test","","","","","","","","","",""
"685","","j","psychophysics","47","290262","0.0-7.0-0.0-1.0-0.0-0.19","3","3","4","3","3","3","3","2","3","3","4","3","2","4","4","4","4","3","4","4","2","3","3","2","2","2","2","3","2","1","0","0","1","0","0","1","1","1","1","-1","0","0","0","1","4","3","2","2","4","2","4","4","3","1","755507503227473921","陈","","","","nonmatch","","","","","","","","","","","","","","key","j","16.66988000000012","720","446","j","true","nonmatch","img/ellipse.png","五边","椭圆","ALT1_1","prac_ALT1_1","","","","","","","","","",""
"null","<span style='color:GreenYellow; font-size: 70px;'>正确! </span>","null","html-keyboard-response","48","290763","0.0-7.0-0.0-1.0-0.0-1.19","3","3","4","3","3","3","3","2","3","3","4","3","2","4","4","4","4","3","4","4","2","3","3","2","2","2","2","3","2","1","0","0","1","0","0","1","1","1","1","-1","0","0","0","1","4","3","2","2","4","2","4","4","3","1","755507503227473921","陈","","","","","","","","","","","","","","","","","","","","","","","","","","","","","","feedback_test","","","","","","","","","",""
"839","","j","psychophysics","49","292604","0.0-7.0-0.0-1.0-0.0-0.20","3","3","4","3","3","3","3","2","3","3","4","3","2","4","4","4","4","3","4","4","2","3","3","2","2","2","2","3","2","1","0","0","1","0","0","1","1","1","1","-1","0","0","0","1","4","3","2","2","4","2","4","4","3","1","755507503227473921","陈","","","","nonmatch","","","","","","","","","","","","","","key","j","16.66505504587191","720","446","j","true","nonmatch","img/square.png","五边","方形","ALT1_1","prac_ALT1_1","","","","","","","","","",""
"null","<span style='color:GreenYellow; font-size: 70px;'>正确! </span>","null","html-keyboard-response","50","293106","0.0-7.0-0.0-1.0-0.0-1.20","3","3","4","3","3","3","3","2","3","3","4","3","2","4","4","4","4","3","4","4","2","3","3","2","2","2","2","3","2","1","0","0","1","0","0","1","1","1","1","-1","0","0","0","1","4","3","2","2","4","2","4","4","3","1","755507503227473921","陈","","","","","","","","","","","","","","","","","","","","","","","","","","","","","","feedback_test","","","","","","","","","",""
"647","","j","psychophysics","51","294756","0.0-7.0-0.0-1.0-0.0-0.21","3","3","4","3","3","3","3","2","3","3","4","3","2","4","4","4","4","3","4","4","2","3","3","2","2","2","2","3","2","1","0","0","1","0","0","1","1","1","1","-1","0","0","0","1","4","3","2","2","4","2","4","4","3","1","755507503227473921","陈","","","","nonmatch","","","","","","","","","","","","","","key","j","16.66972448979623","720","446","f","false","match","img/square.png","方形","方形","ALT1_1","prac_ALT1_1","","","","","","","","","",""
"null","<span style='color:red; font-size: 70px;'>错误! </span>","null","html-keyboard-response","52","295258","0.0-7.0-0.0-1.0-0.0-1.21","3","3","4","3","3","3","3","2","3","3","4","3","2","4","4","4","4","3","4","4","2","3","3","2","2","2","2","3","2","1","0","0","1","0","0","1","1","1","1","-1","0","0","0","1","4","3","2","2","4","2","4","4","3","1","755507503227473921","陈","","","","","","","","","","","","","","","","","","","","","","","","","","","","","","feedback_test","","","","","","","","","",""
"928","","j","psychophysics","53","297189","0.0-7.0-0.0-1.0-0.0-0.22","3","3","4","3","3","3","3","2","3","3","4","3","2","4","4","4","4","3","4","4","2","3","3","2","2","2","2","3","2","1","0","0","1","0","0","1","1","1","1","-1","0","0","0","1","4","3","2","2","4","2","4","4","3","1","755507503227473921","陈","","","","nonmatch","","","","","","","","","","","","","","key","j","16.669582608695467","720","446","f","false","match","img/pentagon.png","五边","五边","ALT1_1","prac_ALT1_1","","","","","","","","","",""
"null","<span style='color:red; font-size: 70px;'>错误! </span>","null","html-keyboard-response","54","297692","0.0-7.0-0.0-1.0-0.0-1.22","3","3","4","3","3","3","3","2","3","3","4","3","2","4","4","4","4","3","4","4","2","3","3","2","2","2","2","3","2","1","0","0","1","0","0","1","1","1","1","-1","0","0","0","1","4","3","2","2","4","2","4","4","3","1","755507503227473921","陈","","","","","","","","","","","","","","","","","","","","","","","","","","","","","","feedback_test","","","","","","","","","",""
"1070","","f","psychophysics","55","299764","0.0-7.0-0.0-1.0-0.0-0.23","3","3","4","3","3","3","3","2","3","3","4","3","2","4","4","4","4","3","4","4","2","3","3","2","2","2","2","3","2","1","0","0","1","0","0","1","1","1","1","-1","0","0","0","1","4","3","2","2","4","2","4","4","3","1","755507503227473921","陈","","","","match","","","","","","","","","","","","","","key","f","16.66960655737689","720","446","f","true","match","img/triangle.png","三角","三角","ALT1_1","prac_ALT1_1","","","","","","","","","",""
"null","<span style='color:GreenYellow; font-size: 70px;'>正确! </span>","null","html-keyboard-response","56","300267","0.0-7.0-0.0-1.0-0.0-1.23","3","3","4","3","3","3","3","2","3","3","4","3","2","4","4","4","4","3","4","4","2","3","3","2","2","2","2","3","2","1","0","0","1","0","0","1","1","1","1","-1","0","0","0","1","4","3","2","2","4","2","4","4","3","1","755507503227473921","陈","","","","","","","","","","","","","","","","","","","","","","","","","","","","","","feedback_test","","","","","","","","","",""
"670","","j","psychophysics","57","301942","0.0-7.0-0.0-1.0-0.0-0.24","3","3","4","3","3","3","3","2","3","3","4","3","2","4","4","4","4","3","4","4","2","3","3","2","2","2","2","3","2","1","0","0","1","0","0","1","1","1","1","-1","0","0","0","1","4","3","2","2","4","2","4","4","3","1","755507503227473921","陈","","","","nonmatch","","","","","","","","","","","","","","key","j","16.668949494949153","720","446","j","true","nonmatch","img/pentagon.png","三角","五边","ALT1_1","prac_ALT1_1","","","","","","","","","",""
"null","<span style='color:GreenYellow; font-size: 70px;'>正确! </span>","null","html-keyboard-response","58","302444","0.0-7.0-0.0-1.0-0.0-1.24","3","3","4","3","3","3","3","2","3","3","4","3","2","4","4","4","4","3","4","4","2","3","3","2","2","2","2","3","2","1","0","0","1","0","0","1","1","1","1","-1","0","0","0","1","4","3","2","2","4","2","4","4","3","1","755507503227473921","陈","","","","","","","","","","","","","","","","","","","","","","","","","","","","","","feedback_test","","","","","","","","","",""
"812","","j","psychophysics","59","304259","0.0-7.0-0.0-1.0-0.0-0.25","3","3","4","3","3","3","3","2","3","3","4","3","2","4","4","4","4","3","4","4","2","3","3","2","2","2","2","3","2","1","0","0","1","0","0","1","1","1","1","-1","0","0","0","1","4","3","2","2","4","2","4","4","3","1","755507503227473921","陈","","","","nonmatch","","","","","","","","","","","","","","key","j","16.669740740740693","720","446","j","true","nonmatch","img/triangle.png","椭圆","三角","ALT1_1","prac_ALT1_1","","","","","","","","","",""
"null","<span style='color:GreenYellow; font-size: 70px;'>正确! </span>","null","html-keyboard-response","60","304761","0.0-7.0-0.0-1.0-0.0-1.25","3","3","4","3","3","3","3","2","3","3","4","3","2","4","4","4","4","3","4","4","2","3","3","2","2","2","2","3","2","1","0","0","1","0","0","1","1","1","1","-1","0","0","0","1","4","3","2","2","4","2","4","4","3","1","755507503227473921","陈","","","","","","","","","","","","","","","","","","","","","","","","","","","","","","feedback_test","","","","","","","","","",""
"792","","j","psychophysics","61","306556","0.0-7.0-0.0-1.0-0.0-0.26","3","3","4","3","3","3","3","2","3","3","4","3","2","4","4","4","4","3","4","4","2","3","3","2","2","2","2","3","2","1","0","0","1","0","0","1","1","1","1","-1","0","0","0","1","4","3","2","2","4","2","4","4","3","1","755507503227473921","陈","","","","nonmatch","","","","","","","","","","","","","","key","j","16.66832710280427","720","446","j","true","nonmatch","img/ellipse.png","五边","椭圆","ALT1_1","prac_ALT1_1","","","","","","","","","",""
"null","<span style='color:GreenYellow; font-size: 70px;'>正确! </span>","null","html-keyboard-response","62","307059","0.0-7.0-0.0-1.0-0.0-1.26","3","3","4","3","3","3","3","2","3","3","4","3","2","4","4","4","4","3","4","4","2","3","3","2","2","2","2","3","2","1","0","0","1","0","0","1","1","1","1","-1","0","0","0","1","4","3","2","2","4","2","4","4","3","1","755507503227473921","陈","","","","","","","","","","","","","","","","","","","","","","","","","","","","","","feedback_test","","","","","","","","","",""
"900","","j","psychophysics","63","308963","0.0-7.0-0.0-1.0-0.0-0.27","3","3","4","3","3","3","3","2","3","3","4","3","2","4","4","4","4","3","4","4","2","3","3","2","2","2","2","3","2","1","0","0","1","0","0","1","1","1","1","-1","0","0","0","1","4","3","2","2","4","2","4","4","3","1","755507503227473921","陈","","","","nonmatch","","","","","","","","","","","","","","key","j","16.66976106194707","720","446","j","true","nonmatch","img/triangle.png","方形","三角","ALT1_1","prac_ALT1_1","","","","","","","","","",""
"null","<span style='color:GreenYellow; font-size: 70px;'>正确! </span>","null","html-keyboard-response","64","309466","0.0-7.0-0.0-1.0-0.0-1.27","3","3","4","3","3","3","3","2","3","3","4","3","2","4","4","4","4","3","4","4","2","3","3","2","2","2","2","3","2","1","0","0","1","0","0","1","1","1","1","-1","0","0","0","1","4","3","2","2","4","2","4","4","3","1","755507503227473921","陈","","","","","","","","","","","","","","","","","","","","","","","","","","","","","","feedback_test","","","","","","","","","",""
"628","","f","psychophysics","65","311098","0.0-7.0-0.0-1.0-0.0-0.28","3","3","4","3","3","3","3","2","3","3","4","3","2","4","4","4","4","3","4","4","2","3","3","2","2","2","2","3","2","1","0","0","1","0","0","1","1","1","1","-1","0","0","0","1","4","3","2","2","4","2","4","4","3","1","755507503227473921","陈","","","","match","","","","","","","","","","","","","","key","f","16.66832291666651","720","446","f","true","match","img/triangle.png","三角","三角","ALT1_1","prac_ALT1_1","","","","","","","","","",""
"null","<span style='color:GreenYellow; font-size: 70px;'>正确! </span>","null","html-keyboard-response","66","311599","0.0-7.0-0.0-1.0-0.0-1.28","3","3","4","3","3","3","3","2","3","3","4","3","2","4","4","4","4","3","4","4","2","3","3","2","2","2","2","3","2","1","0","0","1","0","0","1","1","1","1","-1","0","0","0","1","4","3","2","2","4","2","4","4","3","1","755507503227473921","陈","","","","","","","","","","","","","","","","","","","","","","","","","","","","","","feedback_test","","","","","","","","","",""
"573","","j","psychophysics","67","313176","0.0-7.0-0.0-1.0-0.0-0.29","3","3","4","3","3","3","3","2","3","3","4","3","2","4","4","4","4","3","4","4","2","3","3","2","2","2","2","3","2","1","0","0","1","0","0","1","1","1","1","-1","0","0","0","1","4","3","2","2","4","2","4","4","3","1","755507503227473921","陈","","","","nonmatch","","","","","","","","","","","","","","key","j","16.669967741935803","720","446","j","true","nonmatch","img/triangle.png","五边","三角","ALT1_1","prac_ALT1_1","","","","","","","","","",""
"null","<span style='color:GreenYellow; font-size: 70px;'>正确! </span>","null","html-keyboard-response","68","313678","0.0-7.0-0.0-1.0-0.0-1.29","3","3","4","3","3","3","3","2","3","3","4","3","2","4","4","4","4","3","4","4","2","3","3","2","2","2","2","3","2","1","0","0","1","0","0","1","1","1","1","-1","0","0","0","1","4","3","2","2","4","2","4","4","3","1","755507503227473921","陈","","","","","","","","","","","","","","","","","","","","","","","","","","","","","","feedback_test","","","","","","","","","",""
"668","","j","psychophysics","69","315348","0.0-7.0-0.0-1.0-0.0-0.30","3","3","4","3","3","3","3","2","3","3","4","3","2","4","4","4","4","3","4","4","2","3","3","2","2","2","2","3","2","1","0","0","1","0","0","1","1","1","1","-1","0","0","0","1","4","3","2","2","4","2","4","4","3","1","755507503227473921","陈","","","","nonmatch","","","","","","","","","","","","","","key","j","16.66981818181853","720","446","j","true","nonmatch","img/pentagon.png","方形","五边","ALT1_1","prac_ALT1_1","","","","","","","","","",""
"null","<span style='color:GreenYellow; font-size: 70px;'>正确! </span>","null","html-keyboard-response","70","315851","0.0-7.0-0.0-1.0-0.0-1.30","3","3","4","3","3","3","3","2","3","3","4","3","2","4","4","4","4","3","4","4","2","3","3","2","2","2","2","3","2","1","0","0","1","0","0","1","1","1","1","-1","0","0","0","1","4","3","2","2","4","2","4","4","3","1","755507503227473921","陈","","","","","","","","","","","","","","","","","","","","","","","","","","","","","","feedback_test","","","","","","","","","",""
"694","","j","psychophysics","71","317546","0.0-7.0-0.0-1.0-0.0-0.31","3","3","4","3","3","3","3","2","3","3","4","3","2","4","4","4","4","3","4","4","2","3","3","2","2","2","2","3","2","1","0","0","1","0","0","1","1","1","1","-1","0","0","0","1","4","3","2","2","4","2","4","4","3","1","755507503227473921","陈","","","","nonmatch","","","","","","","","","","","","","","key","j","16.669159999999682","720","446","j","true","nonmatch","img/square.png","三角","方形","ALT1_1","prac_ALT1_1","","","","","","","","","",""
"null","<span style='color:GreenYellow; font-size: 70px;'>正确! </span>","null","html-keyboard-response","72","318047","0.0-7.0-0.0-1.0-0.0-1.31","3","3","4","3","3","3","3","2","3","3","4","3","2","4","4","4","4","3","4","4","2","3","3","2","2","2","2","3","2","1","0","0","1","0","0","1","1","1","1","-1","0","0","0","1","4","3","2","2","4","2","4","4","3","1","755507503227473921","陈","","","","","","","","","","","","","","","","","","","","","","","","","","","","","","feedback_test","","","","","","","","","",""
"657","","j","psychophysics","73","319707","0.0-7.0-0.0-1.0-0.0-0.32","3","3","4","3","3","3","3","2","3","3","4","3","2","4","4","4","4","3","4","4","2","3","3","2","2","2","2","3","2","1","0","0","1","0","0","1","1","1","1","-1","0","0","0","1","4","3","2","2","4","2","4","4","3","1","755507503227473921","陈","","","","nonmatch","","","","","","","","","","","","","","key","j","16.669747474747403","720","446","j","true","nonmatch","img/square.png","五边","方形","ALT1_1","prac_ALT1_1","","","","","","","","","",""
"null","<span style='color:GreenYellow; font-size: 70px;'>正确! </span>","null","html-keyboard-response","74","320209","0.0-7.0-0.0-1.0-0.0-1.32","3","3","4","3","3","3","3","2","3","3","4","3","2","4","4","4","4","3","4","4","2","3","3","2","2","2","2","3","2","1","0","0","1","0","0","1","1","1","1","-1","0","0","0","1","4","3","2","2","4","2","4","4","3","1","755507503227473921","陈","","","","","","","","","","","","","","","","","","","","","","","","","","","","","","feedback_test","","","","","","","","","",""
"648","","f","psychophysics","75","321860","0.0-7.0-0.0-1.0-0.0-0.33","3","3","4","3","3","3","3","2","3","3","4","3","2","4","4","4","4","3","4","4","2","3","3","2","2","2","2","3","2","1","0","0","1","0","0","1","1","1","1","-1","0","0","0","1","4","3","2","2","4","2","4","4","3","1","755507503227473921","陈","","","","match","","","","","","","","","","","","","","key","f","16.670010204081855","720","446","f","true","match","img/ellipse.png","椭圆","椭圆","ALT1_1","prac_ALT1_1","","","","","","","","","",""
"null","<span style='color:GreenYellow; font-size: 70px;'>正确! </span>","null","html-keyboard-response","76","322362","0.0-7.0-0.0-1.0-0.0-1.33","3","3","4","3","3","3","3","2","3","3","4","3","2","4","4","4","4","3","4","4","2","3","3","2","2","2","2","3","2","1","0","0","1","0","0","1","1","1","1","-1","0","0","0","1","4","3","2","2","4","2","4","4","3","1","755507503227473921","陈","","","","","","","","","","","","","","","","","","","","","","","","","","","","","","feedback_test","","","","","","","","","",""
"831","","j","psychophysics","77","324197","0.0-7.0-0.0-1.0-0.0-0.34","3","3","4","3","3","3","3","2","3","3","4","3","2","4","4","4","4","3","4","4","2","3","3","2","2","2","2","3","2","1","0","0","1","0","0","1","1","1","1","-1","0","0","0","1","4","3","2","2","4","2","4","4","3","1","755507503227473921","陈","","","","nonmatch","","","","","","","","","","","","","","key","j","16.670648148148082","720","446","j","true","nonmatch","img/pentagon.png","椭圆","五边","ALT1_1","prac_ALT1_1","","","","","","","","","",""
"null","<span style='color:GreenYellow; font-size: 70px;'>正确! </span>","null","html-keyboard-response","78","324699","0.0-7.0-0.0-1.0-0.0-1.34","3","3","4","3","3","3","3","2","3","3","4","3","2","4","4","4","4","3","4","4","2","3","3","2","2","2","2","3","2","1","0","0","1","0","0","1","1","1","1","-1","0","0","0","1","4","3","2","2","4","2","4","4","3","1","755507503227473921","陈","","","","","","","","","","","","","","","","","","","","","","","","","","","","","","feedback_test","","","","","","","","","",""
"676","","j","psychophysics","79","326380","0.0-7.0-0.0-1.0-0.0-0.35","3","3","4","3","3","3","3","2","3","3","4","3","2","4","4","4","4","3","4","4","2","3","3","2","2","2","2","3","2","1","0","0","1","0","0","1","1","1","1","-1","0","0","0","1","4","3","2","2","4","2","4","4","3","1","755507503227473921","陈","","","","nonmatch","","","","","","","","","","","","","","key","j","16.660989898990138","720","446","j","true","nonmatch","img/square.png","椭圆","方形","ALT1_1","prac_ALT1_1","","","","","","","","","",""
"null","<span style='color:GreenYellow; font-size: 70px;'>正确! </span>","null","html-keyboard-response","80","326882","0.0-7.0-0.0-1.0-0.0-1.35","3","3","4","3","3","3","3","2","3","3","4","3","2","4","4","4","4","3","4","4","2","3","3","2","2","2","2","3","2","1","0","0","1","0","0","1","1","1","1","-1","0","0","0","1","4","3","2","2","4","2","4","4","3","1","755507503227473921","陈","","","","","","","","","","","","","","","","","","","","","","","","","","","","","","feedback_test","","","","","","","","","",""
"812","","f","psychophysics","81","328701","0.0-7.0-0.0-1.0-0.0-0.36","3","3","4","3","3","3","3","2","3","3","4","3","2","4","4","4","4","3","4","4","2","3","3","2","2","2","2","3","2","1","0","0","1","0","0","1","1","1","1","-1","0","0","0","1","4","3","2","2","4","2","4","4","3","1","755507503227473921","陈","","","","match","","","","","","","","","","","","","","key","f","16.67000925925957","720","446","f","true","match","img/triangle.png","三角","三角","ALT1_1","prac_ALT1_1","","","","","","","","","",""
"null","<span style='color:GreenYellow; font-size: 70px;'>正确! </span>","null","html-keyboard-response","82","329207","0.0-7.0-0.0-1.0-0.0-1.36","3","3","4","3","3","3","3","2","3","3","4","3","2","4","4","4","4","3","4","4","2","3","3","2","2","2","2","3","2","1","0","0","1","0","0","1","1","1","1","-1","0","0","0","1","4","3","2","2","4","2","4","4","3","1","755507503227473921","陈","","","","","","","","","","","","","","","","","","","","","","","","","","","","","","feedback_test","","","","","","","","","",""
"633","","j","psychophysics","83","330844","0.0-7.0-0.0-1.0-0.0-0.37","3","3","4","3","3","3","3","2","3","3","4","3","2","4","4","4","4","3","4","4","2","3","3","2","2","2","2","3","2","1","0","0","1","0","0","1","1","1","1","-1","0","0","0","1","4","3","2","2","4","2","4","4","3","1","755507503227473921","陈","","","","nonmatch","","","","","","","","","","","","","","key","j","16.67029896907187","720","446","f","false","match","img/ellipse.png","椭圆","椭圆","ALT1_1","prac_ALT1_1","","","","","","","","","",""
"null","<span style='color:red; font-size: 70px;'>错误! </span>","null","html-keyboard-response","84","331347","0.0-7.0-0.0-1.0-0.0-1.37","3","3","4","3","3","3","3","2","3","3","4","3","2","4","4","4","4","3","4","4","2","3","3","2","2","2","2","3","2","1","0","0","1","0","0","1","1","1","1","-1","0","0","0","1","4","3","2","2","4","2","4","4","3","1","755507503227473921","陈","","","","","","","","","","","","","","","","","","","","","","","","","","","","","","feedback_test","","","","","","","","","",""
"741","","f","psychophysics","85","333093","0.0-7.0-0.0-1.0-0.0-0.38","3","3","4","3","3","3","3","2","3","3","4","3","2","4","4","4","4","3","4","4","2","3","3","2","2","2","2","3","2","1","0","0","1","0","0","1","1","1","1","-1","0","0","0","1","4","3","2","2","4","2","4","4","3","1","755507503227473921","陈","","","","match","","","","","","","","","","","","","","key","f","16.67048076923115","720","446","f","true","match","img/square.png","方形","方形","ALT1_1","prac_ALT1_1","","","","","","","","","",""
"null","<span style='color:GreenYellow; font-size: 70px;'>正确! </span>","null","html-keyboard-response","86","333595","0.0-7.0-0.0-1.0-0.0-1.38","3","3","4","3","3","3","3","2","3","3","4","3","2","4","4","4","4","3","4","4","2","3","3","2","2","2","2","3","2","1","0","0","1","0","0","1","1","1","1","-1","0","0","0","1","4","3","2","2","4","2","4","4","3","1","755507503227473921","陈","","","","","","","","","","","","","","","","","","","","","","","","","","","","","","feedback_test","","","","","","","","","",""
"595","","f","psychophysics","87","335187","0.0-7.0-0.0-1.0-0.0-0.39","3","3","4","3","3","3","3","2","3","3","4","3","2","4","4","4","4","3","4","4","2","3","3","2","2","2","2","3","2","1","0","0","1","0","0","1","1","1","1","-1","0","0","0","1","4","3","2","2","4","2","4","4","3","1","755507503227473921","陈","","","","match","","","","","","","","","","","","","","key","f","16.6695684210526","720","446","f","true","match","img/square.png","方形","方形","ALT1_1","prac_ALT1_1","","","","","","","","","",""
"null","<span style='color:GreenYellow; font-size: 70px;'>正确! </span>","null","html-keyboard-response","88","335689","0.0-7.0-0.0-1.0-0.0-1.39","3","3","4","3","3","3","3","2","3","3","4","3","2","4","4","4","4","3","4","4","2","3","3","2","2","2","2","3","2","1","0","0","1","0","0","1","1","1","1","-1","0","0","0","1","4","3","2","2","4","2","4","4","3","1","755507503227473921","陈","","","","","","","","","","","","","","","","","","","","","","","","","","","","","","feedback_test","","","","","","","","","",""
"613","","j","psychophysics","89","337310","0.0-7.0-0.0-1.0-0.0-0.40","3","3","4","3","3","3","3","2","3","3","4","3","2","4","4","4","4","3","4","4","2","3","3","2","2","2","2","3","2","1","0","0","1","0","0","1","1","1","1","-1","0","0","0","1","4","3","2","2","4","2","4","4","3","1","755507503227473921","陈","","","","nonmatch","","","","","","","","","","","","","","key","j","16.66989583333331","720","446","f","false","match","img/pentagon.png","五边","五边","ALT1_1","prac_ALT1_1","","","","","","","","","",""
"null","<span style='color:red; font-size: 70px;'>错误! </span>","null","html-keyboard-response","90","337812","0.0-7.0-0.0-1.0-0.0-1.40","3","3","4","3","3","3","3","2","3","3","4","3","2","4","4","4","4","3","4","4","2","3","3","2","2","2","2","3","2","1","0","0","1","0","0","1","1","1","1","-1","0","0","0","1","4","3","2","2","4","2","4","4","3","1","755507503227473921","陈","","","","","","","","","","","","","","","","","","","","","","","","","","","","","","feedback_test","","","","","","","","","",""
"855","","j","psychophysics","91","339671","0.0-7.0-0.0-1.0-0.0-0.41","3","3","4","3","3","3","3","2","3","3","4","3","2","4","4","4","4","3","4","4","2","3","3","2","2","2","2","3","2","1","0","0","1","0","0","1","1","1","1","-1","0","0","0","1","4","3","2","2","4","2","4","4","3","1","755507503227473921","陈","","","","nonmatch","","","","","","","","","","","","","","key","j","16.67030909090906","720","446","j","true","nonmatch","img/ellipse.png","三角","椭圆","ALT1_1","prac_ALT1_1","","","","","","","","","",""
"null","<span style='color:GreenYellow; font-size: 70px;'>正确! </span>","null","html-keyboard-response","92","340186","0.0-7.0-0.0-1.0-0.0-1.41","3","3","4","3","3","3","3","2","3","3","4","3","2","4","4","4","4","3","4","4","2","3","3","2","2","2","2","3","2","1","0","0","1","0","0","1","1","1","1","-1","0","0","0","1","4","3","2","2","4","2","4","4","3","1","755507503227473921","陈","","","","","","","","","","","","","","","","","","","","","","","","","","","","","","feedback_test","","","","","","","","","",""
"585","","f","psychophysics","93","341774","0.0-7.0-0.0-1.0-0.0-0.42","3","3","4","3","3","3","3","2","3","3","4","3","2","4","4","4","4","3","4","4","2","3","3","2","2","2","2","3","2","1","0","0","1","0","0","1","1","1","1","-1","0","0","0","1","4","3","2","2","4","2","4","4","3","1","755507503227473921","陈","","","","match","","","","","","","","","","","","","","key","f","16.669680851063955","720","446","f","true","match","img/square.png","方形","方形","ALT1_1","prac_ALT1_1","","","","","","","","","",""
"null","<span style='color:GreenYellow; font-size: 70px;'>正确! </span>","null","html-keyboard-response","94","342276","0.0-7.0-0.0-1.0-0.0-1.42","3","3","4","3","3","3","3","2","3","3","4","3","2","4","4","4","4","3","4","4","2","3","3","2","2","2","2","3","2","1","0","0","1","0","0","1","1","1","1","-1","0","0","0","1","4","3","2","2","4","2","4","4","3","1","755507503227473921","陈","","","","","","","","","","","","","","","","","","","","","","","","","","","","","","feedback_test","","","","","","","","","",""
"630","","f","psychophysics","95","343910","0.0-7.0-0.0-1.0-0.0-0.43","3","3","4","3","3","3","3","2","3","3","4","3","2","4","4","4","4","3","4","4","2","3","3","2","2","2","2","3","2","1","0","0","1","0","0","1","1","1","1","-1","0","0","0","1","4","3","2","2","4","2","4","4","3","1","755507503227473921","陈","","","","match","","","","","","","","","","","","","","key","f","16.670288659794227","720","446","f","true","match","img/triangle.png","三角","三角","ALT1_1","prac_ALT1_1","","","","","","","","","",""
"null","<span style='color:GreenYellow; font-size: 70px;'>正确! </span>","null","html-keyboard-response","96","344411","0.0-7.0-0.0-1.0-0.0-1.43","3","3","4","3","3","3","3","2","3","3","4","3","2","4","4","4","4","3","4","4","2","3","3","2","2","2","2","3","2","1","0","0","1","0","0","1","1","1","1","-1","0","0","0","1","4","3","2","2","4","2","4","4","3","1","755507503227473921","陈","","","","","","","","","","","","","","","","","","","","","","","","","","","","","","feedback_test","","","","","","","","","",""
"790","","j","psychophysics","97","346203","0.0-7.0-0.0-1.0-0.0-0.44","3","3","4","3","3","3","3","2","3","3","4","3","2","4","4","4","4","3","4","4","2","3","3","2","2","2","2","3","2","1","0","0","1","0","0","1","1","1","1","-1","0","0","0","1","4","3","2","2","4","2","4","4","3","1","755507503227473921","陈","","","","nonmatch","","","","","","","","","","","","","","key","j","16.663150943396722","720","446","j","true","nonmatch","img/ellipse.png","方形","椭圆","ALT1_1","prac_ALT1_1","","","","","","","","","",""
"null","<span style='color:GreenYellow; font-size: 70px;'>正确! </span>","null","html-keyboard-response","98","346706","0.0-7.0-0.0-1.0-0.0-1.44","3","3","4","3","3","3","3","2","3","3","4","3","2","4","4","4","4","3","4","4","2","3","3","2","2","2","2","3","2","1","0","0","1","0","0","1","1","1","1","-1","0","0","0","1","4","3","2","2","4","2","4","4","3","1","755507503227473921","陈","","","","","","","","","","","","","","","","","","","","","","","","","","","","","","feedback_test","","","","","","","","","",""
"746","","j","psychophysics","99","348455","0.0-7.0-0.0-1.0-0.0-0.45","3","3","4","3","3","3","3","2","3","3","4","3","2","4","4","4","4","3","4","4","2","3","3","2","2","2","2","3","2","1","0","0","1","0","0","1","1","1","1","-1","0","0","0","1","4","3","2","2","4","2","4","4","3","1","755507503227473921","陈","","","","nonmatch","","","","","","","","","","","","","","key","j","16.669894230769177","720","446","f","false","match","img/pentagon.png","五边","五边","ALT1_1","prac_ALT1_1","","","","","","","","","",""
"null","<span style='color:red; font-size: 70px;'>错误! </span>","null","html-keyboard-response","100","348958","0.0-7.0-0.0-1.0-0.0-1.45","3","3","4","3","3","3","3","2","3","3","4","3","2","4","4","4","4","3","4","4","2","3","3","2","2","2","2","3","2","1","0","0","1","0","0","1","1","1","1","-1","0","0","0","1","4","3","2","2","4","2","4","4","3","1","755507503227473921","陈","","","","","","","","","","","","","","","","","","","","","","","","","","","","","","feedback_test","","","","","","","","","",""
"685","","f","psychophysics","101","350645","0.0-7.0-0.0-1.0-0.0-0.46","3","3","4","3","3","3","3","2","3","3","4","3","2","4","4","4","4","3","4","4","2","3","3","2","2","2","2","3","2","1","0","0","1","0","0","1","1","1","1","-1","0","0","0","1","4","3","2","2","4","2","4","4","3","1","755507503227473921","陈","","","","match","","","","","","","","","","","","","","key","f","16.66975000000035","720","446","f","true","match","img/ellipse.png","椭圆","椭圆","ALT1_1","prac_ALT1_1","","","","","","","","","",""
"null","<span style='color:GreenYellow; font-size: 70px;'>正确! </span>","null","html-keyboard-response","102","351147","0.0-7.0-0.0-1.0-0.0-1.46","3","3","4","3","3","3","3","2","3","3","4","3","2","4","4","4","4","3","4","4","2","3","3","2","2","2","2","3","2","1","0","0","1","0","0","1","1","1","1","-1","0","0","0","1","4","3","2","2","4","2","4","4","3","1","755507503227473921","陈","","","","","","","","","","","","","","","","","","","","","","","","","","","","","","feedback_test","","","","","","","","","",""
"1065","","j","psychophysics","103","353216","0.0-7.0-0.0-1.0-0.0-0.47","3","3","4","3","3","3","3","2","3","3","4","3","2","4","4","4","4","3","4","4","2","3","3","2","2","2","2","3","2","1","0","0","1","0","0","1","1","1","1","-1","0","0","0","1","4","3","2","2","4","2","4","4","3","1","755507503227473921","陈","","","","nonmatch","","","","","","","","","","","","","","key","j","16.668549180328064","720","446","f","false","match","img/pentagon.png","五边","五边","ALT1_1","prac_ALT1_1","","","","","","","","","",""
"null","<span style='color:red; font-size: 70px;'>错误! </span>","null","html-keyboard-response","104","353718","0.0-7.0-0.0-1.0-0.0-1.47","3","3","4","3","3","3","3","2","3","3","4","3","2","4","4","4","4","3","4","4","2","3","3","2","2","2","2","3","2","1","0","0","1","0","0","1","1","1","1","-1","0","0","0","1","4","3","2","2","4","2","4","4","3","1","755507503227473921","陈","","","","","","","","","","","","","","","","","","","","","","","","","","","","","","feedback_test","","","","","","","","","",""
"36464","<style>.context{color:white; font-size: 35px; line-height:40px}</style>                            <div><p class='context'>您正确回答了71% 的试次。</p><p class='context'>您的平均反应时为750毫秒。</p><p class='context'>恭喜您完成练习。按空格键进入正式实验。</p><p class='footer' style='font-size: 35px; line-height:40px;'>请在进入正式实验之前将您的<span style='color: lightgreen;'>食指</span>放在电脑键盘的相应键位上进行按键。</p>"," ","html-keyboard-response","105","390193","0.0-7.0-0.0-2.0","3","3","4","3","3","3","3","2","3","3","4","3","2","4","4","4","4","3","4","4","2","3","3","2","2","2","2","3","2","1","0","0","1","0","0","1","1","1","1","-1","0","0","0","1","4","3","2","2","4","2","4","4","3","1","755507503227473921","陈","","","","","","","","","","","","","","","","","","","","","","","","","","","","","","","","","","","","","","","",""
"4995","
    <p style='color: white; font-size: 22px'>请您将手指放在按键上，准备进入正式的匹配任务。</p>
    <p> <div style = ""color: green""><按空格键进入下一阶段的匹配任务></div></p>
    "," ","html-keyboard-response","106","395192","0.0-7.0-0.0-3.0","3","3","4","3","3","3","3","2","3","3","4","3","2","4","4","4","4","3","4","4","2","3","3","2","2","2","2","3","2","1","0","0","1","0","0","1","1","1","1","-1","0","0","0","1","4","3","2","2","4","2","4","4","3","1","755507503227473921","陈","","","","","","","","","","","","","","","","","","","","","","","","","","","","","","","","","","","","","","","",""
"720","","j","psychophysics","107","396916","0.0-7.0-0.0-4.0-0.0-0.0","3","3","4","3","3","3","3","2","3","3","4","3","2","4","4","4","4","3","4","4","2","3","3","2","2","2","2","3","2","1","0","0","1","0","0","1","1","1","1","-1","0","0","0","1","4","3","2","2","4","2","4","4","3","1","755507503227473921","陈","","","","nonmatch","","","","","","","","","","","","","","key","j","16.67017647058831","720","446","j","true","nonmatch","img/triangle.png","方形","三角","ALT1","formal_ALT1_1","","","","","","","","","",""
"null","<span style='color:GreenYellow; font-size: 70px;'>正确! </span>","null","html-keyboard-response","108","397420","0.0-7.0-0.0-4.0-0.0-1.0","3","3","4","3","3","3","3","2","3","3","4","3","2","4","4","4","4","3","4","4","2","3","3","2","2","2","2","3","2","1","0","0","1","0","0","1","1","1","1","-1","0","0","0","1","4","3","2","2","4","2","4","4","3","1","755507503227473921","陈","","","","","","","","","","","","","","","","","","","","","","","","","","","","","","feedback_test","","","","","","","","","",""
"569","","f","psychophysics","109","398992","0.0-7.0-0.0-4.0-0.0-0.1","3","3","4","3","3","3","3","2","3","3","4","3","2","4","4","4","4","3","4","4","2","3","3","2","2","2","2","3","2","1","0","0","1","0","0","1","1","1","1","-1","0","0","0","1","4","3","2","2","4","2","4","4","3","1","755507503227473921","陈","","","","match","","","","","","","","","","","","","","key","f","16.670075268816998","720","446","f","true","match","img/square.png","方形","方形","ALT1","formal_ALT1_1","","","","","","","","","",""
"null","<span style='color:GreenYellow; font-size: 70px;'>正确! </span>","null","html-keyboard-response","110","399494","0.0-7.0-0.0-4.0-0.0-1.1","3","3","4","3","3","3","3","2","3","3","4","3","2","4","4","4","4","3","4","4","2","3","3","2","2","2","2","3","2","1","0","0","1","0","0","1","1","1","1","-1","0","0","0","1","4","3","2","2","4","2","4","4","3","1","755507503227473921","陈","","","","","","","","","","","","","","","","","","","","","","","","","","","","","","feedback_test","","","","","","","","","",""
"641","","f","psychophysics","111","401138","0.0-7.0-0.0-4.0-0.0-0.2","3","3","4","3","3","3","3","2","3","3","4","3","2","4","4","4","4","3","4","4","2","3","3","2","2","2","2","3","2","1","0","0","1","0","0","1","1","1","1","-1","0","0","0","1","4","3","2","2","4","2","4","4","3","1","755507503227473921","陈","","","","match","","","","","","","","","","","","","","key","f","16.663752577319794","720","446","f","true","match","img/square.png","方形","方形","ALT1","formal_ALT1_1","","","","","","","","","",""
"null","<span style='color:GreenYellow; font-size: 70px;'>正确! </span>","null","html-keyboard-response","112","401641","0.0-7.0-0.0-4.0-0.0-1.2","3","3","4","3","3","3","3","2","3","3","4","3","2","4","4","4","4","3","4","4","2","3","3","2","2","2","2","3","2","1","0","0","1","0","0","1","1","1","1","-1","0","0","0","1","4","3","2","2","4","2","4","4","3","1","755507503227473921","陈","","","","","","","","","","","","","","","","","","","","","","","","","","","","","","feedback_test","","","","","","","","","",""
"749","","f","psychophysics","113","403393","0.0-7.0-0.0-4.0-0.0-0.3","3","3","4","3","3","3","3","2","3","3","4","3","2","4","4","4","4","3","4","4","2","3","3","2","2","2","2","3","2","1","0","0","1","0","0","1","1","1","1","-1","0","0","0","1","4","3","2","2","4","2","4","4","3","1","755507503227473921","陈","","","","match","","","","","","","","","","","","","","key","f","16.670096153846178","720","446","f","true","match","img/pentagon.png","五边","五边","ALT1","formal_ALT1_1","","","","","","","","","",""
"null","<span style='color:GreenYellow; font-size: 70px;'>正确! </span>","null","html-keyboard-response","114","403896","0.0-7.0-0.0-4.0-0.0-1.3","3","3","4","3","3","3","3","2","3","3","4","3","2","4","4","4","4","3","4","4","2","3","3","2","2","2","2","3","2","1","0","0","1","0","0","1","1","1","1","-1","0","0","0","1","4","3","2","2","4","2","4","4","3","1","755507503227473921","陈","","","","","","","","","","","","","","","","","","","","","","","","","","","","","","feedback_test","","","","","","","","","",""
"629","","f","psychophysics","115","405528","0.0-7.0-0.0-4.0-0.0-0.4","3","3","4","3","3","3","3","2","3","3","4","3","2","4","4","4","4","3","4","4","2","3","3","2","2","2","2","3","2","1","0","0","1","0","0","1","1","1","1","-1","0","0","0","1","4","3","2","2","4","2","4","4","3","1","755507503227473921","陈","","","","match","","","","","","","","","","","","","","key","f","16.670604166666333","720","446","f","true","match","img/ellipse.png","椭圆","椭圆","ALT1","formal_ALT1_1","","","","","","","","","",""
"null","<span style='color:GreenYellow; font-size: 70px;'>正确! </span>","null","html-keyboard-response","116","406031","0.0-7.0-0.0-4.0-0.0-1.4","3","3","4","3","3","3","3","2","3","3","4","3","2","4","4","4","4","3","4","4","2","3","3","2","2","2","2","3","2","1","0","0","1","0","0","1","1","1","1","-1","0","0","0","1","4","3","2","2","4","2","4","4","3","1","755507503227473921","陈","","","","","","","","","","","","","","","","","","","","","","","","","","","","","","feedback_test","","","","","","","","","",""
"726","","j","psychophysics","117","407760","0.0-7.0-0.0-4.0-0.0-0.5","3","3","4","3","3","3","3","2","3","3","4","3","2","4","4","4","4","3","4","4","2","3","3","2","2","2","2","3","2","1","0","0","1","0","0","1","1","1","1","-1","0","0","0","1","4","3","2","2","4","2","4","4","3","1","755507503227473921","陈","","","","nonmatch","","","","","","","","","","","","","","key","j","16.670274509803516","720","446","j","true","nonmatch","img/ellipse.png","方形","椭圆","ALT1","formal_ALT1_1","","","","","","","","","",""
"null","<span style='color:GreenYellow; font-size: 70px;'>正确! </span>","null","html-keyboard-response","118","408263","0.0-7.0-0.0-4.0-0.0-1.5","3","3","4","3","3","3","3","2","3","3","4","3","2","4","4","4","4","3","4","4","2","3","3","2","2","2","2","3","2","1","0","0","1","0","0","1","1","1","1","-1","0","0","0","1","4","3","2","2","4","2","4","4","3","1","755507503227473921","陈","","","","","","","","","","","","","","","","","","","","","","","","","","","","","","feedback_test","","","","","","","","","",""
"639","","f","psychophysics","119","409904","0.0-7.0-0.0-4.0-0.0-0.6","3","3","4","3","3","3","3","2","3","3","4","3","2","4","4","4","4","3","4","4","2","3","3","2","2","2","2","3","2","1","0","0","1","0","0","1","1","1","1","-1","0","0","0","1","4","3","2","2","4","2","4","4","3","1","755507503227473921","陈","","","","match","","","","","","","","","","","","","","key","f","16.66883505154617","720","446","f","true","match","img/square.png","方形","方形","ALT1","formal_ALT1_1","","","","","","","","","",""
"null","<span style='color:GreenYellow; font-size: 70px;'>正确! </span>","null","html-keyboard-response","120","410406","0.0-7.0-0.0-4.0-0.0-1.6","3","3","4","3","3","3","3","2","3","3","4","3","2","4","4","4","4","3","4","4","2","3","3","2","2","2","2","3","2","1","0","0","1","0","0","1","1","1","1","-1","0","0","0","1","4","3","2","2","4","2","4","4","3","1","755507503227473921","陈","","","","","","","","","","","","","","","","","","","","","","","","","","","","","","feedback_test","","","","","","","","","",""
"644","","j","psychophysics","121","412053","0.0-7.0-0.0-4.0-0.0-0.7","3","3","4","3","3","3","3","2","3","3","4","3","2","4","4","4","4","3","4","4","2","3","3","2","2","2","2","3","2","1","0","0","1","0","0","1","1","1","1","-1","0","0","0","1","4","3","2","2","4","2","4","4","3","1","755507503227473921","陈","","","","nonmatch","","","","","","","","","","","","","","key","j","16.669642857142858","720","446","j","true","nonmatch","img/ellipse.png","三角","椭圆","ALT1","formal_ALT1_1","","","","","","","","","",""
"null","<span style='color:GreenYellow; font-size: 70px;'>正确! </span>","null","html-keyboard-response","122","412555","0.0-7.0-0.0-4.0-0.0-1.7","3","3","4","3","3","3","3","2","3","3","4","3","2","4","4","4","4","3","4","4","2","3","3","2","2","2","2","3","2","1","0","0","1","0","0","1","1","1","1","-1","0","0","0","1","4","3","2","2","4","2","4","4","3","1","755507503227473921","陈","","","","","","","","","","","","","","","","","","","","","","","","","","","","","","feedback_test","","","","","","","","","",""
"571","","f","psychophysics","123","414129","0.0-7.0-0.0-4.0-0.0-0.8","3","3","4","3","3","3","3","2","3","3","4","3","2","4","4","4","4","3","4","4","2","3","3","2","2","2","2","3","2","1","0","0","1","0","0","1","1","1","1","-1","0","0","0","1","4","3","2","2","4","2","4","4","3","1","755507503227473921","陈","","","","match","","","","","","","","","","","","","","key","f","16.670075268816998","720","446","f","true","match","img/ellipse.png","椭圆","椭圆","ALT1","formal_ALT1_1","","","","","","","","","",""
"null","<span style='color:GreenYellow; font-size: 70px;'>正确! </span>","null","html-keyboard-response","124","414632","0.0-7.0-0.0-4.0-0.0-1.8","3","3","4","3","3","3","3","2","3","3","4","3","2","4","4","4","4","3","4","4","2","3","3","2","2","2","2","3","2","1","0","0","1","0","0","1","1","1","1","-1","0","0","0","1","4","3","2","2","4","2","4","4","3","1","755507503227473921","陈","","","","","","","","","","","","","","","","","","","","","","","","","","","","","","feedback_test","","","","","","","","","",""
"510","","f","psychophysics","125","416145","0.0-7.0-0.0-4.0-0.0-0.9","3","3","4","3","3","3","3","2","3","3","4","3","2","4","4","4","4","3","4","4","2","3","3","2","2","2","2","3","2","1","0","0","1","0","0","1","1","1","1","-1","0","0","0","1","4","3","2","2","4","2","4","4","3","1","755507503227473921","陈","","","","match","","","","","","","","","","","","","","key","f","16.669157303370707","720","446","f","true","match","img/ellipse.png","椭圆","椭圆","ALT1","formal_ALT1_1","","","","","","","","","",""
"null","<span style='color:GreenYellow; font-size: 70px;'>正确! </span>","null","html-keyboard-response","126","416648","0.0-7.0-0.0-4.0-0.0-1.9","3","3","4","3","3","3","3","2","3","3","4","3","2","4","4","4","4","3","4","4","2","3","3","2","2","2","2","3","2","1","0","0","1","0","0","1","1","1","1","-1","0","0","0","1","4","3","2","2","4","2","4","4","3","1","755507503227473921","陈","","","","","","","","","","","","","","","","","","","","","","","","","","","","","","feedback_test","","","","","","","","","",""
"679","","j","psychophysics","127","418330","0.0-7.0-0.0-4.0-0.0-0.10","3","3","4","3","3","3","3","2","3","3","4","3","2","4","4","4","4","3","4","4","2","3","3","2","2","2","2","3","2","1","0","0","1","0","0","1","1","1","1","-1","0","0","0","1","4","3","2","2","4","2","4","4","3","1","755507503227473921","陈","","","","nonmatch","","","","","","","","","","","","","","key","j","16.669464646464665","720","446","j","true","nonmatch","img/pentagon.png","三角","五边","ALT1","formal_ALT1_1","","","","","","","","","",""
"null","<span style='color:GreenYellow; font-size: 70px;'>正确! </span>","null","html-keyboard-response","128","418833","0.0-7.0-0.0-4.0-0.0-1.10","3","3","4","3","3","3","3","2","3","3","4","3","2","4","4","4","4","3","4","4","2","3","3","2","2","2","2","3","2","1","0","0","1","0","0","1","1","1","1","-1","0","0","0","1","4","3","2","2","4","2","4","4","3","1","755507503227473921","陈","","","","","","","","","","","","","","","","","","","","","","","","","","","","","","feedback_test","","","","","","","","","",""
"692","","j","psychophysics","129","420528","0.0-7.0-0.0-4.0-0.0-0.11","3","3","4","3","3","3","3","2","3","3","4","3","2","4","4","4","4","3","4","4","2","3","3","2","2","2","2","3","2","1","0","0","1","0","0","1","1","1","1","-1","0","0","0","1","4","3","2","2","4","2","4","4","3","1","755507503227473921","陈","","","","nonmatch","","","","","","","","","","","","","","key","j","16.669919999999692","720","446","j","true","nonmatch","img/square.png","五边","方形","ALT1","formal_ALT1_1","","","","","","","","","",""
"null","<span style='color:GreenYellow; font-size: 70px;'>正确! </span>","null","html-keyboard-response","130","421030","0.0-7.0-0.0-4.0-0.0-1.11","3","3","4","3","3","3","3","2","3","3","4","3","2","4","4","4","4","3","4","4","2","3","3","2","2","2","2","3","2","1","0","0","1","0","0","1","1","1","1","-1","0","0","0","1","4","3","2","2","4","2","4","4","3","1","755507503227473921","陈","","","","","","","","","","","","","","","","","","","","","","","","","","","","","","feedback_test","","","","","","","","","",""
"686","","j","psychophysics","131","422718","0.0-7.0-0.0-4.0-0.0-0.12","3","3","4","3","3","3","3","2","3","3","4","3","2","4","4","4","4","3","4","4","2","3","3","2","2","2","2","3","2","1","0","0","1","0","0","1","1","1","1","-1","0","0","0","1","4","3","2","2","4","2","4","4","3","1","755507503227473921","陈","","","","nonmatch","","","","","","","","","","","","","","key","j","16.668949999999604","720","446","j","true","nonmatch","img/triangle.png","五边","三角","ALT1","formal_ALT1_1","","","","","","","","","",""
"null","<span style='color:GreenYellow; font-size: 70px;'>正确! </span>","null","html-keyboard-response","132","423221","0.0-7.0-0.0-4.0-0.0-1.12","3","3","4","3","3","3","3","2","3","3","4","3","2","4","4","4","4","3","4","4","2","3","3","2","2","2","2","3","2","1","0","0","1","0","0","1","1","1","1","-1","0","0","0","1","4","3","2","2","4","2","4","4","3","1","755507503227473921","陈","","","","","","","","","","","","","","","","","","","","","","","","","","","","","","feedback_test","","","","","","","","","",""
"631","","j","psychophysics","133","424856","0.0-7.0-0.0-4.0-0.0-0.13","3","3","4","3","3","3","3","2","3","3","4","3","2","4","4","4","4","3","4","4","2","3","3","2","2","2","2","3","2","1","0","0","1","0","0","1","1","1","1","-1","0","0","0","1","4","3","2","2","4","2","4","4","3","1","755507503227473921","陈","","","","nonmatch","","","","","","","","","","","","","","key","j","16.668350515464084","720","446","j","true","nonmatch","img/ellipse.png","五边","椭圆","ALT1","formal_ALT1_1","","","","","","","","","",""
"null","<span style='color:GreenYellow; font-size: 70px;'>正确! </span>","null","html-keyboard-response","134","425357","0.0-7.0-0.0-4.0-0.0-1.13","3","3","4","3","3","3","3","2","3","3","4","3","2","4","4","4","4","3","4","4","2","3","3","2","2","2","2","3","2","1","0","0","1","0","0","1","1","1","1","-1","0","0","0","1","4","3","2","2","4","2","4","4","3","1","755507503227473921","陈","","","","","","","","","","","","","","","","","","","","","","","","","","","","","","feedback_test","","","","","","","","","",""
"635","","f","psychophysics","135","426994","0.0-7.0-0.0-4.0-0.0-0.14","3","3","4","3","3","3","3","2","3","3","4","3","2","4","4","4","4","3","4","4","2","3","3","2","2","2","2","3","2","1","0","0","1","0","0","1","1","1","1","-1","0","0","0","1","4","3","2","2","4","2","4","4","3","1","755507503227473921","陈","","","","match","","","","","","","","","","","","","","key","f","16.669979381443422","720","446","j","false","nonmatch","img/square.png","三角","方形","ALT1","formal_ALT1_1","","","","","","","","","",""
"null","<span style='color:red; font-size: 70px;'>错误! </span>","null","html-keyboard-response","136","427496","0.0-7.0-0.0-4.0-0.0-1.14","3","3","4","3","3","3","3","2","3","3","4","3","2","4","4","4","4","3","4","4","2","3","3","2","2","2","2","3","2","1","0","0","1","0","0","1","1","1","1","-1","0","0","0","1","4","3","2","2","4","2","4","4","3","1","755507503227473921","陈","","","","","","","","","","","","","","","","","","","","","","","","","","","","","","feedback_test","","","","","","","","","",""
"804","","f","psychophysics","137","429305","0.0-7.0-0.0-4.0-0.0-0.15","3","3","4","3","3","3","3","2","3","3","4","3","2","4","4","4","4","3","4","4","2","3","3","2","2","2","2","3","2","1","0","0","1","0","0","1","1","1","1","-1","0","0","0","1","4","3","2","2","4","2","4","4","3","1","755507503227473921","陈","","","","match","","","","","","","","","","","","","","key","f","16.658981308411203","720","446","f","true","match","img/pentagon.png","五边","五边","ALT1","formal_ALT1_1","","","","","","","","","",""
"null","<span style='color:GreenYellow; font-size: 70px;'>正确! </span>","null","html-keyboard-response","138","429807","0.0-7.0-0.0-4.0-0.0-1.15","3","3","4","3","3","3","3","2","3","3","4","3","2","4","4","4","4","3","4","4","2","3","3","2","2","2","2","3","2","1","0","0","1","0","0","1","1","1","1","-1","0","0","0","1","4","3","2","2","4","2","4","4","3","1","755507503227473921","陈","","","","","","","","","","","","","","","","","","","","","","","","","","","","","","feedback_test","","","","","","","","","",""
"719","","j","psychophysics","139","431528","0.0-7.0-0.0-4.0-0.0-0.16","3","3","4","3","3","3","3","2","3","3","4","3","2","4","4","4","4","3","4","4","2","3","3","2","2","2","2","3","2","1","0","0","1","0","0","1","1","1","1","-1","0","0","0","1","4","3","2","2","4","2","4","4","3","1","755507503227473921","陈","","","","nonmatch","","","","","","","","","","","","","","key","j","16.668617647059044","720","446","j","true","nonmatch","img/pentagon.png","方形","五边","ALT1","formal_ALT1_1","","","","","","","","","",""
"null","<span style='color:GreenYellow; font-size: 70px;'>正确! </span>","null","html-keyboard-response","140","432030","0.0-7.0-0.0-4.0-0.0-1.16","3","3","4","3","3","3","3","2","3","3","4","3","2","4","4","4","4","3","4","4","2","3","3","2","2","2","2","3","2","1","0","0","1","0","0","1","1","1","1","-1","0","0","0","1","4","3","2","2","4","2","4","4","3","1","755507503227473921","陈","","","","","","","","","","","","","","","","","","","","","","","","","","","","","","feedback_test","","","","","","","","","",""
"707","","j","psychophysics","141","433740","0.0-7.0-0.0-4.0-0.0-0.17","3","3","4","3","3","3","3","2","3","3","4","3","2","4","4","4","4","3","4","4","2","3","3","2","2","2","2","3","2","1","0","0","1","0","0","1","1","1","1","-1","0","0","0","1","4","3","2","2","4","2","4","4","3","1","755507503227473921","陈","","","","nonmatch","","","","","","","","","","","","","","key","j","17.17917346938784","720","446","j","true","nonmatch","img/square.png","椭圆","方形","ALT1","formal_ALT1_1","","","","","","","","","",""
"null","<span style='color:GreenYellow; font-size: 70px;'>正确! </span>","null","html-keyboard-response","142","434243","0.0-7.0-0.0-4.0-0.0-1.17","3","3","4","3","3","3","3","2","3","3","4","3","2","4","4","4","4","3","4","4","2","3","3","2","2","2","2","3","2","1","0","0","1","0","0","1","1","1","1","-1","0","0","0","1","4","3","2","2","4","2","4","4","3","1","755507503227473921","陈","","","","","","","","","","","","","","","","","","","","","","","","","","","","","","feedback_test","","","","","","","","","",""
"669","","j","psychophysics","143","435915","0.0-7.0-0.0-4.0-0.0-0.18","3","3","4","3","3","3","3","2","3","3","4","3","2","4","4","4","4","3","4","4","2","3","3","2","2","2","2","3","2","1","0","0","1","0","0","1","1","1","1","-1","0","0","0","1","4","3","2","2","4","2","4","4","3","1","755507503227473921","陈","","","","nonmatch","","","","","","","","","","","","","","key","j","16.670151515151233","720","446","j","true","nonmatch","img/triangle.png","椭圆","三角","ALT1","formal_ALT1_1","","","","","","","","","",""
"null","<span style='color:GreenYellow; font-size: 70px;'>正确! </span>","null","html-keyboard-response","144","436420","0.0-7.0-0.0-4.0-0.0-1.18","3","3","4","3","3","3","3","2","3","3","4","3","2","4","4","4","4","3","4","4","2","3","3","2","2","2","2","3","2","1","0","0","1","0","0","1","1","1","1","-1","0","0","0","1","4","3","2","2","4","2","4","4","3","1","755507503227473921","陈","","","","","","","","","","","","","","","","","","","","","","","","","","","","","","feedback_test","","","","","","","","","",""
"824","","f","psychophysics","145","438247","0.0-7.0-0.0-4.0-0.0-0.19","3","3","4","3","3","3","3","2","3","3","4","3","2","4","4","4","4","3","4","4","2","3","3","2","2","2","2","3","2","1","0","0","1","0","0","1","1","1","1","-1","0","0","0","1","4","3","2","2","4","2","4","4","3","1","755507503227473921","陈","","","","match","","","","","","","","","","","","","","key","f","16.66650925925933","720","446","f","true","match","img/pentagon.png","五边","五边","ALT1","formal_ALT1_1","","","","","","","","","",""
"null","<span style='color:GreenYellow; font-size: 70px;'>正确! </span>","null","html-keyboard-response","146","438749","0.0-7.0-0.0-4.0-0.0-1.19","3","3","4","3","3","3","3","2","3","3","4","3","2","4","4","4","4","3","4","4","2","3","3","2","2","2","2","3","2","1","0","0","1","0","0","1","1","1","1","-1","0","0","0","1","4","3","2","2","4","2","4","4","3","1","755507503227473921","陈","","","","","","","","","","","","","","","","","","","","","","","","","","","","","","feedback_test","","","","","","","","","",""
"690","","j","psychophysics","147","440442","0.0-7.0-0.0-4.0-0.0-0.20","3","3","4","3","3","3","3","2","3","3","4","3","2","4","4","4","4","3","4","4","2","3","3","2","2","2","2","3","2","1","0","0","1","0","0","1","1","1","1","-1","0","0","0","1","4","3","2","2","4","2","4","4","3","1","755507503227473921","陈","","","","nonmatch","","","","","","","","","","","","","","key","j","16.670199999999603","720","446","j","true","nonmatch","img/pentagon.png","椭圆","五边","ALT1","formal_ALT1_1","","","","","","","","","",""
"null","<span style='color:GreenYellow; font-size: 70px;'>正确! </span>","null","html-keyboard-response","148","440944","0.0-7.0-0.0-4.0-0.0-1.20","3","3","4","3","3","3","3","2","3","3","4","3","2","4","4","4","4","3","4","4","2","3","3","2","2","2","2","3","2","1","0","0","1","0","0","1","1","1","1","-1","0","0","0","1","4","3","2","2","4","2","4","4","3","1","755507503227473921","陈","","","","","","","","","","","","","","","","","","","","","","","","","","","","","","feedback_test","","","","","","","","","",""
"759","","f","psychophysics","149","442706","0.0-7.0-0.0-4.0-0.0-0.21","3","3","4","3","3","3","3","2","3","3","4","3","2","4","4","4","4","3","4","4","2","3","3","2","2","2","2","3","2","1","0","0","1","0","0","1","1","1","1","-1","0","0","0","1","4","3","2","2","4","2","4","4","3","1","755507503227473921","陈","","","","match","","","","","","","","","","","","","","key","f","16.66959047619076","720","446","f","true","match","img/triangle.png","三角","三角","ALT1","formal_ALT1_1","","","","","","","","","",""
"null","<span style='color:GreenYellow; font-size: 70px;'>正确! </span>","null","html-keyboard-response","150","443208","0.0-7.0-0.0-4.0-0.0-1.21","3","3","4","3","3","3","3","2","3","3","4","3","2","4","4","4","4","3","4","4","2","3","3","2","2","2","2","3","2","1","0","0","1","0","0","1","1","1","1","-1","0","0","0","1","4","3","2","2","4","2","4","4","3","1","755507503227473921","陈","","","","","","","","","","","","","","","","","","","","","","","","","","","","","","feedback_test","","","","","","","","","",""
"544","","f","psychophysics","151","444756","0.0-7.0-0.0-4.0-0.0-0.22","3","3","4","3","3","3","3","2","3","3","4","3","2","4","4","4","4","3","4","4","2","3","3","2","2","2","2","3","2","1","0","0","1","0","0","1","1","1","1","-1","0","0","0","1","4","3","2","2","4","2","4","4","3","1","755507503227473921","陈","","","","match","","","","","","","","","","","","","","key","f","16.669902173912977","720","446","f","true","match","img/triangle.png","三角","三角","ALT1","formal_ALT1_1","","","","","","","","","",""
"null","<span style='color:GreenYellow; font-size: 70px;'>正确! </span>","null","html-keyboard-response","152","445270","0.0-7.0-0.0-4.0-0.0-1.22","3","3","4","3","3","3","3","2","3","3","4","3","2","4","4","4","4","3","4","4","2","3","3","2","2","2","2","3","2","1","0","0","1","0","0","1","1","1","1","-1","0","0","0","1","4","3","2","2","4","2","4","4","3","1","755507503227473921","陈","","","","","","","","","","","","","","","","","","","","","","","","","","","","","","feedback_test","","","","","","","","","",""
"536","","f","psychophysics","153","446810","0.0-7.0-0.0-4.0-0.0-0.23","3","3","4","3","3","3","3","2","3","3","4","3","2","4","4","4","4","3","4","4","2","3","3","2","2","2","2","3","2","1","0","0","1","0","0","1","1","1","1","-1","0","0","0","1","4","3","2","2","4","2","4","4","3","1","755507503227473921","陈","","","","match","","","","","","","","","","","","","","key","f","16.662934065934596","720","446","f","true","match","img/triangle.png","三角","三角","ALT1","formal_ALT1_1","","","","","","","","","",""
"null","<span style='color:GreenYellow; font-size: 70px;'>正确! </span>","null","html-keyboard-response","154","447311","0.0-7.0-0.0-4.0-0.0-1.23","3","3","4","3","3","3","3","2","3","3","4","3","2","4","4","4","4","3","4","4","2","3","3","2","2","2","2","3","2","1","0","0","1","0","0","1","1","1","1","-1","0","0","0","1","4","3","2","2","4","2","4","4","3","1","755507503227473921","陈","","","","","","","","","","","","","","","","","","","","","","","","","","","","","","feedback_test","","","","","","","","","",""
"958","","j","psychophysics","155","449274","0.0-7.0-0.0-4.0-0.0-0.24","3","3","4","3","3","3","3","2","3","3","4","3","2","4","4","4","4","3","4","4","2","3","3","2","2","2","2","3","2","1","0","0","1","0","0","1","1","1","1","-1","0","0","0","1","4","3","2","2","4","2","4","4","3","1","755507503227473921","陈","","","","nonmatch","","","","","","","","","","","","","","key","j","16.669401709401768","720","446","j","true","nonmatch","img/pentagon.png","方形","五边","ALT1","formal_ALT1_1","","","","","","","","","",""
"null","<span style='color:GreenYellow; font-size: 70px;'>正确! </span>","null","html-keyboard-response","156","449776","0.0-7.0-0.0-4.0-0.0-1.24","3","3","4","3","3","3","3","2","3","3","4","3","2","4","4","4","4","3","4","4","2","3","3","2","2","2","2","3","2","1","0","0","1","0","0","1","1","1","1","-1","0","0","0","1","4","3","2","2","4","2","4","4","3","1","755507503227473921","陈","","","","","","","","","","","","","","","","","","","","","","","","","","","","","","feedback_test","","","","","","","","","",""
"781","","j","psychophysics","157","451560","0.0-7.0-0.0-4.0-0.0-0.25","3","3","4","3","3","3","3","2","3","3","4","3","2","4","4","4","4","3","4","4","2","3","3","2","2","2","2","3","2","1","0","0","1","0","0","1","1","1","1","-1","0","0","0","1","4","3","2","2","4","2","4","4","3","1","755507503227473921","陈","","","","nonmatch","","","","","","","","","","","","","","key","j","16.6686320754717","720","446","j","true","nonmatch","img/triangle.png","方形","三角","ALT1","formal_ALT1_1","","","","","","","","","",""
"null","<span style='color:GreenYellow; font-size: 70px;'>正确! </span>","null","html-keyboard-response","158","452063","0.0-7.0-0.0-4.0-0.0-1.25","3","3","4","3","3","3","3","2","3","3","4","3","2","4","4","4","4","3","4","4","2","3","3","2","2","2","2","3","2","1","0","0","1","0","0","1","1","1","1","-1","0","0","0","1","4","3","2","2","4","2","4","4","3","1","755507503227473921","陈","","","","","","","","","","","","","","","","","","","","","","","","","","","","","","feedback_test","","","","","","","","","",""
"1015","","f","psychophysics","159","454076","0.0-7.0-0.0-4.0-0.0-0.26","3","3","4","3","3","3","3","2","3","3","4","3","2","4","4","4","4","3","4","4","2","3","3","2","2","2","2","3","2","1","0","0","1","0","0","1","1","1","1","-1","0","0","0","1","4","3","2","2","4","2","4","4","3","1","755507503227473921","陈","","","","match","","","","","","","","","","","","","","key","f","16.669425000000047","720","446","f","true","match","img/pentagon.png","五边","五边","ALT1","formal_ALT1_1","","","","","","","","","",""
"null","<span style='color:GreenYellow; font-size: 70px;'>正确! </span>","null","html-keyboard-response","160","454579","0.0-7.0-0.0-4.0-0.0-1.26","3","3","4","3","3","3","3","2","3","3","4","3","2","4","4","4","4","3","4","4","2","3","3","2","2","2","2","3","2","1","0","0","1","0","0","1","1","1","1","-1","0","0","0","1","4","3","2","2","4","2","4","4","3","1","755507503227473921","陈","","","","","","","","","","","","","","","","","","","","","","","","","","","","","","feedback_test","","","","","","","","","",""
"705","","j","psychophysics","161","456287","0.0-7.0-0.0-4.0-0.0-0.27","3","3","4","3","3","3","3","2","3","3","4","3","2","4","4","4","4","3","4","4","2","3","3","2","2","2","2","3","2","1","0","0","1","0","0","1","1","1","1","-1","0","0","0","1","4","3","2","2","4","2","4","4","3","1","755507503227473921","陈","","","","nonmatch","","","","","","","","","","","","","","key","j","16.669336633663395","720","446","j","true","nonmatch","img/triangle.png","椭圆","三角","ALT1","formal_ALT1_1","","","","","","","","","",""
"null","<span style='color:GreenYellow; font-size: 70px;'>正确! </span>","null","html-keyboard-response","162","456789","0.0-7.0-0.0-4.0-0.0-1.27","3","3","4","3","3","3","3","2","3","3","4","3","2","4","4","4","4","3","4","4","2","3","3","2","2","2","2","3","2","1","0","0","1","0","0","1","1","1","1","-1","0","0","0","1","4","3","2","2","4","2","4","4","3","1","755507503227473921","陈","","","","","","","","","","","","","","","","","","","","","","","","","","","","","","feedback_test","","","","","","","","","",""
"825","","f","psychophysics","163","458616","0.0-7.0-0.0-4.0-0.0-0.28","3","3","4","3","3","3","3","2","3","3","4","3","2","4","4","4","4","3","4","4","2","3","3","2","2","2","2","3","2","1","0","0","1","0","0","1","1","1","1","-1","0","0","0","1","4","3","2","2","4","2","4","4","3","1","755507503227473921","陈","","","","match","","","","","","","","","","","","","","key","f","16.668247706421816","720","446","f","true","match","img/pentagon.png","五边","五边","ALT1","formal_ALT1_1","","","","","","","","","",""
"null","<span style='color:GreenYellow; font-size: 70px;'>正确! </span>","null","html-keyboard-response","164","459119","0.0-7.0-0.0-4.0-0.0-1.28","3","3","4","3","3","3","3","2","3","3","4","3","2","4","4","4","4","3","4","4","2","3","3","2","2","2","2","3","2","1","0","0","1","0","0","1","1","1","1","-1","0","0","0","1","4","3","2","2","4","2","4","4","3","1","755507503227473921","陈","","","","","","","","","","","","","","","","","","","","","","","","","","","","","","feedback_test","","","","","","","","","",""
"762","","f","psychophysics","165","460884","0.0-7.0-0.0-4.0-0.0-0.29","3","3","4","3","3","3","3","2","3","3","4","3","2","4","4","4","4","3","4","4","2","3","3","2","2","2","2","3","2","1","0","0","1","0","0","1","1","1","1","-1","0","0","0","1","4","3","2","2","4","2","4","4","3","1","755507503227473921","陈","","","","match","","","","","","","","","","","","","","key","f","16.66973333333375","720","446","f","true","match","img/ellipse.png","椭圆","椭圆","ALT1","formal_ALT1_1","","","","","","","","","",""
"null","<span style='color:GreenYellow; font-size: 70px;'>正确! </span>","null","html-keyboard-response","166","461386","0.0-7.0-0.0-4.0-0.0-1.29","3","3","4","3","3","3","3","2","3","3","4","3","2","4","4","4","4","3","4","4","2","3","3","2","2","2","2","3","2","1","0","0","1","0","0","1","1","1","1","-1","0","0","0","1","4","3","2","2","4","2","4","4","3","1","755507503227473921","陈","","","","","","","","","","","","","","","","","","","","","","","","","","","","","","feedback_test","","","","","","","","","",""
"778","","f","psychophysics","167","463167","0.0-7.0-0.0-4.0-0.0-0.30","3","3","4","3","3","3","3","2","3","3","4","3","2","4","4","4","4","3","4","4","2","3","3","2","2","2","2","3","2","1","0","0","1","0","0","1","1","1","1","-1","0","0","0","1","4","3","2","2","4","2","4","4","3","1","755507503227473921","陈","","","","match","","","","","","","","","","","","","","key","f","16.668877358490136","720","446","f","true","match","img/triangle.png","三角","三角","ALT1","formal_ALT1_1","","","","","","","","","",""
"null","<span style='color:GreenYellow; font-size: 70px;'>正确! </span>","null","html-keyboard-response","168","463669","0.0-7.0-0.0-4.0-0.0-1.30","3","3","4","3","3","3","3","2","3","3","4","3","2","4","4","4","4","3","4","4","2","3","3","2","2","2","2","3","2","1","0","0","1","0","0","1","1","1","1","-1","0","0","0","1","4","3","2","2","4","2","4","4","3","1","755507503227473921","陈","","","","","","","","","","","","","","","","","","","","","","","","","","","","","","feedback_test","","","","","","","","","",""
"834","","j","psychophysics","169","465507","0.0-7.0-0.0-4.0-0.0-0.31","3","3","4","3","3","3","3","2","3","3","4","3","2","4","4","4","4","3","4","4","2","3","3","2","2","2","2","3","2","1","0","0","1","0","0","1","1","1","1","-1","0","0","0","1","4","3","2","2","4","2","4","4","3","1","755507503227473921","陈","","","","nonmatch","","","","","","","","","","","","","","key","j","16.669880733944886","720","446","j","true","nonmatch","img/ellipse.png","三角","椭圆","ALT1","formal_ALT1_1","","","","","","","","","",""
"null","<span style='color:GreenYellow; font-size: 70px;'>正确! </span>","null","html-keyboard-response","170","466009","0.0-7.0-0.0-4.0-0.0-1.31","3","3","4","3","3","3","3","2","3","3","4","3","2","4","4","4","4","3","4","4","2","3","3","2","2","2","2","3","2","1","0","0","1","0","0","1","1","1","1","-1","0","0","0","1","4","3","2","2","4","2","4","4","3","1","755507503227473921","陈","","","","","","","","","","","","","","","","","","","","","","","","","","","","","","feedback_test","","","","","","","","","",""
"745","","j","psychophysics","171","467757","0.0-7.0-0.0-4.0-0.0-0.32","3","3","4","3","3","3","3","2","3","3","4","3","2","4","4","4","4","3","4","4","2","3","3","2","2","2","2","3","2","1","0","0","1","0","0","1","1","1","1","-1","0","0","0","1","4","3","2","2","4","2","4","4","3","1","755507503227473921","陈","","","","nonmatch","","","","","","","","","","","","","","key","j","16.66064077669933","720","446","j","true","nonmatch","img/square.png","五边","方形","ALT1","formal_ALT1_1","","","","","","","","","",""
"null","<span style='color:GreenYellow; font-size: 70px;'>正确! </span>","null","html-keyboard-response","172","468258","0.0-7.0-0.0-4.0-0.0-1.32","3","3","4","3","3","3","3","2","3","3","4","3","2","4","4","4","4","3","4","4","2","3","3","2","2","2","2","3","2","1","0","0","1","0","0","1","1","1","1","-1","0","0","0","1","4","3","2","2","4","2","4","4","3","1","755507503227473921","陈","","","","","","","","","","","","","","","","","","","","","","","","","","","","","","feedback_test","","","","","","","","","",""
"646","","j","psychophysics","173","469907","0.0-7.0-0.0-4.0-0.0-0.33","3","3","4","3","3","3","3","2","3","3","4","3","2","4","4","4","4","3","4","4","2","3","3","2","2","2","2","3","2","1","0","0","1","0","0","1","1","1","1","-1","0","0","0","1","4","3","2","2","4","2","4","4","3","1","755507503227473921","陈","","","","nonmatch","","","","","","","","","","","","","","key","j","16.670061224489473","720","446","j","true","nonmatch","img/square.png","三角","方形","ALT1","formal_ALT1_1","","","","","","","","","",""
"null","<span style='color:GreenYellow; font-size: 70px;'>正确! </span>","null","html-keyboard-response","174","470409","0.0-7.0-0.0-4.0-0.0-1.33","3","3","4","3","3","3","3","2","3","3","4","3","2","4","4","4","4","3","4","4","2","3","3","2","2","2","2","3","2","1","0","0","1","0","0","1","1","1","1","-1","0","0","0","1","4","3","2","2","4","2","4","4","3","1","755507503227473921","陈","","","","","","","","","","","","","","","","","","","","","","","","","","","","","","feedback_test","","","","","","","","","",""
"776","","f","psychophysics","175","472187","0.0-7.0-0.0-4.0-0.0-0.34","3","3","4","3","3","3","3","2","3","3","4","3","2","4","4","4","4","3","4","4","2","3","3","2","2","2","2","3","2","1","0","0","1","0","0","1","1","1","1","-1","0","0","0","1","4","3","2","2","4","2","4","4","3","1","755507503227473921","陈","","","","match","","","","","","","","","","","","","","key","f","16.66893396226366","720","446","f","true","match","img/triangle.png","三角","三角","ALT1","formal_ALT1_1","","","","","","","","","",""
"null","<span style='color:GreenYellow; font-size: 70px;'>正确! </span>","null","html-keyboard-response","176","472688","0.0-7.0-0.0-4.0-0.0-1.34","3","3","4","3","3","3","3","2","3","3","4","3","2","4","4","4","4","3","4","4","2","3","3","2","2","2","2","3","2","1","0","0","1","0","0","1","1","1","1","-1","0","0","0","1","4","3","2","2","4","2","4","4","3","1","755507503227473921","陈","","","","","","","","","","","","","","","","","","","","","","","","","","","","","","feedback_test","","","","","","","","","",""
"689","","j","psychophysics","177","474382","0.0-7.0-0.0-4.0-0.0-0.35","3","3","4","3","3","3","3","2","3","3","4","3","2","4","4","4","4","3","4","4","2","3","3","2","2","2","2","3","2","1","0","0","1","0","0","1","1","1","1","-1","0","0","0","1","4","3","2","2","4","2","4","4","3","1","755507503227473921","陈","","","","nonmatch","","","","","","","","","","","","","","key","j","16.67011999999988","720","446","j","true","nonmatch","img/pentagon.png","三角","五边","ALT1","formal_ALT1_1","","","","","","","","","",""
"null","<span style='color:GreenYellow; font-size: 70px;'>正确! </span>","null","html-keyboard-response","178","474885","0.0-7.0-0.0-4.0-0.0-1.35","3","3","4","3","3","3","3","2","3","3","4","3","2","4","4","4","4","3","4","4","2","3","3","2","2","2","2","3","2","1","0","0","1","0","0","1","1","1","1","-1","0","0","0","1","4","3","2","2","4","2","4","4","3","1","755507503227473921","陈","","","","","","","","","","","","","","","","","","","","","","","","","","","","","","feedback_test","","","","","","","","","",""
"867","","j","psychophysics","179","476755","0.0-7.0-0.0-4.0-0.0-0.36","3","3","4","3","3","3","3","2","3","3","4","3","2","4","4","4","4","3","4","4","2","3","3","2","2","2","2","3","2","1","0","0","1","0","0","1","1","1","1","-1","0","0","0","1","4","3","2","2","4","2","4","4","3","1","755507503227473921","陈","","","","nonmatch","","","","","","","","","","","","","","key","j","16.66971171171161","720","446","j","true","nonmatch","img/pentagon.png","椭圆","五边","ALT1","formal_ALT1_1","","","","","","","","","",""
"null","<span style='color:GreenYellow; font-size: 70px;'>正确! </span>","null","html-keyboard-response","180","477258","0.0-7.0-0.0-4.0-0.0-1.36","3","3","4","3","3","3","3","2","3","3","4","3","2","4","4","4","4","3","4","4","2","3","3","2","2","2","2","3","2","1","0","0","1","0","0","1","1","1","1","-1","0","0","0","1","4","3","2","2","4","2","4","4","3","1","755507503227473921","陈","","","","","","","","","","","","","","","","","","","","","","","","","","","","","","feedback_test","","","","","","","","","",""
"833","","f","psychophysics","181","479093","0.0-7.0-0.0-4.0-0.0-0.37","3","3","4","3","3","3","3","2","3","3","4","3","2","4","4","4","4","3","4","4","2","3","3","2","2","2","2","3","2","1","0","0","1","0","0","1","1","1","1","-1","0","0","0","1","4","3","2","2","4","2","4","4","3","1","755507503227473921","陈","","","","match","","","","","","","","","","","","","","key","f","16.669963302752407","720","446","f","true","match","img/pentagon.png","五边","五边","ALT1","formal_ALT1_1","","","","","","","","","",""
"null","<span style='color:GreenYellow; font-size: 70px;'>正确! </span>","null","html-keyboard-response","182","479595","0.0-7.0-0.0-4.0-0.0-1.37","3","3","4","3","3","3","3","2","3","3","4","3","2","4","4","4","4","3","4","4","2","3","3","2","2","2","2","3","2","1","0","0","1","0","0","1","1","1","1","-1","0","0","0","1","4","3","2","2","4","2","4","4","3","1","755507503227473921","陈","","","","","","","","","","","","","","","","","","","","","","","","","","","","","","feedback_test","","","","","","","","","",""
"671","","f","psychophysics","183","481269","0.0-7.0-0.0-4.0-0.0-0.38","3","3","4","3","3","3","3","2","3","3","4","3","2","4","4","4","4","3","4","4","2","3","3","2","2","2","2","3","2","1","0","0","1","0","0","1","1","1","1","-1","0","0","0","1","4","3","2","2","4","2","4","4","3","1","755507503227473921","陈","","","","match","","","","","","","","","","","","","","key","f","16.668181818182052","720","446","f","true","match","img/ellipse.png","椭圆","椭圆","ALT1","formal_ALT1_1","","","","","","","","","",""
"null","<span style='color:GreenYellow; font-size: 70px;'>正确! </span>","null","html-keyboard-response","184","481771","0.0-7.0-0.0-4.0-0.0-1.38","3","3","4","3","3","3","3","2","3","3","4","3","2","4","4","4","4","3","4","4","2","3","3","2","2","2","2","3","2","1","0","0","1","0","0","1","1","1","1","-1","0","0","0","1","4","3","2","2","4","2","4","4","3","1","755507503227473921","陈","","","","","","","","","","","","","","","","","","","","","","","","","","","","","","feedback_test","","","","","","","","","",""
"684","","j","psychophysics","185","483459","0.0-7.0-0.0-4.0-0.0-0.39","3","3","4","3","3","3","3","2","3","3","4","3","2","4","4","4","4","3","4","4","2","3","3","2","2","2","2","3","2","1","0","0","1","0","0","1","1","1","1","-1","0","0","0","1","4","3","2","2","4","2","4","4","3","1","755507503227473921","陈","","","","nonmatch","","","","","","","","","","","","","","key","j","16.670129999999773","720","446","j","true","nonmatch","img/triangle.png","五边","三角","ALT1","formal_ALT1_1","","","","","","","","","",""
"null","<span style='color:GreenYellow; font-size: 70px;'>正确! </span>","null","html-keyboard-response","186","483961","0.0-7.0-0.0-4.0-0.0-1.39","3","3","4","3","3","3","3","2","3","3","4","3","2","4","4","4","4","3","4","4","2","3","3","2","2","2","2","3","2","1","0","0","1","0","0","1","1","1","1","-1","0","0","0","1","4","3","2","2","4","2","4","4","3","1","755507503227473921","陈","","","","","","","","","","","","","","","","","","","","","","","","","","","","","","feedback_test","","","","","","","","","",""
