"rt","stimulus","response","trial_type","trial_index","time_elapsed","internal_node_id","swb_1","swb_2","swb_3","swb_4","swb_5","LOT_1","LOT_2","LOT_3","LOT_4","LOT_5","LOT_6","IPC_1","IPC_2","IPC_3","IPC_4","IPC_5","IPC_6","IPC_7","IPC_8","MorIden_1","MorIden_2","MorIden_3","MorIden_4","MorIden_5","MorIden_6","MorIden_7","MorIden_8","MorIden_9","MorIden_10","moralSeImag_1","moralSeImag_2","moralSeImag_3","moralSeImag_4","moralSeImag_5","moralSeImag_6","moralSeImag_7","moralSeImag_8","moralSeImag_9","sde_1","sde_2","sde_3","sde_4","sde_5","sde_6","sde_7","sde_8","sde_9","sde_10","trap2","sde_11","sde_12","sde_13","sde_14","sde_15","sde_16","sde_17","sde_18","sde_19","sde_20","IM_1","IM_2","IM_3","IM_4","IM_5","IM_6","IM_7","IM_8","IM_9","IM_10","IM_11","IM_12","IM_13","IM_14","IM_15","IM_16","IM_17","IM_18","IM_19","IM_20","subj_idx","friend_name","ParticipantID","Sex","Word","Word2","value","success","timeout","failed_images","failed_audio","failed_video","user_agent","responses","item_order","radio_event_ids","radio_event_times","key_event_times","mouse_event_times","straightlining","zigzagging","honeypot","task_id","screen_id","time_stamp","response_type","key_press","avg_frame_time","center_x","center_y","person","word","valence","domain","math","correct_response","correct","status","view_history","identity","duration","Image","condition","question_order","trap2_item"
"3483","
   <p><div style='color:white; font-size: 25px'>您好，欢迎参加本次实验。</div></p>
   <p><div style='color:white; font-size: 25px'>为充分保障您的权利，请确保您已经知晓并同意《参与实验同意书》以及《数据公开知情同意书》。</div></p>
   <p><div style='color:white; font-size: 25px'>如果您未见过上述内容，请咨询实验员。</div></p>
   <p style='color:white; font-size: 25px'>如果您选择继续实验，则表示您已经清楚两份知情同意书的内容并同意。</p>
   <p><div style = ""color: pink;font-size:30px;"">请确保您记得day0的实验编号，您将在本次实验输入该编号，若您忘记，请咨询实验员后作答。</div></p>
   <p><div style = ""color:lightblue;font-size:25px;"">请您尽可能认真地作答，我们将依据您在各问卷和按键任务中的作答质量发放报酬。</div></p>
   <p> <div style = ""color: green""><按空格键至下页></div> </p>
   "," ","html-keyboard-response","0","3485","0.0-0.0","5","5","6","2","1","4","2","4","4","4","5","0","-2","0","1","-1","0","1","0","4","4","5","4","3","4","4","4","3","4","5","6","4","6","4","5","5","6","5","5","6","5","4","5","5","5","1","5","6","1","5","5","5","4","3","3","5","5","6","4","6","5","3","2","2","6","5","6","6","6","7","5","7","6","3","6","2","6","4","5","796472353797316610","lj","167","Female","[""坏她"",""好她"",""坏我"",""好我""]","[""弱她"",""强她"",""弱我"",""强我""]","","","","","","","","","","","","","","","","","","","","","","","","","","","","","","","","","","","","","","",""
"","","","call-function","1","3486","0.0-1.0-0.0","5","5","6","2","1","4","2","4","4","4","5","0","-2","0","1","-1","0","1","0","4","4","5","4","3","4","4","4","3","4","5","6","4","6","4","5","5","6","5","5","6","5","4","5","5","5","1","5","6","1","5","5","5","4","3","3","5","5","6","4","6","5","3","2","2","6","5","6","6","6","7","5","7","6","3","6","2","6","4","5","796472353797316610","lj","167","Female","[""坏她"",""好她"",""坏我"",""好我""]","[""弱她"",""强她"",""弱我"",""强我""]","","","","","","","","","","","","","","","","","","","","","","","","","","","","","","","","","","","","","","",""
"33693","","[{""name"":""Sex"",""value"":""1""},{""name"":""friend_name"",""value"":""lj""},{""name"":""ParticipantID"",""value"":""167""}]","survey-html-form","2","37179","0.0-1.0-1.0","5","5","6","2","1","4","2","4","4","4","5","0","-2","0","1","-1","0","1","0","4","4","5","4","3","4","4","4","3","4","5","6","4","6","4","5","5","6","5","5","6","5","4","5","5","5","1","5","6","1","5","5","5","4","3","3","5","5","6","4","6","5","3","2","2","6","5","6","6","6","7","5","7","6","3","6","2","6","4","5","796472353797316610","lj","167","Female","[""坏她"",""好她"",""坏我"",""好我""]","[""弱她"",""强她"",""弱我"",""强我""]","","","","","","","","","","","","","","","","","","","","","","","","","","","","","","","","","","","","","","",""
"","","","preload","3","37394","0.0-2.0","5","5","6","2","1","4","2","4","4","4","5","0","-2","0","1","-1","0","1","0","4","4","5","4","3","4","4","4","3","4","5","6","4","6","4","5","5","6","5","5","6","5","4","5","5","5","1","5","6","1","5","5","5","4","3","3","5","5","6","4","6","5","3","2","2","6","5","6","6","6","7","5","7","6","3","6","2","6","4","5","796472353797316610","lj","167","Female","[""坏她"",""好她"",""坏我"",""好我""]","[""弱她"",""强她"",""弱我"",""强我""]","","true","false","[]","[]","[]","","","","","","","","","","","","","","","","","","","","","","","","","","","","","","","","",""
"","","","fullscreen","4","39593","0.0-3.0","5","5","6","2","1","4","2","4","4","4","5","0","-2","0","1","-1","0","1","0","4","4","5","4","3","4","4","4","3","4","5","6","4","6","4","5","5","6","5","5","6","5","4","5","5","5","1","5","6","1","5","5","5","4","3","3","5","5","6","4","6","5","3","2","2","6","5","6","6","6","7","5","7","6","3","6","2","6","4","5","796472353797316610","lj","167","Female","[""坏她"",""好她"",""坏我"",""好我""]","[""弱她"",""强她"",""弱我"",""强我""]","","true","","","","","{}","","","","","","","","","","","","","","","","","","","","","","","","","","","","","","","",""
"21680.40000000596","","{""Q01"":""5"",""Q02"":""5"",""Q03"":""6"",""Q04"":""2"",""Q05"":""1""}","survey-template","5","61276","0.0-4.0","5","5","6","2","1","4","2","4","4","4","5","0","-2","0","1","-1","0","1","0","4","4","5","4","3","4","4","4","3","4","5","6","4","6","4","5","5","6","5","5","6","5","4","5","5","5","1","5","6","1","5","5","5","4","3","3","5","5","6","4","6","5","3","2","2","6","5","6","6","6","7","5","7","6","3","6","2","6","4","5","796472353797316610","lj","167","Female","[""坏她"",""好她"",""坏我"",""好我""]","[""弱她"",""强她"",""弱我"",""强我""]","","","","","","","","{""Q01"":""5"",""Q02"":""5"",""Q03"":""6"",""Q04"":""2"",""Q05"":""1""}","[0,1,2,3,4]","[""Q01"",""Q02"",""Q02"",""Q03"",""Q03"",""Q01"",""Q04"",""Q05""]","[9580.29999999702,10939.90000000596,11164.79999999702,13164.60000000894,15457.5,16688.70000000298,19066.79999999702,20426.90000000596]","[]","[9580.29999999702,10939.90000000596,11164.79999999702,13164.60000000894,15457.5,16688.70000000298,19066.79999999702,20426.90000000596,21679.60000000894]","0.4","0.5","0","","","","","","","","","","","","","","","","","","","","","","",""
"31772.29999999702","","{""Q01"":""4"",""Q02"":""2"",""Q03"":""4"",""Q04"":""4"",""Q05"":""4"",""Q06"":""5""}","survey-template","6","93051","0.0-5.0","5","5","6","2","1","4","2","4","4","4","5","0","-2","0","1","-1","0","1","0","4","4","5","4","3","4","4","4","3","4","5","6","4","6","4","5","5","6","5","5","6","5","4","5","5","5","1","5","6","1","5","5","5","4","3","3","5","5","6","4","6","5","3","2","2","6","5","6","6","6","7","5","7","6","3","6","2","6","4","5","796472353797316610","lj","167","Female","[""坏她"",""好她"",""坏我"",""好我""]","[""弱她"",""强她"",""弱我"",""强我""]","","","","","","","","{""Q01"":""4"",""Q02"":""2"",""Q03"":""4"",""Q04"":""4"",""Q05"":""4"",""Q06"":""5""}","[0,1,2,3,4,5]","[""Q01"",""Q02"",""Q03"",""Q04"",""Q05"",""Q06""]","[20254.20000000298,22428.10000000894,24728.60000000894,27173.40000000596,28249,30783.29999999702]","[]","[20254.20000000298,22428.10000000894,24728.60000000894,27173.40000000596,28249,30783.29999999702,31771.70000000298]","0.5","0","0","","","","","","","","","","","","","","","","","","","","","","",""
"15823.29999999702","","{""Q01"":""0"",""Q02"":""-2"",""Q03"":""0"",""Q04"":""1"",""Q05"":""-1"",""Q06"":""0"",""Q07"":""1"",""Q08"":""0""}","survey-template","7","108877","0.0-6.0","5","5","6","2","1","4","2","4","4","4","5","0","-2","0","1","-1","0","1","0","4","4","5","4","3","4","4","4","3","4","5","6","4","6","4","5","5","6","5","5","6","5","4","5","5","5","1","5","6","1","5","5","5","4","3","3","5","5","6","4","6","5","3","2","2","6","5","6","6","6","7","5","7","6","3","6","2","6","4","5","796472353797316610","lj","167","Female","[""坏她"",""好她"",""坏我"",""好我""]","[""弱她"",""强她"",""弱我"",""强我""]","","","","","","","","{""Q01"":""0"",""Q02"":""-2"",""Q03"":""0"",""Q04"":""1"",""Q05"":""-1"",""Q06"":""0"",""Q07"":""1"",""Q08"":""0""}","[0,1,2,3,4,5,6,7]","[""Q01"",""Q02"",""Q03"",""Q04"",""Q05"",""Q06"",""Q07"",""Q08""]","[2492.2999999970198,3962.5,5848.0999999940395,7207.0999999940395,8932.90000000596,10843.40000000596,13504.90000000596,14738.20000000298]","[]","[2492.2999999970198,3962.5,5848.0999999940395,7207.0999999940395,8932.90000000596,10843.40000000596,12469.79999999702,13504.90000000596,14738.20000000298,15822.5]","0.5","0.5714285714285714","0","","","","","","","","","","","","","","","","","","","","","","",""
"51023","
    <p><div style='color:white;font-size:35px; line-height:20px;'>词汇评估任务</div></p><br>
    <p><div style='color:white;font-size:25px; line-height:20px;'>请再次回忆该亲密的朋友，你们至少2年前就认识了，并且最近2年经常见面。</div></p>
    <p><div style='color:white;font-size:25px; line-height:20px;'>在本实验中，您将会看到一些形容词。</div></p>
    <p><div style='color:yellow;font-size:25px; line-height:20px;'>您的任务是判断这些形容词是否符合对您自己或您的朋友的描述。</div></p><p style='font-size:35px'>符合按<span style=""color:lightgreen""> j 键</span>，不符合按<span style=""color:red""> f 键</span></p>","0","html-button-response","8","159902","0.0-7.0-0.0","5","5","6","2","1","4","2","4","4","4","5","0","-2","0","1","-1","0","1","0","4","4","5","4","3","4","4","4","3","4","5","6","4","6","4","5","5","6","5","5","6","5","4","5","5","5","1","5","6","1","5","5","5","4","3","3","5","5","6","4","6","5","3","2","2","6","5","6","6","6","7","5","7","6","3","6","2","6","4","5","796472353797316610","lj","167","Female","[""坏她"",""好她"",""坏我"",""好我""]","[""弱她"",""强她"",""弱我"",""强我""]","","","","","","","","","","","","","","","","","SRET_EW","EW_instructions","Tue Jan 16 2024 19:17:24 GMT+0800 (中国标准时间)","","","","","","","","","","","","","","","","","","","",""
"null","","null","psychophysics","9","162906","0.0-7.0-1.0-0.0","5","5","6","2","1","4","2","4","4","4","5","0","-2","0","1","-1","0","1","0","4","4","5","4","3","4","4","4","3","4","5","6","4","6","4","5","5","6","5","5","6","5","4","5","5","5","1","5","6","1","5","5","5","4","3","3","5","5","6","4","6","5","3","2","2","6","5","6","6","6","7","5","7","6","3","6","2","6","4","5","796472353797316610","lj","167","Female","[""坏她"",""好她"",""坏我"",""好我""]","[""弱她"",""强她"",""弱我"",""强我""]","","","","","","","","","","","","","","","","","SRET_EW","EW_practice","","key","null","16.667222222222254","640","356","朋友","徇私","Negative","morality","","","","","","","","","","",""
"1747","","f","psychophysics","10","165655","0.0-7.0-1.0-0.1","5","5","6","2","1","4","2","4","4","4","5","0","-2","0","1","-1","0","1","0","4","4","5","4","3","4","4","4","3","4","5","6","4","6","4","5","5","6","5","5","6","5","4","5","5","5","1","5","6","1","5","5","5","4","3","3","5","5","6","4","6","5","3","2","2","6","5","6","6","6","7","5","7","6","3","6","2","6","4","5","796472353797316610","lj","167","Female","[""坏她"",""好她"",""坏我"",""好我""]","[""弱她"",""强她"",""弱我"",""强我""]","","","","","","","","no","","","","","","","","","SRET_EW","EW_practice","","key","f","16.667073170731673","640","356","自己","刻板","Negative","ability","","","","","","","","","","",""
"597","","j","psychophysics","11","167253","0.0-7.0-1.0-0.2","5","5","6","2","1","4","2","4","4","4","5","0","-2","0","1","-1","0","1","0","4","4","5","4","3","4","4","4","3","4","5","6","4","6","4","5","5","6","5","5","6","5","4","5","5","5","1","5","6","1","5","5","5","4","3","3","5","5","6","4","6","5","3","2","2","6","5","6","6","6","7","5","7","6","3","6","2","6","4","5","796472353797316610","lj","167","Female","[""坏她"",""好她"",""坏我"",""好我""]","[""弱她"",""强她"",""弱我"",""强我""]","","","","","","","","yes","","","","","","","","","SRET_EW","EW_practice","","key","j","16.666315789473867","640","356","朋友","忠实","Positive","morality","","","","","","","","","","",""
"620","","f","psychophysics","12","168873","0.0-7.0-1.0-0.3","5","5","6","2","1","4","2","4","4","4","5","0","-2","0","1","-1","0","1","0","4","4","5","4","3","4","4","4","3","4","5","6","4","6","4","5","5","6","5","5","6","5","4","5","5","5","1","5","6","1","5","5","5","4","3","3","5","5","6","4","6","5","3","2","2","6","5","6","6","6","7","5","7","6","3","6","2","6","4","5","796472353797316610","lj","167","Female","[""坏她"",""好她"",""坏我"",""好我""]","[""弱她"",""强她"",""弱我"",""强我""]","","","","","","","","no","","","","","","","","","SRET_EW","EW_practice","","key","f","16.666666666666668","640","356","自己","严谨","Positive","ability","","","","","","","","","","",""
"5582","
    <p><div style='color:white;font-size:35px; line-height:20px;'>请您再次阅读实验要求</div></p><br>
    <p><div style='color:white;font-size:25px; line-height:20px;'>请回忆某一个亲密的朋友，你们至少2年前就认识了，并且最近2年经常见面。</div></p>
    <p><div style='color:white;font-size:25px; line-height:20px;'>在本实验中，您将会看到一些形容词。</div></p>
    <p><div style='color:yellow;font-size:25px; line-height:20px;'>您的任务是判断这些形容词是否符合对您自己或您的朋友的描述。</div></p>
    <p><div class='footer' style='font-size:25px; line-height:20px;'>如果对本实验还有不清楚之处，请立即向实验员咨询。</p><p style='font-size:25px; line-height:20px;'>如果您明白了规则：</p><p style='font-size:22px; line-height:20px;'>请按 继续 进入正式实验</p>
    </div>
    <p style='font-size:35px'>符合按<span style=""color:lightgreen""> j 键</span>，不符合按<span style=""color:red""> f 键</span></p>","0","html-button-response","13","174457","0.0-7.0-2.0","5","5","6","2","1","4","2","4","4","4","5","0","-2","0","1","-1","0","1","0","4","4","5","4","3","4","4","4","3","4","5","6","4","6","4","5","5","6","5","5","6","5","4","5","5","5","1","5","6","1","5","5","5","4","3","3","5","5","6","4","6","5","3","2","2","6","5","6","6","6","7","5","7","6","3","6","2","6","4","5","796472353797316610","lj","167","Female","[""坏她"",""好她"",""坏我"",""好我""]","[""弱她"",""强她"",""弱我"",""强我""]","","","","","","","","","","","","","","","","","SRET_EW","prac_instructions","Tue Jan 16 2024 19:17:24 GMT+0800 (中国标准时间)","","","","","","","","","","","","","","","","","","","",""
"573","","f","psychophysics","14","176031","0.0-7.0-3.0-0.0","5","5","6","2","1","4","2","4","4","4","5","0","-2","0","1","-1","0","1","0","4","4","5","4","3","4","4","4","3","4","5","6","4","6","4","5","5","6","5","5","6","5","4","5","5","5","1","5","6","1","5","5","5","4","3","3","5","5","6","4","6","5","3","2","2","6","5","6","6","6","7","5","7","6","3","6","2","6","4","5","796472353797316610","lj","167","Female","[""坏她"",""好她"",""坏我"",""好我""]","[""弱她"",""强她"",""弱我"",""强我""]","","","","","","","","no","","","","","","","","","SRET","EW_formal","","key","f","16.661052631578826","640","356","自己","说谎","Negative","morality","","","","","","","","","","",""
"930","","f","psychophysics","15","177963","0.0-7.0-3.0-0.1","5","5","6","2","1","4","2","4","4","4","5","0","-2","0","1","-1","0","1","0","4","4","5","4","3","4","4","4","3","4","5","6","4","6","4","5","5","6","5","5","6","5","4","5","5","5","1","5","6","1","5","5","5","4","3","3","5","5","6","4","6","5","3","2","2","6","5","6","6","6","7","5","7","6","3","6","2","6","4","5","796472353797316610","lj","167","Female","[""坏她"",""好她"",""坏我"",""好我""]","[""弱她"",""强她"",""弱我"",""强我""]","","","","","","","","no","","","","","","","","","SRET","EW_formal","","key","f","16.66782608695642","640","356","朋友","迷糊","Negative","ability","","","","","","","","","","",""
"581","","j","psychophysics","16","179545","0.0-7.0-3.0-0.2","5","5","6","2","1","4","2","4","4","4","5","0","-2","0","1","-1","0","1","0","4","4","5","4","3","4","4","4","3","4","5","6","4","6","4","5","5","6","5","5","6","5","4","5","5","5","1","5","6","1","5","5","5","4","3","3","5","5","6","4","6","5","3","2","2","6","5","6","6","6","7","5","7","6","3","6","2","6","4","5","796472353797316610","lj","167","Female","[""坏她"",""好她"",""坏我"",""好我""]","[""弱她"",""强她"",""弱我"",""强我""]","","","","","","","","yes","","","","","","","","","SRET","EW_formal","","key","j","16.667021276595868","640","356","朋友","务实","Positive","ability","","","","","","","","","","",""
"887","","j","psychophysics","17","181434","0.0-7.0-3.0-0.3","5","5","6","2","1","4","2","4","4","4","5","0","-2","0","1","-1","0","1","0","4","4","5","4","3","4","4","4","3","4","5","6","4","6","4","5","5","6","5","5","6","5","4","5","5","5","1","5","6","1","5","5","5","4","3","3","5","5","6","4","6","5","3","2","2","6","5","6","6","6","7","5","7","6","3","6","2","6","4","5","796472353797316610","lj","167","Female","[""坏她"",""好她"",""坏我"",""好我""]","[""弱她"",""强她"",""弱我"",""强我""]","","","","","","","","yes","","","","","","","","","SRET","EW_formal","","key","j","16.665178571428573","640","356","自己","坚贞","Positive","morality","","","","","","","","","","",""
"599","","f","psychophysics","18","183034","0.0-7.0-3.0-0.4","5","5","6","2","1","4","2","4","4","4","5","0","-2","0","1","-1","0","1","0","4","4","5","4","3","4","4","4","3","4","5","6","4","6","4","5","5","6","5","5","6","5","4","5","5","5","1","5","6","1","5","5","5","4","3","3","5","5","6","4","6","5","3","2","2","6","5","6","6","6","7","5","7","6","3","6","2","6","4","5","796472353797316610","lj","167","Female","[""坏她"",""好她"",""坏我"",""好我""]","[""弱她"",""强她"",""弱我"",""强我""]","","","","","","","","no","","","","","","","","","SRET","EW_formal","","key","f","16.66631578947356","640","356","朋友","偏私","Negative","morality","","","","","","","","","","",""
"547","","j","psychophysics","19","184583","0.0-7.0-3.0-0.5","5","5","6","2","1","4","2","4","4","4","5","0","-2","0","1","-1","0","1","0","4","4","5","4","3","4","4","4","3","4","5","6","4","6","4","5","5","6","5","5","6","5","4","5","5","5","1","5","6","1","5","5","5","4","3","3","5","5","6","4","6","5","3","2","2","6","5","6","6","6","7","5","7","6","3","6","2","6","4","5","796472353797316610","lj","167","Female","[""坏她"",""好她"",""坏我"",""好我""]","[""弱她"",""强她"",""弱我"",""强我""]","","","","","","","","yes","","","","","","","","","SRET","EW_formal","","key","j","16.67065217391317","640","356","朋友","廉正","Positive","morality","","","","","","","","","","",""
"903","","j","psychophysics","20","186488","0.0-7.0-3.0-0.6","5","5","6","2","1","4","2","4","4","4","5","0","-2","0","1","-1","0","1","0","4","4","5","4","3","4","4","4","3","4","5","6","4","6","4","5","5","6","5","5","6","5","4","5","5","5","1","5","6","1","5","5","5","4","3","3","5","5","6","4","6","5","3","2","2","6","5","6","6","6","7","5","7","6","3","6","2","6","4","5","796472353797316610","lj","167","Female","[""坏她"",""好她"",""坏我"",""好我""]","[""弱她"",""强她"",""弱我"",""强我""]","","","","","","","","yes","","","","","","","","","SRET","EW_formal","","key","j","16.664601769911297","640","356","自己","娴熟","Positive","ability","","","","","","","","","","",""
"487","","j","psychophysics","21","187977","0.0-7.0-3.0-0.7","5","5","6","2","1","4","2","4","4","4","5","0","-2","0","1","-1","0","1","0","4","4","5","4","3","4","4","4","3","4","5","6","4","6","4","5","5","6","5","5","6","5","4","5","5","5","1","5","6","1","5","5","5","4","3","3","5","5","6","4","6","5","3","2","2","6","5","6","6","6","7","5","7","6","3","6","2","6","4","5","796472353797316610","lj","167","Female","[""坏她"",""好她"",""坏我"",""好我""]","[""弱她"",""强她"",""弱我"",""强我""]","","","","","","","","yes","","","","","","","","","SRET","EW_formal","","key","j","16.66629213483133","640","356","自己","扎实","Positive","ability","","","","","","","","","","",""
"586","","f","psychophysics","22","189564","0.0-7.0-3.0-0.8","5","5","6","2","1","4","2","4","4","4","5","0","-2","0","1","-1","0","1","0","4","4","5","4","3","4","4","4","3","4","5","6","4","6","4","5","5","6","5","5","6","5","4","5","5","5","1","5","6","1","5","5","5","4","3","3","5","5","6","4","6","5","3","2","2","6","5","6","6","6","7","5","7","6","3","6","2","6","4","5","796472353797316610","lj","167","Female","[""坏她"",""好她"",""坏我"",""好我""]","[""弱她"",""强她"",""弱我"",""强我""]","","","","","","","","no","","","","","","","","","SRET","EW_formal","","key","f","16.66382978723429","640","356","朋友","无赖","Negative","morality","","","","","","","","","","",""
"516","","j","psychophysics","23","191081","0.0-7.0-3.0-0.9","5","5","6","2","1","4","2","4","4","4","5","0","-2","0","1","-1","0","1","0","4","4","5","4","3","4","4","4","3","4","5","6","4","6","4","5","5","6","5","5","6","5","4","5","5","5","1","5","6","1","5","5","5","4","3","3","5","5","6","4","6","5","3","2","2","6","5","6","6","6","7","5","7","6","3","6","2","6","4","5","796472353797316610","lj","167","Female","[""坏她"",""好她"",""坏我"",""好我""]","[""弱她"",""强她"",""弱我"",""强我""]","","","","","","","","yes","","","","","","","","","SRET","EW_formal","","key","j","16.666666666666668","640","356","朋友","侠义","Positive","morality","","","","","","","","","","",""
"987","","f","psychophysics","24","193068","0.0-7.0-3.0-0.10","5","5","6","2","1","4","2","4","4","4","5","0","-2","0","1","-1","0","1","0","4","4","5","4","3","4","4","4","3","4","5","6","4","6","4","5","5","6","5","5","6","5","4","5","5","5","1","5","6","1","5","5","5","4","3","3","5","5","6","4","6","5","3","2","2","6","5","6","6","6","7","5","7","6","3","6","2","6","4","5","796472353797316610","lj","167","Female","[""坏她"",""好她"",""坏我"",""好我""]","[""弱她"",""强她"",""弱我"",""强我""]","","","","","","","","no","","","","","","","","","SRET","EW_formal","","key","f","16.665254237288135","640","356","自己","粗心","Negative","ability","","","","","","","","","","",""
"686","","j","psychophysics","25","194756","0.0-7.0-3.0-0.11","5","5","6","2","1","4","2","4","4","4","5","0","-2","0","1","-1","0","1","0","4","4","5","4","3","4","4","4","3","4","5","6","4","6","4","5","5","6","5","5","6","5","4","5","5","5","1","5","6","1","5","5","5","4","3","3","5","5","6","4","6","5","3","2","2","6","5","6","6","6","7","5","7","6","3","6","2","6","4","5","796472353797316610","lj","167","Female","[""坏她"",""好她"",""坏我"",""好我""]","[""弱她"",""强她"",""弱我"",""强我""]","","","","","","","","yes","","","","","","","","","SRET","EW_formal","","key","j","16.666000000000057","640","356","自己","变通","Positive","ability","","","","","","","","","","",""
"539","","f","psychophysics","26","196296","0.0-7.0-3.0-0.12","5","5","6","2","1","4","2","4","4","4","5","0","-2","0","1","-1","0","1","0","4","4","5","4","3","4","4","4","3","4","5","6","4","6","4","5","5","6","5","5","6","5","4","5","5","5","1","5","6","1","5","5","5","4","3","3","5","5","6","4","6","5","3","2","2","6","5","6","6","6","7","5","7","6","3","6","2","6","4","5","796472353797316610","lj","167","Female","[""坏她"",""好她"",""坏我"",""好我""]","[""弱她"",""强她"",""弱我"",""强我""]","","","","","","","","no","","","","","","","","","SRET","EW_formal","","key","f","16.668478260869566","640","356","朋友","下流","Negative","morality","","","","","","","","","","",""
"621","","f","psychophysics","27","197918","0.0-7.0-3.0-0.13","5","5","6","2","1","4","2","4","4","4","5","0","-2","0","1","-1","0","1","0","4","4","5","4","3","4","4","4","3","4","5","6","4","6","4","5","5","6","5","5","6","5","4","5","5","5","1","5","6","1","5","5","5","4","3","3","5","5","6","4","6","5","3","2","2","6","5","6","6","6","7","5","7","6","3","6","2","6","4","5","796472353797316610","lj","167","Female","[""坏她"",""好她"",""坏我"",""好我""]","[""弱她"",""强她"",""弱我"",""强我""]","","","","","","","","no","","","","","","","","","SRET","EW_formal","","key","f","16.666666666666668","640","356","朋友","阴毒","Negative","morality","","","","","","","","","","",""
"806","","f","psychophysics","28","199725","0.0-7.0-3.0-0.14","5","5","6","2","1","4","2","4","4","4","5","0","-2","0","1","-1","0","1","0","4","4","5","4","3","4","4","4","3","4","5","6","4","6","4","5","5","6","5","5","6","5","4","5","5","5","1","5","6","1","5","5","5","4","3","3","5","5","6","4","6","5","3","2","2","6","5","6","6","6","7","5","7","6","3","6","2","6","4","5","796472353797316610","lj","167","Female","[""坏她"",""好她"",""坏我"",""好我""]","[""弱她"",""强她"",""弱我"",""强我""]","","","","","","","","no","","","","","","","","","SRET","EW_formal","","key","f","16.66635514018708","640","356","朋友","才尽","Negative","ability","","","","","","","","","","",""
"544","","j","psychophysics","29","201270","0.0-7.0-3.0-0.15","5","5","6","2","1","4","2","4","4","4","5","0","-2","0","1","-1","0","1","0","4","4","5","4","3","4","4","4","3","4","5","6","4","6","4","5","5","6","5","5","6","5","4","5","5","5","1","5","6","1","5","5","5","4","3","3","5","5","6","4","6","5","3","2","2","6","5","6","6","6","7","5","7","6","3","6","2","6","4","5","796472353797316610","lj","167","Female","[""坏她"",""好她"",""坏我"",""好我""]","[""弱她"",""强她"",""弱我"",""强我""]","","","","","","","","yes","","","","","","","","","SRET","EW_formal","","key","j","16.66739130434808","640","356","自己","慷慨","Positive","morality","","","","","","","","","","",""
"478","","j","psychophysics","30","202750","0.0-7.0-3.0-0.16","5","5","6","2","1","4","2","4","4","4","5","0","-2","0","1","-1","0","1","0","4","4","5","4","3","4","4","4","3","4","5","6","4","6","4","5","5","6","5","5","6","5","4","5","5","5","1","5","6","1","5","5","5","4","3","3","5","5","6","4","6","5","3","2","2","6","5","6","6","6","7","5","7","6","3","6","2","6","4","5","796472353797316610","lj","167","Female","[""坏她"",""好她"",""坏我"",""好我""]","[""弱她"",""强她"",""弱我"",""强我""]","","","","","","","","yes","","","","","","","","","SRET","EW_formal","","key","j","16.671590909090977","640","356","自己","敏捷","Positive","ability","","","","","","","","","","",""
"795","","f","psychophysics","31","204546","0.0-7.0-3.0-0.17","5","5","6","2","1","4","2","4","4","4","5","0","-2","0","1","-1","0","1","0","4","4","5","4","3","4","4","4","3","4","5","6","4","6","4","5","5","6","5","5","6","5","4","5","5","5","1","5","6","1","5","5","5","4","3","3","5","5","6","4","6","5","3","2","2","6","5","6","6","6","7","5","7","6","3","6","2","6","4","5","796472353797316610","lj","167","Female","[""坏她"",""好她"",""坏我"",""好我""]","[""弱她"",""强她"",""弱我"",""强我""]","","","","","","","","no","","","","","","","","","SRET","EW_formal","","key","f","16.665420560747773","640","356","自己","毛糙","Negative","ability","","","","","","","","","","",""
"558","","j","psychophysics","32","206106","0.0-7.0-3.0-0.18","5","5","6","2","1","4","2","4","4","4","5","0","-2","0","1","-1","0","1","0","4","4","5","4","3","4","4","4","3","4","5","6","4","6","4","5","5","6","5","5","6","5","4","5","5","5","1","5","6","1","5","5","5","4","3","3","5","5","6","4","6","5","3","2","2","6","5","6","6","6","7","5","7","6","3","6","2","6","4","5","796472353797316610","lj","167","Female","[""坏她"",""好她"",""坏我"",""好我""]","[""弱她"",""强她"",""弱我"",""强我""]","","","","","","","","yes","","","","","","","","","SRET","EW_formal","","key","j","16.668478260869566","640","356","自己","敬业","Positive","morality","","","","","","","","","","",""
"518","","j","psychophysics","33","207625","0.0-7.0-3.0-0.19","5","5","6","2","1","4","2","4","4","4","5","0","-2","0","1","-1","0","1","0","4","4","5","4","3","4","4","4","3","4","5","6","4","6","4","5","5","6","5","5","6","5","4","5","5","5","1","5","6","1","5","5","5","4","3","3","5","5","6","4","6","5","3","2","2","6","5","6","6","6","7","5","7","6","3","6","2","6","4","5","796472353797316610","lj","167","Female","[""坏她"",""好她"",""坏我"",""好我""]","[""弱她"",""强她"",""弱我"",""强我""]","","","","","","","","yes","","","","","","","","","SRET","EW_formal","","key","j","16.666666666666668","640","356","朋友","高尚","Positive","morality","","","","","","","","","","",""
"505","","j","psychophysics","34","209131","0.0-7.0-3.0-0.20","5","5","6","2","1","4","2","4","4","4","5","0","-2","0","1","-1","0","1","0","4","4","5","4","3","4","4","4","3","4","5","6","4","6","4","5","5","6","5","5","6","5","4","5","5","5","1","5","6","1","5","5","5","4","3","3","5","5","6","4","6","5","3","2","2","6","5","6","6","6","7","5","7","6","3","6","2","6","4","5","796472353797316610","lj","167","Female","[""坏她"",""好她"",""坏我"",""好我""]","[""弱她"",""强她"",""弱我"",""强我""]","","","","","","","","yes","","","","","","","","","SRET","EW_formal","","key","j","16.667777777777843","640","356","自己","君子","Positive","morality","","","","","","","","","","",""
"501","","j","psychophysics","35","210633","0.0-7.0-3.0-0.21","5","5","6","2","1","4","2","4","4","4","5","0","-2","0","1","-1","0","1","0","4","4","5","4","3","4","4","4","3","4","5","6","4","6","4","5","5","6","5","5","6","5","4","5","5","5","1","5","6","1","5","5","5","4","3","3","5","5","6","4","6","5","3","2","2","6","5","6","6","6","7","5","7","6","3","6","2","6","4","5","796472353797316610","lj","167","Female","[""坏她"",""好她"",""坏我"",""好我""]","[""弱她"",""强她"",""弱我"",""强我""]","","","","","","","","yes","","","","","","","","","SRET","EW_formal","","key","j","16.66629213483133","640","356","自己","热心","Positive","morality","","","","","","","","","","",""
"635","","f","psychophysics","36","212269","0.0-7.0-3.0-0.22","5","5","6","2","1","4","2","4","4","4","5","0","-2","0","1","-1","0","1","0","4","4","5","4","3","4","4","4","3","4","5","6","4","6","4","5","5","6","5","5","6","5","4","5","5","5","1","5","6","1","5","5","5","4","3","3","5","5","6","4","6","5","3","2","2","6","5","6","6","6","7","5","7","6","3","6","2","6","4","5","796472353797316610","lj","167","Female","[""坏她"",""好她"",""坏我"",""好我""]","[""弱她"",""强她"",""弱我"",""强我""]","","","","","","","","no","","","","","","","","","SRET","EW_formal","","key","f","16.669072164948393","640","356","朋友","刻薄","Negative","morality","","","","","","","","","","",""
"497","","f","psychophysics","37","213767","0.0-7.0-3.0-0.23","5","5","6","2","1","4","2","4","4","4","5","0","-2","0","1","-1","0","1","0","4","4","5","4","3","4","4","4","3","4","5","6","4","6","4","5","5","6","5","5","6","5","4","5","5","5","1","5","6","1","5","5","5","4","3","3","5","5","6","4","6","5","3","2","2","6","5","6","6","6","7","5","7","6","3","6","2","6","4","5","796472353797316610","lj","167","Female","[""坏她"",""好她"",""坏我"",""好我""]","[""弱她"",""强她"",""弱我"",""强我""]","","","","","","","","no","","","","","","","","","SRET","EW_formal","","key","f","16.66741573033734","640","356","朋友","卑鄙","Negative","morality","","","","","","","","","","",""
"624","","j","psychophysics","38","215392","0.0-7.0-3.0-0.24","5","5","6","2","1","4","2","4","4","4","5","0","-2","0","1","-1","0","1","0","4","4","5","4","3","4","4","4","3","4","5","6","4","6","4","5","5","6","5","5","6","5","4","5","5","5","1","5","6","1","5","5","5","4","3","3","5","5","6","4","6","5","3","2","2","6","5","6","6","6","7","5","7","6","3","6","2","6","4","5","796472353797316610","lj","167","Female","[""坏她"",""好她"",""坏我"",""好我""]","[""弱她"",""强她"",""弱我"",""强我""]","","","","","","","","yes","","","","","","","","","SRET","EW_formal","","key","j","16.663541666666486","640","356","朋友","马虎","Negative","ability","","","","","","","","","","",""
"628","","j","psychophysics","39","217021","0.0-7.0-3.0-0.25","5","5","6","2","1","4","2","4","4","4","5","0","-2","0","1","-1","0","1","0","4","4","5","4","3","4","4","4","3","4","5","6","4","6","4","5","5","6","5","5","6","5","4","5","5","5","1","5","6","1","5","5","5","4","3","3","5","5","6","4","6","5","3","2","2","6","5","6","6","6","7","5","7","6","3","6","2","6","4","5","796472353797316610","lj","167","Female","[""坏她"",""好她"",""坏我"",""好我""]","[""弱她"",""强她"",""弱我"",""强我""]","","","","","","","","yes","","","","","","","","","SRET","EW_formal","","key","j","16.66804123711358","640","356","朋友","全才","Positive","ability","","","","","","","","","","",""
"719","","f","psychophysics","40","218741","0.0-7.0-3.0-0.26","5","5","6","2","1","4","2","4","4","4","5","0","-2","0","1","-1","0","1","0","4","4","5","4","3","4","4","4","3","4","5","6","4","6","4","5","5","6","5","5","6","5","4","5","5","5","1","5","6","1","5","5","5","4","3","3","5","5","6","4","6","5","3","2","2","6","5","6","6","6","7","5","7","6","3","6","2","6","4","5","796472353797316610","lj","167","Female","[""坏她"",""好她"",""坏我"",""好我""]","[""弱她"",""强她"",""弱我"",""强我""]","","","","","","","","no","","","","","","","","","SRET","EW_formal","","key","f","16.667647058823587","640","356","朋友","无知","Negative","ability","","","","","","","","","","",""
"740","","j","psychophysics","41","220483","0.0-7.0-3.0-0.27","5","5","6","2","1","4","2","4","4","4","5","0","-2","0","1","-1","0","1","0","4","4","5","4","3","4","4","4","3","4","5","6","4","6","4","5","5","6","5","5","6","5","4","5","5","5","1","5","6","1","5","5","5","4","3","3","5","5","6","4","6","5","3","2","2","6","5","6","6","6","7","5","7","6","3","6","2","6","4","5","796472353797316610","lj","167","Female","[""坏她"",""好她"",""坏我"",""好我""]","[""弱她"",""强她"",""弱我"",""强我""]","","","","","","","","yes","","","","","","","","","SRET","EW_formal","","key","j","16.67019230769242","640","356","朋友","高明","Positive","ability","","","","","","","","","","",""
"643","","f","psychophysics","42","222127","0.0-7.0-3.0-0.28","5","5","6","2","1","4","2","4","4","4","5","0","-2","0","1","-1","0","1","0","4","4","5","4","3","4","4","4","3","4","5","6","4","6","4","5","5","6","5","5","6","5","4","5","5","5","1","5","6","1","5","5","5","4","3","3","5","5","6","4","6","5","3","2","2","6","5","6","6","6","7","5","7","6","3","6","2","6","4","5","796472353797316610","lj","167","Female","[""坏她"",""好她"",""坏我"",""好我""]","[""弱她"",""强她"",""弱我"",""强我""]","","","","","","","","no","","","","","","","","","SRET","EW_formal","","key","f","16.667346938775452","640","356","朋友","不孝","Negative","morality","","","","","","","","","","",""
"814","","f","psychophysics","43","223942","0.0-7.0-3.0-0.29","5","5","6","2","1","4","2","4","4","4","5","0","-2","0","1","-1","0","1","0","4","4","5","4","3","4","4","4","3","4","5","6","4","6","4","5","5","6","5","5","6","5","4","5","5","5","1","5","6","1","5","5","5","4","3","3","5","5","6","4","6","5","3","2","2","6","5","6","6","6","7","5","7","6","3","6","2","6","4","5","796472353797316610","lj","167","Female","[""坏她"",""好她"",""坏我"",""好我""]","[""弱她"",""强她"",""弱我"",""强我""]","","","","","","","","no","","","","","","","","","SRET","EW_formal","","key","f","16.665420560747773","640","356","自己","不端","Negative","morality","","","","","","","","","","",""
"579","","j","psychophysics","44","225522","0.0-7.0-3.0-0.30","5","5","6","2","1","4","2","4","4","4","5","0","-2","0","1","-1","0","1","0","4","4","5","4","3","4","4","4","3","4","5","6","4","6","4","5","5","6","5","5","6","5","4","5","5","5","1","5","6","1","5","5","5","4","3","3","5","5","6","4","6","5","3","2","2","6","5","6","6","6","7","5","7","6","3","6","2","6","4","5","796472353797316610","lj","167","Female","[""坏她"",""好她"",""坏我"",""好我""]","[""弱她"",""强她"",""弱我"",""强我""]","","","","","","","","yes","","","","","","","","","SRET","EW_formal","","key","j","16.667021276595868","640","356","自己","忠勇","Positive","morality","","","","","","","","","","",""
"768","","j","psychophysics","45","227290","0.0-7.0-3.0-0.31","5","5","6","2","1","4","2","4","4","4","5","0","-2","0","1","-1","0","1","0","4","4","5","4","3","4","4","4","3","4","5","6","4","6","4","5","5","6","5","5","6","5","4","5","5","5","1","5","6","1","5","5","5","4","3","3","5","5","6","4","6","5","3","2","2","6","5","6","6","6","7","5","7","6","3","6","2","6","4","5","796472353797316610","lj","167","Female","[""坏她"",""好她"",""坏我"",""好我""]","[""弱她"",""强她"",""弱我"",""强我""]","","","","","","","","yes","","","","","","","","","SRET","EW_formal","","key","j","16.666666666666668","640","356","朋友","果断","Positive","ability","","","","","","","","","","",""
"630","","j","psychophysics","46","228922","0.0-7.0-3.0-0.32","5","5","6","2","1","4","2","4","4","4","5","0","-2","0","1","-1","0","1","0","4","4","5","4","3","4","4","4","3","4","5","6","4","6","4","5","5","6","5","5","6","5","4","5","5","5","1","5","6","1","5","5","5","4","3","3","5","5","6","4","6","5","3","2","2","6","5","6","6","6","7","5","7","6","3","6","2","6","4","5","796472353797316610","lj","167","Female","[""坏她"",""好她"",""坏我"",""好我""]","[""弱她"",""强她"",""弱我"",""强我""]","","","","","","","","yes","","","","","","","","","SRET","EW_formal","","key","j","16.66701030927847","640","356","朋友","善良","Positive","morality","","","","","","","","","","",""
"647","","f","psychophysics","47","230571","0.0-7.0-3.0-0.33","5","5","6","2","1","4","2","4","4","4","5","0","-2","0","1","-1","0","1","0","4","4","5","4","3","4","4","4","3","4","5","6","4","6","4","5","5","6","5","5","6","5","4","5","5","5","1","5","6","1","5","5","5","4","3","3","5","5","6","4","6","5","3","2","2","6","5","6","6","6","7","5","7","6","3","6","2","6","4","5","796472353797316610","lj","167","Female","[""坏她"",""好她"",""坏我"",""好我""]","[""弱她"",""强她"",""弱我"",""强我""]","","","","","","","","no","","","","","","","","","SRET","EW_formal","","key","f","16.67040816326513","640","356","自己","犹豫","Negative","ability","","","","","","","","","","",""
"494","","j","psychophysics","48","232066","0.0-7.0-3.0-0.34","5","5","6","2","1","4","2","4","4","4","5","0","-2","0","1","-1","0","1","0","4","4","5","4","3","4","4","4","3","4","5","6","4","6","4","5","5","6","5","5","6","5","4","5","5","5","1","5","6","1","5","5","5","4","3","3","5","5","6","4","6","5","3","2","2","6","5","6","6","6","7","5","7","6","3","6","2","6","4","5","796472353797316610","lj","167","Female","[""坏她"",""好她"",""坏我"",""好我""]","[""弱她"",""强她"",""弱我"",""强我""]","","","","","","","","yes","","","","","","","","","SRET","EW_formal","","key","j","16.66629213483133","640","356","朋友","努力","Positive","ability","","","","","","","","","","",""
"378","","j","psychophysics","49","233444","0.0-7.0-3.0-0.35","5","5","6","2","1","4","2","4","4","4","5","0","-2","0","1","-1","0","1","0","4","4","5","4","3","4","4","4","3","4","5","6","4","6","4","5","5","6","5","5","6","5","4","5","5","5","1","5","6","1","5","5","5","4","3","3","5","5","6","4","6","5","3","2","2","6","5","6","6","6","7","5","7","6","3","6","2","6","4","5","796472353797316610","lj","167","Female","[""坏她"",""好她"",""坏我"",""好我""]","[""弱她"",""强她"",""弱我"",""强我""]","","","","","","","","yes","","","","","","","","","SRET","EW_formal","","key","j","16.66707317073185","640","356","朋友","果决","Positive","ability","","","","","","","","","","",""
"396","","j","psychophysics","50","234842","0.0-7.0-3.0-0.36","5","5","6","2","1","4","2","4","4","4","5","0","-2","0","1","-1","0","1","0","4","4","5","4","3","4","4","4","3","4","5","6","4","6","4","5","5","6","5","5","6","5","4","5","5","5","1","5","6","1","5","5","5","4","3","3","5","5","6","4","6","5","3","2","2","6","5","6","6","6","7","5","7","6","3","6","2","6","4","5","796472353797316610","lj","167","Female","[""坏她"",""好她"",""坏我"",""好我""]","[""弱她"",""强她"",""弱我"",""强我""]","","","","","","","","yes","","","","","","","","","SRET","EW_formal","","key","j","16.665853658536303","640","356","朋友","依靠","Negative","ability","","","","","","","","","","",""
"451","","f","psychophysics","51","236294","0.0-7.0-3.0-0.37","5","5","6","2","1","4","2","4","4","4","5","0","-2","0","1","-1","0","1","0","4","4","5","4","3","4","4","4","3","4","5","6","4","6","4","5","5","6","5","5","6","5","4","5","5","5","1","5","6","1","5","5","5","4","3","3","5","5","6","4","6","5","3","2","2","6","5","6","6","6","7","5","7","6","3","6","2","6","4","5","796472353797316610","lj","167","Female","[""坏她"",""好她"",""坏我"",""好我""]","[""弱她"",""强她"",""弱我"",""强我""]","","","","","","","","no","","","","","","","","","SRET","EW_formal","","key","f","16.670114942528937","640","356","自己","浅薄","Negative","ability","","","","","","","","","","",""
"558","","f","psychophysics","52","237853","0.0-7.0-3.0-0.38","5","5","6","2","1","4","2","4","4","4","5","0","-2","0","1","-1","0","1","0","4","4","5","4","3","4","4","4","3","4","5","6","4","6","4","5","5","6","5","5","6","5","4","5","5","5","1","5","6","1","5","5","5","4","3","3","5","5","6","4","6","5","3","2","2","6","5","6","6","6","7","5","7","6","3","6","2","6","4","5","796472353797316610","lj","167","Female","[""坏她"",""好她"",""坏我"",""好我""]","[""弱她"",""强她"",""弱我"",""强我""]","","","","","","","","no","","","","","","","","","SRET","EW_formal","","key","f","16.665217391304157","640","356","朋友","邪恶","Negative","morality","","","","","","","","","","",""
"710","","j","psychophysics","53","239569","0.0-7.0-3.0-0.39","5","5","6","2","1","4","2","4","4","4","5","0","-2","0","1","-1","0","1","0","4","4","5","4","3","4","4","4","3","4","5","6","4","6","4","5","5","6","5","5","6","5","4","5","5","5","1","5","6","1","5","5","5","4","3","3","5","5","6","4","6","5","3","2","2","6","5","6","6","6","7","5","7","6","3","6","2","6","4","5","796472353797316610","lj","167","Female","[""坏她"",""好她"",""坏我"",""好我""]","[""弱她"",""强她"",""弱我"",""强我""]","","","","","","","","yes","","","","","","","","","SRET","EW_formal","","key","j","16.666666666666668","640","356","自己","利落","Positive","ability","","","","","","","","","","",""
"656","","f","psychophysics","54","241226","0.0-7.0-3.0-0.40","5","5","6","2","1","4","2","4","4","4","5","0","-2","0","1","-1","0","1","0","4","4","5","4","3","4","4","4","3","4","5","6","4","6","4","5","5","6","5","5","6","5","4","5","5","5","1","5","6","1","5","5","5","4","3","3","5","5","6","4","6","5","3","2","2","6","5","6","6","6","7","5","7","6","3","6","2","6","4","5","796472353797316610","lj","167","Female","[""坏她"",""好她"",""坏我"",""好我""]","[""弱她"",""强她"",""弱我"",""强我""]","","","","","","","","no","","","","","","","","","SRET","EW_formal","","key","f","16.66565656565651","640","356","朋友","盲目","Negative","ability","","","","","","","","","","",""
"623","","j","psychophysics","55","242850","0.0-7.0-3.0-0.41","5","5","6","2","1","4","2","4","4","4","5","0","-2","0","1","-1","0","1","0","4","4","5","4","3","4","4","4","3","4","5","6","4","6","4","5","5","6","5","5","6","5","4","5","5","5","1","5","6","1","5","5","5","4","3","3","5","5","6","4","6","5","3","2","2","6","5","6","6","6","7","5","7","6","3","6","2","6","4","5","796472353797316610","lj","167","Female","[""坏她"",""好她"",""坏我"",""好我""]","[""弱她"",""强她"",""弱我"",""强我""]","","","","","","","","yes","","","","","","","","","SRET","EW_formal","","key","j","16.665624999999938","640","356","朋友","顶事","Positive","ability","","","","","","","","","","",""
"493","","f","psychophysics","56","244344","0.0-7.0-3.0-0.42","5","5","6","2","1","4","2","4","4","4","5","0","-2","0","1","-1","0","1","0","4","4","5","4","3","4","4","4","3","4","5","6","4","6","4","5","5","6","5","5","6","5","4","5","5","5","1","5","6","1","5","5","5","4","3","3","5","5","6","4","6","5","3","2","2","6","5","6","6","6","7","5","7","6","3","6","2","6","4","5","796472353797316610","lj","167","Female","[""坏她"",""好她"",""坏我"",""好我""]","[""弱她"",""强她"",""弱我"",""强我""]","","","","","","","","no","","","","","","","","","SRET","EW_formal","","key","f","16.668539325842698","640","356","自己","仁爱","Positive","morality","","","","","","","","","","",""
"725","","j","psychophysics","57","246071","0.0-7.0-3.0-0.43","5","5","6","2","1","4","2","4","4","4","5","0","-2","0","1","-1","0","1","0","4","4","5","4","3","4","4","4","3","4","5","6","4","6","4","5","5","6","5","5","6","5","4","5","5","5","1","5","6","1","5","5","5","4","3","3","5","5","6","4","6","5","3","2","2","6","5","6","6","6","7","5","7","6","3","6","2","6","4","5","796472353797316610","lj","167","Female","[""坏她"",""好她"",""坏我"",""好我""]","[""弱她"",""强她"",""弱我"",""强我""]","","","","","","","","yes","","","","","","","","","SRET","EW_formal","","key","j","16.665686274509746","640","356","自己","远见","Positive","ability","","","","","","","","","","",""
"584","","f","psychophysics","58","247657","0.0-7.0-3.0-0.44","5","5","6","2","1","4","2","4","4","4","5","0","-2","0","1","-1","0","1","0","4","4","5","4","3","4","4","4","3","4","5","6","4","6","4","5","5","6","5","5","6","5","4","5","5","5","1","5","6","1","5","5","5","4","3","3","5","5","6","4","6","5","3","2","2","6","5","6","6","6","7","5","7","6","3","6","2","6","4","5","796472353797316610","lj","167","Female","[""坏她"",""好她"",""坏我"",""好我""]","[""弱她"",""强她"",""弱我"",""强我""]","","","","","","","","no","","","","","","","","","SRET","EW_formal","","key","f","16.66702127659556","640","356","自己","奸险","Negative","morality","","","","","","","","","","",""
"599","","f","psychophysics","59","249257","0.0-7.0-3.0-0.45","5","5","6","2","1","4","2","4","4","4","5","0","-2","0","1","-1","0","1","0","4","4","5","4","3","4","4","4","3","4","5","6","4","6","4","5","5","6","5","5","6","5","4","5","5","5","1","5","6","1","5","5","5","4","3","3","5","5","6","4","6","5","3","2","2","6","5","6","6","6","7","5","7","6","3","6","2","6","4","5","796472353797316610","lj","167","Female","[""坏她"",""好她"",""坏我"",""好我""]","[""弱她"",""强她"",""弱我"",""强我""]","","","","","","","","no","","","","","","","","","SRET","EW_formal","","key","f","16.66736842105257","640","356","自己","小人","Negative","morality","","","","","","","","","","",""
"580","","f","psychophysics","60","250838","0.0-7.0-3.0-0.46","5","5","6","2","1","4","2","4","4","4","5","0","-2","0","1","-1","0","1","0","4","4","5","4","3","4","4","4","3","4","5","6","4","6","4","5","5","6","5","5","6","5","4","5","5","5","1","5","6","1","5","5","5","4","3","3","5","5","6","4","6","5","3","2","2","6","5","6","6","6","7","5","7","6","3","6","2","6","4","5","796472353797316610","lj","167","Female","[""坏她"",""好她"",""坏我"",""好我""]","[""弱她"",""强她"",""弱我"",""强我""]","","","","","","","","no","","","","","","","","","SRET","EW_formal","","key","f","16.667021276595868","640","356","朋友","差生","Negative","ability","","","","","","","","","","",""
"508","","j","psychophysics","61","252348","0.0-7.0-3.0-0.47","5","5","6","2","1","4","2","4","4","4","5","0","-2","0","1","-1","0","1","0","4","4","5","4","3","4","4","4","3","4","5","6","4","6","4","5","5","6","5","5","6","5","4","5","5","5","1","5","6","1","5","5","5","4","3","3","5","5","6","4","6","5","3","2","2","6","5","6","6","6","7","5","7","6","3","6","2","6","4","5","796472353797316610","lj","167","Female","[""坏她"",""好她"",""坏我"",""好我""]","[""弱她"",""强她"",""弱我"",""强我""]","","","","","","","","yes","","","","","","","","","SRET","EW_formal","","key","j","16.671111111111045","640","356","朋友","逞能","Negative","ability","","","","","","","","","","",""
"650","","f","psychophysics","62","253999","0.0-7.0-3.0-0.48","5","5","6","2","1","4","2","4","4","4","5","0","-2","0","1","-1","0","1","0","4","4","5","4","3","4","4","4","3","4","5","6","4","6","4","5","5","6","5","5","6","5","4","5","5","5","1","5","6","1","5","5","5","4","3","3","5","5","6","4","6","5","3","2","2","6","5","6","6","6","7","5","7","6","3","6","2","6","4","5","796472353797316610","lj","167","Female","[""坏她"",""好她"",""坏我"",""好我""]","[""弱她"",""强她"",""弱我"",""强我""]","","","","","","","","no","","","","","","","","","SRET","EW_formal","","key","f","16.666326530612125","640","356","朋友","昏庸","Negative","ability","","","","","","","","","","",""
"499","","j","psychophysics","63","255499","0.0-7.0-3.0-0.49","5","5","6","2","1","4","2","4","4","4","5","0","-2","0","1","-1","0","1","0","4","4","5","4","3","4","4","4","3","4","5","6","4","6","4","5","5","6","5","5","6","5","4","5","5","5","1","5","6","1","5","5","5","4","3","3","5","5","6","4","6","5","3","2","2","6","5","6","6","6","7","5","7","6","3","6","2","6","4","5","796472353797316610","lj","167","Female","[""坏她"",""好她"",""坏我"",""好我""]","[""弱她"",""强她"",""弱我"",""强我""]","","","","","","","","yes","","","","","","","","","SRET","EW_formal","","key","j","16.66629213483133","640","356","自己","勤恳","Positive","morality","","","","","","","","","","",""
"573","","j","psychophysics","64","257074","0.0-7.0-3.0-0.50","5","5","6","2","1","4","2","4","4","4","5","0","-2","0","1","-1","0","1","0","4","4","5","4","3","4","4","4","3","4","5","6","4","6","4","5","5","6","5","5","6","5","4","5","5","5","1","5","6","1","5","5","5","4","3","3","5","5","6","4","6","5","3","2","2","6","5","6","6","6","7","5","7","6","3","6","2","6","4","5","796472353797316610","lj","167","Female","[""坏她"",""好她"",""坏我"",""好我""]","[""弱她"",""强她"",""弱我"",""强我""]","","","","","","","","yes","","","","","","","","","SRET","EW_formal","","key","j","16.666666666666668","640","356","朋友","仗义","Positive","morality","","","","","","","","","","",""
"536","","f","psychophysics","65","258612","0.0-7.0-3.0-0.51","5","5","6","2","1","4","2","4","4","4","5","0","-2","0","1","-1","0","1","0","4","4","5","4","3","4","4","4","3","4","5","6","4","6","4","5","5","6","5","5","6","5","4","5","5","5","1","5","6","1","5","5","5","4","3","3","5","5","6","4","6","5","3","2","2","6","5","6","6","6","7","5","7","6","3","6","2","6","4","5","796472353797316610","lj","167","Female","[""坏她"",""好她"",""坏我"",""好我""]","[""弱她"",""强她"",""弱我"",""强我""]","","","","","","","","no","","","","","","","","","SRET","EW_formal","","key","f","16.66956521739137","640","356","朋友","爱国","Positive","morality","","","","","","","","","","",""
"616","","f","psychophysics","66","260230","0.0-7.0-3.0-0.52","5","5","6","2","1","4","2","4","4","4","5","0","-2","0","1","-1","0","1","0","4","4","5","4","3","4","4","4","3","4","5","6","4","6","4","5","5","6","5","5","6","5","4","5","5","5","1","5","6","1","5","5","5","4","3","3","5","5","6","4","6","5","3","2","2","6","5","6","6","6","7","5","7","6","3","6","2","6","4","5","796472353797316610","lj","167","Female","[""坏她"",""好她"",""坏我"",""好我""]","[""弱她"",""强她"",""弱我"",""强我""]","","","","","","","","no","","","","","","","","","SRET","EW_formal","","key","f","16.670833333333274","640","356","自己","草率","Negative","ability","","","","","","","","","","",""
"609","","f","psychophysics","67","261839","0.0-7.0-3.0-0.53","5","5","6","2","1","4","2","4","4","4","5","0","-2","0","1","-1","0","1","0","4","4","5","4","3","4","4","4","3","4","5","6","4","6","4","5","5","6","5","5","6","5","4","5","5","5","1","5","6","1","5","5","5","4","3","3","5","5","6","4","6","5","3","2","2","6","5","6","6","6","7","5","7","6","3","6","2","6","4","5","796472353797316610","lj","167","Female","[""坏她"",""好她"",""坏我"",""好我""]","[""弱她"",""强她"",""弱我"",""强我""]","","","","","","","","no","","","","","","","","","SRET","EW_formal","","key","f","16.66631578947356","640","356","朋友","无耻","Negative","morality","","","","","","","","","","",""
"585","","f","psychophysics","68","263425","0.0-7.0-3.0-0.54","5","5","6","2","1","4","2","4","4","4","5","0","-2","0","1","-1","0","1","0","4","4","5","4","3","4","4","4","3","4","5","6","4","6","4","5","5","6","5","5","6","5","4","5","5","5","1","5","6","1","5","5","5","4","3","3","5","5","6","4","6","5","3","2","2","6","5","6","6","6","7","5","7","6","3","6","2","6","4","5","796472353797316610","lj","167","Female","[""坏她"",""好她"",""坏我"",""好我""]","[""弱她"",""强她"",""弱我"",""强我""]","","","","","","","","no","","","","","","","","","SRET","EW_formal","","key","f","16.668085106382854","640","356","朋友","龌龊","Negative","morality","","","","","","","","","","",""
"793","","j","psychophysics","69","265221","0.0-7.0-3.0-0.55","5","5","6","2","1","4","2","4","4","4","5","0","-2","0","1","-1","0","1","0","4","4","5","4","3","4","4","4","3","4","5","6","4","6","4","5","5","6","5","5","6","5","4","5","5","5","1","5","6","1","5","5","5","4","3","3","5","5","6","4","6","5","3","2","2","6","5","6","6","6","7","5","7","6","3","6","2","6","4","5","796472353797316610","lj","167","Female","[""坏她"",""好她"",""坏我"",""好我""]","[""弱她"",""强她"",""弱我"",""强我""]","","","","","","","","yes","","","","","","","","","SRET","EW_formal","","key","j","16.66822429906542","640","356","朋友","学霸","Positive","ability","","","","","","","","","","",""
"612","","j","psychophysics","70","266834","0.0-7.0-3.0-0.56","5","5","6","2","1","4","2","4","4","4","5","0","-2","0","1","-1","0","1","0","4","4","5","4","3","4","4","4","3","4","5","6","4","6","4","5","5","6","5","5","6","5","4","5","5","5","1","5","6","1","5","5","5","4","3","3","5","5","6","4","6","5","3","2","2","6","5","6","6","6","7","5","7","6","3","6","2","6","4","5","796472353797316610","lj","167","Female","[""坏她"",""好她"",""坏我"",""好我""]","[""弱她"",""强她"",""弱我"",""强我""]","","","","","","","","yes","","","","","","","","","SRET","EW_formal","","key","j","16.667708333333696","640","356","自己","骁勇","Positive","ability","","","","","","","","","","",""
"558","","f","psychophysics","71","268393","0.0-7.0-3.0-0.57","5","5","6","2","1","4","2","4","4","4","5","0","-2","0","1","-1","0","1","0","4","4","5","4","3","4","4","4","3","4","5","6","4","6","4","5","5","6","5","5","6","5","4","5","5","5","1","5","6","1","5","5","5","4","3","3","5","5","6","4","6","5","3","2","2","6","5","6","6","6","7","5","7","6","3","6","2","6","4","5","796472353797316610","lj","167","Female","[""坏她"",""好她"",""坏我"",""好我""]","[""弱她"",""强她"",""弱我"",""强我""]","","","","","","","","no","","","","","","","","","SRET","EW_formal","","key","f","16.66344086021518","640","356","自己","逞强","Negative","ability","","","","","","","","","","",""
"636","","j","psychophysics","72","270030","0.0-7.0-3.0-0.58","5","5","6","2","1","4","2","4","4","4","5","0","-2","0","1","-1","0","1","0","4","4","5","4","3","4","4","4","3","4","5","6","4","6","4","5","5","6","5","5","6","5","4","5","5","5","1","5","6","1","5","5","5","4","3","3","5","5","6","4","6","5","3","2","2","6","5","6","6","6","7","5","7","6","3","6","2","6","4","5","796472353797316610","lj","167","Female","[""坏她"",""好她"",""坏我"",""好我""]","[""弱她"",""强她"",""弱我"",""强我""]","","","","","","","","yes","","","","","","","","","SRET","EW_formal","","key","j","16.668041237113883","640","356","朋友","刻苦","Positive","ability","","","","","","","","","","",""
"535","","j","psychophysics","73","271566","0.0-7.0-3.0-0.59","5","5","6","2","1","4","2","4","4","4","5","0","-2","0","1","-1","0","1","0","4","4","5","4","3","4","4","4","3","4","5","6","4","6","4","5","5","6","5","5","6","5","4","5","5","5","1","5","6","1","5","5","5","4","3","3","5","5","6","4","6","5","3","2","2","6","5","6","6","6","7","5","7","6","3","6","2","6","4","5","796472353797316610","lj","167","Female","[""坏她"",""好她"",""坏我"",""好我""]","[""弱她"",""强她"",""弱我"",""强我""]","","","","","","","","yes","","","","","","","","","SRET","EW_formal","","key","j","16.664835164835164","640","356","自己","迂拙","Negative","ability","","","","","","","","","","",""
"461","","j","psychophysics","74","273029","0.0-7.0-3.0-0.60","5","5","6","2","1","4","2","4","4","4","5","0","-2","0","1","-1","0","1","0","4","4","5","4","3","4","4","4","3","4","5","6","4","6","4","5","5","6","5","5","6","5","4","5","5","5","1","5","6","1","5","5","5","4","3","3","5","5","6","4","6","5","3","2","2","6","5","6","6","6","7","5","7","6","3","6","2","6","4","5","796472353797316610","lj","167","Female","[""坏她"",""好她"",""坏我"",""好我""]","[""弱她"",""强她"",""弱我"",""强我""]","","","","","","","","yes","","","","","","","","","SRET","EW_formal","","key","j","16.666666666666668","640","356","朋友","礼貌","Positive","morality","","","","","","","","","","",""
"763","","f","psychophysics","75","274793","0.0-7.0-3.0-0.61","5","5","6","2","1","4","2","4","4","4","5","0","-2","0","1","-1","0","1","0","4","4","5","4","3","4","4","4","3","4","5","6","4","6","4","5","5","6","5","5","6","5","4","5","5","5","1","5","6","1","5","5","5","4","3","3","5","5","6","4","6","5","3","2","2","6","5","6","6","6","7","5","7","6","3","6","2","6","4","5","796472353797316610","lj","167","Female","[""坏她"",""好她"",""坏我"",""好我""]","[""弱她"",""强她"",""弱我"",""强我""]","","","","","","","","no","","","","","","","","","SRET","EW_formal","","key","f","16.666666666666668","640","356","自己","狡狯","Negative","morality","","","","","","","","","","",""
"499","","j","psychophysics","76","276293","0.0-7.0-3.0-0.62","5","5","6","2","1","4","2","4","4","4","5","0","-2","0","1","-1","0","1","0","4","4","5","4","3","4","4","4","3","4","5","6","4","6","4","5","5","6","5","5","6","5","4","5","5","5","1","5","6","1","5","5","5","4","3","3","5","5","6","4","6","5","3","2","2","6","5","6","6","6","7","5","7","6","3","6","2","6","4","5","796472353797316610","lj","167","Female","[""坏她"",""好她"",""坏我"",""好我""]","[""弱她"",""强她"",""弱我"",""强我""]","","","","","","","","yes","","","","","","","","","SRET","EW_formal","","key","j","16.66629213483133","640","356","自己","虚伪","Negative","morality","","","","","","","","","","",""
"393","","j","psychophysics","77","277688","0.0-7.0-3.0-0.63","5","5","6","2","1","4","2","4","4","4","5","0","-2","0","1","-1","0","1","0","4","4","5","4","3","4","4","4","3","4","5","6","4","6","4","5","5","6","5","5","6","5","4","5","5","5","1","5","6","1","5","5","5","4","3","3","5","5","6","4","6","5","3","2","2","6","5","6","6","6","7","5","7","6","3","6","2","6","4","5","796472353797316610","lj","167","Female","[""坏她"",""好她"",""坏我"",""好我""]","[""弱她"",""强她"",""弱我"",""强我""]","","","","","","","","yes","","","","","","","","","SRET","EW_formal","","key","j","16.664634146341463","640","356","自己","能干","Positive","ability","","","","","","","","","","",""
"499","","j","psychophysics","78","279188","0.0-7.0-3.0-0.64","5","5","6","2","1","4","2","4","4","4","5","0","-2","0","1","-1","0","1","0","4","4","5","4","3","4","4","4","3","4","5","6","4","6","4","5","5","6","5","5","6","5","4","5","5","5","1","5","6","1","5","5","5","4","3","3","5","5","6","4","6","5","3","2","2","6","5","6","6","6","7","5","7","6","3","6","2","6","4","5","796472353797316610","lj","167","Female","[""坏她"",""好她"",""坏我"",""好我""]","[""弱她"",""强她"",""弱我"",""强我""]","","","","","","","","yes","","","","","","","","","SRET","EW_formal","","key","j","16.669662921348053","640","356","自己","善心","Positive","morality","","","","","","","","","","",""
"471","","j","psychophysics","79","280660","0.0-7.0-3.0-0.65","5","5","6","2","1","4","2","4","4","4","5","0","-2","0","1","-1","0","1","0","4","4","5","4","3","4","4","4","3","4","5","6","4","6","4","5","5","6","5","5","6","5","4","5","5","5","1","5","6","1","5","5","5","4","3","3","5","5","6","4","6","5","3","2","2","6","5","6","6","6","7","5","7","6","3","6","2","6","4","5","796472353797316610","lj","167","Female","[""坏她"",""好她"",""坏我"",""好我""]","[""弱她"",""强她"",""弱我"",""强我""]","","","","","","","","yes","","","","","","","","","SRET","EW_formal","","key","j","16.665909090909487","640","356","朋友","仁厚","Positive","morality","","","","","","","","","","",""
"537","","j","psychophysics","80","282199","0.0-7.0-3.0-0.66","5","5","6","2","1","4","2","4","4","4","5","0","-2","0","1","-1","0","1","0","4","4","5","4","3","4","4","4","3","4","5","6","4","6","4","5","5","6","5","5","6","5","4","5","5","5","1","5","6","1","5","5","5","4","3","3","5","5","6","4","6","5","3","2","2","6","5","6","6","6","7","5","7","6","3","6","2","6","4","5","796472353797316610","lj","167","Female","[""坏她"",""好她"",""坏我"",""好我""]","[""弱她"",""强她"",""弱我"",""强我""]","","","","","","","","yes","","","","","","","","","SRET","EW_formal","","key","j","16.662637362637234","640","356","自己","有力","Positive","ability","","","","","","","","","","",""
"529","","j","psychophysics","81","283729","0.0-7.0-3.0-0.67","5","5","6","2","1","4","2","4","4","4","5","0","-2","0","1","-1","0","1","0","4","4","5","4","3","4","4","4","3","4","5","6","4","6","4","5","5","6","5","5","6","5","4","5","5","5","1","5","6","1","5","5","5","4","3","3","5","5","6","4","6","5","3","2","2","6","5","6","6","6","7","5","7","6","3","6","2","6","4","5","796472353797316610","lj","167","Female","[""坏她"",""好她"",""坏我"",""好我""]","[""弱她"",""强她"",""弱我"",""强我""]","","","","","","","","yes","","","","","","","","","SRET","EW_formal","","key","j","16.667032967032455","640","356","自己","利己","Negative","morality","","","","","","","","","","",""
"726","","f","psychophysics","82","285457","0.0-7.0-3.0-0.68","5","5","6","2","1","4","2","4","4","4","5","0","-2","0","1","-1","0","1","0","4","4","5","4","3","4","4","4","3","4","5","6","4","6","4","5","5","6","5","5","6","5","4","5","5","5","1","5","6","1","5","5","5","4","3","3","5","5","6","4","6","5","3","2","2","6","5","6","6","6","7","5","7","6","3","6","2","6","4","5","796472353797316610","lj","167","Female","[""坏她"",""好她"",""坏我"",""好我""]","[""弱她"",""强她"",""弱我"",""强我""]","","","","","","","","no","","","","","","","","","SRET","EW_formal","","key","f","16.665686274510033","640","356","朋友","拖拉","Negative","ability","","","","","","","","","","",""
"452","","j","psychophysics","83","286909","0.0-7.0-3.0-0.69","5","5","6","2","1","4","2","4","4","4","5","0","-2","0","1","-1","0","1","0","4","4","5","4","3","4","4","4","3","4","5","6","4","6","4","5","5","6","5","5","6","5","4","5","5","5","1","5","6","1","5","5","5","4","3","3","5","5","6","4","6","5","3","2","2","6","5","6","6","6","7","5","7","6","3","6","2","6","4","5","796472353797316610","lj","167","Female","[""坏她"",""好她"",""坏我"",""好我""]","[""弱她"",""强她"",""弱我"",""强我""]","","","","","","","","yes","","","","","","","","","SRET","EW_formal","","key","j","16.666279069767306","640","356","自己","刚正","Positive","morality","","","","","","","","","","",""
"662","","f","psychophysics","84","288575","0.0-7.0-3.0-0.70","5","5","6","2","1","4","2","4","4","4","5","0","-2","0","1","-1","0","1","0","4","4","5","4","3","4","4","4","3","4","5","6","4","6","4","5","5","6","5","5","6","5","4","5","5","5","1","5","6","1","5","5","5","4","3","3","5","5","6","4","6","5","3","2","2","6","5","6","6","6","7","5","7","6","3","6","2","6","4","5","796472353797316610","lj","167","Female","[""坏她"",""好她"",""坏我"",""好我""]","[""弱她"",""强她"",""弱我"",""强我""]","","","","","","","","no","","","","","","","","","SRET","EW_formal","","key","f","16.66969696969685","640","356","自己","愚蠢","Negative","ability","","","","","","","","","","",""
"741","","f","psychophysics","85","290317","0.0-7.0-3.0-0.71","5","5","6","2","1","4","2","4","4","4","5","0","-2","0","1","-1","0","1","0","4","4","5","4","3","4","4","4","3","4","5","6","4","6","4","5","5","6","5","5","6","5","4","5","5","5","1","5","6","1","5","5","5","4","3","3","5","5","6","4","6","5","3","2","2","6","5","6","6","6","7","5","7","6","3","6","2","6","4","5","796472353797316610","lj","167","Female","[""坏她"",""好她"",""坏我"",""好我""]","[""弱她"",""强她"",""弱我"",""强我""]","","","","","","","","no","","","","","","","","","SRET","EW_formal","","key","f","16.66826923076923","640","356","自己","歹毒","Negative","morality","","","","","","","","","","",""
"513","","f","psychophysics","86","291831","0.0-7.0-3.0-0.72","5","5","6","2","1","4","2","4","4","4","5","0","-2","0","1","-1","0","1","0","4","4","5","4","3","4","4","4","3","4","5","6","4","6","4","5","5","6","5","5","6","5","4","5","5","5","1","5","6","1","5","5","5","4","3","3","5","5","6","4","6","5","3","2","2","6","5","6","6","6","7","5","7","6","3","6","2","6","4","5","796472353797316610","lj","167","Female","[""坏她"",""好她"",""坏我"",""好我""]","[""弱她"",""强她"",""弱我"",""强我""]","","","","","","","","no","","","","","","","","","SRET","EW_formal","","key","f","16.666666666666668","640","356","自己","窝囊","Negative","ability","","","","","","","","","","",""
"572","","j","psychophysics","87","293404","0.0-7.0-3.0-0.73","5","5","6","2","1","4","2","4","4","4","5","0","-2","0","1","-1","0","1","0","4","4","5","4","3","4","4","4","3","4","5","6","4","6","4","5","5","6","5","5","6","5","4","5","5","5","1","5","6","1","5","5","5","4","3","3","5","5","6","4","6","5","3","2","2","6","5","6","6","6","7","5","7","6","3","6","2","6","4","5","796472353797316610","lj","167","Female","[""坏她"",""好她"",""坏我"",""好我""]","[""弱她"",""强她"",""弱我"",""强我""]","","","","","","","","yes","","","","","","","","","SRET","EW_formal","","key","j","16.666666666666668","640","356","朋友","清廉","Positive","morality","","","","","","","","","","",""
"540","","f","psychophysics","88","294946","0.0-7.0-3.0-0.74","5","5","6","2","1","4","2","4","4","4","5","0","-2","0","1","-1","0","1","0","4","4","5","4","3","4","4","4","3","4","5","6","4","6","4","5","5","6","5","5","6","5","4","5","5","5","1","5","6","1","5","5","5","4","3","3","5","5","6","4","6","5","3","2","2","6","5","6","6","6","7","5","7","6","3","6","2","6","4","5","796472353797316610","lj","167","Female","[""坏她"",""好她"",""坏我"",""好我""]","[""弱她"",""强她"",""弱我"",""强我""]","","","","","","","","no","","","","","","","","","SRET","EW_formal","","key","f","16.667391304347447","640","356","自己","蛇蝎","Negative","morality","","","","","","","","","","",""
"549","","f","psychophysics","89","296496","0.0-7.0-3.0-0.75","5","5","6","2","1","4","2","4","4","4","5","0","-2","0","1","-1","0","1","0","4","4","5","4","3","4","4","4","3","4","5","6","4","6","4","5","5","6","5","5","6","5","4","5","5","5","1","5","6","1","5","5","5","4","3","3","5","5","6","4","6","5","3","2","2","6","5","6","6","6","7","5","7","6","3","6","2","6","4","5","796472353797316610","lj","167","Female","[""坏她"",""好她"",""坏我"",""好我""]","[""弱她"",""强她"",""弱我"",""强我""]","","","","","","","","no","","","","","","","","","SRET","EW_formal","","key","f","16.66739130434808","640","356","自己","厚道","Positive","morality","","","","","","","","","","",""
"497","","j","psychophysics","90","297995","0.0-7.0-3.0-0.76","5","5","6","2","1","4","2","4","4","4","5","0","-2","0","1","-1","0","1","0","4","4","5","4","3","4","4","4","3","4","5","6","4","6","4","5","5","6","5","5","6","5","4","5","5","5","1","5","6","1","5","5","5","4","3","3","5","5","6","4","6","5","3","2","2","6","5","6","6","6","7","5","7","6","3","6","2","6","4","5","796472353797316610","lj","167","Female","[""坏她"",""好她"",""坏我"",""好我""]","[""弱她"",""强她"",""弱我"",""强我""]","","","","","","","","yes","","","","","","","","","SRET","EW_formal","","key","j","16.665168539325972","640","356","朋友","忠义","Positive","morality","","","","","","","","","","",""
"640","","j","psychophysics","91","299637","0.0-7.0-3.0-0.77","5","5","6","2","1","4","2","4","4","4","5","0","-2","0","1","-1","0","1","0","4","4","5","4","3","4","4","4","3","4","5","6","4","6","4","5","5","6","5","5","6","5","4","5","5","5","1","5","6","1","5","5","5","4","3","3","5","5","6","4","6","5","3","2","2","6","5","6","6","6","7","5","7","6","3","6","2","6","4","5","796472353797316610","lj","167","Female","[""坏她"",""好她"",""坏我"",""好我""]","[""弱她"",""强她"",""弱我"",""强我""]","","","","","","","","yes","","","","","","","","","SRET","EW_formal","","key","j","16.66597938144306","640","356","朋友","上进","Positive","ability","","","","","","","","","","",""
"680","","f","psychophysics","92","301318","0.0-7.0-3.0-0.78","5","5","6","2","1","4","2","4","4","4","5","0","-2","0","1","-1","0","1","0","4","4","5","4","3","4","4","4","3","4","5","6","4","6","4","5","5","6","5","5","6","5","4","5","5","5","1","5","6","1","5","5","5","4","3","3","5","5","6","4","6","5","3","2","2","6","5","6","6","6","7","5","7","6","3","6","2","6","4","5","796472353797316610","lj","167","Female","[""坏她"",""好她"",""坏我"",""好我""]","[""弱她"",""强她"",""弱我"",""强我""]","","","","","","","","no","","","","","","","","","SRET","EW_formal","","key","f","16.667000000000115","640","356","自己","短视","Negative","ability","","","","","","","","","","",""
"875","","f","psychophysics","93","303195","0.0-7.0-3.0-0.79","5","5","6","2","1","4","2","4","4","4","5","0","-2","0","1","-1","0","1","0","4","4","5","4","3","4","4","4","3","4","5","6","4","6","4","5","5","6","5","5","6","5","4","5","5","5","1","5","6","1","5","5","5","4","3","3","5","5","6","4","6","5","3","2","2","6","5","6","6","6","7","5","7","6","3","6","2","6","4","5","796472353797316610","lj","167","Female","[""坏她"",""好她"",""坏我"",""好我""]","[""弱她"",""强她"",""弱我"",""强我""]","","","","","","","","no","","","","","","","","","SRET","EW_formal","","key","f","16.667857142857038","640","356","自己","不良","Negative","morality","","","","","","","","","","",""
"607","","f","psychophysics","94","304802","0.0-7.0-3.0-0.80","5","5","6","2","1","4","2","4","4","4","5","0","-2","0","1","-1","0","1","0","4","4","5","4","3","4","4","4","3","4","5","6","4","6","4","5","5","6","5","5","6","5","4","5","5","5","1","5","6","1","5","5","5","4","3","3","5","5","6","4","6","5","3","2","2","6","5","6","6","6","7","5","7","6","3","6","2","6","4","5","796472353797316610","lj","167","Female","[""坏她"",""好她"",""坏我"",""好我""]","[""弱她"",""强她"",""弱我"",""强我""]","","","","","","","","no","","","","","","","","","SRET","EW_formal","","key","f","16.66526315789486","640","356","朋友","短浅","Negative","ability","","","","","","","","","","",""
"567","","j","psychophysics","95","306371","0.0-7.0-3.0-0.81","5","5","6","2","1","4","2","4","4","4","5","0","-2","0","1","-1","0","1","0","4","4","5","4","3","4","4","4","3","4","5","6","4","6","4","5","5","6","5","5","6","5","4","5","5","5","1","5","6","1","5","5","5","4","3","3","5","5","6","4","6","5","3","2","2","6","5","6","6","6","7","5","7","6","3","6","2","6","4","5","796472353797316610","lj","167","Female","[""坏她"",""好她"",""坏我"",""好我""]","[""弱她"",""强她"",""弱我"",""强我""]","","","","","","","","yes","","","","","","","","","SRET","EW_formal","","key","j","16.665591397849088","640","356","自己","沉着","Positive","ability","","","","","","","","","","",""
"439","","j","psychophysics","96","307810","0.0-7.0-3.0-0.82","5","5","6","2","1","4","2","4","4","4","5","0","-2","0","1","-1","0","1","0","4","4","5","4","3","4","4","4","3","4","5","6","4","6","4","5","5","6","5","5","6","5","4","5","5","5","1","5","6","1","5","5","5","4","3","3","5","5","6","4","6","5","3","2","2","6","5","6","6","6","7","5","7","6","3","6","2","6","4","5","796472353797316610","lj","167","Female","[""坏她"",""好她"",""坏我"",""好我""]","[""弱她"",""强她"",""弱我"",""强我""]","","","","","","","","yes","","","","","","","","","SRET","EW_formal","","key","j","16.667441860465388","640","356","自己","不仁","Negative","morality","","","","","","","","","","",""
"569","","j","psychophysics","97","309380","0.0-7.0-3.0-0.83","5","5","6","2","1","4","2","4","4","4","5","0","-2","0","1","-1","0","1","0","4","4","5","4","3","4","4","4","3","4","5","6","4","6","4","5","5","6","5","5","6","5","4","5","5","5","1","5","6","1","5","5","5","4","3","3","5","5","6","4","6","5","3","2","2","6","5","6","6","6","7","5","7","6","3","6","2","6","4","5","796472353797316610","lj","167","Female","[""坏她"",""好她"",""坏我"",""好我""]","[""弱她"",""强她"",""弱我"",""强我""]","","","","","","","","yes","","","","","","","","","SRET","EW_formal","","key","j","16.66774193548362","640","356","朋友","坚持","Positive","ability","","","","","","","","","","",""
"637","","j","psychophysics","98","311018","0.0-7.0-3.0-0.84","5","5","6","2","1","4","2","4","4","4","5","0","-2","0","1","-1","0","1","0","4","4","5","4","3","4","4","4","3","4","5","6","4","6","4","5","5","6","5","5","6","5","4","5","5","5","1","5","6","1","5","5","5","4","3","3","5","5","6","4","6","5","3","2","2","6","5","6","6","6","7","5","7","6","3","6","2","6","4","5","796472353797316610","lj","167","Female","[""坏她"",""好她"",""坏我"",""好我""]","[""弱她"",""强她"",""弱我"",""强我""]","","","","","","","","yes","","","","","","","","","SRET","EW_formal","","key","j","16.66701030927847","640","356","朋友","素养","Positive","morality","","","","","","","","","","",""
"684","","j","psychophysics","99","312704","0.0-7.0-3.0-0.85","5","5","6","2","1","4","2","4","4","4","5","0","-2","0","1","-1","0","1","0","4","4","5","4","3","4","4","4","3","4","5","6","4","6","4","5","5","6","5","5","6","5","4","5","5","5","1","5","6","1","5","5","5","4","3","3","5","5","6","4","6","5","3","2","2","6","5","6","6","6","7","5","7","6","3","6","2","6","4","5","796472353797316610","lj","167","Female","[""坏她"",""好她"",""坏我"",""好我""]","[""弱她"",""强她"",""弱我"",""强我""]","","","","","","","","yes","","","","","","","","","SRET","EW_formal","","key","j","16.667000000000115","640","356","自己","缓慢","Negative","ability","","","","","","","","","","",""
"541","","f","psychophysics","100","314247","0.0-7.0-3.0-0.86","5","5","6","2","1","4","2","4","4","4","5","0","-2","0","1","-1","0","1","0","4","4","5","4","3","4","4","4","3","4","5","6","4","6","4","5","5","6","5","5","6","5","4","5","5","5","1","5","6","1","5","5","5","4","3","3","5","5","6","4","6","5","3","2","2","6","5","6","6","6","7","5","7","6","3","6","2","6","4","5","796472353797316610","lj","167","Female","[""坏她"",""好她"",""坏我"",""好我""]","[""弱她"",""强她"",""弱我"",""强我""]","","","","","","","","no","","","","","","","","","SRET","EW_formal","","key","f","16.66630434782596","640","356","朋友","低俗","Negative","morality","","","","","","","","","","",""
"579","","j","psychophysics","101","315827","0.0-7.0-3.0-0.87","5","5","6","2","1","4","2","4","4","4","5","0","-2","0","1","-1","0","1","0","4","4","5","4","3","4","4","4","3","4","5","6","4","6","4","5","5","6","5","5","6","5","4","5","5","5","1","5","6","1","5","5","5","4","3","3","5","5","6","4","6","5","3","2","2","6","5","6","6","6","7","5","7","6","3","6","2","6","4","5","796472353797316610","lj","167","Female","[""坏她"",""好她"",""坏我"",""好我""]","[""弱她"",""强她"",""弱我"",""强我""]","","","","","","","","yes","","","","","","","","","SRET","EW_formal","","key","j","16.664893617021278","640","356","自己","主见","Positive","ability","","","","","","","","","","",""
"4458","
    <p><div style='color:white;font-size:35px; line-height:20px;'>计算任务</div></p><br>
    <p><div style='color:red;font-size:25px; line-height:20px;'>接下来，您将看到一些四则运算题，<b>请从键盘选择 0-9 进行反应。</b></div></p>
    <p><div style='color:red;font-size:25px; line-height:20px;'>请尽可能快地进行计算，计算的速度和正确率将影响报酬的发放。</div></p>
    <p><div class='footer' style='color:white;font-size:25px; line-height:20px;'>如果对本实验还有不清楚之处，请立即向实验员咨询。</p><p style='color:white;font-size:25px; line-height:20px;'>如果您明白了规则：</p><p style='color:white;font-size:22px; line-height:20px;'>请按 继续 进入练习</p>
    </div>
    ","0","html-button-response","102","320286","0.0-7.0-4.0","5","5","6","2","1","4","2","4","4","4","5","0","-2","0","1","-1","0","1","0","4","4","5","4","3","4","4","4","3","4","5","6","4","6","4","5","5","6","5","5","6","5","4","5","5","5","1","5","6","1","5","5","5","4","3","3","5","5","6","4","6","5","3","2","2","6","5","6","6","6","7","5","7","6","3","6","2","6","4","5","796472353797316610","lj","167","Female","[""坏她"",""好她"",""坏我"",""好我""]","[""弱她"",""强她"",""弱我"",""强我""]","","","","","","","","","","","","","","","","","SRET_math","math_instructions","Tue Jan 16 2024 19:17:24 GMT+0800 (中国标准时间)","","","","","","","","","","","","","","","","","","","",""
"2283","","7","psychophysics","103","322572","0.0-7.0-5.0-0.0","5","5","6","2","1","4","2","4","4","4","5","0","-2","0","1","-1","0","1","0","4","4","5","4","3","4","4","4","3","4","5","6","4","6","4","5","5","6","5","5","6","5","4","5","5","5","1","5","6","1","5","5","5","4","3","3","5","5","6","4","6","5","3","2","2","6","5","6","6","6","7","5","7","6","3","6","2","6","4","5","796472353797316610","lj","167","Female","[""坏她"",""好她"",""坏我"",""好我""]","[""弱她"",""强她"",""弱我"",""强我""]","","","","","","","","7","","","","","","","","","SRET","SRET_math_calculate","","key","7","16.664963503649464","640","356","","","","","49/7 = ?","7","1","","","","","","","",""
"2383","","8","psychophysics","104","324957","0.0-7.0-5.0-0.1","5","5","6","2","1","4","2","4","4","4","5","0","-2","0","1","-1","0","1","0","4","4","5","4","3","4","4","4","3","4","5","6","4","6","4","5","5","6","5","5","6","5","4","5","5","5","1","5","6","1","5","5","5","4","3","3","5","5","6","4","6","5","3","2","2","6","5","6","6","6","7","5","7","6","3","6","2","6","4","5","796472353797316610","lj","167","Female","[""坏她"",""好她"",""坏我"",""好我""]","[""弱她"",""强她"",""弱我"",""强我""]","","","","","","","","8","","","","","","","","","SRET","SRET_math_calculate","","key","8","16.666901408450787","640","356","","","","","72/9= ?","8","1","","","","","","","",""
"2104","","6","psychophysics","105","327062","0.0-7.0-5.0-0.2","5","5","6","2","1","4","2","4","4","4","5","0","-2","0","1","-1","0","1","0","4","4","5","4","3","4","4","4","3","4","5","6","4","6","4","5","5","6","5","5","6","5","4","5","5","5","1","5","6","1","5","5","5","4","3","3","5","5","6","4","6","5","3","2","2","6","5","6","6","6","7","5","7","6","3","6","2","6","4","5","796472353797316610","lj","167","Female","[""坏她"",""好她"",""坏我"",""好我""]","[""弱她"",""强她"",""弱我"",""强我""]","","","","","","","","6","","","","","","","","","SRET","SRET_math_calculate","","key","6","16.667460317460595","640","356","","","","","2+4= ?","6","1","","","","","","","",""
"2965","","0","psychophysics","106","330029","0.0-7.0-5.0-0.3","5","5","6","2","1","4","2","4","4","4","5","0","-2","0","1","-1","0","1","0","4","4","5","4","3","4","4","4","3","4","5","6","4","6","4","5","5","6","5","5","6","5","4","5","5","5","1","5","6","1","5","5","5","4","3","3","5","5","6","4","6","5","3","2","2","6","5","6","6","6","7","5","7","6","3","6","2","6","4","5","796472353797316610","lj","167","Female","[""坏她"",""好她"",""坏我"",""好我""]","[""弱她"",""强她"",""弱我"",""强我""]","","","","","","","","0","","","","","","","","","SRET","SRET_math_calculate","","key","0","16.664406779661213","640","356","","","","","6*0= ?","0","1","","","","","","","",""
"2042","","2","psychophysics","107","332072","0.0-7.0-5.0-0.4","5","5","6","2","1","4","2","4","4","4","5","0","-2","0","1","-1","0","1","0","4","4","5","4","3","4","4","4","3","4","5","6","4","6","4","5","5","6","5","5","6","5","4","5","5","5","1","5","6","1","5","5","5","4","3","3","5","5","6","4","6","5","3","2","2","6","5","6","6","6","7","5","7","6","3","6","2","6","4","5","796472353797316610","lj","167","Female","[""坏她"",""好她"",""坏我"",""好我""]","[""弱她"",""强她"",""弱我"",""强我""]","","","","","","","","2","","","","","","","","","SRET","SRET_math_calculate","","key","2","16.667768595041707","640","356","","","","","9-7= ?","2","1","","","","","","","",""
"2266","","4","psychophysics","108","334339","0.0-7.0-5.0-0.5","5","5","6","2","1","4","2","4","4","4","5","0","-2","0","1","-1","0","1","0","4","4","5","4","3","4","4","4","3","4","5","6","4","6","4","5","5","6","5","5","6","5","4","5","5","5","1","5","6","1","5","5","5","4","3","3","5","5","6","4","6","5","3","2","2","6","5","6","6","6","7","5","7","6","3","6","2","6","4","5","796472353797316610","lj","167","Female","[""坏她"",""好她"",""坏我"",""好我""]","[""弱她"",""强她"",""弱我"",""强我""]","","","","","","","","4","","","","","","","","","SRET","SRET_math_calculate","","key","4","16.667407407407236","640","356","","","","","9-5= ?","4","1","","","","","","","",""
"2175","","8","psychophysics","109","336516","0.0-7.0-5.0-0.6","5","5","6","2","1","4","2","4","4","4","5","0","-2","0","1","-1","0","1","0","4","4","5","4","3","4","4","4","3","4","5","6","4","6","4","5","5","6","5","5","6","5","4","5","5","5","1","5","6","1","5","5","5","4","3","3","5","5","6","4","6","5","3","2","2","6","5","6","6","6","7","5","7","6","3","6","2","6","4","5","796472353797316610","lj","167","Female","[""坏她"",""好她"",""坏我"",""好我""]","[""弱她"",""强她"",""弱我"",""强我""]","","","","","","","","8","","","","","","","","","SRET","SRET_math_calculate","","key","8","16.666923076923165","640","356","","","","","6+2= ?","8","1","","","","","","","",""
"1966","","3","psychophysics","110","338482","0.0-7.0-5.0-0.7","5","5","6","2","1","4","2","4","4","4","5","0","-2","0","1","-1","0","1","0","4","4","5","4","3","4","4","4","3","4","5","6","4","6","4","5","5","6","5","5","6","5","4","5","5","5","1","5","6","1","5","5","5","4","3","3","5","5","6","4","6","5","3","2","2","6","5","6","6","6","7","5","7","6","3","6","2","6","4","5","796472353797316610","lj","167","Female","[""坏她"",""好她"",""坏我"",""好我""]","[""弱她"",""强她"",""弱我"",""强我""]","","","","","","","","3","","","","","","","","","SRET","SRET_math_calculate","","key","3","16.666666666666668","640","356","","","","","6/2= ?","3","1","","","","","","","",""
"2095","","7","psychophysics","111","340578","0.0-7.0-5.0-0.8","5","5","6","2","1","4","2","4","4","4","5","0","-2","0","1","-1","0","1","0","4","4","5","4","3","4","4","4","3","4","5","6","4","6","4","5","5","6","5","5","6","5","4","5","5","5","1","5","6","1","5","5","5","4","3","3","5","5","6","4","6","5","3","2","2","6","5","6","6","6","7","5","7","6","3","6","2","6","4","5","796472353797316610","lj","167","Female","[""坏她"",""好她"",""坏我"",""好我""]","[""弱她"",""强她"",""弱我"",""强我""]","","","","","","","","7","","","","","","","","","SRET","SRET_math_calculate","","key","7","16.665600000000094","640","356","","","","","11-4= ?","7","1","","","","","","","",""
"2167","","9","psychophysics","112","342747","0.0-7.0-5.0-0.9","5","5","6","2","1","4","2","4","4","4","5","0","-2","0","1","-1","0","1","0","4","4","5","4","3","4","4","4","3","4","5","6","4","6","4","5","5","6","5","5","6","5","4","5","5","5","1","5","6","1","5","5","5","4","3","3","5","5","6","4","6","5","3","2","2","6","5","6","6","6","7","5","7","6","3","6","2","6","4","5","796472353797316610","lj","167","Female","[""坏她"",""好她"",""坏我"",""好我""]","[""弱她"",""强她"",""弱我"",""强我""]","","","","","","","","9","","","","","","","","","SRET","SRET_math_calculate","","key","9","16.666666666666668","640","356","","","","","1*9= ?","9","1","","","","","","","",""
"2189","","0","psychophysics","113","344937","0.0-7.0-5.0-0.10","5","5","6","2","1","4","2","4","4","4","5","0","-2","0","1","-1","0","1","0","4","4","5","4","3","4","4","4","3","4","5","6","4","6","4","5","5","6","5","5","6","5","4","5","5","5","1","5","6","1","5","5","5","4","3","3","5","5","6","4","6","5","3","2","2","6","5","6","6","6","7","5","7","6","3","6","2","6","4","5","796472353797316610","lj","167","Female","[""坏她"",""好她"",""坏我"",""好我""]","[""弱她"",""强她"",""弱我"",""强我""]","","","","","","","","0","","","","","","","","","SRET","SRET_math_calculate","","key","0","16.666923076923165","640","356","","","","","5*0= ?","0","1","","","","","","","",""
"2371","","6","psychophysics","114","347309","0.0-7.0-5.0-0.11","5","5","6","2","1","4","2","4","4","4","5","0","-2","0","1","-1","0","1","0","4","4","5","4","3","4","4","4","3","4","5","6","4","6","4","5","5","6","5","5","6","5","4","5","5","5","1","5","6","1","5","5","5","4","3","3","5","5","6","4","6","5","3","2","2","6","5","6","6","6","7","5","7","6","3","6","2","6","4","5","796472353797316610","lj","167","Female","[""坏她"",""好她"",""坏我"",""好我""]","[""弱她"",""强她"",""弱我"",""强我""]","","","","","","","","6","","","","","","","","","SRET","SRET_math_calculate","","key","6","16.667375886524656","640","356","","","","","16-11= ?","5","0","","","","","","","",""
"1897","","5","psychophysics","115","349208","0.0-7.0-5.0-0.12","5","5","6","2","1","4","2","4","4","4","5","0","-2","0","1","-1","0","1","0","4","4","5","4","3","4","4","4","3","4","5","6","4","6","4","5","5","6","5","5","6","5","4","5","5","5","1","5","6","1","5","5","5","4","3","3","5","5","6","4","6","5","3","2","2","6","5","6","6","6","7","5","7","6","3","6","2","6","4","5","796472353797316610","lj","167","Female","[""坏她"",""好她"",""坏我"",""好我""]","[""弱她"",""强她"",""弱我"",""强我""]","","","","","","","","5","","","","","","","","","SRET","SRET_math_calculate","","key","5","16.66725663716783","640","356","","","","","10-5= ?","5","1","","","","","","","",""
"2083","","9","psychophysics","116","351293","0.0-7.0-5.0-0.13","5","5","6","2","1","4","2","4","4","4","5","0","-2","0","1","-1","0","1","0","4","4","5","4","3","4","4","4","3","4","5","6","4","6","4","5","5","6","5","5","6","5","4","5","5","5","1","5","6","1","5","5","5","4","3","3","5","5","6","4","6","5","3","2","2","6","5","6","6","6","7","5","7","6","3","6","2","6","4","5","796472353797316610","lj","167","Female","[""坏她"",""好她"",""坏我"",""好我""]","[""弱她"",""强她"",""弱我"",""强我""]","","","","","","","","9","","","","","","","","","SRET","SRET_math_calculate","","key","9","16.666399999999907","640","356","","","","","4+5= ?","9","1","","","","","","","",""
"1961","","9","psychophysics","117","353256","0.0-7.0-5.0-0.14","5","5","6","2","1","4","2","4","4","4","5","0","-2","0","1","-1","0","1","0","4","4","5","4","3","4","4","4","3","4","5","6","4","6","4","5","5","6","5","5","6","5","4","5","5","5","1","5","6","1","5","5","5","4","3","3","5","5","6","4","6","5","3","2","2","6","5","6","6","6","7","5","7","6","3","6","2","6","4","5","796472353797316610","lj","167","Female","[""坏她"",""好她"",""坏我"",""好我""]","[""弱她"",""强她"",""弱我"",""强我""]","","","","","","","","9","","","","","","","","","SRET","SRET_math_calculate","","key","9","16.667241379310045","640","356","","","","","1+8= ?","9","1","","","","","","","",""
"2250","","2","psychophysics","118","355506","0.0-7.0-5.0-0.15","5","5","6","2","1","4","2","4","4","4","5","0","-2","0","1","-1","0","1","0","4","4","5","4","3","4","4","4","3","4","5","6","4","6","4","5","5","6","5","5","6","5","4","5","5","5","1","5","6","1","5","5","5","4","3","3","5","5","6","4","6","5","3","2","2","6","5","6","6","6","7","5","7","6","3","6","2","6","4","5","796472353797316610","lj","167","Female","[""坏她"",""好她"",""坏我"",""好我""]","[""弱她"",""强她"",""弱我"",""强我""]","","","","","","","","2","","","","","","","","","SRET","SRET_math_calculate","","key","2","16.667910447761194","640","356","","","","","29-27= ?","2","1","","","","","","","",""
"1871","","8","psychophysics","119","357378","0.0-7.0-5.0-0.16","5","5","6","2","1","4","2","4","4","4","5","0","-2","0","1","-1","0","1","0","4","4","5","4","3","4","4","4","3","4","5","6","4","6","4","5","5","6","5","5","6","5","4","5","5","5","1","5","6","1","5","5","5","4","3","3","5","5","6","4","6","5","3","2","2","6","5","6","6","6","7","5","7","6","3","6","2","6","4","5","796472353797316610","lj","167","Female","[""坏她"",""好她"",""坏我"",""好我""]","[""弱她"",""强她"",""弱我"",""强我""]","","","","","","","","8","","","","","","","","","SRET","SRET_math_calculate","","key","8","16.66696428571439","640","356","","","","","7+1= ?","8","1","","","","","","","",""
"2294","","2","psychophysics","120","359674","0.0-7.0-5.0-0.17","5","5","6","2","1","4","2","4","4","4","5","0","-2","0","1","-1","0","1","0","4","4","5","4","3","4","4","4","3","4","5","6","4","6","4","5","5","6","5","5","6","5","4","5","5","5","1","5","6","1","5","5","5","4","3","3","5","5","6","4","6","5","3","2","2","6","5","6","6","6","7","5","7","6","3","6","2","6","4","5","796472353797316610","lj","167","Female","[""坏她"",""好她"",""坏我"",""好我""]","[""弱她"",""强她"",""弱我"",""强我""]","","","","","","","","2","","","","","","","","","SRET","SRET_math_calculate","","key","2","16.667647058823444","640","356","","","","","18/9= ?","2","1","","","","","","","",""
"2178","","8","psychophysics","121","361855","0.0-7.0-5.0-0.18","5","5","6","2","1","4","2","4","4","4","5","0","-2","0","1","-1","0","1","0","4","4","5","4","3","4","4","4","3","4","5","6","4","6","4","5","5","6","5","5","6","5","4","5","5","5","1","5","6","1","5","5","5","4","3","3","5","5","6","4","6","5","3","2","2","6","5","6","6","6","7","5","7","6","3","6","2","6","4","5","796472353797316610","lj","167","Female","[""坏她"",""好她"",""坏我"",""好我""]","[""弱她"",""强她"",""弱我"",""强我""]","","","","","","","","8","","","","","","","","","SRET","SRET_math_calculate","","key","8","16.666923076923165","640","356","","","","","4*2= ?","8","1","","","","","","","",""
"2611","","5","psychophysics","122","364468","0.0-7.0-5.0-0.19","5","5","6","2","1","4","2","4","4","4","5","0","-2","0","1","-1","0","1","0","4","4","5","4","3","4","4","4","3","4","5","6","4","6","4","5","5","6","5","5","6","5","4","5","5","5","1","5","6","1","5","5","5","4","3","3","5","5","6","4","6","5","3","2","2","6","5","6","6","6","7","5","7","6","3","6","2","6","4","5","796472353797316610","lj","167","Female","[""坏她"",""好她"",""坏我"",""好我""]","[""弱她"",""强她"",""弱我"",""强我""]","","","","","","","","5","","","","","","","","","SRET","SRET_math_calculate","","key","5","16.667307692307542","640","356","","","","","14-9= ?","5","1","","","","","","","",""
"2100","","8","psychophysics","123","366569","0.0-7.0-5.0-0.20","5","5","6","2","1","4","2","4","4","4","5","0","-2","0","1","-1","0","1","0","4","4","5","4","3","4","4","4","3","4","5","6","4","6","4","5","5","6","5","5","6","5","4","5","5","5","1","5","6","1","5","5","5","4","3","3","5","5","6","4","6","5","3","2","2","6","5","6","6","6","7","5","7","6","3","6","2","6","4","5","796472353797316610","lj","167","Female","[""坏她"",""好她"",""坏我"",""好我""]","[""弱她"",""强她"",""弱我"",""强我""]","","","","","","","","8","","","","","","","","","SRET","SRET_math_calculate","","key","8","16.671200000000187","640","356","","","","","2+6= ?","8","1","","","","","","","",""
"2052","","6","psychophysics","124","368623","0.0-7.0-5.0-0.21","5","5","6","2","1","4","2","4","4","4","5","0","-2","0","1","-1","0","1","0","4","4","5","4","3","4","4","4","3","4","5","6","4","6","4","5","5","6","5","5","6","5","4","5","5","5","1","5","6","1","5","5","5","4","3","3","5","5","6","4","6","5","3","2","2","6","5","6","6","6","7","5","7","6","3","6","2","6","4","5","796472353797316610","lj","167","Female","[""坏她"",""好她"",""坏我"",""好我""]","[""弱她"",""强她"",""弱我"",""强我""]","","","","","","","","6","","","","","","","","","SRET","SRET_math_calculate","","key","6","16.66557377049142","640","356","","","","","4+2= ?","6","1","","","","","","","",""
"2027","","6","psychophysics","125","370651","0.0-7.0-5.0-0.22","5","5","6","2","1","4","2","4","4","4","5","0","-2","0","1","-1","0","1","0","4","4","5","4","3","4","4","4","3","4","5","6","4","6","4","5","5","6","5","5","6","5","4","5","5","5","1","5","6","1","5","5","5","4","3","3","5","5","6","4","6","5","3","2","2","6","5","6","6","6","7","5","7","6","3","6","2","6","4","5","796472353797316610","lj","167","Female","[""坏她"",""好她"",""坏我"",""好我""]","[""弱她"",""强她"",""弱我"",""强我""]","","","","","","","","6","","","","","","","","","SRET","SRET_math_calculate","","key","6","16.666942148760427","640","356","","","","","3*2= ?","6","1","","","","","","","",""
"1901","","9","psychophysics","126","372553","0.0-7.0-5.0-0.23","5","5","6","2","1","4","2","4","4","4","5","0","-2","0","1","-1","0","1","0","4","4","5","4","3","4","4","4","3","4","5","6","4","6","4","5","5","6","5","5","6","5","4","5","5","5","1","5","6","1","5","5","5","4","3","3","5","5","6","4","6","5","3","2","2","6","5","6","6","6","7","5","7","6","3","6","2","6","4","5","796472353797316610","lj","167","Female","[""坏她"",""好她"",""坏我"",""好我""]","[""弱她"",""强她"",""弱我"",""强我""]","","","","","","","","9","","","","","","","","","SRET","SRET_math_calculate","","key","9","16.668141592920353","640","356","","","","","7+2= ?","9","1","","","","","","","",""
"2037","","2","psychophysics","127","374592","0.0-7.0-5.0-0.24","5","5","6","2","1","4","2","4","4","4","5","0","-2","0","1","-1","0","1","0","4","4","5","4","3","4","4","4","3","4","5","6","4","6","4","5","5","6","5","5","6","5","4","5","5","5","1","5","6","1","5","5","5","4","3","3","5","5","6","4","6","5","3","2","2","6","5","6","6","6","7","5","7","6","3","6","2","6","4","5","796472353797316610","lj","167","Female","[""坏她"",""好她"",""坏我"",""好我""]","[""弱她"",""强她"",""弱我"",""强我""]","","","","","","","","2","","","","","","","","","SRET","SRET_math_calculate","","key","2","16.665289256198346","640","356","","","","","19-17= ?","2","1","","","","","","","",""
"3159","","2","psychophysics","128","377753","0.0-7.0-5.0-0.25","5","5","6","2","1","4","2","4","4","4","5","0","-2","0","1","-1","0","1","0","4","4","5","4","3","4","4","4","3","4","5","6","4","6","4","5","5","6","5","5","6","5","4","5","5","5","1","5","6","1","5","5","5","4","3","3","5","5","6","4","6","5","3","2","2","6","5","6","6","6","7","5","7","6","3","6","2","6","4","5","796472353797316610","lj","167","Female","[""坏她"",""好她"",""坏我"",""好我""]","[""弱她"",""强她"",""弱我"",""强我""]","","","","","","","","2","","","","","","","","","SRET","SRET_math_calculate","","key","2","16.66931216931217","640","356","","","","","12/6= ?","2","1","","","","","","","",""
"2510","","5","psychophysics","129","380264","0.0-7.0-5.0-0.26","5","5","6","2","1","4","2","4","4","4","5","0","-2","0","1","-1","0","1","0","4","4","5","4","3","4","4","4","3","4","5","6","4","6","4","5","5","6","5","5","6","5","4","5","5","5","1","5","6","1","5","5","5","4","3","3","5","5","6","4","6","5","3","2","2","6","5","6","6","6","7","5","7","6","3","6","2","6","4","5","796472353797316610","lj","167","Female","[""坏她"",""好她"",""坏我"",""好我""]","[""弱她"",""强她"",""弱我"",""强我""]","","","","","","","","5","","","","","","","","","SRET","SRET_math_calculate","","key","5","16.667333333333566","640","356","","","","","8-3= ? ","5","1","","","","","","","",""
"2014","","2","psychophysics","130","382280","0.0-7.0-5.0-0.27","5","5","6","2","1","4","2","4","4","4","5","0","-2","0","1","-1","0","1","0","4","4","5","4","3","4","4","4","3","4","5","6","4","6","4","5","5","6","5","5","6","5","4","5","5","5","1","5","6","1","5","5","5","4","3","3","5","5","6","4","6","5","3","2","2","6","5","6","6","6","7","5","7","6","3","6","2","6","4","5","796472353797316610","lj","167","Female","[""坏她"",""好她"",""坏我"",""好我""]","[""弱她"",""强她"",""弱我"",""强我""]","","","","","","","","2","","","","","","","","","SRET","SRET_math_calculate","","key","2","16.665833333333527","640","356","","","","","8/4= ?","2","1","","","","","","","",""
"1806","","3","psychophysics","131","384087","0.0-7.0-5.0-0.28","5","5","6","2","1","4","2","4","4","4","5","0","-2","0","1","-1","0","1","0","4","4","5","4","3","4","4","4","3","4","5","6","4","6","4","5","5","6","5","5","6","5","4","5","5","5","1","5","6","1","5","5","5","4","3","3","5","5","6","4","6","5","3","2","2","6","5","6","6","6","7","5","7","6","3","6","2","6","4","5","796472353797316610","lj","167","Female","[""坏她"",""好她"",""坏我"",""好我""]","[""弱她"",""强她"",""弱我"",""强我""]","","","","","","","","3","","","","","","","","","SRET","SRET_math_calculate","","key","3","16.666355140186806","640","356","","","","","1+2= ?","3","1","","","","","","","",""
"1961","","1","psychophysics","132","386049","0.0-7.0-5.0-0.29","5","5","6","2","1","4","2","4","4","4","5","0","-2","0","1","-1","0","1","0","4","4","5","4","3","4","4","4","3","4","5","6","4","6","4","5","5","6","5","5","6","5","4","5","5","5","1","5","6","1","5","5","5","4","3","3","5","5","6","4","6","5","3","2","2","6","5","6","6","6","7","5","7","6","3","6","2","6","4","5","796472353797316610","lj","167","Female","[""坏她"",""好她"",""坏我"",""好我""]","[""弱她"",""强她"",""弱我"",""强我""]","","","","","","","","1","","","","","","","","","SRET","SRET_math_calculate","","key","1","16.666666666666668","640","356","","","","","12/12= ?","1","1","","","","","","","",""
"2859","","9","psychophysics","133","388910","0.0-7.0-5.0-0.30","5","5","6","2","1","4","2","4","4","4","5","0","-2","0","1","-1","0","1","0","4","4","5","4","3","4","4","4","3","4","5","6","4","6","4","5","5","6","5","5","6","5","4","5","5","5","1","5","6","1","5","5","5","4","3","3","5","5","6","4","6","5","3","2","2","6","5","6","6","6","7","5","7","6","3","6","2","6","4","5","796472353797316610","lj","167","Female","[""坏她"",""好她"",""坏我"",""好我""]","[""弱她"",""强她"",""弱我"",""强我""]","","","","","","","","9","","","","","","","","","SRET","SRET_math_calculate","","key","9","16.66432748537998","640","356","","","","","32-23= ?","9","1","","","","","","","",""
"2245","","4","psychophysics","134","391156","0.0-7.0-5.0-0.31","5","5","6","2","1","4","2","4","4","4","5","0","-2","0","1","-1","0","1","0","4","4","5","4","3","4","4","4","3","4","5","6","4","6","4","5","5","6","5","5","6","5","4","5","5","5","1","5","6","1","5","5","5","4","3","3","5","5","6","4","6","5","3","2","2","6","5","6","6","6","7","5","7","6","3","6","2","6","4","5","796472353797316610","lj","167","Female","[""坏她"",""好她"",""坏我"",""好我""]","[""弱她"",""强她"",""弱我"",""强我""]","","","","","","","","4","","","","","","","","","SRET","SRET_math_calculate","","key","4","16.66691729323317","640","356","","","","","20/5= ?","4","1","","","","","","","",""
"1832","","9","psychophysics","135","392989","0.0-7.0-5.0-0.32","5","5","6","2","1","4","2","4","4","4","5","0","-2","0","1","-1","0","1","0","4","4","5","4","3","4","4","4","3","4","5","6","4","6","4","5","5","6","5","5","6","5","4","5","5","5","1","5","6","1","5","5","5","4","3","3","5","5","6","4","6","5","3","2","2","6","5","6","6","6","7","5","7","6","3","6","2","6","4","5","796472353797316610","lj","167","Female","[""坏她"",""好她"",""坏我"",""好我""]","[""弱她"",""强她"",""弱我"",""强我""]","","","","","","","","9","","","","","","","","","SRET","SRET_math_calculate","","key","9","16.66605504587188","640","356","","","","","2+7= ?","9","1","","","","","","","",""
"1815","","9","psychophysics","136","394805","0.0-7.0-5.0-0.33","5","5","6","2","1","4","2","4","4","4","5","0","-2","0","1","-1","0","1","0","4","4","5","4","3","4","4","4","3","4","5","6","4","6","4","5","5","6","5","5","6","5","4","5","5","5","1","5","6","1","5","5","5","4","3","3","5","5","6","4","6","5","3","2","2","6","5","6","6","6","7","5","7","6","3","6","2","6","4","5","796472353797316610","lj","167","Female","[""坏她"",""好她"",""坏我"",""好我""]","[""弱她"",""强她"",""弱我"",""强我""]","","","","","","","","9","","","","","","","","","SRET","SRET_math_calculate","","key","9","16.666666666666668","640","356","","","","","5+4= ?","9","1","","","","","","","",""
"2324","","7","psychophysics","137","397130","0.0-7.0-5.0-0.34","5","5","6","2","1","4","2","4","4","4","5","0","-2","0","1","-1","0","1","0","4","4","5","4","3","4","4","4","3","4","5","6","4","6","4","5","5","6","5","5","6","5","4","5","5","5","1","5","6","1","5","5","5","4","3","3","5","5","6","4","6","5","3","2","2","6","5","6","6","6","7","5","7","6","3","6","2","6","4","5","796472353797316610","lj","167","Female","[""坏她"",""好她"",""坏我"",""好我""]","[""弱她"",""强她"",""弱我"",""强我""]","","","","","","","","7","","","","","","","","","SRET","SRET_math_calculate","","key","7","16.666906474820227","640","356","","","","","12-5= ?","7","1","","","","","","","",""
"2162","","7","psychophysics","138","399293","0.0-7.0-5.0-0.35","5","5","6","2","1","4","2","4","4","4","5","0","-2","0","1","-1","0","1","0","4","4","5","4","3","4","4","4","3","4","5","6","4","6","4","5","5","6","5","5","6","5","4","5","5","5","1","5","6","1","5","5","5","4","3","3","5","5","6","4","6","5","3","2","2","6","5","6","6","6","7","5","7","6","3","6","2","6","4","5","796472353797316610","lj","167","Female","[""坏她"",""好她"",""坏我"",""好我""]","[""弱她"",""强她"",""弱我"",""强我""]","","","","","","","","7","","","","","","","","","SRET","SRET_math_calculate","","key","7","16.6658914728684","640","356","","","","","5+2= ?","7","1","","","","","","","",""
"2516","","8","psychophysics","139","401811","0.0-7.0-5.0-0.36","5","5","6","2","1","4","2","4","4","4","5","0","-2","0","1","-1","0","1","0","4","4","5","4","3","4","4","4","3","4","5","6","4","6","4","5","5","6","5","5","6","5","4","5","5","5","1","5","6","1","5","5","5","4","3","3","5","5","6","4","6","5","3","2","2","6","5","6","6","6","7","5","7","6","3","6","2","6","4","5","796472353797316610","lj","167","Female","[""坏她"",""好她"",""坏我"",""好我""]","[""弱她"",""强她"",""弱我"",""强我""]","","","","","","","","8","","","","","","","","","SRET","SRET_math_calculate","","key","8","16.665999999999766","640","356","","","","","50-42= ?","8","1","","","","","","","",""
"1795","","2","psychophysics","140","403607","0.0-7.0-5.0-0.37","5","5","6","2","1","4","2","4","4","4","5","0","-2","0","1","-1","0","1","0","4","4","5","4","3","4","4","4","3","4","5","6","4","6","4","5","5","6","5","5","6","5","4","5","5","5","1","5","6","1","5","5","5","4","3","3","5","5","6","4","6","5","3","2","2","6","5","6","6","6","7","5","7","6","3","6","2","6","4","5","796472353797316610","lj","167","Female","[""坏她"",""好她"",""坏我"",""好我""]","[""弱她"",""强她"",""弱我"",""强我""]","","","","","","","","2","","","","","","","","","SRET","SRET_math_calculate","","key","2","16.66509433962264","640","356","","","","","1+1= ?","2","1","","","","","","","",""
"1863","","3","psychophysics","141","405472","0.0-7.0-5.0-0.38","5","5","6","2","1","4","2","4","4","4","5","0","-2","0","1","-1","0","1","0","4","4","5","4","3","4","4","4","3","4","5","6","4","6","4","5","5","6","5","5","6","5","4","5","5","5","1","5","6","1","5","5","5","4","3","3","5","5","6","4","6","5","3","2","2","6","5","6","6","6","7","5","7","6","3","6","2","6","4","5","796472353797316610","lj","167","Female","[""坏她"",""好她"",""坏我"",""好我""]","[""弱她"",""强她"",""弱我"",""强我""]","","","","","","","","3","","","","","","","","","SRET","SRET_math_calculate","","key","3","16.666666666666668","640","356","","","","","2+2= ?","4","0","","","","","","","",""
