"rt","stimulus","response","trial_type","trial_index","time_elapsed","internal_node_id","swb_1","swb_2","swb_3","swb_4","swb_5","LOT_1","LOT_2","LOT_3","LOT_4","LOT_5","LOT_6","IPC_1","IPC_2","IPC_3","IPC_4","IPC_5","IPC_6","IPC_7","IPC_8","MorIden_1","MorIden_2","MorIden_3","MorIden_4","MorIden_5","MorIden_6","MorIden_7","MorIden_8","MorIden_9","MorIden_10","moralSeImag_1","moralSeImag_2","moralSeImag_3","moralSeImag_4","moralSeImag_5","moralSeImag_6","moralSeImag_7","moralSeImag_8","moralSeImag_9","sde_1","sde_2","sde_3","sde_4","sde_5","sde_6","sde_7","sde_8","sde_9","sde_10","trap2","sde_11","sde_12","sde_13","sde_14","sde_15","sde_16","sde_17","sde_18","sde_19","sde_20","IM_1","IM_2","IM_3","IM_4","IM_5","IM_6","IM_7","IM_8","IM_9","IM_10","IM_11","IM_12","IM_13","IM_14","IM_15","IM_16","IM_17","IM_18","IM_19","IM_20","subj_idx","friend_name","ParticipantID","Sex","Word","Word2","value","success","timeout","failed_images","failed_audio","failed_video","user_agent","responses","item_order","radio_event_ids","radio_event_times","key_event_times","mouse_event_times","straightlining","zigzagging","honeypot","view_history","response_type","key_press","avg_frame_time","center_x","center_y","correct_response","correct","identity","Image","word","condition","task_id","screen_id","time_stamp","person","valence","domain","math","status","duration","question_order","trap2_item"
"7060","
   <p><div style='color:white; font-size: 25px'>您好，欢迎参加本次实验。</div></p>
   <p><div style='color:white; font-size: 25px'>为充分保障您的权利，请确保您已经知晓并同意《参与实验同意书》以及《数据公开知情同意书》。</div></p>
   <p><div style='color:white; font-size: 25px'>如果您未见过上述内容，请咨询实验员。</div></p>
   <p style='color:white; font-size: 25px'>如果您选择继续实验，则表示您已经清楚两份知情同意书的内容并同意。</p>
   <p><div style = ""color: pink;font-size:30px;"">请确保您记得day0的实验编号，您将在本次实验输入该编号，若您忘记，请咨询实验员后作答。</div></p>
   <p><div style = ""color:lightblue;font-size:25px;"">请您尽可能认真地作答，我们将依据您在各问卷和按键任务中的作答质量发放报酬。</div></p>
   <p> <div style = ""color: green""><按空格键至下页></div> </p>
   "," ","html-keyboard-response","0","7061","0.0-0.0","4","5","5","5","4","4","3","4","4","4","4","1","-1","1","1","1","1","2","1","4","5","5","5","4","4","5","5","5","4","8","8","7","7","6","8","7","8","8","5","6","4","6","6","4","5","1","6","3","1","5","3","4","6","6","6","5","5","4","6","5","5","7","6","6","5","6","6","6","7","7","5","3","6","6","6","7","6","6","6","781518032190312450","贺","501","Female","[""坏她"",""坏我"",""好她"",""好我""]","[""弱她"",""弱我"",""强她"",""强我""]","","","","","","","","","","","","","","","","","","","","","","","","","","","","","","","","","","","","","","",""
"","","","call-function","1","7062","0.0-1.0-0.0","4","5","5","5","4","4","3","4","4","4","4","1","-1","1","1","1","1","2","1","4","5","5","5","4","4","5","5","5","4","8","8","7","7","6","8","7","8","8","5","6","4","6","6","4","5","1","6","3","1","5","3","4","6","6","6","5","5","4","6","5","5","7","6","6","5","6","6","6","7","7","5","3","6","6","6","7","6","6","6","781518032190312450","贺","501","Female","[""坏她"",""坏我"",""好她"",""好我""]","[""弱她"",""弱我"",""强她"",""强我""]","","","","","","","","","","","","","","","","","","","","","","","","","","","","","","","","","","","","","","",""
"26516","","[{""name"":""Sex"",""value"":""1""},{""name"":""friend_name"",""value"":""贺""},{""name"":""ParticipantID"",""value"":""501""}]","survey-html-form","2","33580","0.0-1.0-1.0","4","5","5","5","4","4","3","4","4","4","4","1","-1","1","1","1","1","2","1","4","5","5","5","4","4","5","5","5","4","8","8","7","7","6","8","7","8","8","5","6","4","6","6","4","5","1","6","3","1","5","3","4","6","6","6","5","5","4","6","5","5","7","6","6","5","6","6","6","7","7","5","3","6","6","6","7","6","6","6","781518032190312450","贺","501","Female","[""坏她"",""坏我"",""好她"",""好我""]","[""弱她"",""弱我"",""强她"",""强我""]","","","","","","","","","","","","","","","","","","","","","","","","","","","","","","","","","","","","","","",""
"","","","preload","3","33894","0.0-2.0","4","5","5","5","4","4","3","4","4","4","4","1","-1","1","1","1","1","2","1","4","5","5","5","4","4","5","5","5","4","8","8","7","7","6","8","7","8","8","5","6","4","6","6","4","5","1","6","3","1","5","3","4","6","6","6","5","5","4","6","5","5","7","6","6","5","6","6","6","7","7","5","3","6","6","6","7","6","6","6","781518032190312450","贺","501","Female","[""坏她"",""坏我"",""好她"",""好我""]","[""弱她"",""弱我"",""强她"",""强我""]","","true","false","[]","[]","[]","","","","","","","","","","","","","","","","","","","","","","","","","","","","","","","","",""
"","","","fullscreen","4","35889","0.0-3.0","4","5","5","5","4","4","3","4","4","4","4","1","-1","1","1","1","1","2","1","4","5","5","5","4","4","5","5","5","4","8","8","7","7","6","8","7","8","8","5","6","4","6","6","4","5","1","6","3","1","5","3","4","6","6","6","5","5","4","6","5","5","7","6","6","5","6","6","6","7","7","5","3","6","6","6","7","6","6","6","781518032190312450","贺","501","Female","[""坏她"",""坏我"",""好她"",""好我""]","[""弱她"",""弱我"",""强她"",""强我""]","","true","","","","","{}","","","","","","","","","","","","","","","","","","","","","","","","","","","","","","","",""
"8232.099999904633","","{""Q01"":""4"",""Q02"":""5"",""Q03"":""5"",""Q04"":""5"",""Q05"":""4""}","survey-template","5","44126","0.0-4.0","4","5","5","5","4","4","3","4","4","4","4","1","-1","1","1","1","1","2","1","4","5","5","5","4","4","5","5","5","4","8","8","7","7","6","8","7","8","8","5","6","4","6","6","4","5","1","6","3","1","5","3","4","6","6","6","5","5","4","6","5","5","7","6","6","5","6","6","6","7","7","5","3","6","6","6","7","6","6","6","781518032190312450","贺","501","Female","[""坏她"",""坏我"",""好她"",""好我""]","[""弱她"",""弱我"",""强她"",""强我""]","","","","","","","","{""Q01"":""4"",""Q02"":""5"",""Q03"":""5"",""Q04"":""5"",""Q05"":""4""}","[0,1,2,3,4]","[""Q01"",""Q02"",""Q03"",""Q04"",""Q05""]","[1955.7999997138977,2893.699999809265,3743.5,5205.699999809265,7353.299999713898]","[]","[1955.7999997138977,2893.699999809265,3743.5,5205.699999809265,6278.699999809265,7353.299999713898,8231.299999713898]","0.6","0.5","0","","","","","","","","","","","","","","","","","","","","","","",""
"17095.699999809265","","{""Q01"":""4"",""Q02"":""3"",""Q03"":""4"",""Q04"":""4"",""Q05"":""4"",""Q06"":""4""}","survey-template","6","61224","0.0-5.0","4","5","5","5","4","4","3","4","4","4","4","1","-1","1","1","1","1","2","1","4","5","5","5","4","4","5","5","5","4","8","8","7","7","6","8","7","8","8","5","6","4","6","6","4","5","1","6","3","1","5","3","4","6","6","6","5","5","4","6","5","5","7","6","6","5","6","6","6","7","7","5","3","6","6","6","7","6","6","6","781518032190312450","贺","501","Female","[""坏她"",""坏我"",""好她"",""好我""]","[""弱她"",""弱我"",""强她"",""强我""]","","","","","","","","{""Q01"":""4"",""Q02"":""3"",""Q03"":""4"",""Q04"":""4"",""Q05"":""4"",""Q06"":""4""}","[0,1,2,3,4,5]","[""Q01"",""Q02"",""Q03"",""Q04"",""Q05"",""Q06""]","[2042.8999996185303,8689.299999713898,9690.199999809265,12490.799999713898,13465,16319.299999713898]","[]","[2042.8999996185303,6313,7701.299999713898,8689.299999713898,9690.199999809265,12490.799999713898,13465,16319.299999713898,17095]","0.5","0.4","0","","","","","","","","","","","","","","","","","","","","","","",""
"15992","","{""Q01"":""1"",""Q02"":""-1"",""Q03"":""1"",""Q04"":""1"",""Q05"":""1"",""Q06"":""1"",""Q07"":""2"",""Q08"":""1""}","survey-template","7","77219","0.0-6.0","4","5","5","5","4","4","3","4","4","4","4","1","-1","1","1","1","1","2","1","4","5","5","5","4","4","5","5","5","4","8","8","7","7","6","8","7","8","8","5","6","4","6","6","4","5","1","6","3","1","5","3","4","6","6","6","5","5","4","6","5","5","7","6","6","5","6","6","6","7","7","5","3","6","6","6","7","6","6","6","781518032190312450","贺","501","Female","[""坏她"",""坏我"",""好她"",""好我""]","[""弱她"",""弱我"",""强她"",""强我""]","","","","","","","","{""Q01"":""1"",""Q02"":""-1"",""Q03"":""1"",""Q04"":""1"",""Q05"":""1"",""Q06"":""1"",""Q07"":""2"",""Q08"":""1""}","[0,1,2,3,4,5,6,7]","[""Q01"",""Q02"",""Q03"",""Q04"",""Q05"",""Q06"",""Q07"",""Q08""]","[2206.2999997138977,4306.199999809265,6822.299999713898,8448.199999809265,9956.299999713898,11308.299999713898,13870,15153.199999809265]","[]","[2206.2999997138977,4306.199999809265,6822.299999713898,8448.199999809265,9956.299999713898,11308.299999713898,13870,15153.199999809265,15990.799999713898]","0.75","0.2857142857142857","0","","","","","","","","","","","","","","","","","","","","","","",""
"108830","","","instructions","8","186051","0.0-7.0","4","5","5","5","4","4","3","4","4","4","4","1","-1","1","1","1","1","2","1","4","5","5","5","4","4","5","5","5","4","8","8","7","7","6","8","7","8","8","5","6","4","6","6","4","5","1","6","3","1","5","3","4","6","6","6","5","5","4","6","5","5","7","6","6","5","6","6","6","7","7","5","3","6","6","6","7","6","6","6","781518032190312450","贺","501","Female","[""坏她"",""坏我"",""好她"",""好我""]","[""弱她"",""弱我"",""强她"",""强我""]","","","","","","","","","","","","","","","","","[{""page_index"":0,""viewing_time"":108830}]","","","","","","","","","","","","","","","","","","","","","",""
"104884","","","instructions","9","290937","0.0-8.0-1.0-0.0","4","5","5","5","4","4","3","4","4","4","4","1","-1","1","1","1","1","2","1","4","5","5","5","4","4","5","5","5","4","8","8","7","7","6","8","7","8","8","5","6","4","6","6","4","5","1","6","3","1","5","3","4","6","6","6","5","5","4","6","5","5","7","6","6","5","6","6","6","7","7","5","3","6","6","6","7","6","6","6","781518032190312450","贺","501","Female","[""坏她"",""坏我"",""好她"",""好我""]","[""弱她"",""弱我"",""强她"",""强我""]","","","","","","","","","","","","","","","","","[{""page_index"":0,""viewing_time"":8311},{""page_index"":1,""viewing_time"":76398},{""page_index"":2,""viewing_time"":14532},{""page_index"":3,""viewing_time"":5644}]","","","","","","","","","","","","","","","","","","","","","",""
"1156","","f","psychophysics","10","293095","0.0-8.0-1.0-1.0-0.0-0.0","4","5","5","5","4","4","3","4","4","4","4","1","-1","1","1","1","1","2","1","4","5","5","5","4","4","5","5","5","4","8","8","7","7","6","8","7","8","8","5","6","4","6","6","4","5","1","6","3","1","5","3","4","6","6","6","5","5","4","6","5","5","7","6","6","5","6","6","6","7","7","5","3","6","6","6","7","6","6","6","781518032190312450","贺","501","Female","[""坏她"",""坏我"",""好她"",""好我""]","[""弱她"",""弱我"",""强她"",""强我""]","","","","","","","","nonmatch","","","","","","","","","","key","f","6.963961038961115","768","428","j","false","match","img/trapezoid.png","强她","强她","prac_ALT2_ability","practice_ability","","","","","","","","",""
"null","<span style='color:red; font-size: 70px;'>错误! </span>","null","html-keyboard-response","11","293597","0.0-8.0-1.0-1.0-0.0-1.0","4","5","5","5","4","4","3","4","4","4","4","1","-1","1","1","1","1","2","1","4","5","5","5","4","4","5","5","5","4","8","8","7","7","6","8","7","8","8","5","6","4","6","6","4","5","1","6","3","1","5","3","4","6","6","6","5","5","4","6","5","5","7","6","6","5","6","6","6","7","7","5","3","6","6","6","7","6","6","6","781518032190312450","贺","501","Female","[""坏她"",""坏我"",""好她"",""好我""]","[""弱她"",""弱我"",""强她"",""强我""]","","","","","","","","","","","","","","","","","","","","","","","","","","","","","","feedback_test","","","","","","","","",""
"633","","j","psychophysics","12","295231","0.0-8.0-1.0-1.0-0.0-0.1","4","5","5","5","4","4","3","4","4","4","4","1","-1","1","1","1","1","2","1","4","5","5","5","4","4","5","5","5","4","8","8","7","7","6","8","7","8","8","5","6","4","6","6","4","5","1","6","3","1","5","3","4","6","6","6","5","5","4","6","5","5","7","6","6","5","6","6","6","7","7","5","3","6","6","6","7","6","6","6","781518032190312450","贺","501","Female","[""坏她"",""坏我"",""好她"",""好我""]","[""弱她"",""弱我"",""强她"",""强我""]","","","","","","","","match","","","","","","","","","","key","j","6.941025641025691","768","428","f","false","nonmatch","img/pentagon.png","弱我","弱她","prac_ALT2_ability","practice_ability","","","","","","","","",""
"null","<span style='color:red; font-size: 70px;'>错误! </span>","null","html-keyboard-response","13","295735","0.0-8.0-1.0-1.0-0.0-1.1","4","5","5","5","4","4","3","4","4","4","4","1","-1","1","1","1","1","2","1","4","5","5","5","4","4","5","5","5","4","8","8","7","7","6","8","7","8","8","5","6","4","6","6","4","5","1","6","3","1","5","3","4","6","6","6","5","5","4","6","5","5","7","6","6","5","6","6","6","7","7","5","3","6","6","6","7","6","6","6","781518032190312450","贺","501","Female","[""坏她"",""坏我"",""好她"",""好我""]","[""弱她"",""弱我"",""强她"",""强我""]","","","","","","","","","","","","","","","","","","","","","","","","","","","","","","feedback_test","","","","","","","","",""
"938","","j","psychophysics","14","297675","0.0-8.0-1.0-1.0-0.0-0.2","4","5","5","5","4","4","3","4","4","4","4","1","-1","1","1","1","1","2","1","4","5","5","5","4","4","5","5","5","4","8","8","7","7","6","8","7","8","8","5","6","4","6","6","4","5","1","6","3","1","5","3","4","6","6","6","5","5","4","6","5","5","7","6","6","5","6","6","6","7","7","5","3","6","6","6","7","6","6","6","781518032190312450","贺","501","Female","[""坏她"",""坏我"",""好她"",""好我""]","[""弱她"",""弱我"",""强她"",""强我""]","","","","","","","","match","","","","","","","","","","key","j","6.941007194244521","768","428","f","false","nonmatch","img/pentagon.png","强她","弱她","prac_ALT2_ability","practice_ability","","","","","","","","",""
"null","<span style='color:red; font-size: 70px;'>错误! </span>","null","html-keyboard-response","15","298176","0.0-8.0-1.0-1.0-0.0-1.2","4","5","5","5","4","4","3","4","4","4","4","1","-1","1","1","1","1","2","1","4","5","5","5","4","4","5","5","5","4","8","8","7","7","6","8","7","8","8","5","6","4","6","6","4","5","1","6","3","1","5","3","4","6","6","6","5","5","4","6","5","5","7","6","6","5","6","6","6","7","7","5","3","6","6","6","7","6","6","6","781518032190312450","贺","501","Female","[""坏她"",""坏我"",""好她"",""好我""]","[""弱她"",""弱我"",""强她"",""强我""]","","","","","","","","","","","","","","","","","","","","","","","","","","","","","","feedback_test","","","","","","","","",""
"971","","f","psychophysics","16","300149","0.0-8.0-1.0-1.0-0.0-0.3","4","5","5","5","4","4","3","4","4","4","4","1","-1","1","1","1","1","2","1","4","5","5","5","4","4","5","5","5","4","8","8","7","7","6","8","7","8","8","5","6","4","6","6","4","5","1","6","3","1","5","3","4","6","6","6","5","5","4","6","5","5","7","6","6","5","6","6","6","7","7","5","3","6","6","6","7","6","6","6","781518032190312450","贺","501","Female","[""坏她"",""坏我"",""好她"",""好我""]","[""弱她"",""弱我"",""强她"",""强我""]","","","","","","","","nonmatch","","","","","","","","","","key","f","6.940989399293245","768","428","f","true","nonmatch","img/trapezoid.png","弱她","强她","prac_ALT2_ability","practice_ability","","","","","","","","",""
"null","<span style='color:GreenYellow; font-size: 70px;'>正确! </span>","null","html-keyboard-response","17","300650","0.0-8.0-1.0-1.0-0.0-1.3","4","5","5","5","4","4","3","4","4","4","4","1","-1","1","1","1","1","2","1","4","5","5","5","4","4","5","5","5","4","8","8","7","7","6","8","7","8","8","5","6","4","6","6","4","5","1","6","3","1","5","3","4","6","6","6","5","5","4","6","5","5","7","6","6","5","6","6","6","7","7","5","3","6","6","6","7","6","6","6","781518032190312450","贺","501","Female","[""坏她"",""坏我"",""好她"",""好我""]","[""弱她"",""弱我"",""强她"",""强我""]","","","","","","","","","","","","","","","","","","","","","","","","","","","","","","feedback_test","","","","","","","","",""
"1159","","f","psychophysics","18","302811","0.0-8.0-1.0-1.0-0.0-0.4","4","5","5","5","4","4","3","4","4","4","4","1","-1","1","1","1","1","2","1","4","5","5","5","4","4","5","5","5","4","8","8","7","7","6","8","7","8","8","5","6","4","6","6","4","5","1","6","3","1","5","3","4","6","6","6","5","5","4","6","5","5","7","6","6","5","6","6","6","7","7","5","3","6","6","6","7","6","6","6","781518032190312450","贺","501","Female","[""坏她"",""坏我"",""好她"",""好我""]","[""弱她"",""弱我"",""强她"",""强我""]","","","","","","","","nonmatch","","","","","","","","","","key","f","6.940967741935522","768","428","f","true","nonmatch","img/triangle.png","强她","强我","prac_ALT2_ability","practice_ability","","","","","","","","",""
"null","<span style='color:GreenYellow; font-size: 70px;'>正确! </span>","null","html-keyboard-response","19","303312","0.0-8.0-1.0-1.0-0.0-1.4","4","5","5","5","4","4","3","4","4","4","4","1","-1","1","1","1","1","2","1","4","5","5","5","4","4","5","5","5","4","8","8","7","7","6","8","7","8","8","5","6","4","6","6","4","5","1","6","3","1","5","3","4","6","6","6","5","5","4","6","5","5","7","6","6","5","6","6","6","7","7","5","3","6","6","6","7","6","6","6","781518032190312450","贺","501","Female","[""坏她"",""坏我"",""好她"",""好我""]","[""弱她"",""弱我"",""强她"",""强我""]","","","","","","","","","","","","","","","","","","","","","","","","","","","","","","feedback_test","","","","","","","","",""
"null","","null","psychophysics","20","305518","0.0-8.0-1.0-1.0-0.0-0.5","4","5","5","5","4","4","3","4","4","4","4","1","-1","1","1","1","1","2","1","4","5","5","5","4","4","5","5","5","4","8","8","7","7","6","8","7","8","8","5","6","4","6","6","4","5","1","6","3","1","5","3","4","6","6","6","5","5","4","6","5","5","7","6","6","5","6","6","6","7","7","5","3","6","6","6","7","6","6","6","781518032190312450","贺","501","Female","[""坏她"",""坏我"",""好她"",""好我""]","[""弱她"",""弱我"",""强她"",""强我""]","","","","","","","","null","","","","","","","","","","key","null","6.94082278481009","768","428","j","false","match","img/ellipse.png","弱我","弱我","prac_ALT2_ability","practice_ability","","","","","","","","",""
"null","<span class='add_' style='color:yellow; font-size: 70px;'> 太慢! </span>","null","html-keyboard-response","21","306019","0.0-8.0-1.0-1.0-0.0-1.5","4","5","5","5","4","4","3","4","4","4","4","1","-1","1","1","1","1","2","1","4","5","5","5","4","4","5","5","5","4","8","8","7","7","6","8","7","8","8","5","6","4","6","6","4","5","1","6","3","1","5","3","4","6","6","6","5","5","4","6","5","5","7","6","6","5","6","6","6","7","7","5","3","6","6","6","7","6","6","6","781518032190312450","贺","501","Female","[""坏她"",""坏我"",""好她"",""好我""]","[""弱她"",""弱我"",""强她"",""强我""]","","","","","","","","","","","","","","","","","","","","","","","","","","","","","","feedback_test","","","","","","","","",""
"826","","f","psychophysics","22","307847","0.0-8.0-1.0-1.0-0.0-0.6","4","5","5","5","4","4","3","4","4","4","4","1","-1","1","1","1","1","2","1","4","5","5","5","4","4","5","5","5","4","8","8","7","7","6","8","7","8","8","5","6","4","6","6","4","5","1","6","3","1","5","3","4","6","6","6","5","5","4","6","5","5","7","6","6","5","6","6","6","7","7","5","3","6","6","6","7","6","6","6","781518032190312450","贺","501","Female","[""坏她"",""坏我"",""好她"",""好我""]","[""弱她"",""弱我"",""强她"",""强我""]","","","","","","","","nonmatch","","","","","","","","","","key","f","6.937022900763359","768","428","j","false","match","img/pentagon.png","弱她","弱她","prac_ALT2_ability","practice_ability","","","","","","","","",""
"null","<span style='color:red; font-size: 70px;'>错误! </span>","null","html-keyboard-response","23","308349","0.0-8.0-1.0-1.0-0.0-1.6","4","5","5","5","4","4","3","4","4","4","4","1","-1","1","1","1","1","2","1","4","5","5","5","4","4","5","5","5","4","8","8","7","7","6","8","7","8","8","5","6","4","6","6","4","5","1","6","3","1","5","3","4","6","6","6","5","5","4","6","5","5","7","6","6","5","6","6","6","7","7","5","3","6","6","6","7","6","6","6","781518032190312450","贺","501","Female","[""坏她"",""坏我"",""好她"",""好我""]","[""弱她"",""弱我"",""强她"",""强我""]","","","","","","","","","","","","","","","","","","","","","","","","","","","","","","feedback_test","","","","","","","","",""
"362","","f","psychophysics","24","309714","0.0-8.0-1.0-1.0-0.0-0.7","4","5","5","5","4","4","3","4","4","4","4","1","-1","1","1","1","1","2","1","4","5","5","5","4","4","5","5","5","4","8","8","7","7","6","8","7","8","8","5","6","4","6","6","4","5","1","6","3","1","5","3","4","6","6","6","5","5","4","6","5","5","7","6","6","5","6","6","6","7","7","5","3","6","6","6","7","6","6","6","781518032190312450","贺","501","Female","[""坏她"",""坏我"",""好她"",""好我""]","[""弱她"",""弱我"",""强她"",""强我""]","","","","","","","","nonmatch","","","","","","","","","","key","f","6.9403061224492175","768","428","f","true","nonmatch","img/ellipse.png","强我","弱我","prac_ALT2_ability","practice_ability","","","","","","","","",""
"null","<span style='color:GreenYellow; font-size: 70px;'>正确! </span>","null","html-keyboard-response","25","310215","0.0-8.0-1.0-1.0-0.0-1.7","4","5","5","5","4","4","3","4","4","4","4","1","-1","1","1","1","1","2","1","4","5","5","5","4","4","5","5","5","4","8","8","7","7","6","8","7","8","8","5","6","4","6","6","4","5","1","6","3","1","5","3","4","6","6","6","5","5","4","6","5","5","7","6","6","5","6","6","6","7","7","5","3","6","6","6","7","6","6","6","781518032190312450","贺","501","Female","[""坏她"",""坏我"",""好她"",""好我""]","[""弱她"",""弱我"",""强她"",""强我""]","","","","","","","","","","","","","","","","","","","","","","","","","","","","","","feedback_test","","","","","","","","",""
"338","","f","psychophysics","26","311555","0.0-8.0-1.0-1.0-0.0-0.8","4","5","5","5","4","4","3","4","4","4","4","1","-1","1","1","1","1","2","1","4","5","5","5","4","4","5","5","5","4","8","8","7","7","6","8","7","8","8","5","6","4","6","6","4","5","1","6","3","1","5","3","4","6","6","6","5","5","4","6","5","5","7","6","6","5","6","6","6","7","7","5","3","6","6","6","7","6","6","6","781518032190312450","贺","501","Female","[""坏她"",""坏我"",""好她"",""好我""]","[""弱她"",""弱我"",""强她"",""强我""]","","","","","","","","nonmatch","","","","","","","","","","key","f","6.941666666666909","768","428","f","true","nonmatch","img/pentagon.png","强我","弱她","prac_ALT2_ability","practice_ability","","","","","","","","",""
"null","<span style='color:GreenYellow; font-size: 70px;'>正确! </span>","null","html-keyboard-response","27","312056","0.0-8.0-1.0-1.0-0.0-1.8","4","5","5","5","4","4","3","4","4","4","4","1","-1","1","1","1","1","2","1","4","5","5","5","4","4","5","5","5","4","8","8","7","7","6","8","7","8","8","5","6","4","6","6","4","5","1","6","3","1","5","3","4","6","6","6","5","5","4","6","5","5","7","6","6","5","6","6","6","7","7","5","3","6","6","6","7","6","6","6","781518032190312450","贺","501","Female","[""坏她"",""坏我"",""好她"",""好我""]","[""弱她"",""弱我"",""强她"",""强我""]","","","","","","","","","","","","","","","","","","","","","","","","","","","","","","feedback_test","","","","","","","","",""
"304","","f","psychophysics","28","313363","0.0-8.0-1.0-1.0-0.0-0.9","4","5","5","5","4","4","3","4","4","4","4","1","-1","1","1","1","1","2","1","4","5","5","5","4","4","5","5","5","4","8","8","7","7","6","8","7","8","8","5","6","4","6","6","4","5","1","6","3","1","5","3","4","6","6","6","5","5","4","6","5","5","7","6","6","5","6","6","6","7","7","5","3","6","6","6","7","6","6","6","781518032190312450","贺","501","Female","[""坏她"",""坏我"",""好她"",""好我""]","[""弱她"",""弱我"",""强她"",""强我""]","","","","","","","","nonmatch","","","","","","","","","","key","f","6.941711229946711","768","428","f","true","nonmatch","img/triangle.png","弱我","强我","prac_ALT2_ability","practice_ability","","","","","","","","",""
"null","<span style='color:GreenYellow; font-size: 70px;'>正确! </span>","null","html-keyboard-response","29","313864","0.0-8.0-1.0-1.0-0.0-1.9","4","5","5","5","4","4","3","4","4","4","4","1","-1","1","1","1","1","2","1","4","5","5","5","4","4","5","5","5","4","8","8","7","7","6","8","7","8","8","5","6","4","6","6","4","5","1","6","3","1","5","3","4","6","6","6","5","5","4","6","5","5","7","6","6","5","6","6","6","7","7","5","3","6","6","6","7","6","6","6","781518032190312450","贺","501","Female","[""坏她"",""坏我"",""好她"",""好我""]","[""弱她"",""弱我"",""强她"",""强我""]","","","","","","","","","","","","","","","","","","","","","","","","","","","","","","feedback_test","","","","","","","","",""
"333","","f","psychophysics","30","315199","0.0-8.0-1.0-1.0-0.0-0.10","4","5","5","5","4","4","3","4","4","4","4","1","-1","1","1","1","1","2","1","4","5","5","5","4","4","5","5","5","4","8","8","7","7","6","8","7","8","8","5","6","4","6","6","4","5","1","6","3","1","5","3","4","6","6","6","5","5","4","6","5","5","7","6","6","5","6","6","6","7","7","5","3","6","6","6","7","6","6","6","781518032190312450","贺","501","Female","[""坏她"",""坏我"",""好她"",""好我""]","[""弱她"",""弱我"",""强她"",""强我""]","","","","","","","","nonmatch","","","","","","","","","","key","f","6.941884816754048","768","428","j","false","match","img/triangle.png","强我","强我","prac_ALT2_ability","practice_ability","","","","","","","","",""
"null","<span style='color:red; font-size: 70px;'>错误! </span>","null","html-keyboard-response","31","315700","0.0-8.0-1.0-1.0-0.0-1.10","4","5","5","5","4","4","3","4","4","4","4","1","-1","1","1","1","1","2","1","4","5","5","5","4","4","5","5","5","4","8","8","7","7","6","8","7","8","8","5","6","4","6","6","4","5","1","6","3","1","5","3","4","6","6","6","5","5","4","6","5","5","7","6","6","5","6","6","6","7","7","5","3","6","6","6","7","6","6","6","781518032190312450","贺","501","Female","[""坏她"",""坏我"",""好她"",""好我""]","[""弱她"",""弱我"",""强她"",""强我""]","","","","","","","","","","","","","","","","","","","","","","","","","","","","","","feedback_test","","","","","","","","",""
"669","","j","psychophysics","32","317371","0.0-8.0-1.0-1.0-0.0-0.11","4","5","5","5","4","4","3","4","4","4","4","1","-1","1","1","1","1","2","1","4","5","5","5","4","4","5","5","5","4","8","8","7","7","6","8","7","8","8","5","6","4","6","6","4","5","1","6","3","1","5","3","4","6","6","6","5","5","4","6","5","5","7","6","6","5","6","6","6","7","7","5","3","6","6","6","7","6","6","6","781518032190312450","贺","501","Female","[""坏她"",""坏我"",""好她"",""好我""]","[""弱她"",""弱我"",""强她"",""强我""]","","","","","","","","match","","","","","","","","","","key","j","6.940833333333285","768","428","j","true","match","img/triangle.png","强我","强我","prac_ALT2_ability","practice_ability","","","","","","","","",""
"null","<span style='color:GreenYellow; font-size: 70px;'>正确! </span>","null","html-keyboard-response","33","317872","0.0-8.0-1.0-1.0-0.0-1.11","4","5","5","5","4","4","3","4","4","4","4","1","-1","1","1","1","1","2","1","4","5","5","5","4","4","5","5","5","4","8","8","7","7","6","8","7","8","8","5","6","4","6","6","4","5","1","6","3","1","5","3","4","6","6","6","5","5","4","6","5","5","7","6","6","5","6","6","6","7","7","5","3","6","6","6","7","6","6","6","781518032190312450","贺","501","Female","[""坏她"",""坏我"",""好她"",""好我""]","[""弱她"",""弱我"",""强她"",""强我""]","","","","","","","","","","","","","","","","","","","","","","","","","","","","","","feedback_test","","","","","","","","",""
"857","","j","psychophysics","34","319731","0.0-8.0-1.0-1.0-0.0-0.12","4","5","5","5","4","4","3","4","4","4","4","1","-1","1","1","1","1","2","1","4","5","5","5","4","4","5","5","5","4","8","8","7","7","6","8","7","8","8","5","6","4","6","6","4","5","1","6","3","1","5","3","4","6","6","6","5","5","4","6","5","5","7","6","6","5","6","6","6","7","7","5","3","6","6","6","7","6","6","6","781518032190312450","贺","501","Female","[""坏她"",""坏我"",""好她"",""好我""]","[""弱她"",""弱我"",""强她"",""强我""]","","","","","","","","match","","","","","","","","","","key","j","6.9408239700374965","768","428","j","true","match","img/ellipse.png","弱我","弱我","prac_ALT2_ability","practice_ability","","","","","","","","",""
"null","<span style='color:GreenYellow; font-size: 70px;'>正确! </span>","null","html-keyboard-response","35","320232","0.0-8.0-1.0-1.0-0.0-1.12","4","5","5","5","4","4","3","4","4","4","4","1","-1","1","1","1","1","2","1","4","5","5","5","4","4","5","5","5","4","8","8","7","7","6","8","7","8","8","5","6","4","6","6","4","5","1","6","3","1","5","3","4","6","6","6","5","5","4","6","5","5","7","6","6","5","6","6","6","7","7","5","3","6","6","6","7","6","6","6","781518032190312450","贺","501","Female","[""坏她"",""坏我"",""好她"",""好我""]","[""弱她"",""弱我"",""强她"",""强我""]","","","","","","","","","","","","","","","","","","","","","","","","","","","","","","feedback_test","","","","","","","","",""
"1140","","j","psychophysics","36","322373","0.0-8.0-1.0-1.0-0.0-0.13","4","5","5","5","4","4","3","4","4","4","4","1","-1","1","1","1","1","2","1","4","5","5","5","4","4","5","5","5","4","8","8","7","7","6","8","7","8","8","5","6","4","6","6","4","5","1","6","3","1","5","3","4","6","6","6","5","5","4","6","5","5","7","6","6","5","6","6","6","7","7","5","3","6","6","6","7","6","6","6","781518032190312450","贺","501","Female","[""坏她"",""坏我"",""好她"",""好我""]","[""弱她"",""弱我"",""强她"",""强我""]","","","","","","","","match","","","","","","","","","","key","j","6.942345276873116","768","428","f","false","nonmatch","img/triangle.png","弱她","强我","prac_ALT2_ability","practice_ability","","","","","","","","",""
"null","<span style='color:red; font-size: 70px;'>错误! </span>","null","html-keyboard-response","37","322875","0.0-8.0-1.0-1.0-0.0-1.13","4","5","5","5","4","4","3","4","4","4","4","1","-1","1","1","1","1","2","1","4","5","5","5","4","4","5","5","5","4","8","8","7","7","6","8","7","8","8","5","6","4","6","6","4","5","1","6","3","1","5","3","4","6","6","6","5","5","4","6","5","5","7","6","6","5","6","6","6","7","7","5","3","6","6","6","7","6","6","6","781518032190312450","贺","501","Female","[""坏她"",""坏我"",""好她"",""好我""]","[""弱她"",""弱我"",""强她"",""强我""]","","","","","","","","","","","","","","","","","","","","","","","","","","","","","","feedback_test","","","","","","","","",""
"831","","f","psychophysics","38","324707","0.0-8.0-1.0-1.0-0.0-0.14","4","5","5","5","4","4","3","4","4","4","4","1","-1","1","1","1","1","2","1","4","5","5","5","4","4","5","5","5","4","8","8","7","7","6","8","7","8","8","5","6","4","6","6","4","5","1","6","3","1","5","3","4","6","6","6","5","5","4","6","5","5","7","6","6","5","6","6","6","7","7","5","3","6","6","6","7","6","6","6","781518032190312450","贺","501","Female","[""坏她"",""坏我"",""好她"",""好我""]","[""弱她"",""弱我"",""强她"",""强我""]","","","","","","","","nonmatch","","","","","","","","","","key","f","6.941825095057078","768","428","j","false","match","img/triangle.png","强我","强我","prac_ALT2_ability","practice_ability","","","","","","","","",""
"null","<span style='color:red; font-size: 70px;'>错误! </span>","null","html-keyboard-response","39","325208","0.0-8.0-1.0-1.0-0.0-1.14","4","5","5","5","4","4","3","4","4","4","4","1","-1","1","1","1","1","2","1","4","5","5","5","4","4","5","5","5","4","8","8","7","7","6","8","7","8","8","5","6","4","6","6","4","5","1","6","3","1","5","3","4","6","6","6","5","5","4","6","5","5","7","6","6","5","6","6","6","7","7","5","3","6","6","6","7","6","6","6","781518032190312450","贺","501","Female","[""坏她"",""坏我"",""好她"",""好我""]","[""弱她"",""弱我"",""强她"",""强我""]","","","","","","","","","","","","","","","","","","","","","","","","","","","","","","feedback_test","","","","","","","","",""
"866","","j","psychophysics","40","327077","0.0-8.0-1.0-1.0-0.0-0.15","4","5","5","5","4","4","3","4","4","4","4","1","-1","1","1","1","1","2","1","4","5","5","5","4","4","5","5","5","4","8","8","7","7","6","8","7","8","8","5","6","4","6","6","4","5","1","6","3","1","5","3","4","6","6","6","5","5","4","6","5","5","7","6","6","5","6","6","6","7","7","5","3","6","6","6","7","6","6","6","781518032190312450","贺","501","Female","[""坏她"",""坏我"",""好她"",""好我""]","[""弱她"",""弱我"",""强她"",""强我""]","","","","","","","","match","","","","","","","","","","key","j","6.941044776119447","768","428","j","true","match","img/trapezoid.png","强她","强她","prac_ALT2_ability","practice_ability","","","","","","","","",""
"null","<span style='color:GreenYellow; font-size: 70px;'>正确! </span>","null","html-keyboard-response","41","327578","0.0-8.0-1.0-1.0-0.0-1.15","4","5","5","5","4","4","3","4","4","4","4","1","-1","1","1","1","1","2","1","4","5","5","5","4","4","5","5","5","4","8","8","7","7","6","8","7","8","8","5","6","4","6","6","4","5","1","6","3","1","5","3","4","6","6","6","5","5","4","6","5","5","7","6","6","5","6","6","6","7","7","5","3","6","6","6","7","6","6","6","781518032190312450","贺","501","Female","[""坏她"",""坏我"",""好她"",""好我""]","[""弱她"",""弱我"",""强她"",""强我""]","","","","","","","","","","","","","","","","","","","","","","","","","","","","","","feedback_test","","","","","","","","",""
"null","","null","psychophysics","42","329781","0.0-8.0-1.0-1.0-0.0-0.16","4","5","5","5","4","4","3","4","4","4","4","1","-1","1","1","1","1","2","1","4","5","5","5","4","4","5","5","5","4","8","8","7","7","6","8","7","8","8","5","6","4","6","6","4","5","1","6","3","1","5","3","4","6","6","6","5","5","4","6","5","5","7","6","6","5","6","6","6","7","7","5","3","6","6","6","7","6","6","6","781518032190312450","贺","501","Female","[""坏她"",""坏我"",""好她"",""好我""]","[""弱她"",""弱我"",""强她"",""强我""]","","","","","","","","null","","","","","","","","","","key","null","6.938730158730196","768","428","j","false","match","img/pentagon.png","弱她","弱她","prac_ALT2_ability","practice_ability","","","","","","","","",""
"null","<span class='add_' style='color:yellow; font-size: 70px;'> 太慢! </span>","null","html-keyboard-response","43","330283","0.0-8.0-1.0-1.0-0.0-1.16","4","5","5","5","4","4","3","4","4","4","4","1","-1","1","1","1","1","2","1","4","5","5","5","4","4","5","5","5","4","8","8","7","7","6","8","7","8","8","5","6","4","6","6","4","5","1","6","3","1","5","3","4","6","6","6","5","5","4","6","5","5","7","6","6","5","6","6","6","7","7","5","3","6","6","6","7","6","6","6","781518032190312450","贺","501","Female","[""坏她"",""坏我"",""好她"",""好我""]","[""弱她"",""弱我"",""强她"",""强我""]","","","","","","","","","","","","","","","","","","","","","","","","","","","","","","feedback_test","","","","","","","","",""
"393","","j","psychophysics","44","331679","0.0-8.0-1.0-1.0-0.0-0.17","4","5","5","5","4","4","3","4","4","4","4","1","-1","1","1","1","1","2","1","4","5","5","5","4","4","5","5","5","4","8","8","7","7","6","8","7","8","8","5","6","4","6","6","4","5","1","6","3","1","5","3","4","6","6","6","5","5","4","6","5","5","7","6","6","5","6","6","6","7","7","5","3","6","6","6","7","6","6","6","781518032190312450","贺","501","Female","[""坏她"",""坏我"",""好她"",""好我""]","[""弱她"",""弱我"",""强她"",""强我""]","","","","","","","","match","","","","","","","","","","key","j","6.941499999999942","768","428","f","false","nonmatch","img/ellipse.png","弱她","弱我","prac_ALT2_ability","practice_ability","","","","","","","","",""
"null","<span style='color:red; font-size: 70px;'>错误! </span>","null","html-keyboard-response","45","332180","0.0-8.0-1.0-1.0-0.0-1.17","4","5","5","5","4","4","3","4","4","4","4","1","-1","1","1","1","1","2","1","4","5","5","5","4","4","5","5","5","4","8","8","7","7","6","8","7","8","8","5","6","4","6","6","4","5","1","6","3","1","5","3","4","6","6","6","5","5","4","6","5","5","7","6","6","5","6","6","6","7","7","5","3","6","6","6","7","6","6","6","781518032190312450","贺","501","Female","[""坏她"",""坏我"",""好她"",""好我""]","[""弱她"",""弱我"",""强她"",""强我""]","","","","","","","","","","","","","","","","","","","","","","","","","","","","","","feedback_test","","","","","","","","",""
"849","","f","psychophysics","46","334030","0.0-8.0-1.0-1.0-0.0-0.18","4","5","5","5","4","4","3","4","4","4","4","1","-1","1","1","1","1","2","1","4","5","5","5","4","4","5","5","5","4","8","8","7","7","6","8","7","8","8","5","6","4","6","6","4","5","1","6","3","1","5","3","4","6","6","6","5","5","4","6","5","5","7","6","6","5","6","6","6","7","7","5","3","6","6","6","7","6","6","6","781518032190312450","贺","501","Female","[""坏她"",""坏我"",""好她"",""好我""]","[""弱她"",""弱我"",""强她"",""强我""]","","","","","","","","nonmatch","","","","","","","","","","key","f","6.9409774436091976","768","428","j","false","match","img/pentagon.png","弱她","弱她","prac_ALT2_ability","practice_ability","","","","","","","","",""
"null","<span style='color:red; font-size: 70px;'>错误! </span>","null","html-keyboard-response","47","334530","0.0-8.0-1.0-1.0-0.0-1.18","4","5","5","5","4","4","3","4","4","4","4","1","-1","1","1","1","1","2","1","4","5","5","5","4","4","5","5","5","4","8","8","7","7","6","8","7","8","8","5","6","4","6","6","4","5","1","6","3","1","5","3","4","6","6","6","5","5","4","6","5","5","7","6","6","5","6","6","6","7","7","5","3","6","6","6","7","6","6","6","781518032190312450","贺","501","Female","[""坏她"",""坏我"",""好她"",""好我""]","[""弱她"",""弱我"",""强她"",""强我""]","","","","","","","","","","","","","","","","","","","","","","","","","","","","","","feedback_test","","","","","","","","",""
"970","","f","psychophysics","48","336503","0.0-8.0-1.0-1.0-0.0-0.19","4","5","5","5","4","4","3","4","4","4","4","1","-1","1","1","1","1","2","1","4","5","5","5","4","4","5","5","5","4","8","8","7","7","6","8","7","8","8","5","6","4","6","6","4","5","1","6","3","1","5","3","4","6","6","6","5","5","4","6","5","5","7","6","6","5","6","6","6","7","7","5","3","6","6","6","7","6","6","6","781518032190312450","贺","501","Female","[""坏她"",""坏我"",""好她"",""好我""]","[""弱她"",""弱我"",""强她"",""强我""]","","","","","","","","nonmatch","","","","","","","","","","key","f","6.9416961130742045","768","428","f","true","nonmatch","img/trapezoid.png","强我","强她","prac_ALT2_ability","practice_ability","","","","","","","","",""
"null","<span style='color:GreenYellow; font-size: 70px;'>正确! </span>","null","html-keyboard-response","49","337005","0.0-8.0-1.0-1.0-0.0-1.19","4","5","5","5","4","4","3","4","4","4","4","1","-1","1","1","1","1","2","1","4","5","5","5","4","4","5","5","5","4","8","8","7","7","6","8","7","8","8","5","6","4","6","6","4","5","1","6","3","1","5","3","4","6","6","6","5","5","4","6","5","5","7","6","6","5","6","6","6","7","7","5","3","6","6","6","7","6","6","6","781518032190312450","贺","501","Female","[""坏她"",""坏我"",""好她"",""好我""]","[""弱她"",""弱我"",""强她"",""强我""]","","","","","","","","","","","","","","","","","","","","","","","","","","","","","","feedback_test","","","","","","","","",""
"732","","f","psychophysics","50","338738","0.0-8.0-1.0-1.0-0.0-0.20","4","5","5","5","4","4","3","4","4","4","4","1","-1","1","1","1","1","2","1","4","5","5","5","4","4","5","5","5","4","8","8","7","7","6","8","7","8","8","5","6","4","6","6","4","5","1","6","3","1","5","3","4","6","6","6","5","5","4","6","5","5","7","6","6","5","6","6","6","7","7","5","3","6","6","6","7","6","6","6","781518032190312450","贺","501","Female","[""坏她"",""坏我"",""好她"",""好我""]","[""弱她"",""弱我"",""强她"",""强我""]","","","","","","","","nonmatch","","","","","","","","","","key","f","6.941935483870874","768","428","f","true","nonmatch","img/ellipse.png","强她","弱我","prac_ALT2_ability","practice_ability","","","","","","","","",""
"null","<span style='color:GreenYellow; font-size: 70px;'>正确! </span>","null","html-keyboard-response","51","339239","0.0-8.0-1.0-1.0-0.0-1.20","4","5","5","5","4","4","3","4","4","4","4","1","-1","1","1","1","1","2","1","4","5","5","5","4","4","5","5","5","4","8","8","7","7","6","8","7","8","8","5","6","4","6","6","4","5","1","6","3","1","5","3","4","6","6","6","5","5","4","6","5","5","7","6","6","5","6","6","6","7","7","5","3","6","6","6","7","6","6","6","781518032190312450","贺","501","Female","[""坏她"",""坏我"",""好她"",""好我""]","[""弱她"",""弱我"",""强她"",""强我""]","","","","","","","","","","","","","","","","","","","","","","","","","","","","","","feedback_test","","","","","","","","",""
"763","","f","psychophysics","52","341004","0.0-8.0-1.0-1.0-0.0-0.21","4","5","5","5","4","4","3","4","4","4","4","1","-1","1","1","1","1","2","1","4","5","5","5","4","4","5","5","5","4","8","8","7","7","6","8","7","8","8","5","6","4","6","6","4","5","1","6","3","1","5","3","4","6","6","6","5","5","4","6","5","5","7","6","6","5","6","6","6","7","7","5","3","6","6","6","7","6","6","6","781518032190312450","贺","501","Female","[""坏她"",""坏我"",""好她"",""好我""]","[""弱她"",""弱我"",""强她"",""强我""]","","","","","","","","nonmatch","","","","","","","","","","key","f","6.937154150197767","768","428","f","true","nonmatch","img/trapezoid.png","弱我","强她","prac_ALT2_ability","practice_ability","","","","","","","","",""
"null","<span style='color:GreenYellow; font-size: 70px;'>正确! </span>","null","html-keyboard-response","53","341505","0.0-8.0-1.0-1.0-0.0-1.21","4","5","5","5","4","4","3","4","4","4","4","1","-1","1","1","1","1","2","1","4","5","5","5","4","4","5","5","5","4","8","8","7","7","6","8","7","8","8","5","6","4","6","6","4","5","1","6","3","1","5","3","4","6","6","6","5","5","4","6","5","5","7","6","6","5","6","6","6","7","7","5","3","6","6","6","7","6","6","6","781518032190312450","贺","501","Female","[""坏她"",""坏我"",""好她"",""好我""]","[""弱她"",""弱我"",""强她"",""强我""]","","","","","","","","","","","","","","","","","","","","","","","","","","","","","","feedback_test","","","","","","","","",""
"932","","j","psychophysics","54","343439","0.0-8.0-1.0-1.0-0.0-0.22","4","5","5","5","4","4","3","4","4","4","4","1","-1","1","1","1","1","2","1","4","5","5","5","4","4","5","5","5","4","8","8","7","7","6","8","7","8","8","5","6","4","6","6","4","5","1","6","3","1","5","3","4","6","6","6","5","5","4","6","5","5","7","6","6","5","6","6","6","7","7","5","3","6","6","6","7","6","6","6","781518032190312450","贺","501","Female","[""坏她"",""坏我"",""好她"",""好我""]","[""弱她"",""弱我"",""强她"",""强我""]","","","","","","","","match","","","","","","","","","","key","j","6.9411552346570815","768","428","j","true","match","img/ellipse.png","弱我","弱我","prac_ALT2_ability","practice_ability","","","","","","","","",""
"null","<span style='color:GreenYellow; font-size: 70px;'>正确! </span>","null","html-keyboard-response","55","343939","0.0-8.0-1.0-1.0-0.0-1.22","4","5","5","5","4","4","3","4","4","4","4","1","-1","1","1","1","1","2","1","4","5","5","5","4","4","5","5","5","4","8","8","7","7","6","8","7","8","8","5","6","4","6","6","4","5","1","6","3","1","5","3","4","6","6","6","5","5","4","6","5","5","7","6","6","5","6","6","6","7","7","5","3","6","6","6","7","6","6","6","781518032190312450","贺","501","Female","[""坏她"",""坏我"",""好她"",""好我""]","[""弱她"",""弱我"",""强她"",""强我""]","","","","","","","","","","","","","","","","","","","","","","","","","","","","","","feedback_test","","","","","","","","",""
"756","","f","psychophysics","56","345699","0.0-8.0-1.0-1.0-0.0-0.23","4","5","5","5","4","4","3","4","4","4","4","1","-1","1","1","1","1","2","1","4","5","5","5","4","4","5","5","5","4","8","8","7","7","6","8","7","8","8","5","6","4","6","6","4","5","1","6","3","1","5","3","4","6","6","6","5","5","4","6","5","5","7","6","6","5","6","6","6","7","7","5","3","6","6","6","7","6","6","6","781518032190312450","贺","501","Female","[""坏她"",""坏我"",""好她"",""好我""]","[""弱她"",""弱我"",""强她"",""强我""]","","","","","","","","nonmatch","","","","","","","","","","key","f","6.940873015872923","768","428","j","false","match","img/trapezoid.png","强她","强她","prac_ALT2_ability","practice_ability","","","","","","","","",""
"null","<span style='color:red; font-size: 70px;'>错误! </span>","null","html-keyboard-response","57","346200","0.0-8.0-1.0-1.0-0.0-1.23","4","5","5","5","4","4","3","4","4","4","4","1","-1","1","1","1","1","2","1","4","5","5","5","4","4","5","5","5","4","8","8","7","7","6","8","7","8","8","5","6","4","6","6","4","5","1","6","3","1","5","3","4","6","6","6","5","5","4","6","5","5","7","6","6","5","6","6","6","7","7","5","3","6","6","6","7","6","6","6","781518032190312450","贺","501","Female","[""坏她"",""坏我"",""好她"",""好我""]","[""弱她"",""弱我"",""强她"",""强我""]","","","","","","","","","","","","","","","","","","","","","","","","","","","","","","feedback_test","","","","","","","","",""
"1059","","j","psychophysics","58","348263","0.0-8.0-1.0-1.0-0.0-0.24","4","5","5","5","4","4","3","4","4","4","4","1","-1","1","1","1","1","2","1","4","5","5","5","4","4","5","5","5","4","8","8","7","7","6","8","7","8","8","5","6","4","6","6","4","5","1","6","3","1","5","3","4","6","6","6","5","5","4","6","5","5","7","6","6","5","6","6","6","7","7","5","3","6","6","6","7","6","6","6","781518032190312450","贺","501","Female","[""坏她"",""坏我"",""好她"",""好我""]","[""弱她"",""弱我"",""强她"",""强我""]","","","","","","","","match","","","","","","","","","","key","j","6.940878378378378","768","428","f","false","nonmatch","img/trapezoid.png","弱她","强她","prac_ALT2_ability","practice_ability","","","","","","","","",""
"null","<span style='color:red; font-size: 70px;'>错误! </span>","null","html-keyboard-response","59","348763","0.0-8.0-1.0-1.0-0.0-1.24","4","5","5","5","4","4","3","4","4","4","4","1","-1","1","1","1","1","2","1","4","5","5","5","4","4","5","5","5","4","8","8","7","7","6","8","7","8","8","5","6","4","6","6","4","5","1","6","3","1","5","3","4","6","6","6","5","5","4","6","5","5","7","6","6","5","6","6","6","7","7","5","3","6","6","6","7","6","6","6","781518032190312450","贺","501","Female","[""坏她"",""坏我"",""好她"",""好我""]","[""弱她"",""弱我"",""强她"",""强我""]","","","","","","","","","","","","","","","","","","","","","","","","","","","","","","feedback_test","","","","","","","","",""
"1182","","j","psychophysics","60","350947","0.0-8.0-1.0-1.0-0.0-0.25","4","5","5","5","4","4","3","4","4","4","4","1","-1","1","1","1","1","2","1","4","5","5","5","4","4","5","5","5","4","8","8","7","7","6","8","7","8","8","5","6","4","6","6","4","5","1","6","3","1","5","3","4","6","6","6","5","5","4","6","5","5","7","6","6","5","6","6","6","7","7","5","3","6","6","6","7","6","6","6","781518032190312450","贺","501","Female","[""坏她"",""坏我"",""好她"",""好我""]","[""弱她"",""弱我"",""强她"",""强我""]","","","","","","","","match","","","","","","","","","","key","j","6.942172523961736","768","428","f","false","nonmatch","img/pentagon.png","强她","弱她","prac_ALT2_ability","practice_ability","","","","","","","","",""
"null","<span style='color:red; font-size: 70px;'>错误! </span>","null","html-keyboard-response","61","351448","0.0-8.0-1.0-1.0-0.0-1.25","4","5","5","5","4","4","3","4","4","4","4","1","-1","1","1","1","1","2","1","4","5","5","5","4","4","5","5","5","4","8","8","7","7","6","8","7","8","8","5","6","4","6","6","4","5","1","6","3","1","5","3","4","6","6","6","5","5","4","6","5","5","7","6","6","5","6","6","6","7","7","5","3","6","6","6","7","6","6","6","781518032190312450","贺","501","Female","[""坏她"",""坏我"",""好她"",""好我""]","[""弱她"",""弱我"",""强她"",""强我""]","","","","","","","","","","","","","","","","","","","","","","","","","","","","","","feedback_test","","","","","","","","",""
"1085","","f","psychophysics","62","353535","0.0-8.0-1.0-1.0-0.0-0.26","4","5","5","5","4","4","3","4","4","4","4","1","-1","1","1","1","1","2","1","4","5","5","5","4","4","5","5","5","4","8","8","7","7","6","8","7","8","8","5","6","4","6","6","4","5","1","6","3","1","5","3","4","6","6","6","5","5","4","6","5","5","7","6","6","5","6","6","6","7","7","5","3","6","6","6","7","6","6","6","781518032190312450","贺","501","Female","[""坏她"",""坏我"",""好她"",""好我""]","[""弱她"",""弱我"",""强她"",""强我""]","","","","","","","","nonmatch","","","","","","","","","","key","f","6.940333333333256","768","428","j","false","match","img/ellipse.png","弱我","弱我","prac_ALT2_ability","practice_ability","","","","","","","","",""
"null","<span style='color:red; font-size: 70px;'>错误! </span>","null","html-keyboard-response","63","354036","0.0-8.0-1.0-1.0-0.0-1.26","4","5","5","5","4","4","3","4","4","4","4","1","-1","1","1","1","1","2","1","4","5","5","5","4","4","5","5","5","4","8","8","7","7","6","8","7","8","8","5","6","4","6","6","4","5","1","6","3","1","5","3","4","6","6","6","5","5","4","6","5","5","7","6","6","5","6","6","6","7","7","5","3","6","6","6","7","6","6","6","781518032190312450","贺","501","Female","[""坏她"",""坏我"",""好她"",""好我""]","[""弱她"",""弱我"",""强她"",""强我""]","","","","","","","","","","","","","","","","","","","","","","","","","","","","","","feedback_test","","","","","","","","",""
"1001","","j","psychophysics","64","356040","0.0-8.0-1.0-1.0-0.0-0.27","4","5","5","5","4","4","3","4","4","4","4","1","-1","1","1","1","1","2","1","4","5","5","5","4","4","5","5","5","4","8","8","7","7","6","8","7","8","8","5","6","4","6","6","4","5","1","6","3","1","5","3","4","6","6","6","5","5","4","6","5","5","7","6","6","5","6","6","6","7","7","5","3","6","6","6","7","6","6","6","781518032190312450","贺","501","Female","[""坏她"",""坏我"",""好她"",""好我""]","[""弱她"",""弱我"",""强她"",""强我""]","","","","","","","","match","","","","","","","","","","key","j","6.940625000000081","768","428","j","true","match","img/pentagon.png","弱她","弱她","prac_ALT2_ability","practice_ability","","","","","","","","",""
"null","<span style='color:GreenYellow; font-size: 70px;'>正确! </span>","null","html-keyboard-response","65","356541","0.0-8.0-1.0-1.0-0.0-1.27","4","5","5","5","4","4","3","4","4","4","4","1","-1","1","1","1","1","2","1","4","5","5","5","4","4","5","5","5","4","8","8","7","7","6","8","7","8","8","5","6","4","6","6","4","5","1","6","3","1","5","3","4","6","6","6","5","5","4","6","5","5","7","6","6","5","6","6","6","7","7","5","3","6","6","6","7","6","6","6","781518032190312450","贺","501","Female","[""坏她"",""坏我"",""好她"",""好我""]","[""弱她"",""弱我"",""强她"",""强我""]","","","","","","","","","","","","","","","","","","","","","","","","","","","","","","feedback_test","","","","","","","","",""
"712","","f","psychophysics","66","358255","0.0-8.0-1.0-1.0-0.0-0.28","4","5","5","5","4","4","3","4","4","4","4","1","-1","1","1","1","1","2","1","4","5","5","5","4","4","5","5","5","4","8","8","7","7","6","8","7","8","8","5","6","4","6","6","4","5","1","6","3","1","5","3","4","6","6","6","5","5","4","6","5","5","7","6","6","5","6","6","6","7","7","5","3","6","6","6","7","6","6","6","781518032190312450","贺","501","Female","[""坏她"",""坏我"",""好她"",""好我""]","[""弱她"",""弱我"",""强她"",""强我""]","","","","","","","","nonmatch","","","","","","","","","","key","f","6.941056910569106","768","428","f","true","nonmatch","img/triangle.png","弱我","强我","prac_ALT2_ability","practice_ability","","","","","","","","",""
"null","<span style='color:GreenYellow; font-size: 70px;'>正确! </span>","null","html-keyboard-response","67","358757","0.0-8.0-1.0-1.0-0.0-1.28","4","5","5","5","4","4","3","4","4","4","4","1","-1","1","1","1","1","2","1","4","5","5","5","4","4","5","5","5","4","8","8","7","7","6","8","7","8","8","5","6","4","6","6","4","5","1","6","3","1","5","3","4","6","6","6","5","5","4","6","5","5","7","6","6","5","6","6","6","7","7","5","3","6","6","6","7","6","6","6","781518032190312450","贺","501","Female","[""坏她"",""坏我"",""好她"",""好我""]","[""弱她"",""弱我"",""强她"",""强我""]","","","","","","","","","","","","","","","","","","","","","","","","","","","","","","feedback_test","","","","","","","","",""
"879","","f","psychophysics","68","360638","0.0-8.0-1.0-1.0-0.0-0.29","4","5","5","5","4","4","3","4","4","4","4","1","-1","1","1","1","1","2","1","4","5","5","5","4","4","5","5","5","4","8","8","7","7","6","8","7","8","8","5","6","4","6","6","4","5","1","6","3","1","5","3","4","6","6","6","5","5","4","6","5","5","7","6","6","5","6","6","6","7","7","5","3","6","6","6","7","6","6","6","781518032190312450","贺","501","Female","[""坏她"",""坏我"",""好她"",""好我""]","[""弱她"",""弱我"",""强她"",""强我""]","","","","","","","","nonmatch","","","","","","","","","","key","f","6.941851851851808","768","428","f","true","nonmatch","img/pentagon.png","弱我","弱她","prac_ALT2_ability","practice_ability","","","","","","","","",""
"null","<span style='color:GreenYellow; font-size: 70px;'>正确! </span>","null","html-keyboard-response","69","361139","0.0-8.0-1.0-1.0-0.0-1.29","4","5","5","5","4","4","3","4","4","4","4","1","-1","1","1","1","1","2","1","4","5","5","5","4","4","5","5","5","4","8","8","7","7","6","8","7","8","8","5","6","4","6","6","4","5","1","6","3","1","5","3","4","6","6","6","5","5","4","6","5","5","7","6","6","5","6","6","6","7","7","5","3","6","6","6","7","6","6","6","781518032190312450","贺","501","Female","[""坏她"",""坏我"",""好她"",""好我""]","[""弱她"",""弱我"",""强她"",""强我""]","","","","","","","","","","","","","","","","","","","","","","","","","","","","","","feedback_test","","","","","","","","",""
"null","","null","psychophysics","70","363345","0.0-8.0-1.0-1.0-0.0-0.30","4","5","5","5","4","4","3","4","4","4","4","1","-1","1","1","1","1","2","1","4","5","5","5","4","4","5","5","5","4","8","8","7","7","6","8","7","8","8","5","6","4","6","6","4","5","1","6","3","1","5","3","4","6","6","6","5","5","4","6","5","5","7","6","6","5","6","6","6","7","7","5","3","6","6","6","7","6","6","6","781518032190312450","贺","501","Female","[""坏她"",""坏我"",""好她"",""好我""]","[""弱她"",""弱我"",""强她"",""强我""]","","","","","","","","null","","","","","","","","","","key","null","6.940506329113961","768","428","j","false","match","img/trapezoid.png","强她","强她","prac_ALT2_ability","practice_ability","","","","","","","","",""
"null","<span class='add_' style='color:yellow; font-size: 70px;'> 太慢! </span>","null","html-keyboard-response","71","363846","0.0-8.0-1.0-1.0-0.0-1.30","4","5","5","5","4","4","3","4","4","4","4","1","-1","1","1","1","1","2","1","4","5","5","5","4","4","5","5","5","4","8","8","7","7","6","8","7","8","8","5","6","4","6","6","4","5","1","6","3","1","5","3","4","6","6","6","5","5","4","6","5","5","7","6","6","5","6","6","6","7","7","5","3","6","6","6","7","6","6","6","781518032190312450","贺","501","Female","[""坏她"",""坏我"",""好她"",""好我""]","[""弱她"",""弱我"",""强她"",""强我""]","","","","","","","","","","","","","","","","","","","","","","","","","","","","","","feedback_test","","","","","","","","",""
"null","","null","psychophysics","72","366051","0.0-8.0-1.0-1.0-0.0-0.31","4","5","5","5","4","4","3","4","4","4","4","1","-1","1","1","1","1","2","1","4","5","5","5","4","4","5","5","5","4","8","8","7","7","6","8","7","8","8","5","6","4","6","6","4","5","1","6","3","1","5","3","4","6","6","6","5","5","4","6","5","5","7","6","6","5","6","6","6","7","7","5","3","6","6","6","7","6","6","6","781518032190312450","贺","501","Female","[""坏她"",""坏我"",""好她"",""好我""]","[""弱她"",""弱我"",""强她"",""强我""]","","","","","","","","null","","","","","","","","","","key","null","6.94177215189866","768","428","f","false","nonmatch","img/triangle.png","弱她","强我","prac_ALT2_ability","practice_ability","","","","","","","","",""
"null","<span class='add_' style='color:yellow; font-size: 70px;'> 太慢! </span>","null","html-keyboard-response","73","366553","0.0-8.0-1.0-1.0-0.0-1.31","4","5","5","5","4","4","3","4","4","4","4","1","-1","1","1","1","1","2","1","4","5","5","5","4","4","5","5","5","4","8","8","7","7","6","8","7","8","8","5","6","4","6","6","4","5","1","6","3","1","5","3","4","6","6","6","5","5","4","6","5","5","7","6","6","5","6","6","6","7","7","5","3","6","6","6","7","6","6","6","781518032190312450","贺","501","Female","[""坏她"",""坏我"",""好她"",""好我""]","[""弱她"",""弱我"",""强她"",""强我""]","","","","","","","","","","","","","","","","","","","","","","","","","","","","","","feedback_test","","","","","","","","",""
"528","","f","psychophysics","74","368082","0.0-8.0-1.0-1.0-0.0-0.32","4","5","5","5","4","4","3","4","4","4","4","1","-1","1","1","1","1","2","1","4","5","5","5","4","4","5","5","5","4","8","8","7","7","6","8","7","8","8","5","6","4","6","6","4","5","1","6","3","1","5","3","4","6","6","6","5","5","4","6","5","5","7","6","6","5","6","6","6","7","7","5","3","6","6","6","7","6","6","6","781518032190312450","贺","501","Female","[""坏她"",""坏我"",""好她"",""好我""]","[""弱她"",""弱我"",""强她"",""强我""]","","","","","","","","nonmatch","","","","","","","","","","key","f","6.940182648401667","768","428","j","false","match","img/trapezoid.png","强她","强她","prac_ALT2_ability","practice_ability","","","","","","","","",""
"null","<span style='color:red; font-size: 70px;'>错误! </span>","null","html-keyboard-response","75","368583","0.0-8.0-1.0-1.0-0.0-1.32","4","5","5","5","4","4","3","4","4","4","4","1","-1","1","1","1","1","2","1","4","5","5","5","4","4","5","5","5","4","8","8","7","7","6","8","7","8","8","5","6","4","6","6","4","5","1","6","3","1","5","3","4","6","6","6","5","5","4","6","5","5","7","6","6","5","6","6","6","7","7","5","3","6","6","6","7","6","6","6","781518032190312450","贺","501","Female","[""坏她"",""坏我"",""好她"",""好我""]","[""弱她"",""弱我"",""强她"",""强我""]","","","","","","","","","","","","","","","","","","","","","","","","","","","","","","feedback_test","","","","","","","","",""
"818","","f","psychophysics","76","370403","0.0-8.0-1.0-1.0-0.0-0.33","4","5","5","5","4","4","3","4","4","4","4","1","-1","1","1","1","1","2","1","4","5","5","5","4","4","5","5","5","4","8","8","7","7","6","8","7","8","8","5","6","4","6","6","4","5","1","6","3","1","5","3","4","6","6","6","5","5","4","6","5","5","7","6","6","5","6","6","6","7","7","5","3","6","6","6","7","6","6","6","781518032190312450","贺","501","Female","[""坏她"",""坏我"",""好她"",""好我""]","[""弱她"",""弱我"",""强她"",""强我""]","","","","","","","","nonmatch","","","","","","","","","","key","f","6.941762452107235","768","428","f","true","nonmatch","img/ellipse.png","弱她","弱我","prac_ALT2_ability","practice_ability","","","","","","","","",""
"null","<span style='color:GreenYellow; font-size: 70px;'>正确! </span>","null","html-keyboard-response","77","370904","0.0-8.0-1.0-1.0-0.0-1.33","4","5","5","5","4","4","3","4","4","4","4","1","-1","1","1","1","1","2","1","4","5","5","5","4","4","5","5","5","4","8","8","7","7","6","8","7","8","8","5","6","4","6","6","4","5","1","6","3","1","5","3","4","6","6","6","5","5","4","6","5","5","7","6","6","5","6","6","6","7","7","5","3","6","6","6","7","6","6","6","781518032190312450","贺","501","Female","[""坏她"",""坏我"",""好她"",""好我""]","[""弱她"",""弱我"",""强她"",""强我""]","","","","","","","","","","","","","","","","","","","","","","","","","","","","","","feedback_test","","","","","","","","",""
"669","","f","psychophysics","78","372575","0.0-8.0-1.0-1.0-0.0-0.34","4","5","5","5","4","4","3","4","4","4","4","1","-1","1","1","1","1","2","1","4","5","5","5","4","4","5","5","5","4","8","8","7","7","6","8","7","8","8","5","6","4","6","6","4","5","1","6","3","1","5","3","4","6","6","6","5","5","4","6","5","5","7","6","6","5","6","6","6","7","7","5","3","6","6","6","7","6","6","6","781518032190312450","贺","501","Female","[""坏她"",""坏我"",""好她"",""好我""]","[""弱她"",""弱我"",""强她"",""强我""]","","","","","","","","nonmatch","","","","","","","","","","key","f","6.940833333333285","768","428","j","false","match","img/pentagon.png","弱她","弱她","prac_ALT2_ability","practice_ability","","","","","","","","",""
"null","<span style='color:red; font-size: 70px;'>错误! </span>","null","html-keyboard-response","79","373076","0.0-8.0-1.0-1.0-0.0-1.34","4","5","5","5","4","4","3","4","4","4","4","1","-1","1","1","1","1","2","1","4","5","5","5","4","4","5","5","5","4","8","8","7","7","6","8","7","8","8","5","6","4","6","6","4","5","1","6","3","1","5","3","4","6","6","6","5","5","4","6","5","5","7","6","6","5","6","6","6","7","7","5","3","6","6","6","7","6","6","6","781518032190312450","贺","501","Female","[""坏她"",""坏我"",""好她"",""好我""]","[""弱她"",""弱我"",""强她"",""强我""]","","","","","","","","","","","","","","","","","","","","","","","","","","","","","","feedback_test","","","","","","","","",""
"603","","f","psychophysics","80","374680","0.0-8.0-1.0-1.0-0.0-0.35","4","5","5","5","4","4","3","4","4","4","4","1","-1","1","1","1","1","2","1","4","5","5","5","4","4","5","5","5","4","8","8","7","7","6","8","7","8","8","5","6","4","6","6","4","5","1","6","3","1","5","3","4","6","6","6","5","5","4","6","5","5","7","6","6","5","6","6","6","7","7","5","3","6","6","6","7","6","6","6","781518032190312450","贺","501","Female","[""坏她"",""坏我"",""好她"",""好我""]","[""弱她"",""弱我"",""强她"",""强我""]","","","","","","","","nonmatch","","","","","","","","","","key","f","6.941739130434934","768","428","j","false","match","img/triangle.png","强我","强我","prac_ALT2_ability","practice_ability","","","","","","","","",""
"null","<span style='color:red; font-size: 70px;'>错误! </span>","null","html-keyboard-response","81","375180","0.0-8.0-1.0-1.0-0.0-1.35","4","5","5","5","4","4","3","4","4","4","4","1","-1","1","1","1","1","2","1","4","5","5","5","4","4","5","5","5","4","8","8","7","7","6","8","7","8","8","5","6","4","6","6","4","5","1","6","3","1","5","3","4","6","6","6","5","5","4","6","5","5","7","6","6","5","6","6","6","7","7","5","3","6","6","6","7","6","6","6","781518032190312450","贺","501","Female","[""坏她"",""坏我"",""好她"",""好我""]","[""弱她"",""弱我"",""强她"",""强我""]","","","","","","","","","","","","","","","","","","","","","","","","","","","","","","feedback_test","","","","","","","","",""
"754","","f","psychophysics","82","376935","0.0-8.0-1.0-1.0-0.0-0.36","4","5","5","5","4","4","3","4","4","4","4","1","-1","1","1","1","1","2","1","4","5","5","5","4","4","5","5","5","4","8","8","7","7","6","8","7","8","8","5","6","4","6","6","4","5","1","6","3","1","5","3","4","6","6","6","5","5","4","6","5","5","7","6","6","5","6","6","6","7","7","5","3","6","6","6","7","6","6","6","781518032190312450","贺","501","Female","[""坏她"",""坏我"",""好她"",""好我""]","[""弱她"",""弱我"",""强她"",""强我""]","","","","","","","","nonmatch","","","","","","","","","","key","f","6.937450199203141","768","428","f","true","nonmatch","img/ellipse.png","强她","弱我","prac_ALT2_ability","practice_ability","","","","","","","","",""
"null","<span style='color:GreenYellow; font-size: 70px;'>正确! </span>","null","html-keyboard-response","83","377436","0.0-8.0-1.0-1.0-0.0-1.36","4","5","5","5","4","4","3","4","4","4","4","1","-1","1","1","1","1","2","1","4","5","5","5","4","4","5","5","5","4","8","8","7","7","6","8","7","8","8","5","6","4","6","6","4","5","1","6","3","1","5","3","4","6","6","6","5","5","4","6","5","5","7","6","6","5","6","6","6","7","7","5","3","6","6","6","7","6","6","6","781518032190312450","贺","501","Female","[""坏她"",""坏我"",""好她"",""好我""]","[""弱她"",""弱我"",""强她"",""强我""]","","","","","","","","","","","","","","","","","","","","","","","","","","","","","","feedback_test","","","","","","","","",""
"900","","f","psychophysics","84","379339","0.0-8.0-1.0-1.0-0.0-0.37","4","5","5","5","4","4","3","4","4","4","4","1","-1","1","1","1","1","2","1","4","5","5","5","4","4","5","5","5","4","8","8","7","7","6","8","7","8","8","5","6","4","6","6","4","5","1","6","3","1","5","3","4","6","6","6","5","5","4","6","5","5","7","6","6","5","6","6","6","7","7","5","3","6","6","6","7","6","6","6","781518032190312450","贺","501","Female","[""坏她"",""坏我"",""好她"",""好我""]","[""弱她"",""弱我"",""强她"",""强我""]","","","","","","","","nonmatch","","","","","","","","","","key","f","6.9375","768","428","f","true","nonmatch","img/trapezoid.png","弱我","强她","prac_ALT2_ability","practice_ability","","","","","","","","",""
"null","<span style='color:GreenYellow; font-size: 70px;'>正确! </span>","null","html-keyboard-response","85","379840","0.0-8.0-1.0-1.0-0.0-1.37","4","5","5","5","4","4","3","4","4","4","4","1","-1","1","1","1","1","2","1","4","5","5","5","4","4","5","5","5","4","8","8","7","7","6","8","7","8","8","5","6","4","6","6","4","5","1","6","3","1","5","3","4","6","6","6","5","5","4","6","5","5","7","6","6","5","6","6","6","7","7","5","3","6","6","6","7","6","6","6","781518032190312450","贺","501","Female","[""坏她"",""坏我"",""好她"",""好我""]","[""弱她"",""弱我"",""强她"",""强我""]","","","","","","","","","","","","","","","","","","","","","","","","","","","","","","feedback_test","","","","","","","","",""
"1061","","f","psychophysics","86","381903","0.0-8.0-1.0-1.0-0.0-0.38","4","5","5","5","4","4","3","4","4","4","4","1","-1","1","1","1","1","2","1","4","5","5","5","4","4","5","5","5","4","8","8","7","7","6","8","7","8","8","5","6","4","6","6","4","5","1","6","3","1","5","3","4","6","6","6","5","5","4","6","5","5","7","6","6","5","6","6","6","7","7","5","3","6","6","6","7","6","6","6","781518032190312450","贺","501","Female","[""坏她"",""坏我"",""好她"",""好我""]","[""弱她"",""弱我"",""强她"",""强我""]","","","","","","","","nonmatch","","","","","","","","","","key","f","6.940878378378378","768","428","f","true","nonmatch","img/trapezoid.png","强我","强她","prac_ALT2_ability","practice_ability","","","","","","","","",""
"null","<span style='color:GreenYellow; font-size: 70px;'>正确! </span>","null","html-keyboard-response","87","382404","0.0-8.0-1.0-1.0-0.0-1.38","4","5","5","5","4","4","3","4","4","4","4","1","-1","1","1","1","1","2","1","4","5","5","5","4","4","5","5","5","4","8","8","7","7","6","8","7","8","8","5","6","4","6","6","4","5","1","6","3","1","5","3","4","6","6","6","5","5","4","6","5","5","7","6","6","5","6","6","6","7","7","5","3","6","6","6","7","6","6","6","781518032190312450","贺","501","Female","[""坏她"",""坏我"",""好她"",""好我""]","[""弱她"",""弱我"",""强她"",""强我""]","","","","","","","","","","","","","","","","","","","","","","","","","","","","","","feedback_test","","","","","","","","",""
"786","","f","psychophysics","88","384191","0.0-8.0-1.0-1.0-0.0-0.39","4","5","5","5","4","4","3","4","4","4","4","1","-1","1","1","1","1","2","1","4","5","5","5","4","4","5","5","5","4","8","8","7","7","6","8","7","8","8","5","6","4","6","6","4","5","1","6","3","1","5","3","4","6","6","6","5","5","4","6","5","5","7","6","6","5","6","6","6","7","7","5","3","6","6","6","7","6","6","6","781518032190312450","贺","501","Female","[""坏她"",""坏我"",""好她"",""好我""]","[""弱她"",""弱我"",""强她"",""强我""]","","","","","","","","nonmatch","","","","","","","","","","key","f","6.9421875000000455","768","428","j","false","match","img/triangle.png","强我","强我","prac_ALT2_ability","practice_ability","","","","","","","","",""
"null","<span style='color:red; font-size: 70px;'>错误! </span>","null","html-keyboard-response","89","384692","0.0-8.0-1.0-1.0-0.0-1.39","4","5","5","5","4","4","3","4","4","4","4","1","-1","1","1","1","1","2","1","4","5","5","5","4","4","5","5","5","4","8","8","7","7","6","8","7","8","8","5","6","4","6","6","4","5","1","6","3","1","5","3","4","6","6","6","5","5","4","6","5","5","7","6","6","5","6","6","6","7","7","5","3","6","6","6","7","6","6","6","781518032190312450","贺","501","Female","[""坏她"",""坏我"",""好她"",""好我""]","[""弱她"",""弱我"",""强她"",""强我""]","","","","","","","","","","","","","","","","","","","","","","","","","","","","","","feedback_test","","","","","","","","",""
"815","","f","psychophysics","90","386507","0.0-8.0-1.0-1.0-0.0-0.40","4","5","5","5","4","4","3","4","4","4","4","1","-1","1","1","1","1","2","1","4","5","5","5","4","4","5","5","5","4","8","8","7","7","6","8","7","8","8","5","6","4","6","6","4","5","1","6","3","1","5","3","4","6","6","6","5","5","4","6","5","5","7","6","6","5","6","6","6","7","7","5","3","6","6","6","7","6","6","6","781518032190312450","贺","501","Female","[""坏她"",""坏我"",""好她"",""好我""]","[""弱她"",""弱我"",""强她"",""强我""]","","","","","","","","nonmatch","","","","","","","","","","key","f","6.941153846153891","768","428","j","false","match","img/trapezoid.png","强她","强她","prac_ALT2_ability","practice_ability","","","","","","","","",""
"null","<span style='color:red; font-size: 70px;'>错误! </span>","null","html-keyboard-response","91","387008","0.0-8.0-1.0-1.0-0.0-1.40","4","5","5","5","4","4","3","4","4","4","4","1","-1","1","1","1","1","2","1","4","5","5","5","4","4","5","5","5","4","8","8","7","7","6","8","7","8","8","5","6","4","6","6","4","5","1","6","3","1","5","3","4","6","6","6","5","5","4","6","5","5","7","6","6","5","6","6","6","7","7","5","3","6","6","6","7","6","6","6","781518032190312450","贺","501","Female","[""坏她"",""坏我"",""好她"",""好我""]","[""弱她"",""弱我"",""强她"",""强我""]","","","","","","","","","","","","","","","","","","","","","","","","","","","","","","feedback_test","","","","","","","","",""
"689","","j","psychophysics","92","388698","0.0-8.0-1.0-1.0-0.0-0.41","4","5","5","5","4","4","3","4","4","4","4","1","-1","1","1","1","1","2","1","4","5","5","5","4","4","5","5","5","4","8","8","7","7","6","8","7","8","8","5","6","4","6","6","4","5","1","6","3","1","5","3","4","6","6","6","5","5","4","6","5","5","7","6","6","5","6","6","6","7","7","5","3","6","6","6","7","6","6","6","781518032190312450","贺","501","Female","[""坏她"",""坏我"",""好她"",""好我""]","[""弱她"",""弱我"",""强她"",""强我""]","","","","","","","","match","","","","","","","","","","key","j","6.9411522633745335","768","428","j","true","match","img/ellipse.png","弱我","弱我","prac_ALT2_ability","practice_ability","","","","","","","","",""
"null","<span style='color:GreenYellow; font-size: 70px;'>正确! </span>","null","html-keyboard-response","93","389200","0.0-8.0-1.0-1.0-0.0-1.41","4","5","5","5","4","4","3","4","4","4","4","1","-1","1","1","1","1","2","1","4","5","5","5","4","4","5","5","5","4","8","8","7","7","6","8","7","8","8","5","6","4","6","6","4","5","1","6","3","1","5","3","4","6","6","6","5","5","4","6","5","5","7","6","6","5","6","6","6","7","7","5","3","6","6","6","7","6","6","6","781518032190312450","贺","501","Female","[""坏她"",""坏我"",""好她"",""好我""]","[""弱她"",""弱我"",""强她"",""强我""]","","","","","","","","","","","","","","","","","","","","","","","","","","","","","","feedback_test","","","","","","","","",""
"762","","j","psychophysics","94","390963","0.0-8.0-1.0-1.0-0.0-0.42","4","5","5","5","4","4","3","4","4","4","4","1","-1","1","1","1","1","2","1","4","5","5","5","4","4","5","5","5","4","8","8","7","7","6","8","7","8","8","5","6","4","6","6","4","5","1","6","3","1","5","3","4","6","6","6","5","5","4","6","5","5","7","6","6","5","6","6","6","7","7","5","3","6","6","6","7","6","6","6","781518032190312450","贺","501","Female","[""坏她"",""坏我"",""好她"",""好我""]","[""弱她"",""弱我"",""强她"",""强我""]","","","","","","","","match","","","","","","","","","","key","j","6.941501976284401","768","428","j","true","match","img/pentagon.png","弱她","弱她","prac_ALT2_ability","practice_ability","","","","","","","","",""
"null","<span style='color:GreenYellow; font-size: 70px;'>正确! </span>","null","html-keyboard-response","95","391464","0.0-8.0-1.0-1.0-0.0-1.42","4","5","5","5","4","4","3","4","4","4","4","1","-1","1","1","1","1","2","1","4","5","5","5","4","4","5","5","5","4","8","8","7","7","6","8","7","8","8","5","6","4","6","6","4","5","1","6","3","1","5","3","4","6","6","6","5","5","4","6","5","5","7","6","6","5","6","6","6","7","7","5","3","6","6","6","7","6","6","6","781518032190312450","贺","501","Female","[""坏她"",""坏我"",""好她"",""好我""]","[""弱她"",""弱我"",""强她"",""强我""]","","","","","","","","","","","","","","","","","","","","","","","","","","","","","","feedback_test","","","","","","","","",""
"771","","f","psychophysics","96","393237","0.0-8.0-1.0-1.0-0.0-0.43","4","5","5","5","4","4","3","4","4","4","4","1","-1","1","1","1","1","2","1","4","5","5","5","4","4","5","5","5","4","8","8","7","7","6","8","7","8","8","5","6","4","6","6","4","5","1","6","3","1","5","3","4","6","6","6","5","5","4","6","5","5","7","6","6","5","6","6","6","7","7","5","3","6","6","6","7","6","6","6","781518032190312450","贺","501","Female","[""坏她"",""坏我"",""好她"",""好我""]","[""弱她"",""弱我"",""强她"",""强我""]","","","","","","","","nonmatch","","","","","","","","","","key","f","6.937007874015748","768","428","f","true","nonmatch","img/ellipse.png","强我","弱我","prac_ALT2_ability","practice_ability","","","","","","","","",""
"null","<span style='color:GreenYellow; font-size: 70px;'>正确! </span>","null","html-keyboard-response","97","393737","0.0-8.0-1.0-1.0-0.0-1.43","4","5","5","5","4","4","3","4","4","4","4","1","-1","1","1","1","1","2","1","4","5","5","5","4","4","5","5","5","4","8","8","7","7","6","8","7","8","8","5","6","4","6","6","4","5","1","6","3","1","5","3","4","6","6","6","5","5","4","6","5","5","7","6","6","5","6","6","6","7","7","5","3","6","6","6","7","6","6","6","781518032190312450","贺","501","Female","[""坏她"",""坏我"",""好她"",""好我""]","[""弱她"",""弱我"",""强她"",""强我""]","","","","","","","","","","","","","","","","","","","","","","","","","","","","","","feedback_test","","","","","","","","",""
"1143","","f","psychophysics","98","395882","0.0-8.0-1.0-1.0-0.0-0.44","4","5","5","5","4","4","3","4","4","4","4","1","-1","1","1","1","1","2","1","4","5","5","5","4","4","5","5","5","4","8","8","7","7","6","8","7","8","8","5","6","4","6","6","4","5","1","6","3","1","5","3","4","6","6","6","5","5","4","6","5","5","7","6","6","5","6","6","6","7","7","5","3","6","6","6","7","6","6","6","781518032190312450","贺","501","Female","[""坏她"",""坏我"",""好她"",""好我""]","[""弱她"",""弱我"",""强她"",""强我""]","","","","","","","","nonmatch","","","","","","","","","","key","f","6.941233766233842","768","428","f","true","nonmatch","img/pentagon.png","强我","弱她","prac_ALT2_ability","practice_ability","","","","","","","","",""
"null","<span style='color:GreenYellow; font-size: 70px;'>正确! </span>","null","html-keyboard-response","99","396383","0.0-8.0-1.0-1.0-0.0-1.44","4","5","5","5","4","4","3","4","4","4","4","1","-1","1","1","1","1","2","1","4","5","5","5","4","4","5","5","5","4","8","8","7","7","6","8","7","8","8","5","6","4","6","6","4","5","1","6","3","1","5","3","4","6","6","6","5","5","4","6","5","5","7","6","6","5","6","6","6","7","7","5","3","6","6","6","7","6","6","6","781518032190312450","贺","501","Female","[""坏她"",""坏我"",""好她"",""好我""]","[""弱她"",""弱我"",""强她"",""强我""]","","","","","","","","","","","","","","","","","","","","","","","","","","","","","","feedback_test","","","","","","","","",""
"649","","f","psychophysics","100","398035","0.0-8.0-1.0-1.0-0.0-0.45","4","5","5","5","4","4","3","4","4","4","4","1","-1","1","1","1","1","2","1","4","5","5","5","4","4","5","5","5","4","8","8","7","7","6","8","7","8","8","5","6","4","6","6","4","5","1","6","3","1","5","3","4","6","6","6","5","5","4","6","5","5","7","6","6","5","6","6","6","7","7","5","3","6","6","6","7","6","6","6","781518032190312450","贺","501","Female","[""坏她"",""坏我"",""好她"",""好我""]","[""弱她"",""弱我"",""强她"",""强我""]","","","","","","","","nonmatch","","","","","","","","","","key","f","6.940506329113776","768","428","j","false","match","img/ellipse.png","弱我","弱我","prac_ALT2_ability","practice_ability","","","","","","","","",""
"null","<span style='color:red; font-size: 70px;'>错误! </span>","null","html-keyboard-response","101","398536","0.0-8.0-1.0-1.0-0.0-1.45","4","5","5","5","4","4","3","4","4","4","4","1","-1","1","1","1","1","2","1","4","5","5","5","4","4","5","5","5","4","8","8","7","7","6","8","7","8","8","5","6","4","6","6","4","5","1","6","3","1","5","3","4","6","6","6","5","5","4","6","5","5","7","6","6","5","6","6","6","7","7","5","3","6","6","6","7","6","6","6","781518032190312450","贺","501","Female","[""坏她"",""坏我"",""好她"",""好我""]","[""弱她"",""弱我"",""强她"",""强我""]","","","","","","","","","","","","","","","","","","","","","","","","","","","","","","feedback_test","","","","","","","","",""
"711","","f","psychophysics","102","400248","0.0-8.0-1.0-1.0-0.0-0.46","4","5","5","5","4","4","3","4","4","4","4","1","-1","1","1","1","1","2","1","4","5","5","5","4","4","5","5","5","4","8","8","7","7","6","8","7","8","8","5","6","4","6","6","4","5","1","6","3","1","5","3","4","6","6","6","5","5","4","6","5","5","7","6","6","5","6","6","6","7","7","5","3","6","6","6","7","6","6","6","781518032190312450","贺","501","Female","[""坏她"",""坏我"",""好她"",""好我""]","[""弱她"",""弱我"",""强她"",""强我""]","","","","","","","","nonmatch","","","","","","","","","","key","f","6.941056910569106","768","428","f","true","nonmatch","img/triangle.png","强她","强我","prac_ALT2_ability","practice_ability","","","","","","","","",""
"null","<span style='color:GreenYellow; font-size: 70px;'>正确! </span>","null","html-keyboard-response","103","400749","0.0-8.0-1.0-1.0-0.0-1.46","4","5","5","5","4","4","3","4","4","4","4","1","-1","1","1","1","1","2","1","4","5","5","5","4","4","5","5","5","4","8","8","7","7","6","8","7","8","8","5","6","4","6","6","4","5","1","6","3","1","5","3","4","6","6","6","5","5","4","6","5","5","7","6","6","5","6","6","6","7","7","5","3","6","6","6","7","6","6","6","781518032190312450","贺","501","Female","[""坏她"",""坏我"",""好她"",""好我""]","[""弱她"",""弱我"",""强她"",""强我""]","","","","","","","","","","","","","","","","","","","","","","","","","","","","","","feedback_test","","","","","","","","",""
"804","","j","psychophysics","104","402556","0.0-8.0-1.0-1.0-0.0-0.47","4","5","5","5","4","4","3","4","4","4","4","1","-1","1","1","1","1","2","1","4","5","5","5","4","4","5","5","5","4","8","8","7","7","6","8","7","8","8","5","6","4","6","6","4","5","1","6","3","1","5","3","4","6","6","6","5","5","4","6","5","5","7","6","6","5","6","6","6","7","7","5","3","6","6","6","7","6","6","6","781518032190312450","贺","501","Female","[""坏她"",""坏我"",""好她"",""好我""]","[""弱她"",""弱我"",""强她"",""强我""]","","","","","","","","match","","","","","","","","","","key","j","6.940926640926686","768","428","j","true","match","img/triangle.png","强我","强我","prac_ALT2_ability","practice_ability","","","","","","","","",""
"null","<span style='color:GreenYellow; font-size: 70px;'>正确! </span>","null","html-keyboard-response","105","403056","0.0-8.0-1.0-1.0-0.0-1.47","4","5","5","5","4","4","3","4","4","4","4","1","-1","1","1","1","1","2","1","4","5","5","5","4","4","5","5","5","4","8","8","7","7","6","8","7","8","8","5","6","4","6","6","4","5","1","6","3","1","5","3","4","6","6","6","5","5","4","6","5","5","7","6","6","5","6","6","6","7","7","5","3","6","6","6","7","6","6","6","781518032190312450","贺","501","Female","[""坏她"",""坏我"",""好她"",""好我""]","[""弱她"",""弱我"",""强她"",""强我""]","","","","","","","","","","","","","","","","","","","","","","","","","","","","","","feedback_test","","","","","","","","",""
"12038","<style>.context{color:white; font-size: 35px; line-height:40px}</style>                          <div><p class='context'>您正确回答了52% 的试次。</p><p class='context'>您的平均反应时为797毫秒。</p><p class='context'>恭喜您完成练习。按空格键继续。</p></div>"," ","html-keyboard-response","106","415096","0.0-8.0-1.0-1.0-1.0-0.0","4","5","5","5","4","4","3","4","4","4","4","1","-1","1","1","1","1","2","1","4","5","5","5","4","4","5","5","5","4","8","8","7","7","6","8","7","8","8","5","6","4","6","6","4","5","1","6","3","1","5","3","4","6","6","6","5","5","4","6","5","5","7","6","6","5","6","6","6","7","7","5","3","6","6","6","7","6","6","6","781518032190312450","贺","501","Female","[""坏她"",""坏我"",""好她"",""好我""]","[""弱她"",""弱我"",""强她"",""强我""]","","","","","","","","","","","","","","","","","","","","","","","","","","","","","","","","","","","","","","",""
"16515","","","instructions","107","431612","0.0-8.0-1.0-1.0-1.0-1.0","4","5","5","5","4","4","3","4","4","4","4","1","-1","1","1","1","1","2","1","4","5","5","5","4","4","5","5","5","4","8","8","7","7","6","8","7","8","8","5","6","4","6","6","4","5","1","6","3","1","5","3","4","6","6","6","5","5","4","6","5","5","7","6","6","5","6","6","6","7","7","5","3","6","6","6","7","6","6","6","781518032190312450","贺","501","Female","[""坏她"",""坏我"",""好她"",""好我""]","[""弱她"",""弱我"",""强她"",""强我""]","","","","","","","","","","","","","","","","","[{""page_index"":0,""viewing_time"":1853},{""page_index"":1,""viewing_time"":11912},{""page_index"":2,""viewing_time"":2750}]","","","","","","","","","","","","","","","","","","","","","",""
"807","","f","psychophysics","108","433423","0.0-8.0-1.0-1.1-0.1-0.48","4","5","5","5","4","4","3","4","4","4","4","1","-1","1","1","1","1","2","1","4","5","5","5","4","4","5","5","5","4","8","8","7","7","6","8","7","8","8","5","6","4","6","6","4","5","1","6","3","1","5","3","4","6","6","6","5","5","4","6","5","5","7","6","6","5","6","6","6","7","7","5","3","6","6","6","7","6","6","6","781518032190312450","贺","501","Female","[""坏她"",""坏我"",""好她"",""好我""]","[""弱她"",""弱我"",""强她"",""强我""]","","","","","","","","nonmatch","","","","","","","","","","key","f","6.94015444015444","768","428","f","true","nonmatch","img/trapezoid.png","弱我","强她","prac_ALT2_ability","practice_ability","","","","","","","","",""
"null","<span style='color:GreenYellow; font-size: 70px;'>正确! </span>","null","html-keyboard-response","109","433924","0.0-8.0-1.0-1.1-0.1-1.48","4","5","5","5","4","4","3","4","4","4","4","1","-1","1","1","1","1","2","1","4","5","5","5","4","4","5","5","5","4","8","8","7","7","6","8","7","8","8","5","6","4","6","6","4","5","1","6","3","1","5","3","4","6","6","6","5","5","4","6","5","5","7","6","6","5","6","6","6","7","7","5","3","6","6","6","7","6","6","6","781518032190312450","贺","501","Female","[""坏她"",""坏我"",""好她"",""好我""]","[""弱她"",""弱我"",""强她"",""强我""]","","","","","","","","","","","","","","","","","","","","","","","","","","","","","","feedback_test","","","","","","","","",""
"874","","f","psychophysics","110","435800","0.0-8.0-1.0-1.1-0.1-0.49","4","5","5","5","4","4","3","4","4","4","4","1","-1","1","1","1","1","2","1","4","5","5","5","4","4","5","5","5","4","8","8","7","7","6","8","7","8","8","5","6","4","6","6","4","5","1","6","3","1","5","3","4","6","6","6","5","5","4","6","5","5","7","6","6","5","6","6","6","7","7","5","3","6","6","6","7","6","6","6","781518032190312450","贺","501","Female","[""坏她"",""坏我"",""好她"",""好我""]","[""弱她"",""弱我"",""强她"",""强我""]","","","","","","","","nonmatch","","","","","","","","","","key","f","6.941263940520489","768","428","f","true","nonmatch","img/triangle.png","弱我","强我","prac_ALT2_ability","practice_ability","","","","","","","","",""
"null","<span style='color:GreenYellow; font-size: 70px;'>正确! </span>","null","html-keyboard-response","111","436302","0.0-8.0-1.0-1.1-0.1-1.49","4","5","5","5","4","4","3","4","4","4","4","1","-1","1","1","1","1","2","1","4","5","5","5","4","4","5","5","5","4","8","8","7","7","6","8","7","8","8","5","6","4","6","6","4","5","1","6","3","1","5","3","4","6","6","6","5","5","4","6","5","5","7","6","6","5","6","6","6","7","7","5","3","6","6","6","7","6","6","6","781518032190312450","贺","501","Female","[""坏她"",""坏我"",""好她"",""好我""]","[""弱她"",""弱我"",""强她"",""强我""]","","","","","","","","","","","","","","","","","","","","","","","","","","","","","","feedback_test","","","","","","","","",""
"756","","f","psychophysics","112","438059","0.0-8.0-1.0-1.1-0.1-0.50","4","5","5","5","4","4","3","4","4","4","4","1","-1","1","1","1","1","2","1","4","5","5","5","4","4","5","5","5","4","8","8","7","7","6","8","7","8","8","5","6","4","6","6","4","5","1","6","3","1","5","3","4","6","6","6","5","5","4","6","5","5","7","6","6","5","6","6","6","7","7","5","3","6","6","6","7","6","6","6","781518032190312450","贺","501","Female","[""坏她"",""坏我"",""好她"",""好我""]","[""弱她"",""弱我"",""强她"",""强我""]","","","","","","","","nonmatch","","","","","","","","","","key","f","6.941666666666851","768","428","f","true","nonmatch","img/ellipse.png","强我","弱我","prac_ALT2_ability","practice_ability","","","","","","","","",""
"null","<span style='color:GreenYellow; font-size: 70px;'>正确! </span>","null","html-keyboard-response","113","438561","0.0-8.0-1.0-1.1-0.1-1.50","4","5","5","5","4","4","3","4","4","4","4","1","-1","1","1","1","1","2","1","4","5","5","5","4","4","5","5","5","4","8","8","7","7","6","8","7","8","8","5","6","4","6","6","4","5","1","6","3","1","5","3","4","6","6","6","5","5","4","6","5","5","7","6","6","5","6","6","6","7","7","5","3","6","6","6","7","6","6","6","781518032190312450","贺","501","Female","[""坏她"",""坏我"",""好她"",""好我""]","[""弱她"",""弱我"",""强她"",""强我""]","","","","","","","","","","","","","","","","","","","","","","","","","","","","","","feedback_test","","","","","","","","",""
"829","","f","psychophysics","114","440390","0.0-8.0-1.0-1.1-0.1-0.51","4","5","5","5","4","4","3","4","4","4","4","1","-1","1","1","1","1","2","1","4","5","5","5","4","4","5","5","5","4","8","8","7","7","6","8","7","8","8","5","6","4","6","6","4","5","1","6","3","1","5","3","4","6","6","6","5","5","4","6","5","5","7","6","6","5","6","6","6","7","7","5","3","6","6","6","7","6","6","6","781518032190312450","贺","501","Female","[""坏她"",""坏我"",""好她"",""好我""]","[""弱她"",""弱我"",""强她"",""强我""]","","","","","","","","nonmatch","","","","","","","","","","key","f","6.941221374045712","768","428","f","true","nonmatch","img/ellipse.png","弱她","弱我","prac_ALT2_ability","practice_ability","","","","","","","","",""
"null","<span style='color:GreenYellow; font-size: 70px;'>正确! </span>","null","html-keyboard-response","115","440892","0.0-8.0-1.0-1.1-0.1-1.51","4","5","5","5","4","4","3","4","4","4","4","1","-1","1","1","1","1","2","1","4","5","5","5","4","4","5","5","5","4","8","8","7","7","6","8","7","8","8","5","6","4","6","6","4","5","1","6","3","1","5","3","4","6","6","6","5","5","4","6","5","5","7","6","6","5","6","6","6","7","7","5","3","6","6","6","7","6","6","6","781518032190312450","贺","501","Female","[""坏她"",""坏我"",""好她"",""好我""]","[""弱她"",""弱我"",""强她"",""强我""]","","","","","","","","","","","","","","","","","","","","","","","","","","","","","","feedback_test","","","","","","","","",""
"898","","j","psychophysics","116","442791","0.0-8.0-1.0-1.1-0.1-0.52","4","5","5","5","4","4","3","4","4","4","4","1","-1","1","1","1","1","2","1","4","5","5","5","4","4","5","5","5","4","8","8","7","7","6","8","7","8","8","5","6","4","6","6","4","5","1","6","3","1","5","3","4","6","6","6","5","5","4","6","5","5","7","6","6","5","6","6","6","7","7","5","3","6","6","6","7","6","6","6","781518032190312450","贺","501","Female","[""坏她"",""坏我"",""好她"",""好我""]","[""弱她"",""弱我"",""强她"",""强我""]","","","","","","","","match","","","","","","","","","","key","j","6.940293040293083","768","428","j","true","match","img/trapezoid.png","强她","强她","prac_ALT2_ability","practice_ability","","","","","","","","",""
"null","<span style='color:GreenYellow; font-size: 70px;'>正确! </span>","null","html-keyboard-response","117","443292","0.0-8.0-1.0-1.1-0.1-1.52","4","5","5","5","4","4","3","4","4","4","4","1","-1","1","1","1","1","2","1","4","5","5","5","4","4","5","5","5","4","8","8","7","7","6","8","7","8","8","5","6","4","6","6","4","5","1","6","3","1","5","3","4","6","6","6","5","5","4","6","5","5","7","6","6","5","6","6","6","7","7","5","3","6","6","6","7","6","6","6","781518032190312450","贺","501","Female","[""坏她"",""坏我"",""好她"",""好我""]","[""弱她"",""弱我"",""强她"",""强我""]","","","","","","","","","","","","","","","","","","","","","","","","","","","","","","feedback_test","","","","","","","","",""
"845","","j","psychophysics","118","445138","0.0-8.0-1.0-1.1-0.1-0.53","4","5","5","5","4","4","3","4","4","4","4","1","-1","1","1","1","1","2","1","4","5","5","5","4","4","5","5","5","4","8","8","7","7","6","8","7","8","8","5","6","4","6","6","4","5","1","6","3","1","5","3","4","6","6","6","5","5","4","6","5","5","7","6","6","5","6","6","6","7","7","5","3","6","6","6","7","6","6","6","781518032190312450","贺","501","Female","[""坏她"",""坏我"",""好她"",""好我""]","[""弱她"",""弱我"",""强她"",""强我""]","","","","","","","","match","","","","","","","","","","key","j","6.941132075471566","768","428","j","true","match","img/ellipse.png","弱我","弱我","prac_ALT2_ability","practice_ability","","","","","","","","",""
"null","<span style='color:GreenYellow; font-size: 70px;'>正确! </span>","null","html-keyboard-response","119","445640","0.0-8.0-1.0-1.1-0.1-1.53","4","5","5","5","4","4","3","4","4","4","4","1","-1","1","1","1","1","2","1","4","5","5","5","4","4","5","5","5","4","8","8","7","7","6","8","7","8","8","5","6","4","6","6","4","5","1","6","3","1","5","3","4","6","6","6","5","5","4","6","5","5","7","6","6","5","6","6","6","7","7","5","3","6","6","6","7","6","6","6","781518032190312450","贺","501","Female","[""坏她"",""坏我"",""好她"",""好我""]","[""弱她"",""弱我"",""强她"",""强我""]","","","","","","","","","","","","","","","","","","","","","","","","","","","","","","feedback_test","","","","","","","","",""
"1000","","f","psychophysics","120","447641","0.0-8.0-1.0-1.1-0.1-0.54","4","5","5","5","4","4","3","4","4","4","4","1","-1","1","1","1","1","2","1","4","5","5","5","4","4","5","5","5","4","8","8","7","7","6","8","7","8","8","5","6","4","6","6","4","5","1","6","3","1","5","3","4","6","6","6","5","5","4","6","5","5","7","6","6","5","6","6","6","7","7","5","3","6","6","6","7","6","6","6","781518032190312450","贺","501","Female","[""坏她"",""坏我"",""好她"",""好我""]","[""弱她"",""弱我"",""强她"",""强我""]","","","","","","","","nonmatch","","","","","","","","","","key","f","6.941666666666505","768","428","j","false","match","img/trapezoid.png","强她","强她","prac_ALT2_ability","practice_ability","","","","","","","","",""
"null","<span style='color:red; font-size: 70px;'>错误! </span>","null","html-keyboard-response","121","448143","0.0-8.0-1.0-1.1-0.1-1.54","4","5","5","5","4","4","3","4","4","4","4","1","-1","1","1","1","1","2","1","4","5","5","5","4","4","5","5","5","4","8","8","7","7","6","8","7","8","8","5","6","4","6","6","4","5","1","6","3","1","5","3","4","6","6","6","5","5","4","6","5","5","7","6","6","5","6","6","6","7","7","5","3","6","6","6","7","6","6","6","781518032190312450","贺","501","Female","[""坏她"",""坏我"",""好她"",""好我""]","[""弱她"",""弱我"",""强她"",""强我""]","","","","","","","","","","","","","","","","","","","","","","","","","","","","","","feedback_test","","","","","","","","",""
"722","","j","psychophysics","122","449870","0.0-8.0-1.0-1.1-0.1-0.55","4","5","5","5","4","4","3","4","4","4","4","1","-1","1","1","1","1","2","1","4","5","5","5","4","4","5","5","5","4","8","8","7","7","6","8","7","8","8","5","6","4","6","6","4","5","1","6","3","1","5","3","4","6","6","6","5","5","4","6","5","5","7","6","6","5","6","6","6","7","7","5","3","6","6","6","7","6","6","6","781518032190312450","贺","501","Female","[""坏她"",""坏我"",""好她"",""好我""]","[""弱她"",""弱我"",""强她"",""强我""]","","","","","","","","match","","","","","","","","","","key","j","6.9411290322579235","768","428","j","true","match","img/triangle.png","强我","强我","prac_ALT2_ability","practice_ability","","","","","","","","",""
"null","<span style='color:GreenYellow; font-size: 70px;'>正确! </span>","null","html-keyboard-response","123","450371","0.0-8.0-1.0-1.1-0.1-1.55","4","5","5","5","4","4","3","4","4","4","4","1","-1","1","1","1","1","2","1","4","5","5","5","4","4","5","5","5","4","8","8","7","7","6","8","7","8","8","5","6","4","6","6","4","5","1","6","3","1","5","3","4","6","6","6","5","5","4","6","5","5","7","6","6","5","6","6","6","7","7","5","3","6","6","6","7","6","6","6","781518032190312450","贺","501","Female","[""坏她"",""坏我"",""好她"",""好我""]","[""弱她"",""弱我"",""强她"",""强我""]","","","","","","","","","","","","","","","","","","","","","","","","","","","","","","feedback_test","","","","","","","","",""
"776","","f","psychophysics","124","452150","0.0-8.0-1.0-1.1-0.1-0.56","4","5","5","5","4","4","3","4","4","4","4","1","-1","1","1","1","1","2","1","4","5","5","5","4","4","5","5","5","4","8","8","7","7","6","8","7","8","8","5","6","4","6","6","4","5","1","6","3","1","5","3","4","6","6","6","5","5","4","6","5","5","7","6","6","5","6","6","6","7","7","5","3","6","6","6","7","6","6","6","781518032190312450","贺","501","Female","[""坏她"",""坏我"",""好她"",""好我""]","[""弱她"",""弱我"",""强她"",""强我""]","","","","","","","","nonmatch","","","","","","","","","","key","f","6.941568627450889","768","428","f","true","nonmatch","img/pentagon.png","弱我","弱她","prac_ALT2_ability","practice_ability","","","","","","","","",""
"null","<span style='color:GreenYellow; font-size: 70px;'>正确! </span>","null","html-keyboard-response","125","452650","0.0-8.0-1.0-1.1-0.1-1.56","4","5","5","5","4","4","3","4","4","4","4","1","-1","1","1","1","1","2","1","4","5","5","5","4","4","5","5","5","4","8","8","7","7","6","8","7","8","8","5","6","4","6","6","4","5","1","6","3","1","5","3","4","6","6","6","5","5","4","6","5","5","7","6","6","5","6","6","6","7","7","5","3","6","6","6","7","6","6","6","781518032190312450","贺","501","Female","[""坏她"",""坏我"",""好她"",""好我""]","[""弱她"",""弱我"",""强她"",""强我""]","","","","","","","","","","","","","","","","","","","","","","","","","","","","","","feedback_test","","","","","","","","",""
"1041","","f","psychophysics","126","454695","0.0-8.0-1.0-1.1-0.1-0.57","4","5","5","5","4","4","3","4","4","4","4","1","-1","1","1","1","1","2","1","4","5","5","5","4","4","5","5","5","4","8","8","7","7","6","8","7","8","8","5","6","4","6","6","4","5","1","6","3","1","5","3","4","6","6","6","5","5","4","6","5","5","7","6","6","5","6","6","6","7","7","5","3","6","6","6","7","6","6","6","781518032190312450","贺","501","Female","[""坏她"",""坏我"",""好她"",""好我""]","[""弱她"",""弱我"",""强她"",""强我""]","","","","","","","","nonmatch","","","","","","","","","","key","f","6.938566552901024","768","428","j","false","match","img/pentagon.png","弱她","弱她","prac_ALT2_ability","practice_ability","","","","","","","","",""
"null","<span style='color:red; font-size: 70px;'>错误! </span>","null","html-keyboard-response","127","455195","0.0-8.0-1.0-1.1-0.1-1.57","4","5","5","5","4","4","3","4","4","4","4","1","-1","1","1","1","1","2","1","4","5","5","5","4","4","5","5","5","4","8","8","7","7","6","8","7","8","8","5","6","4","6","6","4","5","1","6","3","1","5","3","4","6","6","6","5","5","4","6","5","5","7","6","6","5","6","6","6","7","7","5","3","6","6","6","7","6","6","6","781518032190312450","贺","501","Female","[""坏她"",""坏我"",""好她"",""好我""]","[""弱她"",""弱我"",""强她"",""强我""]","","","","","","","","","","","","","","","","","","","","","","","","","","","","","","feedback_test","","","","","","","","",""
"795","","j","psychophysics","128","456991","0.0-8.0-1.0-1.1-0.1-0.58","4","5","5","5","4","4","3","4","4","4","4","1","-1","1","1","1","1","2","1","4","5","5","5","4","4","5","5","5","4","8","8","7","7","6","8","7","8","8","5","6","4","6","6","4","5","1","6","3","1","5","3","4","6","6","6","5","5","4","6","5","5","7","6","6","5","6","6","6","7","7","5","3","6","6","6","7","6","6","6","781518032190312450","贺","501","Female","[""坏她"",""坏我"",""好她"",""好我""]","[""弱她"",""弱我"",""强她"",""强我""]","","","","","","","","match","","","","","","","","","","key","j","6.941085271317784","768","428","j","true","match","img/ellipse.png","弱我","弱我","prac_ALT2_ability","practice_ability","","","","","","","","",""
"null","<span style='color:GreenYellow; font-size: 70px;'>正确! </span>","null","html-keyboard-response","129","457492","0.0-8.0-1.0-1.1-0.1-1.58","4","5","5","5","4","4","3","4","4","4","4","1","-1","1","1","1","1","2","1","4","5","5","5","4","4","5","5","5","4","8","8","7","7","6","8","7","8","8","5","6","4","6","6","4","5","1","6","3","1","5","3","4","6","6","6","5","5","4","6","5","5","7","6","6","5","6","6","6","7","7","5","3","6","6","6","7","6","6","6","781518032190312450","贺","501","Female","[""坏她"",""坏我"",""好她"",""好我""]","[""弱她"",""弱我"",""强她"",""强我""]","","","","","","","","","","","","","","","","","","","","","","","","","","","","","","feedback_test","","","","","","","","",""
"1038","","j","psychophysics","130","459531","0.0-8.0-1.0-1.1-0.1-0.59","4","5","5","5","4","4","3","4","4","4","4","1","-1","1","1","1","1","2","1","4","5","5","5","4","4","5","5","5","4","8","8","7","7","6","8","7","8","8","5","6","4","6","6","4","5","1","6","3","1","5","3","4","6","6","6","5","5","4","6","5","5","7","6","6","5","6","6","6","7","7","5","3","6","6","6","7","6","6","6","781518032190312450","贺","501","Female","[""坏她"",""坏我"",""好她"",""好我""]","[""弱她"",""弱我"",""强她"",""强我""]","","","","","","","","match","","","","","","","","","","key","j","6.940273037542662","768","428","j","true","match","img/pentagon.png","弱她","弱她","prac_ALT2_ability","practice_ability","","","","","","","","",""
"null","<span style='color:GreenYellow; font-size: 70px;'>正确! </span>","null","html-keyboard-response","131","460033","0.0-8.0-1.0-1.1-0.1-1.59","4","5","5","5","4","4","3","4","4","4","4","1","-1","1","1","1","1","2","1","4","5","5","5","4","4","5","5","5","4","8","8","7","7","6","8","7","8","8","5","6","4","6","6","4","5","1","6","3","1","5","3","4","6","6","6","5","5","4","6","5","5","7","6","6","5","6","6","6","7","7","5","3","6","6","6","7","6","6","6","781518032190312450","贺","501","Female","[""坏她"",""坏我"",""好她"",""好我""]","[""弱她"",""弱我"",""强她"",""强我""]","","","","","","","","","","","","","","","","","","","","","","","","","","","","","","feedback_test","","","","","","","","",""
"706","","j","psychophysics","132","461742","0.0-8.0-1.0-1.1-0.1-0.60","4","5","5","5","4","4","3","4","4","4","4","1","-1","1","1","1","1","2","1","4","5","5","5","4","4","5","5","5","4","8","8","7","7","6","8","7","8","8","5","6","4","6","6","4","5","1","6","3","1","5","3","4","6","6","6","5","5","4","6","5","5","7","6","6","5","6","6","6","7","7","5","3","6","6","6","7","6","6","6","781518032190312450","贺","501","Female","[""坏她"",""坏我"",""好她"",""好我""]","[""弱她"",""弱我"",""强她"",""强我""]","","","","","","","","match","","","","","","","","","","key","j","6.942040816326483","768","428","j","true","match","img/triangle.png","强我","强我","prac_ALT2_ability","practice_ability","","","","","","","","",""
"null","<span style='color:GreenYellow; font-size: 70px;'>正确! </span>","null","html-keyboard-response","133","462243","0.0-8.0-1.0-1.1-0.1-1.60","4","5","5","5","4","4","3","4","4","4","4","1","-1","1","1","1","1","2","1","4","5","5","5","4","4","5","5","5","4","8","8","7","7","6","8","7","8","8","5","6","4","6","6","4","5","1","6","3","1","5","3","4","6","6","6","5","5","4","6","5","5","7","6","6","5","6","6","6","7","7","5","3","6","6","6","7","6","6","6","781518032190312450","贺","501","Female","[""坏她"",""坏我"",""好她"",""好我""]","[""弱她"",""弱我"",""强她"",""强我""]","","","","","","","","","","","","","","","","","","","","","","","","","","","","","","feedback_test","","","","","","","","",""
"947","","j","psychophysics","134","464191","0.0-8.0-1.0-1.1-0.1-0.61","4","5","5","5","4","4","3","4","4","4","4","1","-1","1","1","1","1","2","1","4","5","5","5","4","4","5","5","5","4","8","8","7","7","6","8","7","8","8","5","6","4","6","6","4","5","1","6","3","1","5","3","4","6","6","6","5","5","4","6","5","5","7","6","6","5","6","6","6","7","7","5","3","6","6","6","7","6","6","6","781518032190312450","贺","501","Female","[""坏她"",""坏我"",""好她"",""好我""]","[""弱她"",""弱我"",""强她"",""强我""]","","","","","","","","match","","","","","","","","","","key","j","6.93799283154126","768","428","f","false","nonmatch","img/pentagon.png","强她","弱她","prac_ALT2_ability","practice_ability","","","","","","","","",""
"null","<span style='color:red; font-size: 70px;'>错误! </span>","null","html-keyboard-response","135","464693","0.0-8.0-1.0-1.1-0.1-1.61","4","5","5","5","4","4","3","4","4","4","4","1","-1","1","1","1","1","2","1","4","5","5","5","4","4","5","5","5","4","8","8","7","7","6","8","7","8","8","5","6","4","6","6","4","5","1","6","3","1","5","3","4","6","6","6","5","5","4","6","5","5","7","6","6","5","6","6","6","7","7","5","3","6","6","6","7","6","6","6","781518032190312450","贺","501","Female","[""坏她"",""坏我"",""好她"",""好我""]","[""弱她"",""弱我"",""强她"",""强我""]","","","","","","","","","","","","","","","","","","","","","","","","","","","","","","feedback_test","","","","","","","","",""
"869","","j","psychophysics","136","466564","0.0-8.0-1.0-1.1-0.1-0.62","4","5","5","5","4","4","3","4","4","4","4","1","-1","1","1","1","1","2","1","4","5","5","5","4","4","5","5","5","4","8","8","7","7","6","8","7","8","8","5","6","4","6","6","4","5","1","6","3","1","5","3","4","6","6","6","5","5","4","6","5","5","7","6","6","5","6","6","6","7","7","5","3","6","6","6","7","6","6","6","781518032190312450","贺","501","Female","[""坏她"",""坏我"",""好她"",""好我""]","[""弱她"",""弱我"",""强她"",""强我""]","","","","","","","","match","","","","","","","","","","key","j","6.940520446096654","768","428","f","false","nonmatch","img/ellipse.png","强她","弱我","prac_ALT2_ability","practice_ability","","","","","","","","",""
"null","<span style='color:red; font-size: 70px;'>错误! </span>","null","html-keyboard-response","137","467065","0.0-8.0-1.0-1.1-0.1-1.62","4","5","5","5","4","4","3","4","4","4","4","1","-1","1","1","1","1","2","1","4","5","5","5","4","4","5","5","5","4","8","8","7","7","6","8","7","8","8","5","6","4","6","6","4","5","1","6","3","1","5","3","4","6","6","6","5","5","4","6","5","5","7","6","6","5","6","6","6","7","7","5","3","6","6","6","7","6","6","6","781518032190312450","贺","501","Female","[""坏她"",""坏我"",""好她"",""好我""]","[""弱她"",""弱我"",""强她"",""强我""]","","","","","","","","","","","","","","","","","","","","","","","","","","","","","","feedback_test","","","","","","","","",""
