"rt","stimulus","response","trial_type","trial_index","time_elapsed","internal_node_id","swb_1","swb_2","swb_3","swb_4","swb_5","LOT_1","LOT_2","LOT_3","LOT_4","LOT_5","LOT_6","IPC_1","IPC_2","IPC_3","IPC_4","IPC_5","IPC_6","IPC_7","IPC_8","MorIden_1","MorIden_2","MorIden_3","MorIden_4","MorIden_5","MorIden_6","MorIden_7","MorIden_8","MorIden_9","MorIden_10","moralSeImag_1","moralSeImag_2","moralSeImag_3","moralSeImag_4","moralSeImag_5","moralSeImag_6","moralSeImag_7","moralSeImag_8","moralSeImag_9","sde_1","sde_2","sde_3","sde_4","sde_5","sde_6","sde_7","sde_8","sde_9","sde_10","trap2","sde_11","sde_12","sde_13","sde_14","sde_15","sde_16","sde_17","sde_18","sde_19","sde_20","IM_1","IM_2","IM_3","IM_4","IM_5","IM_6","IM_7","IM_8","IM_9","IM_10","IM_11","IM_12","IM_13","IM_14","IM_15","IM_16","IM_17","IM_18","IM_19","IM_20","subj_idx","friend_name","ParticipantID","Sex","Word","Word2","value","success","timeout","failed_images","failed_audio","failed_video","user_agent","responses","item_order","radio_event_ids","radio_event_times","key_event_times","mouse_event_times","straightlining","zigzagging","honeypot","task_id","screen_id","time_stamp","response_type","key_press","avg_frame_time","center_x","center_y","person","word","valence","domain","math","correct_response","correct","status","identity","view_history","duration","Image","condition","question_order","trap2_item"
"2994","
   <p><div style='color:white; font-size: 25px'>您好，欢迎参加本次实验。</div></p>
   <p><div style='color:white; font-size: 25px'>为充分保障您的权利，请确保您已经知晓并同意《参与实验同意书》以及《数据公开知情同意书》。</div></p>
   <p><div style='color:white; font-size: 25px'>如果您未见过上述内容，请咨询实验员。</div></p>
   <p style='color:white; font-size: 25px'>如果您选择继续实验，则表示您已经清楚两份知情同意书的内容并同意。</p>
   <p><div style = ""color: pink;font-size:30px;"">请确保您记得day0的实验编号，您将在本次实验输入该编号，若您忘记，请咨询实验员后作答。</div></p>
   <p><div style = ""color:lightblue;font-size:25px;"">请您尽可能认真地作答，我们将依据您在各问卷和按键任务中的作答质量发放报酬。</div></p>
   <p> <div style = ""color: green""><按空格键至下页></div> </p>
   "," ","html-keyboard-response","0","3085","0.0-0.0","5","7","6","5","7","4","4","4","5","5","5","-2","-1","1","2","0","1","2","0","5","4","4","5","4","5","4","2","4","5","8","6","7","7","6","9","7","9","6","5","6","5","6","6","6","5","7","6","5","1","6","6","1","6","6","6","7","5","6","7","2","7","3","6","6","6","5","7","6","6","7","5","5","1","6","5","5","7","6","1","633791803677474816","章","451","Male","[""坏他"",""好我"",""好他"",""坏我""]","[""弱他"",""强我"",""强他"",""弱我""]","","","","","","","","","","","","","","","","","","","","","","","","","","","","","","","","","","","","","","",""
"","","","call-function","1","3204","0.0-1.0-0.0","5","7","6","5","7","4","4","4","5","5","5","-2","-1","1","2","0","1","2","0","5","4","4","5","4","5","4","2","4","5","8","6","7","7","6","9","7","9","6","5","6","5","6","6","6","5","7","6","5","1","6","6","1","6","6","6","7","5","6","7","2","7","3","6","6","6","5","7","6","6","7","5","5","1","6","5","5","7","6","1","633791803677474816","章","451","Male","[""坏他"",""好我"",""好他"",""坏我""]","[""弱他"",""强我"",""强他"",""弱我""]","","","","","","","","","","","","","","","","","","","","","","","","","","","","","","","","","","","","","","",""
"175416","","[{""name"":""Sex"",""value"":""0""},{""name"":""friend_name"",""value"":""章""},{""name"":""ParticipantID"",""value"":""451""}]","survey-html-form","2","178743","0.0-1.0-1.0","5","7","6","5","7","4","4","4","5","5","5","-2","-1","1","2","0","1","2","0","5","4","4","5","4","5","4","2","4","5","8","6","7","7","6","9","7","9","6","5","6","5","6","6","6","5","7","6","5","1","6","6","1","6","6","6","7","5","6","7","2","7","3","6","6","6","5","7","6","6","7","5","5","1","6","5","5","7","6","1","633791803677474816","章","451","Male","[""坏他"",""好我"",""好他"",""坏我""]","[""弱他"",""强我"",""强他"",""弱我""]","","","","","","","","","","","","","","","","","","","","","","","","","","","","","","","","","","","","","","",""
"","","","preload","3","179463","0.0-2.0","5","7","6","5","7","4","4","4","5","5","5","-2","-1","1","2","0","1","2","0","5","4","4","5","4","5","4","2","4","5","8","6","7","7","6","9","7","9","6","5","6","5","6","6","6","5","7","6","5","1","6","6","1","6","6","6","7","5","6","7","2","7","3","6","6","6","5","7","6","6","7","5","5","1","6","5","5","7","6","1","633791803677474816","章","451","Male","[""坏他"",""好我"",""好他"",""坏我""]","[""弱他"",""强我"",""强他"",""弱我""]","","true","false","[]","[]","[]","","","","","","","","","","","","","","","","","","","","","","","","","","","","","","","","",""
"","","","fullscreen","4","537844","0.0-3.0","5","7","6","5","7","4","4","4","5","5","5","-2","-1","1","2","0","1","2","0","5","4","4","5","4","5","4","2","4","5","8","6","7","7","6","9","7","9","6","5","6","5","6","6","6","5","7","6","5","1","6","6","1","6","6","6","7","5","6","7","2","7","3","6","6","6","5","7","6","6","7","5","5","1","6","5","5","7","6","1","633791803677474816","章","451","Male","[""坏他"",""好我"",""好他"",""坏我""]","[""弱他"",""强我"",""强他"",""弱我""]","","true","","","","","","","","","","","","","","","","","","","","","","","","","","","","","","","","","","","","",""
"42278","","{""Q01"":""5"",""Q02"":""7"",""Q03"":""6"",""Q04"":""5"",""Q05"":""7""}","survey-template","5","582040","0.0-4.0","5","7","6","5","7","4","4","4","5","5","5","-2","-1","1","2","0","1","2","0","5","4","4","5","4","5","4","2","4","5","8","6","7","7","6","9","7","9","6","5","6","5","6","6","6","5","7","6","5","1","6","6","1","6","6","6","7","5","6","7","2","7","3","6","6","6","5","7","6","6","7","5","5","1","6","5","5","7","6","1","633791803677474816","章","451","Male","[""坏他"",""好我"",""好他"",""坏我""]","[""弱他"",""强我"",""强他"",""弱我""]","","","","","","","","{""Q01"":""5"",""Q02"":""7"",""Q03"":""6"",""Q04"":""5"",""Q05"":""7""}","[0,1,2,3,4]","[""Q01"",""Q01"",""Q02"",""Q03"",""Q04"",""Q05""]","[30324,31715,32390,33010,34068,36520]","[]","[30324,31715,32390,33010,34068,35172,35854,36520,42194]","0.4","0.5","0","","","","","","","","","","","","","","","","","","","","","","",""
"66792","","{""Q01"":""4"",""Q02"":""4"",""Q03"":""4"",""Q04"":""5"",""Q05"":""5"",""Q06"":""5""}","survey-template","6","649091","0.0-5.0","5","7","6","5","7","4","4","4","5","5","5","-2","-1","1","2","0","1","2","0","5","4","4","5","4","5","4","2","4","5","8","6","7","7","6","9","7","9","6","5","6","5","6","6","6","5","7","6","5","1","6","6","1","6","6","6","7","5","6","7","2","7","3","6","6","6","5","7","6","6","7","5","5","1","6","5","5","7","6","1","633791803677474816","章","451","Male","[""坏他"",""好我"",""好他"",""坏我""]","[""弱他"",""强我"",""强他"",""弱我""]","","","","","","","","{""Q01"":""4"",""Q02"":""4"",""Q03"":""4"",""Q04"":""5"",""Q05"":""5"",""Q06"":""5""}","[0,1,2,3,4,5]","[""Q01"",""Q02"",""Q03"",""Q04"",""Q05"",""Q06"",""Q06""]","[4506,7186,8351,10801,11335,13429,15247]","[]","[4184,4506,7186,8200,8351,10010,10801,11335,13429,14209,14463,14782,15247,65027,66792]","0.3333333333333333","0.2","0","","","","","","","","","","","","","","","","","","","","","","",""
"20391","","{""Q01"":""-2"",""Q02"":""-1"",""Q03"":""1"",""Q04"":""2"",""Q05"":""0"",""Q06"":""1"",""Q07"":""2"",""Q08"":""0""}","survey-template","7","669492","0.0-6.0","5","7","6","5","7","4","4","4","5","5","5","-2","-1","1","2","0","1","2","0","5","4","4","5","4","5","4","2","4","5","8","6","7","7","6","9","7","9","6","5","6","5","6","6","6","5","7","6","5","1","6","6","1","6","6","6","7","5","6","7","2","7","3","6","6","6","5","7","6","6","7","5","5","1","6","5","5","7","6","1","633791803677474816","章","451","Male","[""坏他"",""好我"",""好他"",""坏我""]","[""弱他"",""强我"",""强他"",""弱我""]","","","","","","","","{""Q01"":""-2"",""Q02"":""-1"",""Q03"":""1"",""Q04"":""2"",""Q05"":""0"",""Q06"":""1"",""Q07"":""2"",""Q08"":""0""}","[0,1,2,3,4,5,6,7]","[""Q01"",""Q02"",""Q03"",""Q04"",""Q05"",""Q06"",""Q07"",""Q07"",""Q08""]","[3825,5070,6054,7592,8900,14015,15863,16156,16776]","[]","[3825,5070,6054,7592,8900,14015,15361,15863,16156,16776,20391]","0.25","0.5714285714285714","0","","","","","","","","","","","","","","","","","","","","","","",""
"164761","
    <p><div style='color:white;font-size:35px; line-height:20px;'>词汇评估任务</div></p><br>
    <p><div style='color:white;font-size:25px; line-height:20px;'>请再次回忆该亲密的朋友，你们至少2年前就认识了，并且最近2年经常见面。</div></p>
    <p><div style='color:white;font-size:25px; line-height:20px;'>在本实验中，您将会看到一些形容词。</div></p>
    <p><div style='color:yellow;font-size:25px; line-height:20px;'>您的任务是判断这些形容词是否符合对您自己或您的朋友的描述。</div></p><p style='font-size:35px'>符合按<span style=""color:lightgreen""> j 键</span>，不符合按<span style=""color:red""> f 键</span></p>","0","html-button-response","8","834387","0.0-7.0-0.0","5","7","6","5","7","4","4","4","5","5","5","-2","-1","1","2","0","1","2","0","5","4","4","5","4","5","4","2","4","5","8","6","7","7","6","9","7","9","6","5","6","5","6","6","6","5","7","6","5","1","6","6","1","6","6","6","7","5","6","7","2","7","3","6","6","6","5","7","6","6","7","5","5","1","6","5","5","7","6","1","633791803677474816","章","451","Male","[""坏他"",""好我"",""好他"",""坏我""]","[""弱他"",""强我"",""强他"",""弱我""]","","","","","","","","","","","","","","","","","SRET_EW","EW_instructions","Tue Jan 16 2024 20:40:04 GMT+0800 (中国标准时间)","","","","","","","","","","","","","","","","","","","",""
"1753","","f","psychophysics","9","837591","0.0-7.0-1.0-0.0","5","7","6","5","7","4","4","4","5","5","5","-2","-1","1","2","0","1","2","0","5","4","4","5","4","5","4","2","4","5","8","6","7","7","6","9","7","9","6","5","6","5","6","6","6","5","7","6","5","1","6","6","1","6","6","6","7","5","6","7","2","7","3","6","6","6","5","7","6","6","7","5","5","1","6","5","5","7","6","1","633791803677474816","章","451","Male","[""坏他"",""好我"",""好他"",""坏我""]","[""弱他"",""强我"",""强他"",""弱我""]","","","","","","","","no","","","","","","","","","SRET_EW","EW_practice","","key","f","21.26054054054013","703.6333333333334","391.9666666666667","自己","刻板","Negative","ability","","","","","","","","","","",""
"1170","","f","psychophysics","10","839779","0.0-7.0-1.0-0.1","5","7","6","5","7","4","4","4","5","5","5","-2","-1","1","2","0","1","2","0","5","4","4","5","4","5","4","2","4","5","8","6","7","7","6","9","7","9","6","5","6","5","6","6","6","5","7","6","5","1","6","6","1","6","6","6","7","5","6","7","2","7","3","6","6","6","5","7","6","6","7","5","5","1","6","5","5","7","6","1","633791803677474816","章","451","Male","[""坏他"",""好我"",""好他"",""坏我""]","[""弱他"",""强我"",""强他"",""弱我""]","","","","","","","","no","","","","","","","","","SRET_EW","EW_practice","","key","f","16.652923076922217","703.6333333333334","391.9666666666667","自己","严谨","Positive","ability","","","","","","","","","","",""
"1213","","j","psychophysics","11","842019","0.0-7.0-1.0-0.2","5","7","6","5","7","4","4","4","5","5","5","-2","-1","1","2","0","1","2","0","5","4","4","5","4","5","4","2","4","5","8","6","7","7","6","9","7","9","6","5","6","5","6","6","6","5","7","6","5","1","6","6","1","6","6","6","7","5","6","7","2","7","3","6","6","6","5","7","6","6","7","5","5","1","6","5","5","7","6","1","633791803677474816","章","451","Male","[""坏他"",""好我"",""好他"",""坏我""]","[""弱他"",""强我"",""强他"",""弱我""]","","","","","","","","yes","","","","","","","","","SRET_EW","EW_practice","","key","j","16.905151515151374","703.6333333333334","391.9666666666667","朋友","忠实","Positive","morality","","","","","","","","","","",""
"977","","f","psychophysics","12","844000","0.0-7.0-1.0-0.3","5","7","6","5","7","4","4","4","5","5","5","-2","-1","1","2","0","1","2","0","5","4","4","5","4","5","4","2","4","5","8","6","7","7","6","9","7","9","6","5","6","5","6","6","6","5","7","6","5","1","6","6","1","6","6","6","7","5","6","7","2","7","3","6","6","6","5","7","6","6","7","5","5","1","6","5","5","7","6","1","633791803677474816","章","451","Male","[""坏他"",""好我"",""好他"",""坏我""]","[""弱他"",""强我"",""强他"",""弱我""]","","","","","","","","no","","","","","","","","","SRET_EW","EW_practice","","key","f","16.652881355932518","703.6333333333334","391.9666666666667","朋友","徇私","Negative","morality","","","","","","","","","","",""
"10108","
    <p><div style='color:white;font-size:35px; line-height:20px;'>请您再次阅读实验要求</div></p><br>
    <p><div style='color:white;font-size:25px; line-height:20px;'>请回忆某一个亲密的朋友，你们至少2年前就认识了，并且最近2年经常见面。</div></p>
    <p><div style='color:white;font-size:25px; line-height:20px;'>在本实验中，您将会看到一些形容词。</div></p>
    <p><div style='color:yellow;font-size:25px; line-height:20px;'>您的任务是判断这些形容词是否符合对您自己或您的朋友的描述。</div></p>
    <p><div class='footer' style='font-size:25px; line-height:20px;'>如果对本实验还有不清楚之处，请立即向实验员咨询。</p><p style='font-size:25px; line-height:20px;'>如果您明白了规则：</p><p style='font-size:22px; line-height:20px;'>请按 继续 进入正式实验</p>
    </div>
    <p style='font-size:35px'>符合按<span style=""color:lightgreen""> j 键</span>，不符合按<span style=""color:red""> f 键</span></p>","0","html-button-response","13","854110","0.0-7.0-2.0","5","7","6","5","7","4","4","4","5","5","5","-2","-1","1","2","0","1","2","0","5","4","4","5","4","5","4","2","4","5","8","6","7","7","6","9","7","9","6","5","6","5","6","6","6","5","7","6","5","1","6","6","1","6","6","6","7","5","6","7","2","7","3","6","6","6","5","7","6","6","7","5","5","1","6","5","5","7","6","1","633791803677474816","章","451","Male","[""坏他"",""好我"",""好他"",""坏我""]","[""弱他"",""强我"",""强他"",""弱我""]","","","","","","","","","","","","","","","","","SRET_EW","prac_instructions","Tue Jan 16 2024 20:40:04 GMT+0800 (中国标准时间)","","","","","","","","","","","","","","","","","","","",""
"828","","j","psychophysics","14","855959","0.0-7.0-3.0-0.0","5","7","6","5","7","4","4","4","5","5","5","-2","-1","1","2","0","1","2","0","5","4","4","5","4","5","4","2","4","5","8","6","7","7","6","9","7","9","6","5","6","5","6","6","6","5","7","6","5","1","6","6","1","6","6","6","7","5","6","7","2","7","3","6","6","6","5","7","6","6","7","5","5","1","6","5","5","7","6","1","633791803677474816","章","451","Male","[""坏他"",""好我"",""好他"",""坏我""]","[""弱他"",""强我"",""强他"",""弱我""]","","","","","","","","yes","","","","","","","","","SRET","EW_formal","","key","j","16.558738738738906","703.6333333333334","391.9666666666667","自己","说谎","Negative","morality","","","","","","","","","","",""
"1129","","j","psychophysics","15","858108","0.0-7.0-3.0-0.1","5","7","6","5","7","4","4","4","5","5","5","-2","-1","1","2","0","1","2","0","5","4","4","5","4","5","4","2","4","5","8","6","7","7","6","9","7","9","6","5","6","5","6","6","6","5","7","6","5","1","6","6","1","6","6","6","7","5","6","7","2","7","3","6","6","6","5","7","6","6","7","5","5","1","6","5","5","7","6","1","633791803677474816","章","451","Male","[""坏他"",""好我"",""好他"",""坏我""]","[""弱他"",""强我"",""强他"",""弱我""]","","","","","","","","yes","","","","","","","","","SRET","EW_formal","","key","j","16.784094488188646","703.6333333333334","391.9666666666667","自己","坚贞","Positive","morality","","","","","","","","","","",""
"1344","","j","psychophysics","16","860469","0.0-7.0-3.0-0.2","5","7","6","5","7","4","4","4","5","5","5","-2","-1","1","2","0","1","2","0","5","4","4","5","4","5","4","2","4","5","8","6","7","7","6","9","7","9","6","5","6","5","6","6","6","5","7","6","5","1","6","6","1","6","6","6","7","5","6","7","2","7","3","6","6","6","5","7","6","6","7","5","5","1","6","5","5","7","6","1","633791803677474816","章","451","Male","[""坏他"",""好我"",""好他"",""坏我""]","[""弱他"",""强我"",""强他"",""弱我""]","","","","","","","","yes","","","","","","","","","SRET","EW_formal","","key","j","17.92412213740412","703.6333333333334","391.9666666666667","朋友","务实","Positive","ability","","","","","","","","","","",""
"970","","f","psychophysics","17","862454","0.0-7.0-3.0-0.3","5","7","6","5","7","4","4","4","5","5","5","-2","-1","1","2","0","1","2","0","5","4","4","5","4","5","4","2","4","5","8","6","7","7","6","9","7","9","6","5","6","5","6","6","6","5","7","6","5","1","6","6","1","6","6","6","7","5","6","7","2","7","3","6","6","6","5","7","6","6","7","5","5","1","6","5","5","7","6","1","633791803677474816","章","451","Male","[""坏他"",""好我"",""好他"",""坏我""]","[""弱他"",""强我"",""强他"",""弱我""]","","","","","","","","no","","","","","","","","","SRET","EW_formal","","key","f","16.795384615385093","703.6333333333334","391.9666666666667","朋友","迷糊","Negative","ability","","","","","","","","","","",""
"1242","","j","psychophysics","18","864700","0.0-7.0-3.0-0.4","5","7","6","5","7","4","4","4","5","5","5","-2","-1","1","2","0","1","2","0","5","4","4","5","4","5","4","2","4","5","8","6","7","7","6","9","7","9","6","5","6","5","6","6","6","5","7","6","5","1","6","6","1","6","6","6","7","5","6","7","2","7","3","6","6","6","5","7","6","6","7","5","5","1","6","5","5","7","6","1","633791803677474816","章","451","Male","[""坏他"",""好我"",""好他"",""坏我""]","[""弱他"",""强我"",""强他"",""弱我""]","","","","","","","","yes","","","","","","","","","SRET","EW_formal","","key","j","16.652985074626866","703.6333333333334","391.9666666666667","朋友","有力","Positive","ability","","","","","","","","","","",""
"892","","f","psychophysics","19","866651","0.0-7.0-3.0-0.5","5","7","6","5","7","4","4","4","5","5","5","-2","-1","1","2","0","1","2","0","5","4","4","5","4","5","4","2","4","5","8","6","7","7","6","9","7","9","6","5","6","5","6","6","6","5","7","6","5","1","6","6","1","6","6","6","7","5","6","7","2","7","3","6","6","6","5","7","6","6","7","5","5","1","6","5","5","7","6","1","633791803677474816","章","451","Male","[""坏他"",""好我"",""好他"",""坏我""]","[""弱他"",""强我"",""强他"",""弱我""]","","","","","","","","no","","","","","","","","","SRET","EW_formal","","key","f","16.65286956521804","703.6333333333334","391.9666666666667","自己","窝囊","Negative","ability","","","","","","","","","","",""
"1014","","j","psychophysics","20","868781","0.0-7.0-3.0-0.6","5","7","6","5","7","4","4","4","5","5","5","-2","-1","1","2","0","1","2","0","5","4","4","5","4","5","4","2","4","5","8","6","7","7","6","9","7","9","6","5","6","5","6","6","6","5","7","6","5","1","6","6","1","6","6","6","7","5","6","7","2","7","3","6","6","6","5","7","6","6","7","5","5","1","6","5","5","7","6","1","633791803677474816","章","451","Male","[""坏他"",""好我"",""好他"",""坏我""]","[""弱他"",""强我"",""强他"",""弱我""]","","","","","","","","yes","","","","","","","","","SRET","EW_formal","","key","j","16.652968750000582","703.6333333333334","391.9666666666667","朋友","自律","Positive","ability","","","","","","","","","","",""
"1125","","j","psychophysics","21","870908","0.0-7.0-3.0-0.7","5","7","6","5","7","4","4","4","5","5","5","-2","-1","1","2","0","1","2","0","5","4","4","5","4","5","4","2","4","5","8","6","7","7","6","9","7","9","6","5","6","5","6","6","6","5","7","6","5","1","6","6","1","6","6","6","7","5","6","7","2","7","3","6","6","6","5","7","6","6","7","5","5","1","6","5","5","7","6","1","633791803677474816","章","451","Male","[""坏他"",""好我"",""好他"",""坏我""]","[""弱他"",""强我"",""强他"",""弱我""]","","","","","","","","yes","","","","","","","","","SRET","EW_formal","","key","j","16.652913385826185","703.6333333333334","391.9666666666667","自己","干练","Positive","ability","","","","","","","","","","",""
"1366","","j","psychophysics","22","873284","0.0-7.0-3.0-0.8","5","7","6","5","7","4","4","4","5","5","5","-2","-1","1","2","0","1","2","0","5","4","4","5","4","5","4","2","4","5","8","6","7","7","6","9","7","9","6","5","6","5","6","6","6","5","7","6","5","1","6","6","1","6","6","6","7","5","6","7","2","7","3","6","6","6","5","7","6","6","7","5","5","1","6","5","5","7","6","1","633791803677474816","章","451","Male","[""坏他"",""好我"",""好他"",""坏我""]","[""弱他"",""强我"",""强他"",""弱我""]","","","","","","","","yes","","","","","","","","","SRET","EW_formal","","key","j","16.65290780141801","703.6333333333334","391.9666666666667","朋友","廉明","Positive","morality","","","","","","","","","","",""
"915","","f","psychophysics","23","875224","0.0-7.0-3.0-0.9","5","7","6","5","7","4","4","4","5","5","5","-2","-1","1","2","0","1","2","0","5","4","4","5","4","5","4","2","4","5","8","6","7","7","6","9","7","9","6","5","6","5","6","6","6","5","7","6","5","1","6","6","1","6","6","6","7","5","6","7","2","7","3","6","6","6","5","7","6","6","7","5","5","1","6","5","5","7","6","1","633791803677474816","章","451","Male","[""坏他"",""好我"",""好他"",""坏我""]","[""弱他"",""强我"",""强他"",""弱我""]","","","","","","","","no","","","","","","","","","SRET","EW_formal","","key","f","16.652931034482677","703.6333333333334","391.9666666666667","朋友","拜金","Negative","morality","","","","","","","","","","",""
"833","","f","psychophysics","24","877097","0.0-7.0-3.0-0.10","5","7","6","5","7","4","4","4","5","5","5","-2","-1","1","2","0","1","2","0","5","4","4","5","4","5","4","2","4","5","8","6","7","7","6","9","7","9","6","5","6","5","6","6","6","5","7","6","5","1","6","6","1","6","6","6","7","5","6","7","2","7","3","6","6","6","5","7","6","6","7","5","5","1","6","5","5","7","6","1","633791803677474816","章","451","Male","[""坏他"",""好我"",""好他"",""坏我""]","[""弱他"",""强我"",""强他"",""弱我""]","","","","","","","","no","","","","","","","","","SRET","EW_formal","","key","f","16.652792792792457","703.6333333333334","391.9666666666667","自己","草率","Negative","ability","","","","","","","","","","",""
"1091","","j","psychophysics","25","879203","0.0-7.0-3.0-0.11","5","7","6","5","7","4","4","4","5","5","5","-2","-1","1","2","0","1","2","0","5","4","4","5","4","5","4","2","4","5","8","6","7","7","6","9","7","9","6","5","6","5","6","6","6","5","7","6","5","1","6","6","1","6","6","6","7","5","6","7","2","7","3","6","6","6","5","7","6","6","7","5","5","1","6","5","5","7","6","1","633791803677474816","章","451","Male","[""坏他"",""好我"",""好他"",""坏我""]","[""弱他"",""强我"",""强他"",""弱我""]","","","","","","","","yes","","","","","","","","","SRET","EW_formal","","key","j","16.653015873016095","703.6333333333334","391.9666666666667","自己","独断","Negative","ability","","","","","","","","","","",""
"1034","","j","psychophysics","26","881253","0.0-7.0-3.0-0.12","5","7","6","5","7","4","4","4","5","5","5","-2","-1","1","2","0","1","2","0","5","4","4","5","4","5","4","2","4","5","8","6","7","7","6","9","7","9","6","5","6","5","6","6","6","5","7","6","5","1","6","6","1","6","6","6","7","5","6","7","2","7","3","6","6","6","5","7","6","6","7","5","5","1","6","5","5","7","6","1","633791803677474816","章","451","Male","[""坏他"",""好我"",""好他"",""坏我""]","[""弱他"",""强我"",""强他"",""弱我""]","","","","","","","","yes","","","","","","","","","SRET","EW_formal","","key","j","16.652950819671442","703.6333333333334","391.9666666666667","自己","无敌","Positive","ability","","","","","","","","","","",""
"1134","","j","psychophysics","27","883390","0.0-7.0-3.0-0.13","5","7","6","5","7","4","4","4","5","5","5","-2","-1","1","2","0","1","2","0","5","4","4","5","4","5","4","2","4","5","8","6","7","7","6","9","7","9","6","5","6","5","6","6","6","5","7","6","5","1","6","6","1","6","6","6","7","5","6","7","2","7","3","6","6","6","5","7","6","6","7","5","5","1","6","5","5","7","6","1","633791803677474816","章","451","Male","[""坏他"",""好我"",""好他"",""坏我""]","[""弱他"",""强我"",""强他"",""弱我""]","","","","","","","","yes","","","","","","","","","SRET","EW_formal","","key","j","16.6529133858271","703.6333333333334","391.9666666666667","朋友","聪明","Positive","ability","","","","","","","","","","",""
"873","","j","psychophysics","28","885273","0.0-7.0-3.0-0.14","5","7","6","5","7","4","4","4","5","5","5","-2","-1","1","2","0","1","2","0","5","4","4","5","4","5","4","2","4","5","8","6","7","7","6","9","7","9","6","5","6","5","6","6","6","5","7","6","5","1","6","6","1","6","6","6","7","5","6","7","2","7","3","6","6","6","5","7","6","6","7","5","5","1","6","5","5","7","6","1","633791803677474816","章","451","Male","[""坏他"",""好我"",""好他"",""坏我""]","[""弱他"",""强我"",""强他"",""弱我""]","","","","","","","","yes","","","","","","","","","SRET","EW_formal","","key","j","16.6528571428571","703.6333333333334","391.9666666666667","自己","宽容","Positive","morality","","","","","","","","","","",""
"921","","j","psychophysics","29","887197","0.0-7.0-3.0-0.15","5","7","6","5","7","4","4","4","5","5","5","-2","-1","1","2","0","1","2","0","5","4","4","5","4","5","4","2","4","5","8","6","7","7","6","9","7","9","6","5","6","5","6","6","6","5","7","6","5","1","6","6","1","6","6","6","7","5","6","7","2","7","3","6","6","6","5","7","6","6","7","5","5","1","6","5","5","7","6","1","633791803677474816","章","451","Male","[""坏他"",""好我"",""好他"",""坏我""]","[""弱他"",""强我"",""强他"",""弱我""]","","","","","","","","yes","","","","","","","","","SRET","EW_formal","","key","j","16.65286956521804","703.6333333333334","391.9666666666667","朋友","忠义","Positive","morality","","","","","","","","","","",""
"1030","","j","psychophysics","30","889229","0.0-7.0-3.0-0.16","5","7","6","5","7","4","4","4","5","5","5","-2","-1","1","2","0","1","2","0","5","4","4","5","4","5","4","2","4","5","8","6","7","7","6","9","7","9","6","5","6","5","6","6","6","5","7","6","5","1","6","6","1","6","6","6","7","5","6","7","2","7","3","6","6","6","5","7","6","6","7","5","5","1","6","5","5","7","6","1","633791803677474816","章","451","Male","[""坏他"",""好我"",""好他"",""坏我""]","[""弱他"",""强我"",""强他"",""弱我""]","","","","","","","","yes","","","","","","","","","SRET","EW_formal","","key","j","16.65289256198347","703.6333333333334","391.9666666666667","自己","依靠","Negative","ability","","","","","","","","","","",""
"754","","j","psychophysics","31","890994","0.0-7.0-3.0-0.17","5","7","6","5","7","4","4","4","5","5","5","-2","-1","1","2","0","1","2","0","5","4","4","5","4","5","4","2","4","5","8","6","7","7","6","9","7","9","6","5","6","5","6","6","6","5","7","6","5","1","6","6","1","6","6","6","7","5","6","7","2","7","3","6","6","6","5","7","6","6","7","5","5","1","6","5","5","7","6","1","633791803677474816","章","451","Male","[""坏他"",""好我"",""好他"",""坏我""]","[""弱他"",""强我"",""强他"",""弱我""]","","","","","","","","yes","","","","","","","","","SRET","EW_formal","","key","j","16.652761904762258","703.6333333333334","391.9666666666667","自己","博识","Positive","ability","","","","","","","","","","",""
"685","","f","psychophysics","32","892693","0.0-7.0-3.0-0.18","5","7","6","5","7","4","4","4","5","5","5","-2","-1","1","2","0","1","2","0","5","4","4","5","4","5","4","2","4","5","8","6","7","7","6","9","7","9","6","5","6","5","6","6","6","5","7","6","5","1","6","6","1","6","6","6","7","5","6","7","2","7","3","6","6","6","5","7","6","6","7","5","5","1","6","5","5","7","6","1","633791803677474816","章","451","Male","[""坏他"",""好我"",""好他"",""坏我""]","[""弱他"",""强我"",""强他"",""弱我""]","","","","","","","","no","","","","","","","","","SRET","EW_formal","","key","f","16.65287128712931","703.6333333333334","391.9666666666667","朋友","歹毒","Negative","morality","","","","","","","","","","",""
"770","","f","psychophysics","33","894478","0.0-7.0-3.0-0.19","5","7","6","5","7","4","4","4","5","5","5","-2","-1","1","2","0","1","2","0","5","4","4","5","4","5","4","2","4","5","8","6","7","7","6","9","7","9","6","5","6","5","6","6","6","5","7","6","5","1","6","6","1","6","6","6","7","5","6","7","2","7","3","6","6","6","5","7","6","6","7","5","5","1","6","5","5","7","6","1","633791803677474816","章","451","Male","[""坏他"",""好我"",""好他"",""坏我""]","[""弱他"",""强我"",""强他"",""弱我""]","","","","","","","","no","","","","","","","","","SRET","EW_formal","","key","f","16.652952380952915","703.6333333333334","391.9666666666667","朋友","狡狯","Negative","morality","","","","","","","","","","",""
"901","","f","psychophysics","34","896392","0.0-7.0-3.0-0.20","5","7","6","5","7","4","4","4","5","5","5","-2","-1","1","2","0","1","2","0","5","4","4","5","4","5","4","2","4","5","8","6","7","7","6","9","7","9","6","5","6","5","6","6","6","5","7","6","5","1","6","6","1","6","6","6","7","5","6","7","2","7","3","6","6","6","5","7","6","6","7","5","5","1","6","5","5","7","6","1","633791803677474816","章","451","Male","[""坏他"",""好我"",""好他"",""坏我""]","[""弱他"",""强我"",""强他"",""弱我""]","","","","","","","","no","","","","","","","","","SRET","EW_formal","","key","f","16.65298245613986","703.6333333333334","391.9666666666667","自己","马虎","Negative","ability","","","","","","","","","","",""
"703","","j","psychophysics","35","898107","0.0-7.0-3.0-0.21","5","7","6","5","7","4","4","4","5","5","5","-2","-1","1","2","0","1","2","0","5","4","4","5","4","5","4","2","4","5","8","6","7","7","6","9","7","9","6","5","6","5","6","6","6","5","7","6","5","1","6","6","1","6","6","6","7","5","6","7","2","7","3","6","6","6","5","7","6","6","7","5","5","1","6","5","5","7","6","1","633791803677474816","章","451","Male","[""坏他"",""好我"",""好他"",""坏我""]","[""弱他"",""强我"",""强他"",""弱我""]","","","","","","","","yes","","","","","","","","","SRET","EW_formal","","key","j","16.65294117647036","703.6333333333334","391.9666666666667","自己","果断","Positive","ability","","","","","","","","","","",""
"1222","","f","psychophysics","36","900336","0.0-7.0-3.0-0.22","5","7","6","5","7","4","4","4","5","5","5","-2","-1","1","2","0","1","2","0","5","4","4","5","4","5","4","2","4","5","8","6","7","7","6","9","7","9","6","5","6","5","6","6","6","5","7","6","5","1","6","6","1","6","6","6","7","5","6","7","2","7","3","6","6","6","5","7","6","6","7","5","5","1","6","5","5","7","6","1","633791803677474816","章","451","Male","[""坏他"",""好我"",""好他"",""坏我""]","[""弱他"",""强我"",""强他"",""弱我""]","","","","","","","","no","","","","","","","","","SRET","EW_formal","","key","f","16.652932330826822","703.6333333333334","391.9666666666667","自己","下流","Negative","morality","","","","","","","","","","",""
"867","","j","psychophysics","37","902205","0.0-7.0-3.0-0.23","5","7","6","5","7","4","4","4","5","5","5","-2","-1","1","2","0","1","2","0","5","4","4","5","4","5","4","2","4","5","8","6","7","7","6","9","7","9","6","5","6","5","6","6","6","5","7","6","5","1","6","6","1","6","6","6","7","5","6","7","2","7","3","6","6","6","5","7","6","6","7","5","5","1","6","5","5","7","6","1","633791803677474816","章","451","Male","[""坏他"",""好我"",""好他"",""坏我""]","[""弱他"",""强我"",""强他"",""弱我""]","","","","","","","","yes","","","","","","","","","SRET","EW_formal","","key","j","16.652972972972805","703.6333333333334","391.9666666666667","朋友","热心","Positive","morality","","","","","","","","","","",""
"1322","","f","psychophysics","38","904535","0.0-7.0-3.0-0.24","5","7","6","5","7","4","4","4","5","5","5","-2","-1","1","2","0","1","2","0","5","4","4","5","4","5","4","2","4","5","8","6","7","7","6","9","7","9","6","5","6","5","6","6","6","5","7","6","5","1","6","6","1","6","6","6","7","5","6","7","2","7","3","6","6","6","5","7","6","6","7","5","5","1","6","5","5","7","6","1","633791803677474816","章","451","Male","[""坏他"",""好我"",""好他"",""坏我""]","[""弱他"",""强我"",""强他"",""弱我""]","","","","","","","","no","","","","","","","","","SRET","EW_formal","","key","f","16.773623188405864","703.6333333333334","391.9666666666667","自己","狡诈","Negative","morality","","","","","","","","","","",""
"1054","","j","psychophysics","39","906603","0.0-7.0-3.0-0.25","5","7","6","5","7","4","4","4","5","5","5","-2","-1","1","2","0","1","2","0","5","4","4","5","4","5","4","2","4","5","8","6","7","7","6","9","7","9","6","5","6","5","6","6","6","5","7","6","5","1","6","6","1","6","6","6","7","5","6","7","2","7","3","6","6","6","5","7","6","6","7","5","5","1","6","5","5","7","6","1","633791803677474816","章","451","Male","[""坏他"",""好我"",""好他"",""坏我""]","[""弱他"",""强我"",""强他"",""弱我""]","","","","","","","","yes","","","","","","","","","SRET","EW_formal","","key","j","16.653008130080885","703.6333333333334","391.9666666666667","自己","爱国","Positive","morality","","","","","","","","","","",""
"1164","","f","psychophysics","40","908784","0.0-7.0-3.0-0.26","5","7","6","5","7","4","4","4","5","5","5","-2","-1","1","2","0","1","2","0","5","4","4","5","4","5","4","2","4","5","8","6","7","7","6","9","7","9","6","5","6","5","6","6","6","5","7","6","5","1","6","6","1","6","6","6","7","5","6","7","2","7","3","6","6","6","5","7","6","6","7","5","5","1","6","5","5","7","6","1","633791803677474816","章","451","Male","[""坏他"",""好我"",""好他"",""坏我""]","[""弱他"",""强我"",""强他"",""弱我""]","","","","","","","","no","","","","","","","","","SRET","EW_formal","","key","f","16.652923076923113","703.6333333333334","391.9666666666667","朋友","龌龊","Negative","morality","","","","","","","","","","",""
"1520","","j","psychophysics","41","911314","0.0-7.0-3.0-0.27","5","7","6","5","7","4","4","4","5","5","5","-2","-1","1","2","0","1","2","0","5","4","4","5","4","5","4","2","4","5","8","6","7","7","6","9","7","9","6","5","6","5","6","6","6","5","7","6","5","1","6","6","1","6","6","6","7","5","6","7","2","7","3","6","6","6","5","7","6","6","7","5","5","1","6","5","5","7","6","1","633791803677474816","章","451","Male","[""坏他"",""好我"",""好他"",""坏我""]","[""弱他"",""强我"",""强他"",""弱我""]","","","","","","","","yes","","","","","","","","","SRET","EW_formal","","key","j","16.65298013245018","703.6333333333334","391.9666666666667","朋友","高明","Positive","ability","","","","","","","","","","",""
"752","","j","psychophysics","42","913076","0.0-7.0-3.0-0.28","5","7","6","5","7","4","4","4","5","5","5","-2","-1","1","2","0","1","2","0","5","4","4","5","4","5","4","2","4","5","8","6","7","7","6","9","7","9","6","5","6","5","6","6","6","5","7","6","5","1","6","6","1","6","6","6","7","5","6","7","2","7","3","6","6","6","5","7","6","6","7","5","5","1","6","5","5","7","6","1","633791803677474816","章","451","Male","[""坏他"",""好我"",""好他"",""坏我""]","[""弱他"",""强我"",""强他"",""弱我""]","","","","","","","","yes","","","","","","","","","SRET","EW_formal","","key","j","16.652952380951806","703.6333333333334","391.9666666666667","朋友","善良","Positive","morality","","","","","","","","","","",""
"866","","f","psychophysics","43","914956","0.0-7.0-3.0-0.29","5","7","6","5","7","4","4","4","5","5","5","-2","-1","1","2","0","1","2","0","5","4","4","5","4","5","4","2","4","5","8","6","7","7","6","9","7","9","6","5","6","5","6","6","6","5","7","6","5","1","6","6","1","6","6","6","7","5","6","7","2","7","3","6","6","6","5","7","6","6","7","5","5","1","6","5","5","7","6","1","633791803677474816","章","451","Male","[""坏他"",""好我"",""好他"",""坏我""]","[""弱他"",""强我"",""强他"",""弱我""]","","","","","","","","no","","","","","","","","","SRET","EW_formal","","key","f","16.6528571428571","703.6333333333334","391.9666666666667","朋友","业余","Negative","ability","","","","","","","","","","",""
"886","","f","psychophysics","44","916856","0.0-7.0-3.0-0.30","5","7","6","5","7","4","4","4","5","5","5","-2","-1","1","2","0","1","2","0","5","4","4","5","4","5","4","2","4","5","8","6","7","7","6","9","7","9","6","5","6","5","6","6","6","5","7","6","5","1","6","6","1","6","6","6","7","5","6","7","2","7","3","6","6","6","5","7","6","6","7","5","5","1","6","5","5","7","6","1","633791803677474816","章","451","Male","[""坏他"",""好我"",""好他"",""坏我""]","[""弱他"",""强我"",""强他"",""弱我""]","","","","","","","","no","","","","","","","","","SRET","EW_formal","","key","f","16.652920353981518","703.6333333333334","391.9666666666667","朋友","无助","Negative","ability","","","","","","","","","","",""
"1505","","f","psychophysics","45","919374","0.0-7.0-3.0-0.31","5","7","6","5","7","4","4","4","5","5","5","-2","-1","1","2","0","1","2","0","5","4","4","5","4","5","4","2","4","5","8","6","7","7","6","9","7","9","6","5","6","5","6","6","6","5","7","6","5","1","6","6","1","6","6","6","7","5","6","7","2","7","3","6","6","6","5","7","6","6","7","5","5","1","6","5","5","7","6","1","633791803677474816","章","451","Male","[""坏他"",""好我"",""好他"",""坏我""]","[""弱他"",""强我"",""强他"",""弱我""]","","","","","","","","no","","","","","","","","","SRET","EW_formal","","key","f","16.65293333333374","703.6333333333334","391.9666666666667","自己","邪恶","Negative","morality","","","","","","","","","","",""
"830","","f","psychophysics","46","921219","0.0-7.0-3.0-0.32","5","7","6","5","7","4","4","4","5","5","5","-2","-1","1","2","0","1","2","0","5","4","4","5","4","5","4","2","4","5","8","6","7","7","6","9","7","9","6","5","6","5","6","6","6","5","7","6","5","1","6","6","1","6","6","6","7","5","6","7","2","7","3","6","6","6","5","7","6","6","7","5","5","1","6","5","5","7","6","1","633791803677474816","章","451","Male","[""坏他"",""好我"",""好他"",""坏我""]","[""弱他"",""强我"",""强他"",""弱我""]","","","","","","","","no","","","","","","","","","SRET","EW_formal","","key","f","16.65309090909061","703.6333333333334","391.9666666666667","自己","缺德","Negative","morality","","","","","","","","","","",""
"846","","j","psychophysics","47","923067","0.0-7.0-3.0-0.33","5","7","6","5","7","4","4","4","5","5","5","-2","-1","1","2","0","1","2","0","5","4","4","5","4","5","4","2","4","5","8","6","7","7","6","9","7","9","6","5","6","5","6","6","6","5","7","6","5","1","6","6","1","6","6","6","7","5","6","7","2","7","3","6","6","6","5","7","6","6","7","5","5","1","6","5","5","7","6","1","633791803677474816","章","451","Male","[""坏他"",""好我"",""好他"",""坏我""]","[""弱他"",""强我"",""强他"",""弱我""]","","","","","","","","yes","","","","","","","","","SRET","EW_formal","","key","j","16.652909090908626","703.6333333333334","391.9666666666667","自己","仁爱","Positive","morality","","","","","","","","","","",""
"870","","f","psychophysics","48","924950","0.0-7.0-3.0-0.34","5","7","6","5","7","4","4","4","5","5","5","-2","-1","1","2","0","1","2","0","5","4","4","5","4","5","4","2","4","5","8","6","7","7","6","9","7","9","6","5","6","5","6","6","6","5","7","6","5","1","6","6","1","6","6","6","7","5","6","7","2","7","3","6","6","6","5","7","6","6","7","5","5","1","6","5","5","7","6","1","633791803677474816","章","451","Male","[""坏他"",""好我"",""好他"",""坏我""]","[""弱他"",""强我"",""强他"",""弱我""]","","","","","","","","no","","","","","","","","","SRET","EW_formal","","key","f","16.6528571428571","703.6333333333334","391.9666666666667","朋友","拖拉","Negative","ability","","","","","","","","","","",""
"1112","","f","psychophysics","49","927065","0.0-7.0-3.0-0.35","5","7","6","5","7","4","4","4","5","5","5","-2","-1","1","2","0","1","2","0","5","4","4","5","4","5","4","2","4","5","8","6","7","7","6","9","7","9","6","5","6","5","6","6","6","5","7","6","5","1","6","6","1","6","6","6","7","5","6","7","2","7","3","6","6","6","5","7","6","6","7","5","5","1","6","5","5","7","6","1","633791803677474816","章","451","Male","[""坏他"",""好我"",""好他"",""坏我""]","[""弱他"",""强我"",""强他"",""弱我""]","","","","","","","","no","","","","","","","","","SRET","EW_formal","","key","f","16.65301587301517","703.6333333333334","391.9666666666667","自己","无耻","Negative","morality","","","","","","","","","","",""
"809","","j","psychophysics","50","928886","0.0-7.0-3.0-0.36","5","7","6","5","7","4","4","4","5","5","5","-2","-1","1","2","0","1","2","0","5","4","4","5","4","5","4","2","4","5","8","6","7","7","6","9","7","9","6","5","6","5","6","6","6","5","7","6","5","1","6","6","1","6","6","6","7","5","6","7","2","7","3","6","6","6","5","7","6","6","7","5","5","1","6","5","5","7","6","1","633791803677474816","章","451","Male","[""坏他"",""好我"",""好他"",""坏我""]","[""弱他"",""强我"",""强他"",""弱我""]","","","","","","","","yes","","","","","","","","","SRET","EW_formal","","key","j","16.652962962963134","703.6333333333334","391.9666666666667","自己","忠诚","Positive","morality","","","","","","","","","","",""
"951","","j","psychophysics","51","930851","0.0-7.0-3.0-0.37","5","7","6","5","7","4","4","4","5","5","5","-2","-1","1","2","0","1","2","0","5","4","4","5","4","5","4","2","4","5","8","6","7","7","6","9","7","9","6","5","6","5","6","6","6","5","7","6","5","1","6","6","1","6","6","6","7","5","6","7","2","7","3","6","6","6","5","7","6","6","7","5","5","1","6","5","5","7","6","1","633791803677474816","章","451","Male","[""坏他"",""好我"",""好他"",""坏我""]","[""弱他"",""强我"",""强他"",""弱我""]","","","","","","","","yes","","","","","","","","","SRET","EW_formal","","key","j","16.652820512820554","703.6333333333334","391.9666666666667","自己","廉正","Positive","morality","","","","","","","","","","",""
"827","","j","psychophysics","52","932684","0.0-7.0-3.0-0.38","5","7","6","5","7","4","4","4","5","5","5","-2","-1","1","2","0","1","2","0","5","4","4","5","4","5","4","2","4","5","8","6","7","7","6","9","7","9","6","5","6","5","6","6","6","5","7","6","5","1","6","6","1","6","6","6","7","5","6","7","2","7","3","6","6","6","5","7","6","6","7","5","5","1","6","5","5","7","6","1","633791803677474816","章","451","Male","[""坏他"",""好我"",""好他"",""坏我""]","[""弱他"",""强我"",""强他"",""弱我""]","","","","","","","","yes","","","","","","","","","SRET","EW_formal","","key","j","16.653027522935183","703.6333333333334","391.9666666666667","朋友","好心","Positive","morality","","","","","","","","","","",""
"675","","f","psychophysics","53","934374","0.0-7.0-3.0-0.39","5","7","6","5","7","4","4","4","5","5","5","-2","-1","1","2","0","1","2","0","5","4","4","5","4","5","4","2","4","5","8","6","7","7","6","9","7","9","6","5","6","5","6","6","6","5","7","6","5","1","6","6","1","6","6","6","7","5","6","7","2","7","3","6","6","6","5","7","6","6","7","5","5","1","6","5","5","7","6","1","633791803677474816","章","451","Male","[""坏他"",""好我"",""好他"",""坏我""]","[""弱他"",""强我"",""强他"",""弱我""]","","","","","","","","no","","","","","","","","","SRET","EW_formal","","key","f","16.653069306930323","703.6333333333334","391.9666666666667","朋友","黑心","Negative","morality","","","","","","","","","","",""
"869","","f","psychophysics","54","936258","0.0-7.0-3.0-0.40","5","7","6","5","7","4","4","4","5","5","5","-2","-1","1","2","0","1","2","0","5","4","4","5","4","5","4","2","4","5","8","6","7","7","6","9","7","9","6","5","6","5","6","6","6","5","7","6","5","1","6","6","1","6","6","6","7","5","6","7","2","7","3","6","6","6","5","7","6","6","7","5","5","1","6","5","5","7","6","1","633791803677474816","章","451","Male","[""坏他"",""好我"",""好他"",""坏我""]","[""弱他"",""强我"",""强他"",""弱我""]","","","","","","","","no","","","","","","","","","SRET","EW_formal","","key","f","16.65303571428584","703.6333333333334","391.9666666666667","朋友","无为","Negative","ability","","","","","","","","","","",""
"725","","f","psychophysics","55","937989","0.0-7.0-3.0-0.41","5","7","6","5","7","4","4","4","5","5","5","-2","-1","1","2","0","1","2","0","5","4","4","5","4","5","4","2","4","5","8","6","7","7","6","9","7","9","6","5","6","5","6","6","6","5","7","6","5","1","6","6","1","6","6","6","7","5","6","7","2","7","3","6","6","6","5","7","6","6","7","5","5","1","6","5","5","7","6","1","633791803677474816","章","451","Male","[""坏他"",""好我"",""好他"",""坏我""]","[""弱他"",""强我"",""强他"",""弱我""]","","","","","","","","no","","","","","","","","","SRET","EW_formal","","key","f","16.653009708737954","703.6333333333334","391.9666666666667","朋友","笨蛋","Negative","ability","","","","","","","","","","",""
"1457","","j","psychophysics","56","940452","0.0-7.0-3.0-0.42","5","7","6","5","7","4","4","4","5","5","5","-2","-1","1","2","0","1","2","0","5","4","4","5","4","5","4","2","4","5","8","6","7","7","6","9","7","9","6","5","6","5","6","6","6","5","7","6","5","1","6","6","1","6","6","6","7","5","6","7","2","7","3","6","6","6","5","7","6","6","7","5","5","1","6","5","5","7","6","1","633791803677474816","章","451","Male","[""坏他"",""好我"",""好他"",""坏我""]","[""弱他"",""强我"",""强他"",""弱我""]","","","","","","","","yes","","","","","","","","","SRET","EW_formal","","key","j","16.6529251700679","703.6333333333334","391.9666666666667","朋友","思辨","Positive","ability","","","","","","","","","","",""
"768","","f","psychophysics","57","942236","0.0-7.0-3.0-0.43","5","7","6","5","7","4","4","4","5","5","5","-2","-1","1","2","0","1","2","0","5","4","4","5","4","5","4","2","4","5","8","6","7","7","6","9","7","9","6","5","6","5","6","6","6","5","7","6","5","1","6","6","1","6","6","6","7","5","6","7","2","7","3","6","6","6","5","7","6","6","7","5","5","1","6","5","5","7","6","1","633791803677474816","章","451","Male","[""坏他"",""好我"",""好他"",""坏我""]","[""弱他"",""强我"",""强他"",""弱我""]","","","","","","","","no","","","","","","","","","SRET","EW_formal","","key","f","16.653018867924263","703.6333333333334","391.9666666666667","自己","伪善","Negative","morality","","","","","","","","","","",""
"941","","j","psychophysics","58","944188","0.0-7.0-3.0-0.44","5","7","6","5","7","4","4","4","5","5","5","-2","-1","1","2","0","1","2","0","5","4","4","5","4","5","4","2","4","5","8","6","7","7","6","9","7","9","6","5","6","5","6","6","6","5","7","6","5","1","6","6","1","6","6","6","7","5","6","7","2","7","3","6","6","6","5","7","6","6","7","5","5","1","6","5","5","7","6","1","633791803677474816","章","451","Male","[""坏他"",""好我"",""好他"",""坏我""]","[""弱他"",""强我"",""强他"",""弱我""]","","","","","","","","yes","","","","","","","","","SRET","EW_formal","","key","j","16.653103448275942","703.6333333333334","391.9666666666667","自己","智慧","Positive","ability","","","","","","","","","","",""
"1096","","f","psychophysics","59","946297","0.0-7.0-3.0-0.45","5","7","6","5","7","4","4","4","5","5","5","-2","-1","1","2","0","1","2","0","5","4","4","5","4","5","4","2","4","5","8","6","7","7","6","9","7","9","6","5","6","5","6","6","6","5","7","6","5","1","6","6","1","6","6","6","7","5","6","7","2","7","3","6","6","6","5","7","6","6","7","5","5","1","6","5","5","7","6","1","633791803677474816","章","451","Male","[""坏他"",""好我"",""好他"",""坏我""]","[""弱他"",""强我"",""强他"",""弱我""]","","","","","","","","no","","","","","","","","","SRET","EW_formal","","key","f","16.65301587301517","703.6333333333334","391.9666666666667","朋友","小人","Negative","morality","","","","","","","","","","",""
"1620","","f","psychophysics","60","948929","0.0-7.0-3.0-0.46","5","7","6","5","7","4","4","4","5","5","5","-2","-1","1","2","0","1","2","0","5","4","4","5","4","5","4","2","4","5","8","6","7","7","6","9","7","9","6","5","6","5","6","6","6","5","7","6","5","1","6","6","1","6","6","6","7","5","6","7","2","7","3","6","6","6","5","7","6","6","7","5","5","1","6","5","5","7","6","1","633791803677474816","章","451","Male","[""坏他"",""好我"",""好他"",""坏我""]","[""弱他"",""强我"",""强他"",""弱我""]","","","","","","","","no","","","","","","","","","SRET","EW_formal","","key","f","16.652993630573366","703.6333333333334","391.9666666666667","自己","屈才","Negative","ability","","","","","","","","","","",""
"705","","f","psychophysics","61","950763","0.0-7.0-3.0-0.47","5","7","6","5","7","4","4","4","5","5","5","-2","-1","1","2","0","1","2","0","5","4","4","5","4","5","4","2","4","5","8","6","7","7","6","9","7","9","6","5","6","5","6","6","6","5","7","6","5","1","6","6","1","6","6","6","7","5","6","7","2","7","3","6","6","6","5","7","6","6","7","5","5","1","6","5","5","7","6","1","633791803677474816","章","451","Male","[""坏他"",""好我"",""好他"",""坏我""]","[""弱他"",""强我"",""强他"",""弱我""]","","","","","","","","no","","","","","","","","","SRET","EW_formal","","key","f","16.65284403669648","703.6333333333334","391.9666666666667","朋友","愚钝","Negative","ability","","","","","","","","","","",""
"826","","f","psychophysics","62","952593","0.0-7.0-3.0-0.48","5","7","6","5","7","4","4","4","5","5","5","-2","-1","1","2","0","1","2","0","5","4","4","5","4","5","4","2","4","5","8","6","7","7","6","9","7","9","6","5","6","5","6","6","6","5","7","6","5","1","6","6","1","6","6","6","7","5","6","7","2","7","3","6","6","6","5","7","6","6","7","5","5","1","6","5","5","7","6","1","633791803677474816","章","451","Male","[""坏他"",""好我"",""好他"",""坏我""]","[""弱他"",""强我"",""强他"",""弱我""]","","","","","","","","no","","","","","","","","","SRET","EW_formal","","key","f","16.652844036697548","703.6333333333334","391.9666666666667","自己","迂拙","Negative","ability","","","","","","","","","","",""
"862","","j","psychophysics","63","954459","0.0-7.0-3.0-0.49","5","7","6","5","7","4","4","4","5","5","5","-2","-1","1","2","0","1","2","0","5","4","4","5","4","5","4","2","4","5","8","6","7","7","6","9","7","9","6","5","6","5","6","6","6","5","7","6","5","1","6","6","1","6","6","6","7","5","6","7","2","7","3","6","6","6","5","7","6","6","7","5","5","1","6","5","5","7","6","1","633791803677474816","章","451","Male","[""坏他"",""好我"",""好他"",""坏我""]","[""弱他"",""强我"",""强他"",""弱我""]","","","","","","","","yes","","","","","","","","","SRET","EW_formal","","key","j","16.652972972972805","703.6333333333334","391.9666666666667","自己","君子","Positive","morality","","","","","","","","","","",""
"1446","","j","psychophysics","64","956923","0.0-7.0-3.0-0.50","5","7","6","5","7","4","4","4","5","5","5","-2","-1","1","2","0","1","2","0","5","4","4","5","4","5","4","2","4","5","8","6","7","7","6","9","7","9","6","5","6","5","6","6","6","5","7","6","5","1","6","6","1","6","6","6","7","5","6","7","2","7","3","6","6","6","5","7","6","6","7","5","5","1","6","5","5","7","6","1","633791803677474816","章","451","Male","[""坏他"",""好我"",""好他"",""坏我""]","[""弱他"",""强我"",""强他"",""弱我""]","","","","","","","","yes","","","","","","","","","SRET","EW_formal","","key","j","16.6529251700679","703.6333333333334","391.9666666666667","朋友","骁勇","Positive","ability","","","","","","","","","","",""
"756","","f","psychophysics","65","958692","0.0-7.0-3.0-0.51","5","7","6","5","7","4","4","4","5","5","5","-2","-1","1","2","0","1","2","0","5","4","4","5","4","5","4","2","4","5","8","6","7","7","6","9","7","9","6","5","6","5","6","6","6","5","7","6","5","1","6","6","1","6","6","6","7","5","6","7","2","7","3","6","6","6","5","7","6","6","7","5","5","1","6","5","5","7","6","1","633791803677474816","章","451","Male","[""坏他"",""好我"",""好他"",""坏我""]","[""弱他"",""强我"",""强他"",""弱我""]","","","","","","","","no","","","","","","","","","SRET","EW_formal","","key","f","16.652952380951806","703.6333333333334","391.9666666666667","自己","愚蠢","Negative","ability","","","","","","","","","","",""
"823","","f","psychophysics","66","960524","0.0-7.0-3.0-0.52","5","7","6","5","7","4","4","4","5","5","5","-2","-1","1","2","0","1","2","0","5","4","4","5","4","5","4","2","4","5","8","6","7","7","6","9","7","9","6","5","6","5","6","6","6","5","7","6","5","1","6","6","1","6","6","6","7","5","6","7","2","7","3","6","6","6","5","7","6","6","7","5","5","1","6","5","5","7","6","1","633791803677474816","章","451","Male","[""坏他"",""好我"",""好他"",""坏我""]","[""弱他"",""强我"",""强他"",""弱我""]","","","","","","","","no","","","","","","","","","SRET","EW_formal","","key","f","16.65284403669648","703.6333333333334","391.9666666666667","自己","专注","Positive","ability","","","","","","","","","","",""
"823","","f","psychophysics","67","962358","0.0-7.0-3.0-0.53","5","7","6","5","7","4","4","4","5","5","5","-2","-1","1","2","0","1","2","0","5","4","4","5","4","5","4","2","4","5","8","6","7","7","6","9","7","9","6","5","6","5","6","6","6","5","7","6","5","1","6","6","1","6","6","6","7","5","6","7","2","7","3","6","6","6","5","7","6","6","7","5","5","1","6","5","5","7","6","1","633791803677474816","章","451","Male","[""坏他"",""好我"",""好他"",""坏我""]","[""弱他"",""强我"",""强他"",""弱我""]","","","","","","","","no","","","","","","","","","SRET","EW_formal","","key","f","16.652844036697548","703.6333333333334","391.9666666666667","自己","中用","Positive","ability","","","","","","","","","","",""
"1869","","j","psychophysics","68","965233","0.0-7.0-3.0-0.54","5","7","6","5","7","4","4","4","5","5","5","-2","-1","1","2","0","1","2","0","5","4","4","5","4","5","4","2","4","5","8","6","7","7","6","9","7","9","6","5","6","5","6","6","6","5","7","6","5","1","6","6","1","6","6","6","7","5","6","7","2","7","3","6","6","6","5","7","6","6","7","5","5","1","6","5","5","7","6","1","633791803677474816","章","451","Male","[""坏他"",""好我"",""好他"",""坏我""]","[""弱他"",""强我"",""强他"",""弱我""]","","","","","","","","yes","","","","","","","","","SRET","EW_formal","","key","j","16.65290697674378","703.6333333333334","391.9666666666667","朋友","勤恳","Positive","morality","","","","","","","","","","",""
"1022","","j","psychophysics","69","967255","0.0-7.0-3.0-0.55","5","7","6","5","7","4","4","4","5","5","5","-2","-1","1","2","0","1","2","0","5","4","4","5","4","5","4","2","4","5","8","6","7","7","6","9","7","9","6","5","6","5","6","6","6","5","7","6","5","1","6","6","1","6","6","6","7","5","6","7","2","7","3","6","6","6","5","7","6","6","7","5","5","1","6","5","5","7","6","1","633791803677474816","章","451","Male","[""坏他"",""好我"",""好他"",""坏我""]","[""弱他"",""强我"",""强他"",""弱我""]","","","","","","","","yes","","","","","","","","","SRET","EW_formal","","key","j","16.65283333333306","703.6333333333334","391.9666666666667","朋友","守信","Positive","morality","","","","","","","","","","",""
"1060","","f","psychophysics","70","969329","0.0-7.0-3.0-0.56","5","7","6","5","7","4","4","4","5","5","5","-2","-1","1","2","0","1","2","0","5","4","4","5","4","5","4","2","4","5","8","6","7","7","6","9","7","9","6","5","6","5","6","6","6","5","7","6","5","1","6","6","1","6","6","6","7","5","6","7","2","7","3","6","6","6","5","7","6","6","7","5","5","1","6","5","5","7","6","1","633791803677474816","章","451","Male","[""坏他"",""好我"",""好他"",""坏我""]","[""弱他"",""强我"",""强他"",""弱我""]","","","","","","","","no","","","","","","","","","SRET","EW_formal","","key","f","16.652903225806153","703.6333333333334","391.9666666666667","朋友","虚伪","Negative","morality","","","","","","","","","","",""
"1087","","j","psychophysics","71","971432","0.0-7.0-3.0-0.57","5","7","6","5","7","4","4","4","5","5","5","-2","-1","1","2","0","1","2","0","5","4","4","5","4","5","4","2","4","5","8","6","7","7","6","9","7","9","6","5","6","5","6","6","6","5","7","6","5","1","6","6","1","6","6","6","7","5","6","7","2","7","3","6","6","6","5","7","6","6","7","5","5","1","6","5","5","7","6","1","633791803677474816","章","451","Male","[""坏他"",""好我"",""好他"",""坏我""]","[""弱他"",""强我"",""强他"",""弱我""]","","","","","","","","yes","","","","","","","","","SRET","EW_formal","","key","j","16.65295999999996","703.6333333333334","391.9666666666667","朋友","学霸","Positive","ability","","","","","","","","","","",""
"1033","","f","psychophysics","72","973476","0.0-7.0-3.0-0.58","5","7","6","5","7","4","4","4","5","5","5","-2","-1","1","2","0","1","2","0","5","4","4","5","4","5","4","2","4","5","8","6","7","7","6","9","7","9","6","5","6","5","6","6","6","5","7","6","5","1","6","6","1","6","6","6","7","5","6","7","2","7","3","6","6","6","5","7","6","6","7","5","5","1","6","5","5","7","6","1","633791803677474816","章","451","Male","[""坏他"",""好我"",""好他"",""坏我""]","[""弱他"",""强我"",""强他"",""弱我""]","","","","","","","","no","","","","","","","","","SRET","EW_formal","","key","f","16.652950819672398","703.6333333333334","391.9666666666667","朋友","混账","Negative","morality","","","","","","","","","","",""
"1216","","f","psychophysics","73","975694","0.0-7.0-3.0-0.59","5","7","6","5","7","4","4","4","5","5","5","-2","-1","1","2","0","1","2","0","5","4","4","5","4","5","4","2","4","5","8","6","7","7","6","9","7","9","6","5","6","5","6","6","6","5","7","6","5","1","6","6","1","6","6","6","7","5","6","7","2","7","3","6","6","6","5","7","6","6","7","5","5","1","6","5","5","7","6","1","633791803677474816","章","451","Male","[""坏他"",""好我"",""好他"",""坏我""]","[""弱他"",""强我"",""强他"",""弱我""]","","","","","","","","no","","","","","","","","","SRET","EW_formal","","key","f","16.652878787879175","703.6333333333334","391.9666666666667","自己","淫乱","Negative","morality","","","","","","","","","","",""
"1069","","j","psychophysics","74","977772","0.0-7.0-3.0-0.60","5","7","6","5","7","4","4","4","5","5","5","-2","-1","1","2","0","1","2","0","5","4","4","5","4","5","4","2","4","5","8","6","7","7","6","9","7","9","6","5","6","5","6","6","6","5","7","6","5","1","6","6","1","6","6","6","7","5","6","7","2","7","3","6","6","6","5","7","6","6","7","5","5","1","6","5","5","7","6","1","633791803677474816","章","451","Male","[""坏他"",""好我"",""好他"",""坏我""]","[""弱他"",""强我"",""强他"",""弱我""]","","","","","","","","yes","","","","","","","","","SRET","EW_formal","","key","j","16.652903225806153","703.6333333333334","391.9666666666667","朋友","孝顺","Positive","morality","","","","","","","","","","",""
"1263","","f","psychophysics","75","980040","0.0-7.0-3.0-0.61","5","7","6","5","7","4","4","4","5","5","5","-2","-1","1","2","0","1","2","0","5","4","4","5","4","5","4","2","4","5","8","6","7","7","6","9","7","9","6","5","6","5","6","6","6","5","7","6","5","1","6","6","1","6","6","6","7","5","6","7","2","7","3","6","6","6","5","7","6","6","7","5","5","1","6","5","5","7","6","1","633791803677474816","章","451","Male","[""坏他"",""好我"",""好他"",""坏我""]","[""弱他"",""强我"",""强他"",""弱我""]","","","","","","","","no","","","","","","","","","SRET","EW_formal","","key","f","16.65288888888899","703.6333333333334","391.9666666666667","朋友","浅薄","Negative","ability","","","","","","","","","","",""
"867","","j","psychophysics","76","981908","0.0-7.0-3.0-0.62","5","7","6","5","7","4","4","4","5","5","5","-2","-1","1","2","0","1","2","0","5","4","4","5","4","5","4","2","4","5","8","6","7","7","6","9","7","9","6","5","6","5","6","6","6","5","7","6","5","1","6","6","1","6","6","6","7","5","6","7","2","7","3","6","6","6","5","7","6","6","7","5","5","1","6","5","5","7","6","1","633791803677474816","章","451","Male","[""坏他"",""好我"",""好他"",""坏我""]","[""弱他"",""强我"",""强他"",""弱我""]","","","","","","","","yes","","","","","","","","","SRET","EW_formal","","key","j","16.652972972972805","703.6333333333334","391.9666666666667","自己","诚信","Positive","morality","","","","","","","","","","",""
"1240","","j","psychophysics","77","984156","0.0-7.0-3.0-0.63","5","7","6","5","7","4","4","4","5","5","5","-2","-1","1","2","0","1","2","0","5","4","4","5","4","5","4","2","4","5","8","6","7","7","6","9","7","9","6","5","6","5","6","6","6","5","7","6","5","1","6","6","1","6","6","6","7","5","6","7","2","7","3","6","6","6","5","7","6","6","7","5","5","1","6","5","5","7","6","1","633791803677474816","章","451","Male","[""坏他"",""好我"",""好他"",""坏我""]","[""弱他"",""强我"",""强他"",""弱我""]","","","","","","","","yes","","","","","","","","","SRET","EW_formal","","key","j","16.652985074626866","703.6333333333334","391.9666666666667","朋友","博学","Positive","ability","","","","","","","","","","",""
"824","","j","psychophysics","78","985983","0.0-7.0-3.0-0.64","5","7","6","5","7","4","4","4","5","5","5","-2","-1","1","2","0","1","2","0","5","4","4","5","4","5","4","2","4","5","8","6","7","7","6","9","7","9","6","5","6","5","6","6","6","5","7","6","5","1","6","6","1","6","6","6","7","5","6","7","2","7","3","6","6","6","5","7","6","6","7","5","5","1","6","5","5","7","6","1","633791803677474816","章","451","Male","[""坏他"",""好我"",""好他"",""坏我""]","[""弱他"",""强我"",""强他"",""弱我""]","","","","","","","","yes","","","","","","","","","SRET","EW_formal","","key","j","16.652844036697548","703.6333333333334","391.9666666666667","朋友","侠义","Positive","morality","","","","","","","","","","",""
"847","","j","psychophysics","79","987848","0.0-7.0-3.0-0.65","5","7","6","5","7","4","4","4","5","5","5","-2","-1","1","2","0","1","2","0","5","4","4","5","4","5","4","2","4","5","8","6","7","7","6","9","7","9","6","5","6","5","6","6","6","5","7","6","5","1","6","6","1","6","6","6","7","5","6","7","2","7","3","6","6","6","5","7","6","6","7","5","5","1","6","5","5","7","6","1","633791803677474816","章","451","Male","[""坏他"",""好我"",""好他"",""坏我""]","[""弱他"",""强我"",""强他"",""弱我""]","","","","","","","","yes","","","","","","","","","SRET","EW_formal","","key","j","16.652972972973853","703.6333333333334","391.9666666666667","自己","果决","Positive","ability","","","","","","","","","","",""
"787","","f","psychophysics","80","989648","0.0-7.0-3.0-0.66","5","7","6","5","7","4","4","4","5","5","5","-2","-1","1","2","0","1","2","0","5","4","4","5","4","5","4","2","4","5","8","6","7","7","6","9","7","9","6","5","6","5","6","6","6","5","7","6","5","1","6","6","1","6","6","6","7","5","6","7","2","7","3","6","6","6","5","7","6","6","7","5","5","1","6","5","5","7","6","1","633791803677474816","章","451","Male","[""坏他"",""好我"",""好他"",""坏我""]","[""弱他"",""强我"",""强他"",""弱我""]","","","","","","","","no","","","","","","","","","SRET","EW_formal","","key","f","16.652897196261552","703.6333333333334","391.9666666666667","朋友","自私","Negative","morality","","","","","","","","","","",""
"916","","f","psychophysics","81","991578","0.0-7.0-3.0-0.67","5","7","6","5","7","4","4","4","5","5","5","-2","-1","1","2","0","1","2","0","5","4","4","5","4","5","4","2","4","5","8","6","7","7","6","9","7","9","6","5","6","5","6","6","6","5","7","6","5","1","6","6","1","6","6","6","7","5","6","7","2","7","3","6","6","6","5","7","6","6","7","5","5","1","6","5","5","7","6","1","633791803677474816","章","451","Male","[""坏他"",""好我"",""好他"",""坏我""]","[""弱他"",""强我"",""强他"",""弱我""]","","","","","","","","no","","","","","","","","","SRET","EW_formal","","key","f","16.65286956521804","703.6333333333334","391.9666666666667","自己","淡泊","Positive","morality","","","","","","","","","","",""
"795","","f","psychophysics","82","993377","0.0-7.0-3.0-0.68","5","7","6","5","7","4","4","4","5","5","5","-2","-1","1","2","0","1","2","0","5","4","4","5","4","5","4","2","4","5","8","6","7","7","6","9","7","9","6","5","6","5","6","6","6","5","7","6","5","1","6","6","1","6","6","6","7","5","6","7","2","7","3","6","6","6","5","7","6","6","7","5","5","1","6","5","5","7","6","1","633791803677474816","章","451","Male","[""坏他"",""好我"",""好他"",""坏我""]","[""弱他"",""强我"",""强他"",""弱我""]","","","","","","","","no","","","","","","","","","SRET","EW_formal","","key","f","16.65289719626264","703.6333333333334","391.9666666666667","朋友","愚痴","Negative","ability","","","","","","","","","","",""
"801","","j","psychophysics","83","995179","0.0-7.0-3.0-0.69","5","7","6","5","7","4","4","4","5","5","5","-2","-1","1","2","0","1","2","0","5","4","4","5","4","5","4","2","4","5","8","6","7","7","6","9","7","9","6","5","6","5","6","6","6","5","7","6","5","1","6","6","1","6","6","6","7","5","6","7","2","7","3","6","6","6","5","7","6","6","7","5","5","1","6","5","5","7","6","1","633791803677474816","章","451","Male","[""坏他"",""好我"",""好他"",""坏我""]","[""弱他"",""强我"",""强他"",""弱我""]","","","","","","","","yes","","","","","","","","","SRET","EW_formal","","key","j","16.652897196261552","703.6333333333334","391.9666666666667","自己","慷慨","Positive","morality","","","","","","","","","","",""
"839","","f","psychophysics","84","997026","0.0-7.0-3.0-0.70","5","7","6","5","7","4","4","4","5","5","5","-2","-1","1","2","0","1","2","0","5","4","4","5","4","5","4","2","4","5","8","6","7","7","6","9","7","9","6","5","6","5","6","6","6","5","7","6","5","1","6","6","1","6","6","6","7","5","6","7","2","7","3","6","6","6","5","7","6","6","7","5","5","1","6","5","5","7","6","1","633791803677474816","章","451","Male","[""坏他"",""好我"",""好他"",""坏我""]","[""弱他"",""强我"",""强他"",""弱我""]","","","","","","","","no","","","","","","","","","SRET","EW_formal","","key","f","16.652909090909684","703.6333333333334","391.9666666666667","朋友","无知","Negative","ability","","","","","","","","","","",""
"975","","j","psychophysics","85","999005","0.0-7.0-3.0-0.71","5","7","6","5","7","4","4","4","5","5","5","-2","-1","1","2","0","1","2","0","5","4","4","5","4","5","4","2","4","5","8","6","7","7","6","9","7","9","6","5","6","5","6","6","6","5","7","6","5","1","6","6","1","6","6","6","7","5","6","7","2","7","3","6","6","6","5","7","6","6","7","5","5","1","6","5","5","7","6","1","633791803677474816","章","451","Male","[""坏他"",""好我"",""好他"",""坏我""]","[""弱他"",""强我"",""强他"",""弱我""]","","","","","","","","yes","","","","","","","","","SRET","EW_formal","","key","j","16.652881355932518","703.6333333333334","391.9666666666667","自己","勤奋","Positive","ability","","","","","","","","","","",""
"828","","f","psychophysics","86","1000837","0.0-7.0-3.0-0.72","5","7","6","5","7","4","4","4","5","5","5","-2","-1","1","2","0","1","2","0","5","4","4","5","4","5","4","2","4","5","8","6","7","7","6","9","7","9","6","5","6","5","6","6","6","5","7","6","5","1","6","6","1","6","6","6","7","5","6","7","2","7","3","6","6","6","5","7","6","6","7","5","5","1","6","5","5","7","6","1","633791803677474816","章","451","Male","[""坏他"",""好我"",""好他"",""坏我""]","[""弱他"",""强我"",""强他"",""弱我""]","","","","","","","","no","","","","","","","","","SRET","EW_formal","","key","f","16.65284403669648","703.6333333333334","391.9666666666667","自己","拖延","Negative","ability","","","","","","","","","","",""
"928","","j","psychophysics","87","1002768","0.0-7.0-3.0-0.73","5","7","6","5","7","4","4","4","5","5","5","-2","-1","1","2","0","1","2","0","5","4","4","5","4","5","4","2","4","5","8","6","7","7","6","9","7","9","6","5","6","5","6","6","6","5","7","6","5","1","6","6","1","6","6","6","7","5","6","7","2","7","3","6","6","6","5","7","6","6","7","5","5","1","6","5","5","7","6","1","633791803677474816","章","451","Male","[""坏他"",""好我"",""好他"",""坏我""]","[""弱他"",""强我"",""强他"",""弱我""]","","","","","","","","yes","","","","","","","","","SRET","EW_formal","","key","j","16.652869565217028","703.6333333333334","391.9666666666667","朋友","善心","Positive","morality","","","","","","","","","","",""
"1140","","f","psychophysics","88","1004990","0.0-7.0-3.0-0.74","5","7","6","5","7","4","4","4","5","5","5","-2","-1","1","2","0","1","2","0","5","4","4","5","4","5","4","2","4","5","8","6","7","7","6","9","7","9","6","5","6","5","6","6","6","5","7","6","5","1","6","6","1","6","6","6","7","5","6","7","2","7","3","6","6","6","5","7","6","6","7","5","5","1","6","5","5","7","6","1","633791803677474816","章","451","Male","[""坏他"",""好我"",""好他"",""坏我""]","[""弱他"",""强我"",""强他"",""弱我""]","","","","","","","","no","","","","","","","","","SRET","EW_formal","","key","f","16.652878787879175","703.6333333333334","391.9666666666667","自己","新手","Negative","ability","","","","","","","","","","",""
"884","","f","psychophysics","89","1006881","0.0-7.0-3.0-0.75","5","7","6","5","7","4","4","4","5","5","5","-2","-1","1","2","0","1","2","0","5","4","4","5","4","5","4","2","4","5","8","6","7","7","6","9","7","9","6","5","6","5","6","6","6","5","7","6","5","1","6","6","1","6","6","6","7","5","6","7","2","7","3","6","6","6","5","7","6","6","7","5","5","1","6","5","5","7","6","1","633791803677474816","章","451","Male","[""坏他"",""好我"",""好他"",""坏我""]","[""弱他"",""强我"",""强他"",""弱我""]","","","","","","","","no","","","","","","","","","SRET","EW_formal","","key","f","16.652920353982548","703.6333333333334","391.9666666666667","自己","势利","Negative","morality","","","","","","","","","","",""
"1059","","f","psychophysics","90","1009064","0.0-7.0-3.0-0.76","5","7","6","5","7","4","4","4","5","5","5","-2","-1","1","2","0","1","2","0","5","4","4","5","4","5","4","2","4","5","8","6","7","7","6","9","7","9","6","5","6","5","6","6","6","5","7","6","5","1","6","6","1","6","6","6","7","5","6","7","2","7","3","6","6","6","5","7","6","6","7","5","5","1","6","5","5","7","6","1","633791803677474816","章","451","Male","[""坏他"",""好我"",""好他"",""坏我""]","[""弱他"",""强我"",""强他"",""弱我""]","","","","","","","","no","","","","","","","","","SRET","EW_formal","","key","f","16.652923076923113","703.6333333333334","391.9666666666667","朋友","卑鄙","Negative","morality","","","","","","","","","","",""
"944","","f","psychophysics","91","1011011","0.0-7.0-3.0-0.77","5","7","6","5","7","4","4","4","5","5","5","-2","-1","1","2","0","1","2","0","5","4","4","5","4","5","4","2","4","5","8","6","7","7","6","9","7","9","6","5","6","5","6","6","6","5","7","6","5","1","6","6","1","6","6","6","7","5","6","7","2","7","3","6","6","6","5","7","6","6","7","5","5","1","6","5","5","7","6","1","633791803677474816","章","451","Male","[""坏他"",""好我"",""好他"",""坏我""]","[""弱他"",""强我"",""强他"",""弱我""]","","","","","","","","no","","","","","","","","","SRET","EW_formal","","key","f","16.652931034482677","703.6333333333334","391.9666666666667","自己","无赖","Negative","morality","","","","","","","","","","",""
"1097","","j","psychophysics","92","1013176","0.0-7.0-3.0-0.78","5","7","6","5","7","4","4","4","5","5","5","-2","-1","1","2","0","1","2","0","5","4","4","5","4","5","4","2","4","5","8","6","7","7","6","9","7","9","6","5","6","5","6","6","6","5","7","6","5","1","6","6","1","6","6","6","7","5","6","7","2","7","3","6","6","6","5","7","6","6","7","5","5","1","6","5","5","7","6","1","633791803677474816","章","451","Male","[""坏他"",""好我"",""好他"",""坏我""]","[""弱他"",""强我"",""强他"",""弱我""]","","","","","","","","yes","","","","","","","","","SRET","EW_formal","","key","j","16.652868217054046","703.6333333333334","391.9666666666667","自己","守法","Positive","morality","","","","","","","","","","",""
"751","","f","psychophysics","93","1014943","0.0-7.0-3.0-0.79","5","7","6","5","7","4","4","4","5","5","5","-2","-1","1","2","0","1","2","0","5","4","4","5","4","5","4","2","4","5","8","6","7","7","6","9","7","9","6","5","6","5","6","6","6","5","7","6","5","1","6","6","1","6","6","6","7","5","6","7","2","7","3","6","6","6","5","7","6","6","7","5","5","1","6","5","5","7","6","1","633791803677474816","章","451","Male","[""坏他"",""好我"",""好他"",""坏我""]","[""弱他"",""强我"",""强他"",""弱我""]","","","","","","","","no","","","","","","","","","SRET","EW_formal","","key","f","16.652952380951806","703.6333333333334","391.9666666666667","朋友","短浅","Negative","ability","","","","","","","","","","",""
"1037","","j","psychophysics","94","1016981","0.0-7.0-3.0-0.80","5","7","6","5","7","4","4","4","5","5","5","-2","-1","1","2","0","1","2","0","5","4","4","5","4","5","4","2","4","5","8","6","7","7","6","9","7","9","6","5","6","5","6","6","6","5","7","6","5","1","6","6","1","6","6","6","7","5","6","7","2","7","3","6","6","6","5","7","6","6","7","5","5","1","6","5","5","7","6","1","633791803677474816","章","451","Male","[""坏他"",""好我"",""好他"",""坏我""]","[""弱他"",""强我"",""强他"",""弱我""]","","","","","","","","yes","","","","","","","","","SRET","EW_formal","","key","j","16.65289256198347","703.6333333333334","391.9666666666667","朋友","娴熟","Positive","ability","","","","","","","","","","",""
"940","","f","psychophysics","95","1018926","0.0-7.0-3.0-0.81","5","7","6","5","7","4","4","4","5","5","5","-2","-1","1","2","0","1","2","0","5","4","4","5","4","5","4","2","4","5","8","6","7","7","6","9","7","9","6","5","6","5","6","6","6","5","7","6","5","1","6","6","1","6","6","6","7","5","6","7","2","7","3","6","6","6","5","7","6","6","7","5","5","1","6","5","5","7","6","1","633791803677474816","章","451","Male","[""坏他"",""好我"",""好他"",""坏我""]","[""弱他"",""强我"",""强他"",""弱我""]","","","","","","","","no","","","","","","","","","SRET","EW_formal","","key","f","16.652931034482677","703.6333333333334","391.9666666666667","自己","顶事","Positive","ability","","","","","","","","","","",""
"1105","","j","psychophysics","96","1021040","0.0-7.0-3.0-0.82","5","7","6","5","7","4","4","4","5","5","5","-2","-1","1","2","0","1","2","0","5","4","4","5","4","5","4","2","4","5","8","6","7","7","6","9","7","9","6","5","6","5","6","6","6","5","7","6","5","1","6","6","1","6","6","6","7","5","6","7","2","7","3","6","6","6","5","7","6","6","7","5","5","1","6","5","5","7","6","1","633791803677474816","章","451","Male","[""坏他"",""好我"",""好他"",""坏我""]","[""弱他"",""强我"",""强他"",""弱我""]","","","","","","","","yes","","","","","","","","","SRET","EW_formal","","key","j","16.653015873016095","703.6333333333334","391.9666666666667","朋友","毅力","Positive","ability","","","","","","","","","","",""
"1233","","f","psychophysics","97","1023273","0.0-7.0-3.0-0.83","5","7","6","5","7","4","4","4","5","5","5","-2","-1","1","2","0","1","2","0","5","4","4","5","4","5","4","2","4","5","8","6","7","7","6","9","7","9","6","5","6","5","6","6","6","5","7","6","5","1","6","6","1","6","6","6","7","5","6","7","2","7","3","6","6","6","5","7","6","6","7","5","5","1","6","5","5","7","6","1","633791803677474816","章","451","Male","[""坏他"",""好我"",""好他"",""坏我""]","[""弱他"",""强我"",""强他"",""弱我""]","","","","","","","","no","","","","","","","","","SRET","EW_formal","","key","f","16.652932330826822","703.6333333333334","391.9666666666667","自己","不端","Negative","morality","","","","","","","","","","",""
"855","","f","psychophysics","98","1025138","0.0-7.0-3.0-0.84","5","7","6","5","7","4","4","4","5","5","5","-2","-1","1","2","0","1","2","0","5","4","4","5","4","5","4","2","4","5","8","6","7","7","6","9","7","9","6","5","6","5","6","6","6","5","7","6","5","1","6","6","1","6","6","6","7","5","6","7","2","7","3","6","6","6","5","7","6","6","7","5","5","1","6","5","5","7","6","1","633791803677474816","章","451","Male","[""坏他"",""好我"",""好他"",""坏我""]","[""弱他"",""强我"",""强他"",""弱我""]","","","","","","","","no","","","","","","","","","SRET","EW_formal","","key","f","16.652972972972805","703.6333333333334","391.9666666666667","朋友","低俗","Negative","morality","","","","","","","","","","",""
"809","","f","psychophysics","99","1027076","0.0-7.0-3.0-0.85","5","7","6","5","7","4","4","4","5","5","5","-2","-1","1","2","0","1","2","0","5","4","4","5","4","5","4","2","4","5","8","6","7","7","6","9","7","9","6","5","6","5","6","6","6","5","7","6","5","1","6","6","1","6","6","6","7","5","6","7","2","7","3","6","6","6","5","7","6","6","7","5","5","1","6","5","5","7","6","1","633791803677474816","章","451","Male","[""坏他"",""好我"",""好他"",""坏我""]","[""弱他"",""强我"",""强他"",""弱我""]","","","","","","","","no","","","","","","","","","SRET","EW_formal","","key","f","16.653043478260667","703.6333333333334","391.9666666666667","自己","缓慢","Negative","ability","","","","","","","","","","",""
"937","","j","psychophysics","100","1029033","0.0-7.0-3.0-0.86","5","7","6","5","7","4","4","4","5","5","5","-2","-1","1","2","0","1","2","0","5","4","4","5","4","5","4","2","4","5","8","6","7","7","6","9","7","9","6","5","6","5","6","6","6","5","7","6","5","1","6","6","1","6","6","6","7","5","6","7","2","7","3","6","6","6","5","7","6","6","7","5","5","1","6","5","5","7","6","1","633791803677474816","章","451","Male","[""坏他"",""好我"",""好他"",""坏我""]","[""弱他"",""强我"",""强他"",""弱我""]","","","","","","","","yes","","","","","","","","","SRET","EW_formal","","key","j","16.652820512820554","703.6333333333334","391.9666666666667","自己","主见","Positive","ability","","","","","","","","","","",""
"1260","","j","psychophysics","101","1031302","0.0-7.0-3.0-0.87","5","7","6","5","7","4","4","4","5","5","5","-2","-1","1","2","0","1","2","0","5","4","4","5","4","5","4","2","4","5","8","6","7","7","6","9","7","9","6","5","6","5","6","6","6","5","7","6","5","1","6","6","1","6","6","6","7","5","6","7","2","7","3","6","6","6","5","7","6","6","7","5","5","1","6","5","5","7","6","1","633791803677474816","章","451","Male","[""坏他"",""好我"",""好他"",""坏我""]","[""弱他"",""强我"",""强他"",""弱我""]","","","","","","","","yes","","","","","","","","","SRET","EW_formal","","key","j","16.65288888888899","703.6333333333334","391.9666666666667","朋友","素养","Positive","morality","","","","","","","","","","",""
"64966","
    <p><div style='color:white;font-size:35px; line-height:20px;'>计算任务</div></p><br>
    <p><div style='color:red;font-size:25px; line-height:20px;'>接下来，您将看到一些四则运算题，<b>请从键盘选择 0-9 进行反应。</b></div></p>
    <p><div style='color:red;font-size:25px; line-height:20px;'>请尽可能快地进行计算，计算的速度和正确率将影响报酬的发放。</div></p>
    <p><div class='footer' style='color:white;font-size:25px; line-height:20px;'>如果对本实验还有不清楚之处，请立即向实验员咨询。</p><p style='color:white;font-size:25px; line-height:20px;'>如果您明白了规则：</p><p style='color:white;font-size:22px; line-height:20px;'>请按 继续 进入练习</p>
    </div>
    ","0","html-button-response","102","1096519","0.0-7.0-4.0","5","7","6","5","7","4","4","4","5","5","5","-2","-1","1","2","0","1","2","0","5","4","4","5","4","5","4","2","4","5","8","6","7","7","6","9","7","9","6","5","6","5","6","6","6","5","7","6","5","1","6","6","1","6","6","6","7","5","6","7","2","7","3","6","6","6","5","7","6","6","7","5","5","1","6","5","5","7","6","1","633791803677474816","章","451","Male","[""坏他"",""好我"",""好他"",""坏我""]","[""弱他"",""强我"",""强他"",""弱我""]","","","","","","","","","","","","","","","","","SRET_math","math_instructions","Tue Jan 16 2024 20:40:04 GMT+0800 (中国标准时间)","","","","","","","","","","","","","","","","","","","",""
"2879","","2","psychophysics","103","1099420","0.0-7.0-5.0-0.0","5","7","6","5","7","4","4","4","5","5","5","-2","-1","1","2","0","1","2","0","5","4","4","5","4","5","4","2","4","5","8","6","7","7","6","9","7","9","6","5","6","5","6","6","6","5","7","6","5","1","6","6","1","6","6","6","7","5","6","7","2","7","3","6","6","6","5","7","6","6","7","5","5","1","6","5","5","7","6","1","633791803677474816","章","451","Male","[""坏他"",""好我"",""好他"",""坏我""]","[""弱他"",""强我"",""强他"",""弱我""]","","","","","","","","2","","","","","","","","","SRET","SRET_math_calculate","","key","2","16.648208092486303","703.6333333333334","391.9666666666667","","","","","12/4= ?","3","0","","","","","","","",""
"2459","","2","psychophysics","104","1101886","0.0-7.0-5.0-0.1","5","7","6","5","7","4","4","4","5","5","5","-2","-1","1","2","0","1","2","0","5","4","4","5","4","5","4","2","4","5","8","6","7","7","6","9","7","9","6","5","6","5","6","6","6","5","7","6","5","1","6","6","1","6","6","6","7","5","6","7","2","7","3","6","6","6","5","7","6","6","7","5","5","1","6","5","5","7","6","1","633791803677474816","章","451","Male","[""坏他"",""好我"",""好他"",""坏我""]","[""弱他"",""强我"",""强他"",""弱我""]","","","","","","","","2","","","","","","","","","SRET","SRET_math_calculate","","key","2","16.652972972972282","703.6333333333334","391.9666666666667","","","","","18/9= ?","2","1","","","","","","","",""
"2430","","3","psychophysics","105","1104318","0.0-7.0-5.0-0.2","5","7","6","5","7","4","4","4","5","5","5","-2","-1","1","2","0","1","2","0","5","4","4","5","4","5","4","2","4","5","8","6","7","7","6","9","7","9","6","5","6","5","6","6","6","5","7","6","5","1","6","6","1","6","6","6","7","5","6","7","2","7","3","6","6","6","5","7","6","6","7","5","5","1","6","5","5","7","6","1","633791803677474816","章","451","Male","[""坏他"",""好我"",""好他"",""坏我""]","[""弱他"",""强我"",""强他"",""弱我""]","","","","","","","","3","","","","","","","","","SRET","SRET_math_calculate","","key","3","16.652827586206318","703.6333333333334","391.9666666666667","","","","","3+0= ?","3","1","","","","","","","",""
"2434","","8","psychophysics","106","1106753","0.0-7.0-5.0-0.3","5","7","6","5","7","4","4","4","5","5","5","-2","-1","1","2","0","1","2","0","5","4","4","5","4","5","4","2","4","5","8","6","7","7","6","9","7","9","6","5","6","5","6","6","6","5","7","6","5","1","6","6","1","6","6","6","7","5","6","7","2","7","3","6","6","6","5","7","6","6","7","5","5","1","6","5","5","7","6","1","633791803677474816","章","451","Male","[""坏他"",""好我"",""好他"",""坏我""]","[""弱他"",""强我"",""强他"",""弱我""]","","","","","","","","8","","","","","","","","","SRET","SRET_math_calculate","","key","8","16.65296551724093","703.6333333333334","391.9666666666667","","","","","1+7= ?","8","1","","","","","","","",""
"2470","","7","psychophysics","107","1109223","0.0-7.0-5.0-0.4","5","7","6","5","7","4","4","4","5","5","5","-2","-1","1","2","0","1","2","0","5","4","4","5","4","5","4","2","4","5","8","6","7","7","6","9","7","9","6","5","6","5","6","6","6","5","7","6","5","1","6","6","1","6","6","6","7","5","6","7","2","7","3","6","6","6","5","7","6","6","7","5","5","1","6","5","5","7","6","1","633791803677474816","章","451","Male","[""坏他"",""好我"",""好他"",""坏我""]","[""弱他"",""强我"",""强他"",""弱我""]","","","","","","","","7","","","","","","","","","SRET","SRET_math_calculate","","key","7","16.6529251700679","703.6333333333334","391.9666666666667","","","","","12-5= ?","7","1","","","","","","","",""
"2668","","9","psychophysics","108","1111901","0.0-7.0-5.0-0.5","5","7","6","5","7","4","4","4","5","5","5","-2","-1","1","2","0","1","2","0","5","4","4","5","4","5","4","2","4","5","8","6","7","7","6","9","7","9","6","5","6","5","6","6","6","5","7","6","5","1","6","6","1","6","6","6","7","5","6","7","2","7","3","6","6","6","5","7","6","6","7","5","5","1","6","5","5","7","6","1","633791803677474816","章","451","Male","[""坏他"",""好我"",""好他"",""坏我""]","[""弱他"",""强我"",""强他"",""弱我""]","","","","","","","","9","","","","","","","","","SRET","SRET_math_calculate","","key","9","16.652999999999885","703.6333333333334","391.9666666666667","","","","","3+6= ?","9","1","","","","","","","",""
"2199","","4","psychophysics","109","1114103","0.0-7.0-5.0-0.6","5","7","6","5","7","4","4","4","5","5","5","-2","-1","1","2","0","1","2","0","5","4","4","5","4","5","4","2","4","5","8","6","7","7","6","9","7","9","6","5","6","5","6","6","6","5","7","6","5","1","6","6","1","6","6","6","7","5","6","7","2","7","3","6","6","6","5","7","6","6","7","5","5","1","6","5","5","7","6","1","633791803677474816","章","451","Male","[""坏他"",""好我"",""好他"",""坏我""]","[""弱他"",""强我"",""强他"",""弱我""]","","","","","","","","4","","","","","","","","","SRET","SRET_math_calculate","","key","4","16.652977099236924","703.6333333333334","391.9666666666667","","","","","3+1= ?","4","1","","","","","","","",""
"2193","","6","psychophysics","110","1116307","0.0-7.0-5.0-0.7","5","7","6","5","7","4","4","4","5","5","5","-2","-1","1","2","0","1","2","0","5","4","4","5","4","5","4","2","4","5","8","6","7","7","6","9","7","9","6","5","6","5","6","6","6","5","7","6","5","1","6","6","1","6","6","6","7","5","6","7","2","7","3","6","6","6","5","7","6","6","7","5","5","1","6","5","5","7","6","1","633791803677474816","章","451","Male","[""坏他"",""好我"",""好他"",""坏我""]","[""弱他"",""强我"",""强他"",""弱我""]","","","","","","","","6","","","","","","","","","SRET","SRET_math_calculate","","key","6","16.652977099236924","703.6333333333334","391.9666666666667","","","","","4+2= ?","6","1","","","","","","","",""
"2245","","7","psychophysics","111","1118558","0.0-7.0-5.0-0.8","5","7","6","5","7","4","4","4","5","5","5","-2","-1","1","2","0","1","2","0","5","4","4","5","4","5","4","2","4","5","8","6","7","7","6","9","7","9","6","5","6","5","6","6","6","5","7","6","5","1","6","6","1","6","6","6","7","5","6","7","2","7","3","6","6","6","5","7","6","6","7","5","5","1","6","5","5","7","6","1","633791803677474816","章","451","Male","[""坏他"",""好我"",""好他"",""坏我""]","[""弱他"",""强我"",""强他"",""弱我""]","","","","","","","","7","","","","","","","","","SRET","SRET_math_calculate","","key","7","16.65288888888813","703.6333333333334","391.9666666666667","","","","","7*1=  ?","7","1","","","","","","","",""
"2411","","9","psychophysics","112","1120971","0.0-7.0-5.0-0.9","5","7","6","5","7","4","4","4","5","5","5","-2","-1","1","2","0","1","2","0","5","4","4","5","4","5","4","2","4","5","8","6","7","7","6","9","7","9","6","5","6","5","6","6","6","5","7","6","5","1","6","6","1","6","6","6","7","5","6","7","2","7","3","6","6","6","5","7","6","6","7","5","5","1","6","5","5","7","6","1","633791803677474816","章","451","Male","[""坏他"",""好我"",""好他"",""坏我""]","[""弱他"",""强我"",""强他"",""弱我""]","","","","","","","","9","","","","","","","","","SRET","SRET_math_calculate","","key","9","16.652916666665178","703.6333333333334","391.9666666666667","","","","","7+2= ?","9","1","","","","","","","",""
"2620","","0","psychophysics","113","1123593","0.0-7.0-5.0-0.10","5","7","6","5","7","4","4","4","5","5","5","-2","-1","1","2","0","1","2","0","5","4","4","5","4","5","4","2","4","5","8","6","7","7","6","9","7","9","6","5","6","5","6","6","6","5","7","6","5","1","6","6","1","6","6","6","7","5","6","7","2","7","3","6","6","6","5","7","6","6","7","5","5","1","6","5","5","7","6","1","633791803677474816","章","451","Male","[""坏他"",""好我"",""好他"",""坏我""]","[""弱他"",""强我"",""强他"",""弱我""]","","","","","","","","0","","","","","","","","","SRET","SRET_math_calculate","","key","0","16.652948717947883","703.6333333333334","391.9666666666667","","","","","32-32= ?","0","1","","","","","","","",""
"2923","","7","psychophysics","114","1126517","0.0-7.0-5.0-0.11","5","7","6","5","7","4","4","4","5","5","5","-2","-1","1","2","0","1","2","0","5","4","4","5","4","5","4","2","4","5","8","6","7","7","6","9","7","9","6","5","6","5","6","6","6","5","7","6","5","1","6","6","1","6","6","6","7","5","6","7","2","7","3","6","6","6","5","7","6","6","7","5","5","1","6","5","5","7","6","1","633791803677474816","章","451","Male","[""坏他"",""好我"",""好他"",""坏我""]","[""弱他"",""强我"",""强他"",""弱我""]","","","","","","","","7","","","","","","","","","SRET","SRET_math_calculate","","key","7","16.65302857142873","703.6333333333334","391.9666666666667","","","","","9-2= ?","7","1","","","","","","","",""
"2180","","8","psychophysics","115","1128698","0.0-7.0-5.0-0.12","5","7","6","5","7","4","4","4","5","5","5","-2","-1","1","2","0","1","2","0","5","4","4","5","4","5","4","2","4","5","8","6","7","7","6","9","7","9","6","5","6","5","6","6","6","5","7","6","5","1","6","6","1","6","6","6","7","5","6","7","2","7","3","6","6","6","5","7","6","6","7","5","5","1","6","5","5","7","6","1","633791803677474816","章","451","Male","[""坏他"",""好我"",""好他"",""坏我""]","[""弱他"",""强我"",""强他"",""弱我""]","","","","","","","","8","","","","","","","","","SRET","SRET_math_calculate","","key","8","16.652923076924008","703.6333333333334","391.9666666666667","","","","","9-1= ?","8","1","","","","","","","",""
"2496","","2","psychophysics","116","1131196","0.0-7.0-5.0-0.13","5","7","6","5","7","4","4","4","5","5","5","-2","-1","1","2","0","1","2","0","5","4","4","5","4","5","4","2","4","5","8","6","7","7","6","9","7","9","6","5","6","5","6","6","6","5","7","6","5","1","6","6","1","6","6","6","7","5","6","7","2","7","3","6","6","6","5","7","6","6","7","5","5","1","6","5","5","7","6","1","633791803677474816","章","451","Male","[""坏他"",""好我"",""好他"",""坏我""]","[""弱他"",""强我"",""强他"",""弱我""]","","","","","","","","2","","","","","","","","","SRET","SRET_math_calculate","","key","2","16.652885906040456","703.6333333333334","391.9666666666667","","","","","12/6= ?","2","1","","","","","","","",""
"3284","","9","psychophysics","117","1134480","0.0-7.0-5.0-0.14","5","7","6","5","7","4","4","4","5","5","5","-2","-1","1","2","0","1","2","0","5","4","4","5","4","5","4","2","4","5","8","6","7","7","6","9","7","9","6","5","6","5","6","6","6","5","7","6","5","1","6","6","1","6","6","6","7","5","6","7","2","7","3","6","6","6","5","7","6","6","7","5","5","1","6","5","5","7","6","1","633791803677474816","章","451","Male","[""坏他"",""好我"",""好他"",""坏我""]","[""弱他"",""强我"",""强他"",""弱我""]","","","","","","","","9","","","","","","","","","SRET","SRET_math_calculate","","key","9","16.652959183673374","703.6333333333334","391.9666666666667","","","","","18/2= ?","9","1","","","","","","","",""
"2127","","8","psychophysics","118","1136608","0.0-7.0-5.0-0.15","5","7","6","5","7","4","4","4","5","5","5","-2","-1","1","2","0","1","2","0","5","4","4","5","4","5","4","2","4","5","8","6","7","7","6","9","7","9","6","5","6","5","6","6","6","5","7","6","5","1","6","6","1","6","6","6","7","5","6","7","2","7","3","6","6","6","5","7","6","6","7","5","5","1","6","5","5","7","6","1","633791803677474816","章","451","Male","[""坏他"",""好我"",""好他"",""坏我""]","[""弱他"",""强我"",""强他"",""弱我""]","","","","","","","","8","","","","","","","","","SRET","SRET_math_calculate","","key","8","16.652913385826185","703.6333333333334","391.9666666666667","","","","","4+4= ?","8","1","","","","","","","",""
"3072","","5","psychophysics","119","1139682","0.0-7.0-5.0-0.16","5","7","6","5","7","4","4","4","5","5","5","-2","-1","1","2","0","1","2","0","5","4","4","5","4","5","4","2","4","5","8","6","7","7","6","9","7","9","6","5","6","5","6","6","6","5","7","6","5","1","6","6","1","6","6","6","7","5","6","7","2","7","3","6","6","6","5","7","6","6","7","5","5","1","6","5","5","7","6","1","633791803677474816","章","451","Male","[""坏他"",""好我"",""好他"",""坏我""]","[""弱他"",""强我"",""强他"",""弱我""]","","","","","","","","5","","","","","","","","","SRET","SRET_math_calculate","","key","5","16.653005464480874","703.6333333333334","391.9666666666667","","","","","14-9= ?","5","1","","","","","","","",""
"2568","","6","psychophysics","120","1142259","0.0-7.0-5.0-0.17","5","7","6","5","7","4","4","4","5","5","5","-2","-1","1","2","0","1","2","0","5","4","4","5","4","5","4","2","4","5","8","6","7","7","6","9","7","9","6","5","6","5","6","6","6","5","7","6","5","1","6","6","1","6","6","6","7","5","6","7","2","7","3","6","6","6","5","7","6","6","7","5","5","1","6","5","5","7","6","1","633791803677474816","章","451","Male","[""坏他"",""好我"",""好他"",""坏我""]","[""弱他"",""强我"",""强他"",""弱我""]","","","","","","","","6","","","","","","","","","SRET","SRET_math_calculate","","key","6","16.652987012987374","703.6333333333334","391.9666666666667","","","","","5+1= ?","6","1","","","","","","","",""
"2680","","4","psychophysics","121","1144940","0.0-7.0-5.0-0.18","5","7","6","5","7","4","4","4","5","5","5","-2","-1","1","2","0","1","2","0","5","4","4","5","4","5","4","2","4","5","8","6","7","7","6","9","7","9","6","5","6","5","6","6","6","5","7","6","5","1","6","6","1","6","6","6","7","5","6","7","2","7","3","6","6","6","5","7","6","6","7","5","5","1","6","5","5","7","6","1","633791803677474816","章","451","Male","[""坏他"",""好我"",""好他"",""坏我""]","[""弱他"",""强我"",""强他"",""弱我""]","","","","","","","","4","","","","","","","","","SRET","SRET_math_calculate","","key","4","16.652874999999767","703.6333333333334","391.9666666666667","","","","","4*1= ?","4","1","","","","","","","",""
"2474","","0","psychophysics","122","1147417","0.0-7.0-5.0-0.19","5","7","6","5","7","4","4","4","5","5","5","-2","-1","1","2","0","1","2","0","5","4","4","5","4","5","4","2","4","5","8","6","7","7","6","9","7","9","6","5","6","5","6","6","6","5","7","6","5","1","6","6","1","6","6","6","7","5","6","7","2","7","3","6","6","6","5","7","6","6","7","5","5","1","6","5","5","7","6","1","633791803677474816","章","451","Male","[""坏他"",""好我"",""好他"",""坏我""]","[""弱他"",""强我"",""强他"",""弱我""]","","","","","","","","0","","","","","","","","","SRET","SRET_math_calculate","","key","0","16.652837837838593","703.6333333333334","391.9666666666667","","","","","1-1= ?","0","1","","","","","","","",""
"2819","","1","psychophysics","123","1150239","0.0-7.0-5.0-0.20","5","7","6","5","7","4","4","4","5","5","5","-2","-1","1","2","0","1","2","0","5","4","4","5","4","5","4","2","4","5","8","6","7","7","6","9","7","9","6","5","6","5","6","6","6","5","7","6","5","1","6","6","1","6","6","6","7","5","6","7","2","7","3","6","6","6","5","7","6","6","7","5","5","1","6","5","5","7","6","1","633791803677474816","章","451","Male","[""坏他"",""好我"",""好他"",""坏我""]","[""弱他"",""强我"",""强他"",""弱我""]","","","","","","","","1","","","","","","","","","SRET","SRET_math_calculate","","key","1","16.6529761904773","703.6333333333334","391.9666666666667","","","","","4/4= ?","1","1","","","","","","","",""
"2417","","6","psychophysics","124","1152666","0.0-7.0-5.0-0.21","5","7","6","5","7","4","4","4","5","5","5","-2","-1","1","2","0","1","2","0","5","4","4","5","4","5","4","2","4","5","8","6","7","7","6","9","7","9","6","5","6","5","6","6","6","5","7","6","5","1","6","6","1","6","6","6","7","5","6","7","2","7","3","6","6","6","5","7","6","6","7","5","5","1","6","5","5","7","6","1","633791803677474816","章","451","Male","[""坏他"",""好我"",""好他"",""坏我""]","[""弱他"",""强我"",""强他"",""弱我""]","","","","","","","","6","","","","","","","","","SRET","SRET_math_calculate","","key","6","16.65296551724093","703.6333333333334","391.9666666666667","","","","","3+3= ?","6","1","","","","","","","",""
"3130","","7","psychophysics","125","1155797","0.0-7.0-5.0-0.22","5","7","6","5","7","4","4","4","5","5","5","-2","-1","1","2","0","1","2","0","5","4","4","5","4","5","4","2","4","5","8","6","7","7","6","9","7","9","6","5","6","5","6","6","6","5","7","6","5","1","6","6","1","6","6","6","7","5","6","7","2","7","3","6","6","6","5","7","6","6","7","5","5","1","6","5","5","7","6","1","633791803677474816","章","451","Male","[""坏他"",""好我"",""好他"",""坏我""]","[""弱他"",""强我"",""强他"",""弱我""]","","","","","","","","7","","","","","","","","","SRET","SRET_math_calculate","","key","7","16.65294117646984","703.6333333333334","391.9666666666667","","","","","21/3= ? ","7","1","","","","","","","",""
"3936","","4","psychophysics","126","1159737","0.0-7.0-5.0-0.23","5","7","6","5","7","4","4","4","5","5","5","-2","-1","1","2","0","1","2","0","5","4","4","5","4","5","4","2","4","5","8","6","7","7","6","9","7","9","6","5","6","5","6","6","6","5","7","6","5","1","6","6","1","6","6","6","7","5","6","7","2","7","3","6","6","6","5","7","6","6","7","5","5","1","6","5","5","7","6","1","633791803677474816","章","451","Male","[""坏他"",""好我"",""好他"",""坏我""]","[""弱他"",""强我"",""强他"",""弱我""]","","","","","","","","4","","","","","","","","","SRET","SRET_math_calculate","","key","4","16.65296610169432","703.6333333333334","391.9666666666667","","","","","13-9= ?","4","1","","","","","","","",""
"2448","","4","psychophysics","127","1162187","0.0-7.0-5.0-0.24","5","7","6","5","7","4","4","4","5","5","5","-2","-1","1","2","0","1","2","0","5","4","4","5","4","5","4","2","4","5","8","6","7","7","6","9","7","9","6","5","6","5","6","6","6","5","7","6","5","1","6","6","1","6","6","6","7","5","6","7","2","7","3","6","6","6","5","7","6","6","7","5","5","1","6","5","5","7","6","1","633791803677474816","章","451","Male","[""坏他"",""好我"",""好他"",""坏我""]","[""弱他"",""强我"",""强他"",""弱我""]","","","","","","","","4","","","","","","","","","SRET","SRET_math_calculate","","key","4","16.65287671232762","703.6333333333334","391.9666666666667","","","","","8-4= ?","4","1","","","","","","","",""
"3138","","2","psychophysics","128","1165327","0.0-7.0-5.0-0.25","5","7","6","5","7","4","4","4","5","5","5","-2","-1","1","2","0","1","2","0","5","4","4","5","4","5","4","2","4","5","8","6","7","7","6","9","7","9","6","5","6","5","6","6","6","5","7","6","5","1","6","6","1","6","6","6","7","5","6","7","2","7","3","6","6","6","5","7","6","6","7","5","5","1","6","5","5","7","6","1","633791803677474816","章","451","Male","[""坏他"",""好我"",""好他"",""坏我""]","[""弱他"",""强我"",""强他"",""弱我""]","","","","","","","","2","","","","","","","","","SRET","SRET_math_calculate","","key","2","16.65294117646984","703.6333333333334","391.9666666666667","","","","","29-27= ?","2","1","","","","","","","",""
"2963","","6","psychophysics","129","1168299","0.0-7.0-5.0-0.26","5","7","6","5","7","4","4","4","5","5","5","-2","-1","1","2","0","1","2","0","5","4","4","5","4","5","4","2","4","5","8","6","7","7","6","9","7","9","6","5","6","5","6","6","6","5","7","6","5","1","6","6","1","6","6","6","7","5","6","7","2","7","3","6","6","6","5","7","6","6","7","5","5","1","6","5","5","7","6","1","633791803677474816","章","451","Male","[""坏他"",""好我"",""好他"",""坏我""]","[""弱他"",""强我"",""强他"",""弱我""]","","","","","","","","6","","","","","","","","","SRET","SRET_math_calculate","","key","6","16.653033707865116","703.6333333333334","391.9666666666667","","","","","11-5= ?","6","1","","","","","","","",""
"3253","","7","psychophysics","130","1171553","0.0-7.0-5.0-0.27","5","7","6","5","7","4","4","4","5","5","5","-2","-1","1","2","0","1","2","0","5","4","4","5","4","5","4","2","4","5","8","6","7","7","6","9","7","9","6","5","6","5","6","6","6","5","7","6","5","1","6","6","1","6","6","6","7","5","6","7","2","7","3","6","6","6","5","7","6","6","7","5","5","1","6","5","5","7","6","1","633791803677474816","章","451","Male","[""坏他"",""好我"",""好他"",""坏我""]","[""弱他"",""强我"",""强他"",""弱我""]","","","","","","","","7","","","","","","","","","SRET","SRET_math_calculate","","key","7","16.652989690722514","703.6333333333334","391.9666666666667","","","","","49/7 = ?","7","1","","","","","","","",""
"2213","","7","psychophysics","131","1173766","0.0-7.0-5.0-0.28","5","7","6","5","7","4","4","4","5","5","5","-2","-1","1","2","0","1","2","0","5","4","4","5","4","5","4","2","4","5","8","6","7","7","6","9","7","9","6","5","6","5","6","6","6","5","7","6","5","1","6","6","1","6","6","6","7","5","6","7","2","7","3","6","6","6","5","7","6","6","7","5","5","1","6","5","5","7","6","1","633791803677474816","章","451","Male","[""坏他"",""好我"",""好他"",""坏我""]","[""弱他"",""强我"",""强他"",""弱我""]","","","","","","","","7","","","","","","","","","SRET","SRET_math_calculate","","key","7","16.653076923076206","703.6333333333334","391.9666666666667","","","","","2+5= ?","7","1","","","","","","","",""
"3318","","9","psychophysics","132","1177091","0.0-7.0-5.0-0.29","5","7","6","5","7","4","4","4","5","5","5","-2","-1","1","2","0","1","2","0","5","4","4","5","4","5","4","2","4","5","8","6","7","7","6","9","7","9","6","5","6","5","6","6","6","5","7","6","5","1","6","6","1","6","6","6","7","5","6","7","2","7","3","6","6","6","5","7","6","6","7","5","5","1","6","5","5","7","6","1","633791803677474816","章","451","Male","[""坏他"",""好我"",""好他"",""坏我""]","[""弱他"",""强我"",""强他"",""弱我""]","","","","","","","","9","","","","","","","","","SRET","SRET_math_calculate","","key","9","20.308414634146796","703.6333333333334","391.9666666666667","","","","","4+5= ?","9","1","","","","","","","",""
"3595","","7","psychophysics","133","1180688","0.0-7.0-5.0-0.30","5","7","6","5","7","4","4","4","5","5","5","-2","-1","1","2","0","1","2","0","5","4","4","5","4","5","4","2","4","5","8","6","7","7","6","9","7","9","6","5","6","5","6","6","6","5","7","6","5","1","6","6","1","6","6","6","7","5","6","7","2","7","3","6","6","6","5","7","6","6","7","5","5","1","6","5","5","7","6","1","633791803677474816","章","451","Male","[""坏他"",""好我"",""好他"",""坏我""]","[""弱他"",""强我"",""强他"",""弱我""]","","","","","","","","7","","","","","","","","","SRET","SRET_math_calculate","","key","7","16.652930232558703","703.6333333333334","391.9666666666667","","","","","1+6= ?","7","1","","","","","","","",""
"2530","","4","psychophysics","134","1183219","0.0-7.0-5.0-0.31","5","7","6","5","7","4","4","4","5","5","5","-2","-1","1","2","0","1","2","0","5","4","4","5","4","5","4","2","4","5","8","6","7","7","6","9","7","9","6","5","6","5","6","6","6","5","7","6","5","1","6","6","1","6","6","6","7","5","6","7","2","7","3","6","6","6","5","7","6","6","7","5","5","1","6","5","5","7","6","1","633791803677474816","章","451","Male","[""坏他"",""好我"",""好他"",""坏我""]","[""弱他"",""强我"",""强他"",""弱我""]","","","","","","","","4","","","","","","","","","SRET","SRET_math_calculate","","key","4","16.6528476821197","703.6333333333334","391.9666666666667","","","","","20/5= ?","4","1","","","","","","","",""
"2453","","4","psychophysics","135","1185673","0.0-7.0-5.0-0.32","5","7","6","5","7","4","4","4","5","5","5","-2","-1","1","2","0","1","2","0","5","4","4","5","4","5","4","2","4","5","8","6","7","7","6","9","7","9","6","5","6","5","6","6","6","5","7","6","5","1","6","6","1","6","6","6","7","5","6","7","2","7","3","6","6","6","5","7","6","6","7","5","5","1","6","5","5","7","6","1","633791803677474816","章","451","Male","[""坏他"",""好我"",""好他"",""坏我""]","[""弱他"",""强我"",""强他"",""弱我""]","","","","","","","","4","","","","","","","","","SRET","SRET_math_calculate","","key","4","16.652876712329213","703.6333333333334","391.9666666666667","","","","","2+2= ?","4","1","","","","","","","",""
"2155","","5","psychophysics","136","1187833","0.0-7.0-5.0-0.33","5","7","6","5","7","4","4","4","5","5","5","-2","-1","1","2","0","1","2","0","5","4","4","5","4","5","4","2","4","5","8","6","7","7","6","9","7","9","6","5","6","5","6","6","6","5","7","6","5","1","6","6","1","6","6","6","7","5","6","7","2","7","3","6","6","6","5","7","6","6","7","5","5","1","6","5","5","7","6","1","633791803677474816","章","451","Male","[""坏他"",""好我"",""好他"",""坏我""]","[""弱他"",""强我"",""强他"",""弱我""]","","","","","","","","5","","","","","","","","","SRET","SRET_math_calculate","","key","5","16.652868217054046","703.6333333333334","391.9666666666667","","","","","3+2= ?","5","1","","","","","","","",""
"3046","","8","psychophysics","137","1190881","0.0-7.0-5.0-0.34","5","7","6","5","7","4","4","4","5","5","5","-2","-1","1","2","0","1","2","0","5","4","4","5","4","5","4","2","4","5","8","6","7","7","6","9","7","9","6","5","6","5","6","6","6","5","7","6","5","1","6","6","1","6","6","6","7","5","6","7","2","7","3","6","6","6","5","7","6","6","7","5","5","1","6","5","5","7","6","1","633791803677474816","章","451","Male","[""坏他"",""好我"",""好他"",""坏我""]","[""弱他"",""强我"",""强他"",""弱我""]","","","","","","","","8","","","","","","","","","SRET","SRET_math_calculate","","key","8","16.652967032966213","703.6333333333334","391.9666666666667","","","","","3+5= ?","8","1","","","","","","","",""
