"rt","stimulus","response","trial_type","trial_index","time_elapsed","internal_node_id","swb_1","swb_2","swb_3","swb_4","swb_5","LOT_1","LOT_2","LOT_3","LOT_4","LOT_5","LOT_6","IPC_1","IPC_2","IPC_3","IPC_4","IPC_5","IPC_6","IPC_7","IPC_8","MorIden_1","MorIden_2","MorIden_3","MorIden_4","MorIden_5","MorIden_6","MorIden_7","MorIden_8","MorIden_9","MorIden_10","moralSeImag_1","moralSeImag_2","moralSeImag_3","moralSeImag_4","moralSeImag_5","moralSeImag_6","moralSeImag_7","moralSeImag_8","moralSeImag_9","sde_1","sde_2","sde_3","sde_4","sde_5","sde_6","sde_7","sde_8","sde_9","sde_10","trap2","sde_11","sde_12","sde_13","sde_14","sde_15","sde_16","sde_17","sde_18","sde_19","sde_20","IM_1","IM_2","IM_3","IM_4","IM_5","IM_6","IM_7","IM_8","IM_9","IM_10","IM_11","IM_12","IM_13","IM_14","IM_15","IM_16","IM_17","IM_18","IM_19","IM_20","subj_idx","friend_name","ParticipantID","Sex","Word","Word2","value","success","timeout","failed_images","failed_audio","failed_video","user_agent","responses","item_order","radio_event_ids","radio_event_times","key_event_times","mouse_event_times","straightlining","zigzagging","honeypot","task_id","screen_id","time_stamp","response_type","key_press","avg_frame_time","center_x","center_y","person","word","valence","domain","math","correct_response","correct","status","view_history","identity","duration","Image","condition","question_order","trap2_item"
"12590","
   <p><div style='color:white; font-size: 25px'>您好，欢迎参加本次实验。</div></p>
   <p><div style='color:white; font-size: 25px'>为充分保障您的权利，请确保您已经知晓并同意《参与实验同意书》以及《数据公开知情同意书》。</div></p>
   <p><div style='color:white; font-size: 25px'>如果您未见过上述内容，请咨询实验员。</div></p>
   <p style='color:white; font-size: 25px'>如果您选择继续实验，则表示您已经清楚两份知情同意书的内容并同意。</p>
   <p><div style = ""color: pink;font-size:30px;"">请确保您记得day0的实验编号，您将在本次实验输入该编号，若您忘记，请咨询实验员后作答。</div></p>
   <p><div style = ""color:lightblue;font-size:25px;"">请您尽可能认真地作答，我们将依据您在各问卷和按键任务中的作答质量发放报酬。</div></p>
   <p> <div style = ""color: green""><按空格键至下页></div> </p>
   "," ","html-keyboard-response","0","12591","0.0-0.0","3","1","2","3","2","4","3","2","3","4","5","-2","0","-1","-2","-3","0","1","2","5","4","5","5","4","5","4","3","4","4","4","6","7","7","3","3","5","4","8","4","6","3","7","4","3","6","3","2","5","1","1","2","4","1","2","3","3","7","5","2","3","2","5","2","5","7","7","6","7","7","6","3","3","2","4","5","2","7","6","6","766385413542907906","梁","514","Male","[""坏我"",""坏他"",""好我"",""好他""]","[""弱我"",""弱他"",""强我"",""强他""]","","","","","","","","","","","","","","","","","","","","","","","","","","","","","","","","","","","","","","",""
"","","","call-function","1","12593","0.0-1.0-0.0","3","1","2","3","2","4","3","2","3","4","5","-2","0","-1","-2","-3","0","1","2","5","4","5","5","4","5","4","3","4","4","4","6","7","7","3","3","5","4","8","4","6","3","7","4","3","6","3","2","5","1","1","2","4","1","2","3","3","7","5","2","3","2","5","2","5","7","7","6","7","7","6","3","3","2","4","5","2","7","6","6","766385413542907906","梁","514","Male","[""坏我"",""坏他"",""好我"",""好他""]","[""弱我"",""弱他"",""强我"",""强他""]","","","","","","","","","","","","","","","","","","","","","","","","","","","","","","","","","","","","","","",""
"59645","","[{""name"":""Sex"",""value"":""0""},{""name"":""friend_name"",""value"":""梁""},{""name"":""ParticipantID"",""value"":""514""}]","survey-html-form","2","72239","0.0-1.0-1.0","3","1","2","3","2","4","3","2","3","4","5","-2","0","-1","-2","-3","0","1","2","5","4","5","5","4","5","4","3","4","4","4","6","7","7","3","3","5","4","8","4","6","3","7","4","3","6","3","2","5","1","1","2","4","1","2","3","3","7","5","2","3","2","5","2","5","7","7","6","7","7","6","3","3","2","4","5","2","7","6","6","766385413542907906","梁","514","Male","[""坏我"",""坏他"",""好我"",""好他""]","[""弱我"",""弱他"",""强我"",""强他""]","","","","","","","","","","","","","","","","","","","","","","","","","","","","","","","","","","","","","","",""
"","","","preload","3","72501","0.0-2.0","3","1","2","3","2","4","3","2","3","4","5","-2","0","-1","-2","-3","0","1","2","5","4","5","5","4","5","4","3","4","4","4","6","7","7","3","3","5","4","8","4","6","3","7","4","3","6","3","2","5","1","1","2","4","1","2","3","3","7","5","2","3","2","5","2","5","7","7","6","7","7","6","3","3","2","4","5","2","7","6","6","766385413542907906","梁","514","Male","[""坏我"",""坏他"",""好我"",""好他""]","[""弱我"",""弱他"",""强我"",""强他""]","","true","false","[]","[]","[]","","","","","","","","","","","","","","","","","","","","","","","","","","","","","","","","",""
"","","","fullscreen","4","77179","0.0-3.0","3","1","2","3","2","4","3","2","3","4","5","-2","0","-1","-2","-3","0","1","2","5","4","5","5","4","5","4","3","4","4","4","6","7","7","3","3","5","4","8","4","6","3","7","4","3","6","3","2","5","1","1","2","4","1","2","3","3","7","5","2","3","2","5","2","5","7","7","6","7","7","6","3","3","2","4","5","2","7","6","6","766385413542907906","梁","514","Male","[""坏我"",""坏他"",""好我"",""好他""]","[""弱我"",""弱他"",""强我"",""强他""]","","true","","","","","{}","","","","","","","","","","","","","","","","","","","","","","","","","","","","","","","",""
"11763.300000011921","","{""Q01"":""3"",""Q02"":""1"",""Q03"":""2"",""Q04"":""3"",""Q05"":""2""}","survey-template","5","88946","0.0-4.0","3","1","2","3","2","4","3","2","3","4","5","-2","0","-1","-2","-3","0","1","2","5","4","5","5","4","5","4","3","4","4","4","6","7","7","3","3","5","4","8","4","6","3","7","4","3","6","3","2","5","1","1","2","4","1","2","3","3","7","5","2","3","2","5","2","5","7","7","6","7","7","6","3","3","2","4","5","2","7","6","6","766385413542907906","梁","514","Male","[""坏我"",""坏他"",""好我"",""好他""]","[""弱我"",""弱他"",""强我"",""强他""]","","","","","","","","{""Q01"":""3"",""Q02"":""1"",""Q03"":""2"",""Q04"":""3"",""Q05"":""2""}","[0,1,2,3,4]","[""Q01"",""Q02"",""Q03"",""Q04"",""Q04"",""Q05""]","[3166.300000011921,5042.400000035763,5908.300000011921,7320.300000011921,9064.300000011921,10818.100000023842]","[]","[3166.300000011921,4572.300000011921,5042.400000035763,5908.300000011921,7320.300000011921,8442.400000035763,9064.300000011921,10356.300000011921,10818.100000023842,11762.300000011921]","0.4","0.75","0","","","","","","","","","","","","","","","","","","","","","","",""
"18412.400000035763","","{""Q01"":""4"",""Q02"":""3"",""Q03"":""2"",""Q04"":""3"",""Q05"":""4"",""Q06"":""5""}","survey-template","6","107363","0.0-5.0","3","1","2","3","2","4","3","2","3","4","5","-2","0","-1","-2","-3","0","1","2","5","4","5","5","4","5","4","3","4","4","4","6","7","7","3","3","5","4","8","4","6","3","7","4","3","6","3","2","5","1","1","2","4","1","2","3","3","7","5","2","3","2","5","2","5","7","7","6","7","7","6","3","3","2","4","5","2","7","6","6","766385413542907906","梁","514","Male","[""坏我"",""坏他"",""好我"",""好他""]","[""弱我"",""弱他"",""强我"",""强他""]","","","","","","","","{""Q01"":""4"",""Q02"":""3"",""Q03"":""2"",""Q04"":""3"",""Q05"":""4"",""Q06"":""5""}","[0,1,2,3,4,5]","[""Q01"",""Q02"",""Q03"",""Q04"",""Q05"",""Q06""]","[2024,6709.800000011921,8229.800000011921,10564.700000047684,13649.800000011921,17229.900000035763]","[]","[2024,6709.800000011921,8229.800000011921,10564.700000047684,13649.800000011921,17229.900000035763,18411.80000001192]","0.3333333333333333","0.8","0","","","","","","","","","","","","","","","","","","","","","","",""
"17338.100000023842","","{""Q01"":""-2"",""Q02"":""0"",""Q03"":""-1"",""Q04"":""-2"",""Q05"":""-3"",""Q06"":""0"",""Q07"":""1"",""Q08"":""2""}","survey-template","7","124706","0.0-6.0","3","1","2","3","2","4","3","2","3","4","5","-2","0","-1","-2","-3","0","1","2","5","4","5","5","4","5","4","3","4","4","4","6","7","7","3","3","5","4","8","4","6","3","7","4","3","6","3","2","5","1","1","2","4","1","2","3","3","7","5","2","3","2","5","2","5","7","7","6","7","7","6","3","3","2","4","5","2","7","6","6","766385413542907906","梁","514","Male","[""坏我"",""坏他"",""好我"",""好他""]","[""弱我"",""弱他"",""强我"",""强他""]","","","","","","","","{""Q01"":""-2"",""Q02"":""0"",""Q03"":""-1"",""Q04"":""-2"",""Q05"":""-3"",""Q06"":""0"",""Q07"":""1"",""Q08"":""2""}","[0,1,2,3,4,5,6,7]","[""Q01"",""Q02"",""Q03"",""Q04"",""Q05"",""Q06"",""Q07"",""Q08""]","[2419.199999988079,5057,6749.100000023842,9619.199999988079,10473.100000023842,12705.100000023842,14407.100000023842,16900.900000035763]","[]","[2419.199999988079,5057,6749.100000023842,8954.900000035763,9619.199999988079,10473.100000023842,12705.100000023842,14407.100000023842,16900.900000035763,17337.100000023842]","0.25","0.7142857142857143","0","","","","","","","","","","","","","","","","","","","","","","",""
"16419","
    <p><div style='color:white;font-size:35px; line-height:20px;'>词汇评估任务</div></p><br>
    <p><div style='color:white;font-size:25px; line-height:20px;'>请再次回忆该亲密的朋友，你们至少2年前就认识了，并且最近2年经常见面。</div></p>
    <p><div style='color:white;font-size:25px; line-height:20px;'>在本实验中，您将会看到一些形容词。</div></p>
    <p><div style='color:yellow;font-size:25px; line-height:20px;'>您的任务是判断这些形容词是否符合对您自己或您的朋友的描述。</div></p><p style='font-size:35px'>符合按<span style=""color:lightgreen""> f 键</span>，不符合按<span style=""color:red""> j 键</span></p>","0","html-button-response","8","141129","0.0-7.0-0.0","3","1","2","3","2","4","3","2","3","4","5","-2","0","-1","-2","-3","0","1","2","5","4","5","5","4","5","4","3","4","4","4","6","7","7","3","3","5","4","8","4","6","3","7","4","3","6","3","2","5","1","1","2","4","1","2","3","3","7","5","2","3","2","5","2","5","7","7","6","7","7","6","3","3","2","4","5","2","7","6","6","766385413542907906","梁","514","Male","[""坏我"",""坏他"",""好我"",""好他""]","[""弱我"",""弱他"",""强我"",""强他""]","","","","","","","","","","","","","","","","","SRET_EW","EW_instructions","Tue Jan 16 2024 19:19:24 GMT+0800 (中国标准时间)","","","","","","","","","","","","","","","","","","","",""
"null","","null","psychophysics","9","144138","0.0-7.0-1.0-0.0","3","1","2","3","2","4","3","2","3","4","5","-2","0","-1","-2","-3","0","1","2","5","4","5","5","4","5","4","3","4","4","4","6","7","7","3","3","5","4","8","4","6","3","7","4","3","6","3","2","5","1","1","2","4","1","2","3","3","7","5","2","3","2","5","2","5","7","7","6","7","7","6","3","3","2","4","5","2","7","6","6","766385413542907906","梁","514","Male","[""坏我"",""坏他"",""好我"",""好他""]","[""弱我"",""弱他"",""强我"",""强他""]","","","","","","","","","","","","","","","","","SRET_EW","EW_practice","","key","null","6.944355658198587","960","536","自己","刻板","Negative","ability","","","","","","","","","","",""
"995","","f","psychophysics","10","146134","0.0-7.0-1.0-0.1","3","1","2","3","2","4","3","2","3","4","5","-2","0","-1","-2","-3","0","1","2","5","4","5","5","4","5","4","3","4","4","4","6","7","7","3","3","5","4","8","4","6","3","7","4","3","6","3","2","5","1","1","2","4","1","2","3","3","7","5","2","3","2","5","2","5","7","7","6","7","7","6","3","3","2","4","5","2","7","6","6","766385413542907906","梁","514","Male","[""坏我"",""坏他"",""好我"",""好他""]","[""弱我"",""弱他"",""强我"",""强他""]","","","","","","","","yes","","","","","","","","","SRET_EW","EW_practice","","key","f","6.944744755244806","960","536","朋友","忠实","Positive","morality","","","","","","","","","","",""
"1281","","f","psychophysics","11","148421","0.0-7.0-1.0-0.2","3","1","2","3","2","4","3","2","3","4","5","-2","0","-1","-2","-3","0","1","2","5","4","5","5","4","5","4","3","4","4","4","6","7","7","3","3","5","4","8","4","6","3","7","4","3","6","3","2","5","1","1","2","4","1","2","3","3","7","5","2","3","2","5","2","5","7","7","6","7","7","6","3","3","2","4","5","2","7","6","6","766385413542907906","梁","514","Male","[""坏我"",""坏他"",""好我"",""好他""]","[""弱我"",""弱他"",""强我"",""强他""]","","","","","","","","yes","","","","","","","","","SRET_EW","EW_practice","","key","f","6.9442948328267775","960","536","自己","严谨","Positive","ability","","","","","","","","","","",""
"1270","","j","psychophysics","12","150693","0.0-7.0-1.0-0.3","3","1","2","3","2","4","3","2","3","4","5","-2","0","-1","-2","-3","0","1","2","5","4","5","5","4","5","4","3","4","4","4","6","7","7","3","3","5","4","8","4","6","3","7","4","3","6","3","2","5","1","1","2","4","1","2","3","3","7","5","2","3","2","5","2","5","7","7","6","7","7","6","3","3","2","4","5","2","7","6","6","766385413542907906","梁","514","Male","[""坏我"",""坏他"",""好我"",""好他""]","[""弱我"",""弱他"",""强我"",""强他""]","","","","","","","","no","","","","","","","","","SRET_EW","EW_practice","","key","j","6.944582822085826","960","536","朋友","徇私","Negative","morality","","","","","","","","","","",""
"12732","
    <p><div style='color:white;font-size:35px; line-height:20px;'>请您再次阅读实验要求</div></p><br>
    <p><div style='color:white;font-size:25px; line-height:20px;'>请回忆某一个亲密的朋友，你们至少2年前就认识了，并且最近2年经常见面。</div></p>
    <p><div style='color:white;font-size:25px; line-height:20px;'>在本实验中，您将会看到一些形容词。</div></p>
    <p><div style='color:yellow;font-size:25px; line-height:20px;'>您的任务是判断这些形容词是否符合对您自己或您的朋友的描述。</div></p>
    <p><div class='footer' style='font-size:25px; line-height:20px;'>如果对本实验还有不清楚之处，请立即向实验员咨询。</p><p style='font-size:25px; line-height:20px;'>如果您明白了规则：</p><p style='font-size:22px; line-height:20px;'>请按 继续 进入正式实验</p>
    </div>
    <p style='font-size:35px'>符合按<span style=""color:lightgreen""> f 键</span>，不符合按<span style=""color:red""> j 键</span></p>","0","html-button-response","13","163425","0.0-7.0-2.0","3","1","2","3","2","4","3","2","3","4","5","-2","0","-1","-2","-3","0","1","2","5","4","5","5","4","5","4","3","4","4","4","6","7","7","3","3","5","4","8","4","6","3","7","4","3","6","3","2","5","1","1","2","4","1","2","3","3","7","5","2","3","2","5","2","5","7","7","6","7","7","6","3","3","2","4","5","2","7","6","6","766385413542907906","梁","514","Male","[""坏我"",""坏他"",""好我"",""好他""]","[""弱我"",""弱他"",""强我"",""强他""]","","","","","","","","","","","","","","","","","SRET_EW","prac_instructions","Tue Jan 16 2024 19:19:24 GMT+0800 (中国标准时间)","","","","","","","","","","","","","","","","","","","",""
"1186","","f","psychophysics","14","165613","0.0-7.0-3.0-0.0","3","1","2","3","2","4","3","2","3","4","5","-2","0","-1","-2","-3","0","1","2","5","4","5","5","4","5","4","3","4","4","4","6","7","7","3","3","5","4","8","4","6","3","7","4","3","6","3","2","5","1","1","2","4","1","2","3","3","7","5","2","3","2","5","2","5","7","7","6","7","7","6","3","3","2","4","5","2","7","6","6","766385413542907906","梁","514","Male","[""坏我"",""坏他"",""好我"",""好他""]","[""弱我"",""弱他"",""强我"",""强他""]","","","","","","","","yes","","","","","","","","","SRET","EW_formal","","key","f","6.944387301587359","960","536","自己","坚贞","Positive","morality","","","","","","","","","","",""
"830","","j","psychophysics","15","167445","0.0-7.0-3.0-0.1","3","1","2","3","2","4","3","2","3","4","5","-2","0","-1","-2","-3","0","1","2","5","4","5","5","4","5","4","3","4","4","4","6","7","7","3","3","5","4","8","4","6","3","7","4","3","6","3","2","5","1","1","2","4","1","2","3","3","7","5","2","3","2","5","2","5","7","7","6","7","7","6","3","3","2","4","5","2","7","6","6","766385413542907906","梁","514","Male","[""坏我"",""坏他"",""好我"",""好他""]","[""弱我"",""弱他"",""强我"",""强他""]","","","","","","","","no","","","","","","","","","SRET","EW_formal","","key","j","6.944623574144548","960","536","自己","说谎","Negative","morality","","","","","","","","","","",""
"742","","f","psychophysics","16","169189","0.0-7.0-3.0-0.2","3","1","2","3","2","4","3","2","3","4","5","-2","0","-1","-2","-3","0","1","2","5","4","5","5","4","5","4","3","4","4","4","6","7","7","3","3","5","4","8","4","6","3","7","4","3","6","3","2","5","1","1","2","4","1","2","3","3","7","5","2","3","2","5","2","5","7","7","6","7","7","6","3","3","2","4","5","2","7","6","6","766385413542907906","梁","514","Male","[""坏我"",""坏他"",""好我"",""好他""]","[""弱我"",""弱他"",""强我"",""强他""]","","","","","","","","yes","","","","","","","","","SRET","EW_formal","","key","f","6.944723999999929","960","536","朋友","务实","Positive","ability","","","","","","","","","","",""
"1180","","j","psychophysics","17","171373","0.0-7.0-3.0-0.3","3","1","2","3","2","4","3","2","3","4","5","-2","0","-1","-2","-3","0","1","2","5","4","5","5","4","5","4","3","4","4","4","6","7","7","3","3","5","4","8","4","6","3","7","4","3","6","3","2","5","1","1","2","4","1","2","3","3","7","5","2","3","2","5","2","5","7","7","6","7","7","6","3","3","2","4","5","2","7","6","6","766385413542907906","梁","514","Male","[""坏我"",""坏他"",""好我"",""好他""]","[""弱我"",""弱他"",""强我"",""强他""]","","","","","","","","no","","","","","","","","","SRET","EW_formal","","key","j","6.944503184713354","960","536","朋友","迷糊","Negative","ability","","","","","","","","","","",""
"734","","j","psychophysics","18","173109","0.0-7.0-3.0-0.4","3","1","2","3","2","4","3","2","3","4","5","-2","0","-1","-2","-3","0","1","2","5","4","5","5","4","5","4","3","4","4","4","6","7","7","3","3","5","4","8","4","6","3","7","4","3","6","3","2","5","1","1","2","4","1","2","3","3","7","5","2","3","2","5","2","5","7","7","6","7","7","6","3","3","2","4","5","2","7","6","6","766385413542907906","梁","514","Male","[""坏我"",""坏他"",""好我"",""好他""]","[""弱我"",""弱他"",""强我"",""强他""]","","","","","","","","no","","","","","","","","","SRET","EW_formal","","key","j","6.9443654618473785","960","536","朋友","短浅","Negative","ability","","","","","","","","","","",""
"1151","","j","psychophysics","19","175261","0.0-7.0-3.0-0.5","3","1","2","3","2","4","3","2","3","4","5","-2","0","-1","-2","-3","0","1","2","5","4","5","5","4","5","4","3","4","4","4","6","7","7","3","3","5","4","8","4","6","3","7","4","3","6","3","2","5","1","1","2","4","1","2","3","3","7","5","2","3","2","5","2","5","7","7","6","7","7","6","3","3","2","4","5","2","7","6","6","766385413542907906","梁","514","Male","[""坏我"",""坏他"",""好我"",""好他""]","[""弱我"",""弱他"",""强我"",""强他""]","","","","","","","","no","","","","","","","","","SRET","EW_formal","","key","j","6.944197411003276","960","536","自己","外行","Negative","ability","","","","","","","","","","",""
"846","","j","psychophysics","20","177109","0.0-7.0-3.0-0.6","3","1","2","3","2","4","3","2","3","4","5","-2","0","-1","-2","-3","0","1","2","5","4","5","5","4","5","4","3","4","4","4","6","7","7","3","3","5","4","8","4","6","3","7","4","3","6","3","2","5","1","1","2","4","1","2","3","3","7","5","2","3","2","5","2","5","7","7","6","7","7","6","3","3","2","4","5","2","7","6","6","766385413542907906","梁","514","Male","[""坏我"",""坏他"",""好我"",""好他""]","[""弱我"",""弱他"",""强我"",""强他""]","","","","","","","","no","","","","","","","","","SRET","EW_formal","","key","j","6.944358490566056","960","536","自己","驽钝","Negative","ability","","","","","","","","","","",""
"584","","f","psychophysics","21","178694","0.0-7.0-3.0-0.7","3","1","2","3","2","4","3","2","3","4","5","-2","0","-1","-2","-3","0","1","2","5","4","5","5","4","5","4","3","4","4","4","6","7","7","3","3","5","4","8","4","6","3","7","4","3","6","3","2","5","1","1","2","4","1","2","3","3","7","5","2","3","2","5","2","5","7","7","6","7","7","6","3","3","2","4","5","2","7","6","6","766385413542907906","梁","514","Male","[""坏我"",""坏他"",""好我"",""好他""]","[""弱我"",""弱他"",""强我"",""强他""]","","","","","","","","yes","","","","","","","","","SRET","EW_formal","","key","f","6.9444449339206855","960","536","自己","坚持","Positive","ability","","","","","","","","","","",""
"628","","j","psychophysics","22","180325","0.0-7.0-3.0-0.8","3","1","2","3","2","4","3","2","3","4","5","-2","0","-1","-2","-3","0","1","2","5","4","5","5","4","5","4","3","4","4","4","6","7","7","3","3","5","4","8","4","6","3","7","4","3","6","3","2","5","1","1","2","4","1","2","3","3","7","5","2","3","2","5","2","5","7","7","6","7","7","6","3","3","2","4","5","2","7","6","6","766385413542907906","梁","514","Male","[""坏我"",""坏他"",""好我"",""好他""]","[""弱我"",""弱他"",""强我"",""强他""]","","","","","","","","no","","","","","","","","","SRET","EW_formal","","key","j","6.943760683760669","960","536","自己","怠惰","Negative","ability","","","","","","","","","","",""
"663","","j","psychophysics","23","181988","0.0-7.0-3.0-0.9","3","1","2","3","2","4","3","2","3","4","5","-2","0","-1","-2","-3","0","1","2","5","4","5","5","4","5","4","3","4","4","4","6","7","7","3","3","5","4","8","4","6","3","7","4","3","6","3","2","5","1","1","2","4","1","2","3","3","7","5","2","3","2","5","2","5","7","7","6","7","7","6","3","3","2","4","5","2","7","6","6","766385413542907906","梁","514","Male","[""坏我"",""坏他"",""好我"",""好他""]","[""弱我"",""弱他"",""强我"",""强他""]","","","","","","","","no","","","","","","","","","SRET","EW_formal","","key","j","6.9445732217573095","960","536","朋友","狡诈","Negative","morality","","","","","","","","","","",""
"743","","f","psychophysics","24","183732","0.0-7.0-3.0-0.10","3","1","2","3","2","4","3","2","3","4","5","-2","0","-1","-2","-3","0","1","2","5","4","5","5","4","5","4","3","4","4","4","6","7","7","3","3","5","4","8","4","6","3","7","4","3","6","3","2","5","1","1","2","4","1","2","3","3","7","5","2","3","2","5","2","5","7","7","6","7","7","6","3","3","2","4","5","2","7","6","6","766385413542907906","梁","514","Male","[""坏我"",""坏他"",""好我"",""好他""]","[""弱我"",""弱他"",""强我"",""强他""]","","","","","","","","yes","","","","","","","","","SRET","EW_formal","","key","f","6.944108000000007","960","536","自己","忠勇","Positive","morality","","","","","","","","","","",""
"1199","","f","psychophysics","25","185933","0.0-7.0-3.0-0.11","3","1","2","3","2","4","3","2","3","4","5","-2","0","-1","-2","-3","0","1","2","5","4","5","5","4","5","4","3","4","4","4","6","7","7","3","3","5","4","8","4","6","3","7","4","3","6","3","2","5","1","1","2","4","1","2","3","3","7","5","2","3","2","5","2","5","7","7","6","7","7","6","3","3","2","4","5","2","7","6","6","766385413542907906","梁","514","Male","[""坏我"",""坏他"",""好我"",""好他""]","[""弱我"",""弱他"",""强我"",""强他""]","","","","","","","","yes","","","","","","","","","SRET","EW_formal","","key","f","6.944411392405089","960","536","自己","利己","Negative","morality","","","","","","","","","","",""
"726","","j","psychophysics","26","187661","0.0-7.0-3.0-0.12","3","1","2","3","2","4","3","2","3","4","5","-2","0","-1","-2","-3","0","1","2","5","4","5","5","4","5","4","3","4","4","4","6","7","7","3","3","5","4","8","4","6","3","7","4","3","6","3","2","5","1","1","2","4","1","2","3","3","7","5","2","3","2","5","2","5","7","7","6","7","7","6","3","3","2","4","5","2","7","6","6","766385413542907906","梁","514","Male","[""坏我"",""坏他"",""好我"",""好他""]","[""弱我"",""弱他"",""强我"",""强他""]","","","","","","","","no","","","","","","","","","SRET","EW_formal","","key","j","6.944230769230675","960","536","朋友","马虎","Negative","ability","","","","","","","","","","",""
"623","","f","psychophysics","27","189284","0.0-7.0-3.0-0.13","3","1","2","3","2","4","3","2","3","4","5","-2","0","-1","-2","-3","0","1","2","5","4","5","5","4","5","4","3","4","4","4","6","7","7","3","3","5","4","8","4","6","3","7","4","3","6","3","2","5","1","1","2","4","1","2","3","3","7","5","2","3","2","5","2","5","7","7","6","7","7","6","3","3","2","4","5","2","7","6","6","766385413542907906","梁","514","Male","[""坏我"",""坏他"",""好我"",""好他""]","[""弱我"",""弱他"",""强我"",""强他""]","","","","","","","","yes","","","","","","","","","SRET","EW_formal","","key","f","6.944253218884114","960","536","自己","智慧","Positive","ability","","","","","","","","","","",""
"615","","f","psychophysics","28","190900","0.0-7.0-3.0-0.14","3","1","2","3","2","4","3","2","3","4","5","-2","0","-1","-2","-3","0","1","2","5","4","5","5","4","5","4","3","4","4","4","6","7","7","3","3","5","4","8","4","6","3","7","4","3","6","3","2","5","1","1","2","4","1","2","3","3","7","5","2","3","2","5","2","5","7","7","6","7","7","6","3","3","2","4","5","2","7","6","6","766385413542907906","梁","514","Male","[""坏我"",""坏他"",""好我"",""好他""]","[""弱我"",""弱他"",""强我"",""强他""]","","","","","","","","yes","","","","","","","","","SRET","EW_formal","","key","f","6.944530172413892","960","536","自己","仁爱","Positive","morality","","","","","","","","","","",""
"1447","","f","psychophysics","29","193348","0.0-7.0-3.0-0.15","3","1","2","3","2","4","3","2","3","4","5","-2","0","-1","-2","-3","0","1","2","5","4","5","5","4","5","4","3","4","4","4","6","7","7","3","3","5","4","8","4","6","3","7","4","3","6","3","2","5","1","1","2","4","1","2","3","3","7","5","2","3","2","5","2","5","7","7","6","7","7","6","3","3","2","4","5","2","7","6","6","766385413542907906","梁","514","Male","[""坏我"",""坏他"",""好我"",""好他""]","[""弱我"",""弱他"",""强我"",""强他""]","","","","","","","","yes","","","","","","","","","SRET","EW_formal","","key","f","6.944267806267791","960","536","朋友","专注","Positive","ability","","","","","","","","","","",""
"646","","f","psychophysics","30","194996","0.0-7.0-3.0-0.16","3","1","2","3","2","4","3","2","3","4","5","-2","0","-1","-2","-3","0","1","2","5","4","5","5","4","5","4","3","4","4","4","6","7","7","3","3","5","4","8","4","6","3","7","4","3","6","3","2","5","1","1","2","4","1","2","3","3","7","5","2","3","2","5","2","5","7","7","6","7","7","6","3","3","2","4","5","2","7","6","6","766385413542907906","梁","514","Male","[""坏我"",""坏他"",""好我"",""好他""]","[""弱我"",""弱他"",""强我"",""强他""]","","","","","","","","yes","","","","","","","","","SRET","EW_formal","","key","f","6.944362869198245","960","536","朋友","聪明","Positive","ability","","","","","","","","","","",""
"527","","f","psychophysics","31","196524","0.0-7.0-3.0-0.17","3","1","2","3","2","4","3","2","3","4","5","-2","0","-1","-2","-3","0","1","2","5","4","5","5","4","5","4","3","4","4","4","6","7","7","3","3","5","4","8","4","6","3","7","4","3","6","3","2","5","1","1","2","4","1","2","3","3","7","5","2","3","2","5","2","5","7","7","6","7","7","6","3","3","2","4","5","2","7","6","6","766385413542907906","梁","514","Male","[""坏我"",""坏他"",""好我"",""好他""]","[""弱我"",""弱他"",""强我"",""强他""]","","","","","","","","yes","","","","","","","","","SRET","EW_formal","","key","f","6.944885844748827","960","536","朋友","忠诚","Positive","morality","","","","","","","","","","",""
"967","","j","psychophysics","32","198492","0.0-7.0-3.0-0.18","3","1","2","3","2","4","3","2","3","4","5","-2","0","-1","-2","-3","0","1","2","5","4","5","5","4","5","4","3","4","4","4","6","7","7","3","3","5","4","8","4","6","3","7","4","3","6","3","2","5","1","1","2","4","1","2","3","3","7","5","2","3","2","5","2","5","7","7","6","7","7","6","3","3","2","4","5","2","7","6","6","766385413542907906","梁","514","Male","[""坏我"",""坏他"",""好我"",""好他""]","[""弱我"",""弱他"",""强我"",""强他""]","","","","","","","","no","","","","","","","","","SRET","EW_formal","","key","j","6.943918439716303","960","536","自己","草率","Negative","ability","","","","","","","","","","",""
"622","","f","psychophysics","33","200116","0.0-7.0-3.0-0.19","3","1","2","3","2","4","3","2","3","4","5","-2","0","-1","-2","-3","0","1","2","5","4","5","5","4","5","4","3","4","4","4","6","7","7","3","3","5","4","8","4","6","3","7","4","3","6","3","2","5","1","1","2","4","1","2","3","3","7","5","2","3","2","5","2","5","7","7","6","7","7","6","3","3","2","4","5","2","7","6","6","766385413542907906","梁","514","Male","[""坏我"",""坏他"",""好我"",""好他""]","[""弱我"",""弱他"",""强我"",""强他""]","","","","","","","","yes","","","","","","","","","SRET","EW_formal","","key","f","6.944862660944293","960","536","朋友","善心","Positive","morality","","","","","","","","","","",""
"791","","j","psychophysics","34","201908","0.0-7.0-3.0-0.20","3","1","2","3","2","4","3","2","3","4","5","-2","0","-1","-2","-3","0","1","2","5","4","5","5","4","5","4","3","4","4","4","6","7","7","3","3","5","4","8","4","6","3","7","4","3","6","3","2","5","1","1","2","4","1","2","3","3","7","5","2","3","2","5","2","5","7","7","6","7","7","6","3","3","2","4","5","2","7","6","6","766385413542907906","梁","514","Male","[""坏我"",""坏他"",""好我"",""好他""]","[""弱我"",""弱他"",""强我"",""强他""]","","","","","","","","no","","","","","","","","","SRET","EW_formal","","key","j","6.9443657587548255","960","536","自己","昏庸","Negative","ability","","","","","","","","","","",""
"1391","","f","psychophysics","35","204300","0.0-7.0-3.0-0.21","3","1","2","3","2","4","3","2","3","4","5","-2","0","-1","-2","-3","0","1","2","5","4","5","5","4","5","4","3","4","4","4","6","7","7","3","3","5","4","8","4","6","3","7","4","3","6","3","2","5","1","1","2","4","1","2","3","3","7","5","2","3","2","5","2","5","7","7","6","7","7","6","3","3","2","4","5","2","7","6","6","766385413542907906","梁","514","Male","[""坏我"",""坏他"",""好我"",""好他""]","[""弱我"",""弱他"",""强我"",""强他""]","","","","","","","","yes","","","","","","","","","SRET","EW_formal","","key","f","6.944491279069764","960","536","朋友","变通","Positive","ability","","","","","","","","","","",""
"663","","j","psychophysics","36","205964","0.0-7.0-3.0-0.22","3","1","2","3","2","4","3","2","3","4","5","-2","0","-1","-2","-3","0","1","2","5","4","5","5","4","5","4","3","4","4","4","6","7","7","3","3","5","4","8","4","6","3","7","4","3","6","3","2","5","1","1","2","4","1","2","3","3","7","5","2","3","2","5","2","5","7","7","6","7","7","6","3","3","2","4","5","2","7","6","6","766385413542907906","梁","514","Male","[""坏我"",""坏他"",""好我"",""好他""]","[""弱我"",""弱他"",""强我"",""强他""]","","","","","","","","no","","","","","","","","","SRET","EW_formal","","key","j","6.944277310924421","960","536","朋友","窝囊","Negative","ability","","","","","","","","","","",""
"726","","j","psychophysics","37","207692","0.0-7.0-3.0-0.23","3","1","2","3","2","4","3","2","3","4","5","-2","0","-1","-2","-3","0","1","2","5","4","5","5","4","5","4","3","4","4","4","6","7","7","3","3","5","4","8","4","6","3","7","4","3","6","3","2","5","1","1","2","4","1","2","3","3","7","5","2","3","2","5","2","5","7","7","6","7","7","6","3","3","2","4","5","2","7","6","6","766385413542907906","梁","514","Male","[""坏我"",""坏他"",""好我"",""好他""]","[""弱我"",""弱他"",""强我"",""强他""]","","","","","","","","no","","","","","","","","","SRET","EW_formal","","key","j","6.944258064516039","960","536","自己","无耻","Negative","morality","","","","","","","","","","",""
"823","","f","psychophysics","38","209516","0.0-7.0-3.0-0.24","3","1","2","3","2","4","3","2","3","4","5","-2","0","-1","-2","-3","0","1","2","5","4","5","5","4","5","4","3","4","4","4","6","7","7","3","3","5","4","8","4","6","3","7","4","3","6","3","2","5","1","1","2","4","1","2","3","3","7","5","2","3","2","5","2","5","7","7","6","7","7","6","3","3","2","4","5","2","7","6","6","766385413542907906","梁","514","Male","[""坏我"",""坏他"",""好我"",""好他""]","[""弱我"",""弱他"",""强我"",""强他""]","","","","","","","","yes","","","","","","","","","SRET","EW_formal","","key","f","6.944087786259523","960","536","朋友","周到","Positive","ability","","","","","","","","","","",""
"734","","f","psychophysics","39","211252","0.0-7.0-3.0-0.25","3","1","2","3","2","4","3","2","3","4","5","-2","0","-1","-2","-3","0","1","2","5","4","5","5","4","5","4","3","4","4","4","6","7","7","3","3","5","4","8","4","6","3","7","4","3","6","3","2","5","1","1","2","4","1","2","3","3","7","5","2","3","2","5","2","5","7","7","6","7","7","6","3","3","2","4","5","2","7","6","6","766385413542907906","梁","514","Male","[""坏我"",""坏他"",""好我"",""好他""]","[""弱我"",""弱他"",""强我"",""强他""]","","","","","","","","yes","","","","","","","","","SRET","EW_formal","","key","f","6.944570281124514","960","536","朋友","守法","Positive","morality","","","","","","","","","","",""
"710","","f","psychophysics","40","212964","0.0-7.0-3.0-0.26","3","1","2","3","2","4","3","2","3","4","5","-2","0","-1","-2","-3","0","1","2","5","4","5","5","4","5","4","3","4","4","4","6","7","7","3","3","5","4","8","4","6","3","7","4","3","6","3","2","5","1","1","2","4","1","2","3","3","7","5","2","3","2","5","2","5","7","7","6","7","7","6","3","3","2","4","5","2","7","6","6","766385413542907906","梁","514","Male","[""坏我"",""坏他"",""好我"",""好他""]","[""弱我"",""弱他"",""强我"",""强他""]","","","","","","","","yes","","","","","","","","","SRET","EW_formal","","key","f","6.944612244897931","960","536","朋友","刚正","Positive","morality","","","","","","","","","","",""
"783","","j","psychophysics","41","214748","0.0-7.0-3.0-0.27","3","1","2","3","2","4","3","2","3","4","5","-2","0","-1","-2","-3","0","1","2","5","4","5","5","4","5","4","3","4","4","4","6","7","7","3","3","5","4","8","4","6","3","7","4","3","6","3","2","5","1","1","2","4","1","2","3","3","7","5","2","3","2","5","2","5","7","7","6","7","7","6","3","3","2","4","5","2","7","6","6","766385413542907906","梁","514","Male","[""坏我"",""坏他"",""好我"",""好他""]","[""弱我"",""弱他"",""强我"",""强他""]","","","","","","","","no","","","","","","","","","SRET","EW_formal","","key","j","6.944253906250083","960","536","朋友","犹豫","Negative","ability","","","","","","","","","","",""
"767","","j","psychophysics","42","216516","0.0-7.0-3.0-0.28","3","1","2","3","2","4","3","2","3","4","5","-2","0","-1","-2","-3","0","1","2","5","4","5","5","4","5","4","3","4","4","4","6","7","7","3","3","5","4","8","4","6","3","7","4","3","6","3","2","5","1","1","2","4","1","2","3","3","7","5","2","3","2","5","2","5","7","7","6","7","7","6","3","3","2","4","5","2","7","6","6","766385413542907906","梁","514","Male","[""坏我"",""坏他"",""好我"",""好他""]","[""弱我"",""弱他"",""强我"",""强他""]","","","","","","","","no","","","","","","","","","SRET","EW_formal","","key","j","6.944295275590647","960","536","朋友","伪善","Negative","morality","","","","","","","","","","",""
"635","","j","psychophysics","43","218156","0.0-7.0-3.0-0.29","3","1","2","3","2","4","3","2","3","4","5","-2","0","-1","-2","-3","0","1","2","5","4","5","5","4","5","4","3","4","4","4","6","7","7","3","3","5","4","8","4","6","3","7","4","3","6","3","2","5","1","1","2","4","1","2","3","3","7","5","2","3","2","5","2","5","7","7","6","7","7","6","3","3","2","4","5","2","7","6","6","766385413542907906","梁","514","Male","[""坏我"",""坏他"",""好我"",""好他""]","[""弱我"",""弱他"",""强我"",""强他""]","","","","","","","","no","","","","","","","","","SRET","EW_formal","","key","j","6.94441276595747","960","536","朋友","无能","Negative","ability","","","","","","","","","","",""
"1079","","j","psychophysics","44","220236","0.0-7.0-3.0-0.30","3","1","2","3","2","4","3","2","3","4","5","-2","0","-1","-2","-3","0","1","2","5","4","5","5","4","5","4","3","4","4","4","6","7","7","3","3","5","4","8","4","6","3","7","4","3","6","3","2","5","1","1","2","4","1","2","3","3","7","5","2","3","2","5","2","5","7","7","6","7","7","6","3","3","2","4","5","2","7","6","6","766385413542907906","梁","514","Male","[""坏我"",""坏他"",""好我"",""好他""]","[""弱我"",""弱他"",""强我"",""强他""]","","","","","","","","no","","","","","","","","","SRET","EW_formal","","key","j","6.944493288590612","960","536","自己","浅薄","Negative","ability","","","","","","","","","","",""
"631","","j","psychophysics","45","221868","0.0-7.0-3.0-0.31","3","1","2","3","2","4","3","2","3","4","5","-2","0","-1","-2","-3","0","1","2","5","4","5","5","4","5","4","3","4","4","4","6","7","7","3","3","5","4","8","4","6","3","7","4","3","6","3","2","5","1","1","2","4","1","2","3","3","7","5","2","3","2","5","2","5","7","7","6","7","7","6","3","3","2","4","5","2","7","6","6","766385413542907906","梁","514","Male","[""坏我"",""坏他"",""好我"",""好他""]","[""弱我"",""弱他"",""强我"",""强他""]","","","","","","","","no","","","","","","","","","SRET","EW_formal","","key","j","6.944730769230812","960","536","朋友","拖拉","Negative","ability","","","","","","","","","","",""
"783","","j","psychophysics","46","223652","0.0-7.0-3.0-0.32","3","1","2","3","2","4","3","2","3","4","5","-2","0","-1","-2","-3","0","1","2","5","4","5","5","4","5","4","3","4","4","4","6","7","7","3","3","5","4","8","4","6","3","7","4","3","6","3","2","5","1","1","2","4","1","2","3","3","7","5","2","3","2","5","2","5","7","7","6","7","7","6","3","3","2","4","5","2","7","6","6","766385413542907906","梁","514","Male","[""坏我"",""坏他"",""好我"",""好他""]","[""弱我"",""弱他"",""强我"",""强他""]","","","","","","","","no","","","","","","","","","SRET","EW_formal","","key","j","6.944207031250016","960","536","自己","拜金","Negative","morality","","","","","","","","","","",""
"1135","","j","psychophysics","47","225788","0.0-7.0-3.0-0.33","3","1","2","3","2","4","3","2","3","4","5","-2","0","-1","-2","-3","0","1","2","5","4","5","5","4","5","4","3","4","4","4","6","7","7","3","3","5","4","8","4","6","3","7","4","3","6","3","2","5","1","1","2","4","1","2","3","3","7","5","2","3","2","5","2","5","7","7","6","7","7","6","3","3","2","4","5","2","7","6","6","766385413542907906","梁","514","Male","[""坏我"",""坏他"",""好我"",""好他""]","[""弱我"",""弱他"",""强我"",""强他""]","","","","","","","","no","","","","","","","","","SRET","EW_formal","","key","j","6.944410423452701","960","536","自己","虚伪","Negative","morality","","","","","","","","","","",""
"1167","","j","psychophysics","48","227956","0.0-7.0-3.0-0.34","3","1","2","3","2","4","3","2","3","4","5","-2","0","-1","-2","-3","0","1","2","5","4","5","5","4","5","4","3","4","4","4","6","7","7","3","3","5","4","8","4","6","3","7","4","3","6","3","2","5","1","1","2","4","1","2","3","3","7","5","2","3","2","5","2","5","7","7","6","7","7","6","3","3","2","4","5","2","7","6","6","766385413542907906","梁","514","Male","[""坏我"",""坏他"",""好我"",""好他""]","[""弱我"",""弱他"",""强我"",""强他""]","","","","","","","","no","","","","","","","","","SRET","EW_formal","","key","j","6.9444469453376145","960","536","朋友","愚蠢","Negative","ability","","","","","","","","","","",""
"847","","f","psychophysics","49","229804","0.0-7.0-3.0-0.35","3","1","2","3","2","4","3","2","3","4","5","-2","0","-1","-2","-3","0","1","2","5","4","5","5","4","5","4","3","4","4","4","6","7","7","3","3","5","4","8","4","6","3","7","4","3","6","3","2","5","1","1","2","4","1","2","3","3","7","5","2","3","2","5","2","5","7","7","6","7","7","6","3","3","2","4","5","2","7","6","6","766385413542907906","梁","514","Male","[""坏我"",""坏他"",""好我"",""好他""]","[""弱我"",""弱他"",""强我"",""强他""]","","","","","","","","yes","","","","","","","","","SRET","EW_formal","","key","f","6.9441283018867495","960","536","朋友","诚信","Positive","morality","","","","","","","","","","",""
"1007","","j","psychophysics","50","231812","0.0-7.0-3.0-0.36","3","1","2","3","2","4","3","2","3","4","5","-2","0","-1","-2","-3","0","1","2","5","4","5","5","4","5","4","3","4","4","4","6","7","7","3","3","5","4","8","4","6","3","7","4","3","6","3","2","5","1","1","2","4","1","2","3","3","7","5","2","3","2","5","2","5","7","7","6","7","7","6","3","3","2","4","5","2","7","6","6","766385413542907906","梁","514","Male","[""坏我"",""坏他"",""好我"",""好他""]","[""弱我"",""弱他"",""强我"",""强他""]","","","","","","","","no","","","","","","","","","SRET","EW_formal","","key","j","6.944621527777802","960","536","自己","失信","Negative","morality","","","","","","","","","","",""
"647","","f","psychophysics","51","233460","0.0-7.0-3.0-0.37","3","1","2","3","2","4","3","2","3","4","5","-2","0","-1","-2","-3","0","1","2","5","4","5","5","4","5","4","3","4","4","4","6","7","7","3","3","5","4","8","4","6","3","7","4","3","6","3","2","5","1","1","2","4","1","2","3","3","7","5","2","3","2","5","2","5","7","7","6","7","7","6","3","3","2","4","5","2","7","6","6","766385413542907906","梁","514","Male","[""坏我"",""坏他"",""好我"",""好他""]","[""弱我"",""弱他"",""强我"",""强他""]","","","","","","","","yes","","","","","","","","","SRET","EW_formal","","key","f","6.944396624472636","960","536","自己","仗义","Positive","morality","","","","","","","","","","",""
"790","","j","psychophysics","52","235252","0.0-7.0-3.0-0.38","3","1","2","3","2","4","3","2","3","4","5","-2","0","-1","-2","-3","0","1","2","5","4","5","5","4","5","4","3","4","4","4","6","7","7","3","3","5","4","8","4","6","3","7","4","3","6","3","2","5","1","1","2","4","1","2","3","3","7","5","2","3","2","5","2","5","7","7","6","7","7","6","3","3","2","4","5","2","7","6","6","766385413542907906","梁","514","Male","[""坏我"",""坏他"",""好我"",""好他""]","[""弱我"",""弱他"",""强我"",""强他""]","","","","","","","","no","","","","","","","","","SRET","EW_formal","","key","j","6.944326848249066","960","536","朋友","偏私","Negative","morality","","","","","","","","","","",""
"782","","f","psychophysics","53","237036","0.0-7.0-3.0-0.39","3","1","2","3","2","4","3","2","3","4","5","-2","0","-1","-2","-3","0","1","2","5","4","5","5","4","5","4","3","4","4","4","6","7","7","3","3","5","4","8","4","6","3","7","4","3","6","3","2","5","1","1","2","4","1","2","3","3","7","5","2","3","2","5","2","5","7","7","6","7","7","6","3","3","2","4","5","2","7","6","6","766385413542907906","梁","514","Male","[""坏我"",""坏他"",""好我"",""好他""]","[""弱我"",""弱他"",""强我"",""强他""]","","","","","","","","yes","","","","","","","","","SRET","EW_formal","","key","f","6.94432031249994","960","536","朋友","善良","Positive","morality","","","","","","","","","","",""
"1192","","f","psychophysics","54","239228","0.0-7.0-3.0-0.40","3","1","2","3","2","4","3","2","3","4","5","-2","0","-1","-2","-3","0","1","2","5","4","5","5","4","5","4","3","4","4","4","6","7","7","3","3","5","4","8","4","6","3","7","4","3","6","3","2","5","1","1","2","4","1","2","3","3","7","5","2","3","2","5","2","5","7","7","6","7","7","6","3","3","2","4","5","2","7","6","6","766385413542907906","梁","514","Male","[""坏我"",""坏他"",""好我"",""好他""]","[""弱我"",""弱他"",""强我"",""强他""]","","","","","","","","yes","","","","","","","","","SRET","EW_formal","","key","f","6.9446719745223175","960","536","自己","高洁","Positive","morality","","","","","","","","","","",""
"647","","j","psychophysics","55","240876","0.0-7.0-3.0-0.41","3","1","2","3","2","4","3","2","3","4","5","-2","0","-1","-2","-3","0","1","2","5","4","5","5","4","5","4","3","4","4","4","6","7","7","3","3","5","4","8","4","6","3","7","4","3","6","3","2","5","1","1","2","4","1","2","3","3","7","5","2","3","2","5","2","5","7","7","6","7","7","6","3","3","2","4","5","2","7","6","6","766385413542907906","梁","514","Male","[""坏我"",""坏他"",""好我"",""好他""]","[""弱我"",""弱他"",""强我"",""强他""]","","","","","","","","no","","","","","","","","","SRET","EW_formal","","key","j","6.944232067510531","960","536","自己","诡诈","Negative","morality","","","","","","","","","","",""
"1223","","f","psychophysics","56","243100","0.0-7.0-3.0-0.42","3","1","2","3","2","4","3","2","3","4","5","-2","0","-1","-2","-3","0","1","2","5","4","5","5","4","5","4","3","4","4","4","6","7","7","3","3","5","4","8","4","6","3","7","4","3","6","3","2","5","1","1","2","4","1","2","3","3","7","5","2","3","2","5","2","5","7","7","6","7","7","6","3","3","2","4","5","2","7","6","6","766385413542907906","梁","514","Male","[""坏我"",""坏他"",""好我"",""好他""]","[""弱我"",""弱他"",""强我"",""强他""]","","","","","","","","yes","","","","","","","","","SRET","EW_formal","","key","f","6.944608150470271","960","536","朋友","独立","Positive","ability","","","","","","","","","","",""
"903","","j","psychophysics","57","245004","0.0-7.0-3.0-0.43","3","1","2","3","2","4","3","2","3","4","5","-2","0","-1","-2","-3","0","1","2","5","4","5","5","4","5","4","3","4","4","4","6","7","7","3","3","5","4","8","4","6","3","7","4","3","6","3","2","5","1","1","2","4","1","2","3","3","7","5","2","3","2","5","2","5","7","7","6","7","7","6","3","3","2","4","5","2","7","6","6","766385413542907906","梁","514","Male","[""坏我"",""坏他"",""好我"",""好他""]","[""弱我"",""弱他"",""强我"",""强他""]","","","","","","","","no","","","","","","","","","SRET","EW_formal","","key","j","6.944106227106261","960","536","自己","卑鄙","Negative","morality","","","","","","","","","","",""
"1129","","f","psychophysics","58","247134","0.0-7.0-3.0-0.44","3","1","2","3","2","4","3","2","3","4","5","-2","0","-1","-2","-3","0","1","2","5","4","5","5","4","5","4","3","4","4","4","6","7","7","3","3","5","4","8","4","6","3","7","4","3","6","3","2","5","1","1","2","4","1","2","3","3","7","5","2","3","2","5","2","5","7","7","6","7","7","6","3","3","2","4","5","2","7","6","6","766385413542907906","梁","514","Male","[""坏我"",""坏他"",""好我"",""好他""]","[""弱我"",""弱他"",""强我"",""强他""]","","","","","","","","yes","","","","","","","","","SRET","EW_formal","","key","f","6.944611111111133","960","536","朋友","高效","Positive","ability","","","","","","","","","","",""
"861","","f","psychophysics","59","248996","0.0-7.0-3.0-0.45","3","1","2","3","2","4","3","2","3","4","5","-2","0","-1","-2","-3","0","1","2","5","4","5","5","4","5","4","3","4","4","4","6","7","7","3","3","5","4","8","4","6","3","7","4","3","6","3","2","5","1","1","2","4","1","2","3","3","7","5","2","3","2","5","2","5","7","7","6","7","7","6","3","3","2","4","5","2","7","6","6","766385413542907906","梁","514","Male","[""坏我"",""坏他"",""好我"",""好他""]","[""弱我"",""弱他"",""强我"",""强他""]","","","","","","","","yes","","","","","","","","","SRET","EW_formal","","key","f","6.944119850187327","960","536","自己","慈悲","Positive","morality","","","","","","","","","","",""
"1335","","f","psychophysics","60","251332","0.0-7.0-3.0-0.46","3","1","2","3","2","4","3","2","3","4","5","-2","0","-1","-2","-3","0","1","2","5","4","5","5","4","5","4","3","4","4","4","6","7","7","3","3","5","4","8","4","6","3","7","4","3","6","3","2","5","1","1","2","4","1","2","3","3","7","5","2","3","2","5","2","5","7","7","6","7","7","6","3","3","2","4","5","2","7","6","6","766385413542907906","梁","514","Male","[""坏我"",""坏他"",""好我"",""好他""]","[""弱我"",""弱他"",""强我"",""强他""]","","","","","","","","yes","","","","","","","","","SRET","EW_formal","","key","f","6.944313432835824","960","536","朋友","君子","Positive","morality","","","","","","","","","","",""
"630","","j","psychophysics","61","252964","0.0-7.0-3.0-0.47","3","1","2","3","2","4","3","2","3","4","5","-2","0","-1","-2","-3","0","1","2","5","4","5","5","4","5","4","3","4","4","4","6","7","7","3","3","5","4","8","4","6","3","7","4","3","6","3","2","5","1","1","2","4","1","2","3","3","7","5","2","3","2","5","2","5","7","7","6","7","7","6","3","3","2","4","5","2","7","6","6","766385413542907906","梁","514","Male","[""坏我"",""坏他"",""好我"",""好他""]","[""弱我"",""弱他"",""强我"",""强他""]","","","","","","","","no","","","","","","","","","SRET","EW_formal","","key","j","6.944397435897318","960","536","朋友","奸诈","Negative","morality","","","","","","","","","","",""
"638","","f","psychophysics","62","254604","0.0-7.0-3.0-0.48","3","1","2","3","2","4","3","2","3","4","5","-2","0","-1","-2","-3","0","1","2","5","4","5","5","4","5","4","3","4","4","4","6","7","7","3","3","5","4","8","4","6","3","7","4","3","6","3","2","5","1","1","2","4","1","2","3","3","7","5","2","3","2","5","2","5","7","7","6","7","7","6","3","3","2","4","5","2","7","6","6","766385413542907906","梁","514","Male","[""坏我"",""坏他"",""好我"",""好他""]","[""弱我"",""弱他"",""强我"",""强他""]","","","","","","","","yes","","","","","","","","","SRET","EW_formal","","key","f","6.944765957446764","960","536","自己","勤恳","Positive","morality","","","","","","","","","","",""
"718","","f","psychophysics","63","256324","0.0-7.0-3.0-0.49","3","1","2","3","2","4","3","2","3","4","5","-2","0","-1","-2","-3","0","1","2","5","4","5","5","4","5","4","3","4","4","4","6","7","7","3","3","5","4","8","4","6","3","7","4","3","6","3","2","5","1","1","2","4","1","2","3","3","7","5","2","3","2","5","2","5","7","7","6","7","7","6","3","3","2","4","5","2","7","6","6","766385413542907906","梁","514","Male","[""坏我"",""坏他"",""好我"",""好他""]","[""弱我"",""弱他"",""强我"",""强他""]","","","","","","","","yes","","","","","","","","","SRET","EW_formal","","key","f","6.944263157894767","960","536","自己","思辨","Positive","ability","","","","","","","","","","",""
"648","","f","psychophysics","64","257972","0.0-7.0-3.0-0.50","3","1","2","3","2","4","3","2","3","4","5","-2","0","-1","-2","-3","0","1","2","5","4","5","5","4","5","4","3","4","4","4","6","7","7","3","3","5","4","8","4","6","3","7","4","3","6","3","2","5","1","1","2","4","1","2","3","3","7","5","2","3","2","5","2","5","7","7","6","7","7","6","3","3","2","4","5","2","7","6","6","766385413542907906","梁","514","Male","[""坏我"",""坏他"",""好我"",""好他""]","[""弱我"",""弱他"",""强我"",""强他""]","","","","","","","","yes","","","","","","","","","SRET","EW_formal","","key","f","6.944436440678039","960","536","朋友","仁厚","Positive","morality","","","","","","","","","","",""
"725","","f","psychophysics","65","259702","0.0-7.0-3.0-0.51","3","1","2","3","2","4","3","2","3","4","5","-2","0","-1","-2","-3","0","1","2","5","4","5","5","4","5","4","3","4","4","4","6","7","7","3","3","5","4","8","4","6","3","7","4","3","6","3","2","5","1","1","2","4","1","2","3","3","7","5","2","3","2","5","2","5","7","7","6","7","7","6","3","3","2","4","5","2","7","6","6","766385413542907906","梁","514","Male","[""坏我"",""坏他"",""好我"",""好他""]","[""弱我"",""弱他"",""强我"",""强他""]","","","","","","","","yes","","","","","","","","","SRET","EW_formal","","key","f","6.944479838709676","960","536","自己","侠义","Positive","morality","","","","","","","","","","",""
"1926","","f","psychophysics","66","262629","0.0-7.0-3.0-0.52","3","1","2","3","2","4","3","2","3","4","5","-2","0","-1","-2","-3","0","1","2","5","4","5","5","4","5","4","3","4","4","4","6","7","7","3","3","5","4","8","4","6","3","7","4","3","6","3","2","5","1","1","2","4","1","2","3","3","7","5","2","3","2","5","2","5","7","7","6","7","7","6","3","3","2","4","5","2","7","6","6","766385413542907906","梁","514","Male","[""坏我"",""坏他"",""好我"",""好他""]","[""弱我"",""弱他"",""强我"",""强他""]","","","","","","","","yes","","","","","","","","","SRET","EW_formal","","key","f","6.944244655581953","960","536","朋友","细心","Positive","ability","","","","","","","","","","",""
"694","","f","psychophysics","67","264325","0.0-7.0-3.0-0.53","3","1","2","3","2","4","3","2","3","4","5","-2","0","-1","-2","-3","0","1","2","5","4","5","5","4","5","4","3","4","4","4","6","7","7","3","3","5","4","8","4","6","3","7","4","3","6","3","2","5","1","1","2","4","1","2","3","3","7","5","2","3","2","5","2","5","7","7","6","7","7","6","3","3","2","4","5","2","7","6","6","766385413542907906","梁","514","Male","[""坏我"",""坏他"",""好我"",""好他""]","[""弱我"",""弱他"",""强我"",""强他""]","","","","","","","","yes","","","","","","","","","SRET","EW_formal","","key","f","6.9446543209878016","960","536","朋友","自律","Positive","ability","","","","","","","","","","",""
"717","","j","psychophysics","68","266044","0.0-7.0-3.0-0.54","3","1","2","3","2","4","3","2","3","4","5","-2","0","-1","-2","-3","0","1","2","5","4","5","5","4","5","4","3","4","4","4","6","7","7","3","3","5","4","8","4","6","3","7","4","3","6","3","2","5","1","1","2","4","1","2","3","3","7","5","2","3","2","5","2","5","7","7","6","7","7","6","3","3","2","4","5","2","7","6","6","766385413542907906","梁","514","Male","[""坏我"",""坏他"",""好我"",""好他""]","[""弱我"",""弱他"",""强我"",""强他""]","","","","","","","","no","","","","","","","","","SRET","EW_formal","","key","j","6.944125506072729","960","536","朋友","盲目","Negative","ability","","","","","","","","","","",""
"601","","j","psychophysics","69","267646","0.0-7.0-3.0-0.55","3","1","2","3","2","4","3","2","3","4","5","-2","0","-1","-2","-3","0","1","2","5","4","5","5","4","5","4","3","4","4","4","6","7","7","3","3","5","4","8","4","6","3","7","4","3","6","3","2","5","1","1","2","4","1","2","3","3","7","5","2","3","2","5","2","5","7","7","6","7","7","6","3","3","2","4","5","2","7","6","6","766385413542907906","梁","514","Male","[""坏我"",""坏他"",""好我"",""好他""]","[""弱我"",""弱他"",""强我"",""强他""]","","","","","","","","no","","","","","","","","","SRET","EW_formal","","key","j","6.945100436681286","960","536","朋友","小人","Negative","morality","","","","","","","","","","",""
"525","","f","psychophysics","70","269172","0.0-7.0-3.0-0.56","3","1","2","3","2","4","3","2","3","4","5","-2","0","-1","-2","-3","0","1","2","5","4","5","5","4","5","4","3","4","4","4","6","7","7","3","3","5","4","8","4","6","3","7","4","3","6","3","2","5","1","1","2","4","1","2","3","3","7","5","2","3","2","5","2","5","7","7","6","7","7","6","3","3","2","4","5","2","7","6","6","766385413542907906","梁","514","Male","[""坏我"",""坏他"",""好我"",""好他""]","[""弱我"",""弱他"",""强我"",""强他""]","","","","","","","","yes","","","","","","","","","SRET","EW_formal","","key","f","6.944109589040873","960","536","自己","廉明","Positive","morality","","","","","","","","","","",""
"607","","j","psychophysics","71","270781","0.0-7.0-3.0-0.57","3","1","2","3","2","4","3","2","3","4","5","-2","0","-1","-2","-3","0","1","2","5","4","5","5","4","5","4","3","4","4","4","6","7","7","3","3","5","4","8","4","6","3","7","4","3","6","3","2","5","1","1","2","4","1","2","3","3","7","5","2","3","2","5","2","5","7","7","6","7","7","6","3","3","2","4","5","2","7","6","6","766385413542907906","梁","514","Male","[""坏我"",""坏他"",""好我"",""好他""]","[""弱我"",""弱他"",""强我"",""强他""]","","","","","","","","no","","","","","","","","","SRET","EW_formal","","key","j","6.944519480519517","960","536","自己","不仁","Negative","morality","","","","","","","","","","",""
"693","","j","psychophysics","72","272478","0.0-7.0-3.0-0.58","3","1","2","3","2","4","3","2","3","4","5","-2","0","-1","-2","-3","0","1","2","5","4","5","5","4","5","4","3","4","4","4","6","7","7","3","3","5","4","8","4","6","3","7","4","3","6","3","2","5","1","1","2","4","1","2","3","3","7","5","2","3","2","5","2","5","7","7","6","7","7","6","3","3","2","4","5","2","7","6","6","766385413542907906","梁","514","Male","[""坏我"",""坏他"",""好我"",""好他""]","[""弱我"",""弱他"",""强我"",""强他""]","","","","","","","","no","","","","","","","","","SRET","EW_formal","","key","j","6.944407407407325","960","536","朋友","恶劣","Negative","morality","","","","","","","","","","",""
"564","","f","psychophysics","73","274045","0.0-7.0-3.0-0.59","3","1","2","3","2","4","3","2","3","4","5","-2","0","-1","-2","-3","0","1","2","5","4","5","5","4","5","4","3","4","4","4","6","7","7","3","3","5","4","8","4","6","3","7","4","3","6","3","2","5","1","1","2","4","1","2","3","3","7","5","2","3","2","5","2","5","7","7","6","7","7","6","3","3","2","4","5","2","7","6","6","766385413542907906","梁","514","Male","[""坏我"",""坏他"",""好我"",""好他""]","[""弱我"",""弱他"",""强我"",""强他""]","","","","","","","","yes","","","","","","","","","SRET","EW_formal","","key","f","6.944106666666663","960","536","朋友","守信","Positive","morality","","","","","","","","","","",""
"677","","j","psychophysics","74","275724","0.0-7.0-3.0-0.60","3","1","2","3","2","4","3","2","3","4","5","-2","0","-1","-2","-3","0","1","2","5","4","5","5","4","5","4","3","4","4","4","6","7","7","3","3","5","4","8","4","6","3","7","4","3","6","3","2","5","1","1","2","4","1","2","3","3","7","5","2","3","2","5","2","5","7","7","6","7","7","6","3","3","2","4","5","2","7","6","6","766385413542907906","梁","514","Male","[""坏我"",""坏他"",""好我"",""好他""]","[""弱我"",""弱他"",""强我"",""强他""]","","","","","","","","no","","","","","","","","","SRET","EW_formal","","key","j","6.944253112033205","960","536","朋友","不端","Negative","morality","","","","","","","","","","",""
"599","","f","psychophysics","75","277324","0.0-7.0-3.0-0.61","3","1","2","3","2","4","3","2","3","4","5","-2","0","-1","-2","-3","0","1","2","5","4","5","5","4","5","4","3","4","4","4","6","7","7","3","3","5","4","8","4","6","3","7","4","3","6","3","2","5","1","1","2","4","1","2","3","3","7","5","2","3","2","5","2","5","7","7","6","7","7","6","3","3","2","4","5","2","7","6","6","766385413542907906","梁","514","Male","[""坏我"",""坏他"",""好我"",""好他""]","[""弱我"",""弱他"",""强我"",""强他""]","","","","","","","","yes","","","","","","","","","SRET","EW_formal","","key","f","6.944580786026237","960","536","自己","肯干","Positive","ability","","","","","","","","","","",""
"862","","j","psychophysics","76","279188","0.0-7.0-3.0-0.62","3","1","2","3","2","4","3","2","3","4","5","-2","0","-1","-2","-3","0","1","2","5","4","5","5","4","5","4","3","4","4","4","6","7","7","3","3","5","4","8","4","6","3","7","4","3","6","3","2","5","1","1","2","4","1","2","3","3","7","5","2","3","2","5","2","5","7","7","6","7","7","6","3","3","2","4","5","2","7","6","6","766385413542907906","梁","514","Male","[""坏我"",""坏他"",""好我"",""好他""]","[""弱我"",""弱他"",""强我"",""强他""]","","","","","","","","no","","","","","","","","","SRET","EW_formal","","key","j","6.996154135338396","960","536","自己","沉着","Positive","ability","","","","","","","","","","",""
"831","","j","psychophysics","77","281020","0.0-7.0-3.0-0.63","3","1","2","3","2","4","3","2","3","4","5","-2","0","-1","-2","-3","0","1","2","5","4","5","5","4","5","4","3","4","4","4","6","7","7","3","3","5","4","8","4","6","3","7","4","3","6","3","2","5","1","1","2","4","1","2","3","3","7","5","2","3","2","5","2","5","7","7","6","7","7","6","3","3","2","4","5","2","7","6","6","766385413542907906","梁","514","Male","[""坏我"",""坏他"",""好我"",""好他""]","[""弱我"",""弱他"",""强我"",""强他""]","","","","","","","","no","","","","","","","","","SRET","EW_formal","","key","j","6.94435496183218","960","536","朋友","短视","Negative","ability","","","","","","","","","","",""
"846","","j","psychophysics","78","282868","0.0-7.0-3.0-0.64","3","1","2","3","2","4","3","2","3","4","5","-2","0","-1","-2","-3","0","1","2","5","4","5","5","4","5","4","3","4","4","4","6","7","7","3","3","5","4","8","4","6","3","7","4","3","6","3","2","5","1","1","2","4","1","2","3","3","7","5","2","3","2","5","2","5","7","7","6","7","7","6","3","3","2","4","5","2","7","6","6","766385413542907906","梁","514","Male","[""坏我"",""坏他"",""好我"",""好他""]","[""弱我"",""弱他"",""强我"",""强他""]","","","","","","","","no","","","","","","","","","SRET","EW_formal","","key","j","6.944513207547068","960","536","朋友","差生","Negative","ability","","","","","","","","","","",""
"607","","j","psychophysics","79","284476","0.0-7.0-3.0-0.65","3","1","2","3","2","4","3","2","3","4","5","-2","0","-1","-2","-3","0","1","2","5","4","5","5","4","5","4","3","4","4","4","6","7","7","3","3","5","4","8","4","6","3","7","4","3","6","3","2","5","1","1","2","4","1","2","3","3","7","5","2","3","2","5","2","5","7","7","6","7","7","6","3","3","2","4","5","2","7","6","6","766385413542907906","梁","514","Male","[""坏我"",""坏他"",""好我"",""好他""]","[""弱我"",""弱他"",""强我"",""强他""]","","","","","","","","no","","","","","","","","","SRET","EW_formal","","key","j","6.944493506493569","960","536","自己","粗心","Negative","ability","","","","","","","","","","",""
"589","","j","psychophysics","80","286068","0.0-7.0-3.0-0.66","3","1","2","3","2","4","3","2","3","4","5","-2","0","-1","-2","-3","0","1","2","5","4","5","5","4","5","4","3","4","4","4","6","7","7","3","3","5","4","8","4","6","3","7","4","3","6","3","2","5","1","1","2","4","1","2","3","3","7","5","2","3","2","5","2","5","7","7","6","7","7","6","3","3","2","4","5","2","7","6","6","766385413542907906","梁","514","Male","[""坏我"",""坏他"",""好我"",""好他""]","[""弱我"",""弱他"",""强我"",""强他""]","","","","","","","","no","","","","","","","","","SRET","EW_formal","","key","j","6.944578947368427","960","536","朋友","歹毒","Negative","morality","","","","","","","","","","",""
"648","","j","psychophysics","81","287717","0.0-7.0-3.0-0.67","3","1","2","3","2","4","3","2","3","4","5","-2","0","-1","-2","-3","0","1","2","5","4","5","5","4","5","4","3","4","4","4","6","7","7","3","3","5","4","8","4","6","3","7","4","3","6","3","2","5","1","1","2","4","1","2","3","3","7","5","2","3","2","5","2","5","7","7","6","7","7","6","3","3","2","4","5","2","7","6","6","766385413542907906","梁","514","Male","[""坏我"",""坏他"",""好我"",""好他""]","[""弱我"",""弱他"",""强我"",""强他""]","","","","","","","","no","","","","","","","","","SRET","EW_formal","","key","j","6.94474683544291","960","536","自己","顶事","Positive","ability","","","","","","","","","","",""
"1285","","j","psychophysics","82","290004","0.0-7.0-3.0-0.68","3","1","2","3","2","4","3","2","3","4","5","-2","0","-1","-2","-3","0","1","2","5","4","5","5","4","5","4","3","4","4","4","6","7","7","3","3","5","4","8","4","6","3","7","4","3","6","3","2","5","1","1","2","4","1","2","3","3","7","5","2","3","2","5","2","5","7","7","6","7","7","6","3","3","2","4","5","2","7","6","6","766385413542907906","梁","514","Male","[""坏我"",""坏他"",""好我"",""好他""]","[""弱我"",""弱他"",""强我"",""强他""]","","","","","","","","no","","","","","","","","","SRET","EW_formal","","key","j","6.944283536585295","960","536","自己","逞强","Negative","ability","","","","","","","","","","",""
"662","","j","psychophysics","83","291668","0.0-7.0-3.0-0.69","3","1","2","3","2","4","3","2","3","4","5","-2","0","-1","-2","-3","0","1","2","5","4","5","5","4","5","4","3","4","4","4","6","7","7","3","3","5","4","8","4","6","3","7","4","3","6","3","2","5","1","1","2","4","1","2","3","3","7","5","2","3","2","5","2","5","7","7","6","7","7","6","3","3","2","4","5","2","7","6","6","766385413542907906","梁","514","Male","[""坏我"",""坏他"",""好我"",""好他""]","[""弱我"",""弱他"",""强我"",""强他""]","","","","","","","","no","","","","","","","","","SRET","EW_formal","","key","j","6.943736401673701","960","536","朋友","背叛","Negative","morality","","","","","","","","","","",""
"718","","f","psychophysics","84","293388","0.0-7.0-3.0-0.70","3","1","2","3","2","4","3","2","3","4","5","-2","0","-1","-2","-3","0","1","2","5","4","5","5","4","5","4","3","4","4","4","6","7","7","3","3","5","4","8","4","6","3","7","4","3","6","3","2","5","1","1","2","4","1","2","3","3","7","5","2","3","2","5","2","5","7","7","6","7","7","6","3","3","2","4","5","2","7","6","6","766385413542907906","梁","514","Male","[""坏我"",""坏他"",""好我"",""好他""]","[""弱我"",""弱他"",""强我"",""强他""]","","","","","","","","yes","","","","","","","","","SRET","EW_formal","","key","f","6.944304878048777","960","536","朋友","敏捷","Positive","ability","","","","","","","","","","",""
"1287","","j","psychophysics","85","295676","0.0-7.0-3.0-0.71","3","1","2","3","2","4","3","2","3","4","5","-2","0","-1","-2","-3","0","1","2","5","4","5","5","4","5","4","3","4","4","4","6","7","7","3","3","5","4","8","4","6","3","7","4","3","6","3","2","5","1","1","2","4","1","2","3","3","7","5","2","3","2","5","2","5","7","7","6","7","7","6","3","3","2","4","5","2","7","6","6","766385413542907906","梁","514","Male","[""坏我"",""坏他"",""好我"",""好他""]","[""弱我"",""弱他"",""强我"",""强他""]","","","","","","","","no","","","","","","","","","SRET","EW_formal","","key","j","6.944328267477229","960","536","自己","逞能","Negative","ability","","","","","","","","","","",""
"767","","f","psychophysics","86","297444","0.0-7.0-3.0-0.72","3","1","2","3","2","4","3","2","3","4","5","-2","0","-1","-2","-3","0","1","2","5","4","5","5","4","5","4","3","4","4","4","6","7","7","3","3","5","4","8","4","6","3","7","4","3","6","3","2","5","1","1","2","4","1","2","3","3","7","5","2","3","2","5","2","5","7","7","6","7","7","6","3","3","2","4","5","2","7","6","6","766385413542907906","梁","514","Male","[""坏我"",""坏他"",""好我"",""好他""]","[""弱我"",""弱他"",""强我"",""强他""]","","","","","","","","yes","","","","","","","","","SRET","EW_formal","","key","f","6.944545454545344","960","536","自己","利落","Positive","ability","","","","","","","","","","",""
"1167","","j","psychophysics","87","299612","0.0-7.0-3.0-0.73","3","1","2","3","2","4","3","2","3","4","5","-2","0","-1","-2","-3","0","1","2","5","4","5","5","4","5","4","3","4","4","4","6","7","7","3","3","5","4","8","4","6","3","7","4","3","6","3","2","5","1","1","2","4","1","2","3","3","7","5","2","3","2","5","2","5","7","7","6","7","7","6","3","3","2","4","5","2","7","6","6","766385413542907906","梁","514","Male","[""坏我"",""坏他"",""好我"",""好他""]","[""弱我"",""弱他"",""强我"",""强他""]","","","","","","","","no","","","","","","","","","SRET","EW_formal","","key","j","6.944631410256336","960","536","自己","业余","Negative","ability","","","","","","","","","","",""
"654","","f","psychophysics","88","301268","0.0-7.0-3.0-0.74","3","1","2","3","2","4","3","2","3","4","5","-2","0","-1","-2","-3","0","1","2","5","4","5","5","4","5","4","3","4","4","4","6","7","7","3","3","5","4","8","4","6","3","7","4","3","6","3","2","5","1","1","2","4","1","2","3","3","7","5","2","3","2","5","2","5","7","7","6","7","7","6","3","3","2","4","5","2","7","6","6","766385413542907906","梁","514","Male","[""坏我"",""坏他"",""好我"",""好他""]","[""弱我"",""弱他"",""强我"",""强他""]","","","","","","","","yes","","","","","","","","","SRET","EW_formal","","key","f","6.943966244725866","960","536","自己","谦逊","Positive","morality","","","","","","","","","","",""
"775","","j","psychophysics","89","303044","0.0-7.0-3.0-0.75","3","1","2","3","2","4","3","2","3","4","5","-2","0","-1","-2","-3","0","1","2","5","4","5","5","4","5","4","3","4","4","4","6","7","7","3","3","5","4","8","4","6","3","7","4","3","6","3","2","5","1","1","2","4","1","2","3","3","7","5","2","3","2","5","2","5","7","7","6","7","7","6","3","3","2","4","5","2","7","6","6","766385413542907906","梁","514","Male","[""坏我"",""坏他"",""好我"",""好他""]","[""弱我"",""弱他"",""强我"",""强他""]","","","","","","","","no","","","","","","","","","SRET","EW_formal","","key","j","6.944529411764633","960","536","朋友","狡狯","Negative","morality","","","","","","","","","","",""
"655","","f","psychophysics","90","304700","0.0-7.0-3.0-0.76","3","1","2","3","2","4","3","2","3","4","5","-2","0","-1","-2","-3","0","1","2","5","4","5","5","4","5","4","3","4","4","4","6","7","7","3","3","5","4","8","4","6","3","7","4","3","6","3","2","5","1","1","2","4","1","2","3","3","7","5","2","3","2","5","2","5","7","7","6","7","7","6","3","3","2","4","5","2","7","6","6","766385413542907906","梁","514","Male","[""坏我"",""坏他"",""好我"",""好他""]","[""弱我"",""弱他"",""强我"",""强他""]","","","","","","","","yes","","","","","","","","","SRET","EW_formal","","key","f","6.944489451476966","960","536","自己","毅力","Positive","ability","","","","","","","","","","",""
"815","","f","psychophysics","91","306516","0.0-7.0-3.0-0.77","3","1","2","3","2","4","3","2","3","4","5","-2","0","-1","-2","-3","0","1","2","5","4","5","5","4","5","4","3","4","4","4","6","7","7","3","3","5","4","8","4","6","3","7","4","3","6","3","2","5","1","1","2","4","1","2","3","3","7","5","2","3","2","5","2","5","7","7","6","7","7","6","3","3","2","4","5","2","7","6","6","766385413542907906","梁","514","Male","[""坏我"",""坏他"",""好我"",""好他""]","[""弱我"",""弱他"",""强我"",""强他""]","","","","","","","","yes","","","","","","","","","SRET","EW_formal","","key","f","6.944528735632173","960","536","自己","娴熟","Positive","ability","","","","","","","","","","",""
"566","","f","psychophysics","92","308084","0.0-7.0-3.0-0.78","3","1","2","3","2","4","3","2","3","4","5","-2","0","-1","-2","-3","0","1","2","5","4","5","5","4","5","4","3","4","4","4","6","7","7","3","3","5","4","8","4","6","3","7","4","3","6","3","2","5","1","1","2","4","1","2","3","3","7","5","2","3","2","5","2","5","7","7","6","7","7","6","3","3","2","4","5","2","7","6","6","766385413542907906","梁","514","Male","[""坏我"",""坏他"",""好我"",""好他""]","[""弱我"",""弱他"",""强我"",""强他""]","","","","","","","","yes","","","","","","","","","SRET","EW_formal","","key","f","6.944737777777741","960","536","朋友","敬业","Positive","morality","","","","","","","","","","",""
"744","","f","psychophysics","93","309829","0.0-7.0-3.0-0.79","3","1","2","3","2","4","3","2","3","4","5","-2","0","-1","-2","-3","0","1","2","5","4","5","5","4","5","4","3","4","4","4","6","7","7","3","3","5","4","8","4","6","3","7","4","3","6","3","2","5","1","1","2","4","1","2","3","3","7","5","2","3","2","5","2","5","7","7","6","7","7","6","3","3","2","4","5","2","7","6","6","766385413542907906","梁","514","Male","[""坏我"",""坏他"",""好我"",""好他""]","[""弱我"",""弱他"",""强我"",""强他""]","","","","","","","","yes","","","","","","","","","SRET","EW_formal","","key","f","6.944288000000175","960","536","自己","孝顺","Positive","morality","","","","","","","","","","",""
"528","","f","psychophysics","94","311358","0.0-7.0-3.0-0.80","3","1","2","3","2","4","3","2","3","4","5","-2","0","-1","-2","-3","0","1","2","5","4","5","5","4","5","4","3","4","4","4","6","7","7","3","3","5","4","8","4","6","3","7","4","3","6","3","2","5","1","1","2","4","1","2","3","3","7","5","2","3","2","5","2","5","7","7","6","7","7","6","3","3","2","4","5","2","7","6","6","766385413542907906","梁","514","Male","[""坏我"",""坏他"",""好我"",""好他""]","[""弱我"",""弱他"",""强我"",""强他""]","","","","","","","","yes","","","","","","","","","SRET","EW_formal","","key","f","6.944995433790077","960","536","自己","能干","Positive","ability","","","","","","","","","","",""
"541","","j","psychophysics","95","312901","0.0-7.0-3.0-0.81","3","1","2","3","2","4","3","2","3","4","5","-2","0","-1","-2","-3","0","1","2","5","4","5","5","4","5","4","3","4","4","4","6","7","7","3","3","5","4","8","4","6","3","7","4","3","6","3","2","5","1","1","2","4","1","2","3","3","7","5","2","3","2","5","2","5","7","7","6","7","7","6","3","3","2","4","5","2","7","6","6","766385413542907906","梁","514","Male","[""坏我"",""坏他"",""好我"",""好他""]","[""弱我"",""弱他"",""强我"",""强他""]","","","","","","","","no","","","","","","","","","SRET","EW_formal","","key","j","6.944325791855187","960","536","自己","虚假","Negative","morality","","","","","","","","","","",""
"1862","","j","psychophysics","96","315764","0.0-7.0-3.0-0.82","3","1","2","3","2","4","3","2","3","4","5","-2","0","-1","-2","-3","0","1","2","5","4","5","5","4","5","4","3","4","4","4","6","7","7","3","3","5","4","8","4","6","3","7","4","3","6","3","2","5","1","1","2","4","1","2","3","3","7","5","2","3","2","5","2","5","7","7","6","7","7","6","3","3","2","4","5","2","7","6","6","766385413542907906","梁","514","Male","[""坏我"",""坏他"",""好我"",""好他""]","[""弱我"",""弱他"",""强我"",""强他""]","","","","","","","","no","","","","","","","","","SRET","EW_formal","","key","j","6.944305825242586","960","536","自己","缺德","Negative","morality","","","","","","","","","","",""
"591","","f","psychophysics","97","317357","0.0-7.0-3.0-0.83","3","1","2","3","2","4","3","2","3","4","5","-2","0","-1","-2","-3","0","1","2","5","4","5","5","4","5","4","3","4","4","4","6","7","7","3","3","5","4","8","4","6","3","7","4","3","6","3","2","5","1","1","2","4","1","2","3","3","7","5","2","3","2","5","2","5","7","7","6","7","7","6","3","3","2","4","5","2","7","6","6","766385413542907906","梁","514","Male","[""坏我"",""坏他"",""好我"",""好他""]","[""弱我"",""弱他"",""强我"",""强他""]","","","","","","","","yes","","","","","","","","","SRET","EW_formal","","key","f","6.944745614035096","960","536","朋友","精干","Positive","ability","","","","","","","","","","",""
"670","","f","psychophysics","98","319029","0.0-7.0-3.0-0.84","3","1","2","3","2","4","3","2","3","4","5","-2","0","-1","-2","-3","0","1","2","5","4","5","5","4","5","4","3","4","4","4","6","7","7","3","3","5","4","8","4","6","3","7","4","3","6","3","2","5","1","1","2","4","1","2","3","3","7","5","2","3","2","5","2","5","7","7","6","7","7","6","3","3","2","4","5","2","7","6","6","766385413542907906","梁","514","Male","[""坏我"",""坏他"",""好我"",""好他""]","[""弱我"",""弱他"",""强我"",""强他""]","","","","","","","","yes","","","","","","","","","SRET","EW_formal","","key","f","6.944379166666477","960","536","自己","主见","Positive","ability","","","","","","","","","","",""
"543","","j","psychophysics","99","320572","0.0-7.0-3.0-0.85","3","1","2","3","2","4","3","2","3","4","5","-2","0","-1","-2","-3","0","1","2","5","4","5","5","4","5","4","3","4","4","4","6","7","7","3","3","5","4","8","4","6","3","7","4","3","6","3","2","5","1","1","2","4","1","2","3","3","7","5","2","3","2","5","2","5","7","7","6","7","7","6","3","3","2","4","5","2","7","6","6","766385413542907906","梁","514","Male","[""坏我"",""坏他"",""好我"",""好他""]","[""弱我"",""弱他"",""强我"",""强他""]","","","","","","","","no","","","","","","","","","SRET","EW_formal","","key","j","6.944737556560873","960","536","朋友","低俗","Negative","morality","","","","","","","","","","",""
"759","","j","psychophysics","100","322333","0.0-7.0-3.0-0.86","3","1","2","3","2","4","3","2","3","4","5","-2","0","-1","-2","-3","0","1","2","5","4","5","5","4","5","4","3","4","4","4","6","7","7","3","3","5","4","8","4","6","3","7","4","3","6","3","2","5","1","1","2","4","1","2","3","3","7","5","2","3","2","5","2","5","7","7","6","7","7","6","3","3","2","4","5","2","7","6","6","766385413542907906","梁","514","Male","[""坏我"",""坏他"",""好我"",""好他""]","[""弱我"",""弱他"",""强我"",""强他""]","","","","","","","","no","","","","","","","","","SRET","EW_formal","","key","j","6.944043650793555","960","536","朋友","素养","Positive","morality","","","","","","","","","","",""
"1169","","j","psychophysics","101","324503","0.0-7.0-3.0-0.87","3","1","2","3","2","4","3","2","3","4","5","-2","0","-1","-2","-3","0","1","2","5","4","5","5","4","5","4","3","4","4","4","6","7","7","3","3","5","4","8","4","6","3","7","4","3","6","3","2","5","1","1","2","4","1","2","3","3","7","5","2","3","2","5","2","5","7","7","6","7","7","6","3","3","2","4","5","2","7","6","6","766385413542907906","梁","514","Male","[""坏我"",""坏他"",""好我"",""好他""]","[""弱我"",""弱他"",""强我"",""强他""]","","","","","","","","no","","","","","","","","","SRET","EW_formal","","key","j","6.944685897435799","960","536","自己","缓慢","Negative","ability","","","","","","","","","","",""
"8908","
    <p><div style='color:white;font-size:35px; line-height:20px;'>计算任务</div></p><br>
    <p><div style='color:red;font-size:25px; line-height:20px;'>接下来，您将看到一些四则运算题，<b>请从键盘选择 0-9 进行反应。</b></div></p>
    <p><div style='color:red;font-size:25px; line-height:20px;'>请尽可能快地进行计算，计算的速度和正确率将影响报酬的发放。</div></p>
    <p><div class='footer' style='color:white;font-size:25px; line-height:20px;'>如果对本实验还有不清楚之处，请立即向实验员咨询。</p><p style='color:white;font-size:25px; line-height:20px;'>如果您明白了规则：</p><p style='color:white;font-size:22px; line-height:20px;'>请按 继续 进入练习</p>
    </div>
    ","0","html-button-response","102","333413","0.0-7.0-4.0","3","1","2","3","2","4","3","2","3","4","5","-2","0","-1","-2","-3","0","1","2","5","4","5","5","4","5","4","3","4","4","4","6","7","7","3","3","5","4","8","4","6","3","7","4","3","6","3","2","5","1","1","2","4","1","2","3","3","7","5","2","3","2","5","2","5","7","7","6","7","7","6","3","3","2","4","5","2","7","6","6","766385413542907906","梁","514","Male","[""坏我"",""坏他"",""好我"",""好他""]","[""弱我"",""弱他"",""强我"",""强他""]","","","","","","","","","","","","","","","","","SRET_math","math_instructions","Tue Jan 16 2024 19:19:24 GMT+0800 (中国标准时间)","","","","","","","","","","","","","","","","","","","",""
"1885","","4","psychophysics","103","335300","0.0-7.0-5.0-0.0","3","1","2","3","2","4","3","2","3","4","5","-2","0","-1","-2","-3","0","1","2","5","4","5","5","4","5","4","3","4","4","4","6","7","7","3","3","5","4","8","4","6","3","7","4","3","6","3","2","5","1","1","2","4","1","2","3","3","7","5","2","3","2","5","2","5","7","7","6","7","7","6","3","3","2","4","5","2","7","6","6","766385413542907906","梁","514","Male","[""坏我"",""坏他"",""好我"",""好他""]","[""弱我"",""弱他"",""强我"",""强他""]","","","","","","","","4","","","","","","","","","SRET","SRET_math_calculate","","key","4","6.944463235294012","960","536","","","","","3+1= ?","4","1","","","","","","","",""
"1989","","0","psychophysics","104","337292","0.0-7.0-5.0-0.1","3","1","2","3","2","4","3","2","3","4","5","-2","0","-1","-2","-3","0","1","2","5","4","5","5","4","5","4","3","4","4","4","6","7","7","3","3","5","4","8","4","6","3","7","4","3","6","3","2","5","1","1","2","4","1","2","3","3","7","5","2","3","2","5","2","5","7","7","6","7","7","6","3","3","2","4","5","2","7","6","6","766385413542907906","梁","514","Male","[""坏我"",""坏他"",""好我"",""好他""]","[""弱我"",""弱他"",""强我"",""强他""]","","","","","","","","0","","","","","","","","","SRET","SRET_math_calculate","","key","0","6.944412587412635","960","536","","","","","32-32= ?","0","1","","","","","","","",""
"2006","","3","psychophysics","105","339301","0.0-7.0-5.0-0.2","3","1","2","3","2","4","3","2","3","4","5","-2","0","-1","-2","-3","0","1","2","5","4","5","5","4","5","4","3","4","4","4","6","7","7","3","3","5","4","8","4","6","3","7","4","3","6","3","2","5","1","1","2","4","1","2","3","3","7","5","2","3","2","5","2","5","7","7","6","7","7","6","3","3","2","4","5","2","7","6","6","766385413542907906","梁","514","Male","[""坏我"",""坏他"",""好我"",""好他""]","[""弱我"",""弱他"",""强我"",""强他""]","","","","","","","","3","","","","","","","","","SRET","SRET_math_calculate","","key","3","6.944395833333248","960","536","","","","","12/4= ?","3","1","","","","","","","",""
"1957","","7","psychophysics","106","341261","0.0-7.0-5.0-0.3","3","1","2","3","2","4","3","2","3","4","5","-2","0","-1","-2","-3","0","1","2","5","4","5","5","4","5","4","3","4","4","4","6","7","7","3","3","5","4","8","4","6","3","7","4","3","6","3","2","5","1","1","2","4","1","2","3","3","7","5","2","3","2","5","2","5","7","7","6","7","7","6","3","3","2","4","5","2","7","6","6","766385413542907906","梁","514","Male","[""坏我"",""坏他"",""好我"",""好他""]","[""弱我"",""弱他"",""强我"",""强他""]","","","","","","","","7","","","","","","","","","SRET","SRET_math_calculate","","key","7","6.944149466192315","960","536","","","","","7*1=  ?","7","1","","","","","","","",""
"2046","","9","psychophysics","107","343309","0.0-7.0-5.0-0.4","3","1","2","3","2","4","3","2","3","4","5","-2","0","-1","-2","-3","0","1","2","5","4","5","5","4","5","4","3","4","4","4","6","7","7","3","3","5","4","8","4","6","3","7","4","3","6","3","2","5","1","1","2","4","1","2","3","3","7","5","2","3","2","5","2","5","7","7","6","7","7","6","3","3","2","4","5","2","7","6","6","766385413542907906","梁","514","Male","[""坏我"",""坏他"",""好我"",""好他""]","[""弱我"",""弱他"",""强我"",""强他""]","","","","","","","","9","","","","","","","","","SRET","SRET_math_calculate","","key","9","6.9441802721087695","960","536","","","","","6+3= ?","9","1","","","","","","","",""
"2229","","8","psychophysics","108","345541","0.0-7.0-5.0-0.5","3","1","2","3","2","4","3","2","3","4","5","-2","0","-1","-2","-3","0","1","2","5","4","5","5","4","5","4","3","4","4","4","6","7","7","3","3","5","4","8","4","6","3","7","4","3","6","3","2","5","1","1","2","4","1","2","3","3","7","5","2","3","2","5","2","5","7","7","6","7","7","6","3","3","2","4","5","2","7","6","6","766385413542907906","梁","514","Male","[""坏我"",""坏他"",""好我"",""好他""]","[""弱我"",""弱他"",""强我"",""强他""]","","","","","","","","8","","","","","","","","","SRET","SRET_math_calculate","","key","8","6.944418749999931","960","536","","","","","56/7= ?","8","1","","","","","","","",""
"1916","","6","psychophysics","109","347460","0.0-7.0-5.0-0.6","3","1","2","3","2","4","3","2","3","4","5","-2","0","-1","-2","-3","0","1","2","5","4","5","5","4","5","4","3","4","4","4","6","7","7","3","3","5","4","8","4","6","3","7","4","3","6","3","2","5","1","1","2","4","1","2","3","3","7","5","2","3","2","5","2","5","7","7","6","7","7","6","3","3","2","4","5","2","7","6","6","766385413542907906","梁","514","Male","[""坏我"",""坏他"",""好我"",""好他""]","[""弱我"",""弱他"",""强我"",""强他""]","","","","","","","","6","","","","","","","","","SRET","SRET_math_calculate","","key","6","6.944717391304447","960","536","","","","","3+3= ?","6","1","","","","","","","",""
"1814","","2","psychophysics","110","349277","0.0-7.0-5.0-0.7","3","1","2","3","2","4","3","2","3","4","5","-2","0","-1","-2","-3","0","1","2","5","4","5","5","4","5","4","3","4","4","4","6","7","7","3","3","5","4","8","4","6","3","7","4","3","6","3","2","5","1","1","2","4","1","2","3","3","7","5","2","3","2","5","2","5","7","7","6","7","7","6","3","3","2","4","5","2","7","6","6","766385413542907906","梁","514","Male","[""坏我"",""坏他"",""好我"",""好他""]","[""弱我"",""弱他"",""强我"",""强他""]","","","","","","","","2","","","","","","","","","SRET","SRET_math_calculate","","key","2","6.94468461538468","960","536","","","","","19-17= ?","2","1","","","","","","","",""
"1870","","7","psychophysics","111","351148","0.0-7.0-5.0-0.8","3","1","2","3","2","4","3","2","3","4","5","-2","0","-1","-2","-3","0","1","2","5","4","5","5","4","5","4","3","4","4","4","6","7","7","3","3","5","4","8","4","6","3","7","4","3","6","3","2","5","1","1","2","4","1","2","3","3","7","5","2","3","2","5","2","5","7","7","6","7","7","6","3","3","2","4","5","2","7","6","6","766385413542907906","梁","514","Male","[""坏我"",""坏他"",""好我"",""好他""]","[""弱我"",""弱他"",""强我"",""强他""]","","","","","","","","7","","","","","","","","","SRET","SRET_math_calculate","","key","7","6.9442565055762255","960","536","","","","","1+6= ?","7","1","","","","","","","",""
"1879","","5","psychophysics","112","353029","0.0-7.0-5.0-0.9","3","1","2","3","2","4","3","2","3","4","5","-2","0","-1","-2","-3","0","1","2","5","4","5","5","4","5","4","3","4","4","4","6","7","7","3","3","5","4","8","4","6","3","7","4","3","6","3","2","5","1","1","2","4","1","2","3","3","7","5","2","3","2","5","2","5","7","7","6","7","7","6","3","3","2","4","5","2","7","6","6","766385413542907906","梁","514","Male","[""坏我"",""坏他"",""好我"",""好他""]","[""弱我"",""弱他"",""强我"",""强他""]","","","","","","","","5","","","","","","","","","SRET","SRET_math_calculate","","key","5","6.944448148148108","960","536","","","","","10-5= ?","5","1","","","","","","","",""
"1942","","7","psychophysics","113","354973","0.0-7.0-5.0-0.10","3","1","2","3","2","4","3","2","3","4","5","-2","0","-1","-2","-3","0","1","2","5","4","5","5","4","5","4","3","4","4","4","6","7","7","3","3","5","4","8","4","6","3","7","4","3","6","3","2","5","1","1","2","4","1","2","3","3","7","5","2","3","2","5","2","5","7","7","6","7","7","6","3","3","2","4","5","2","7","6","6","766385413542907906","梁","514","Male","[""坏我"",""坏他"",""好我"",""好他""]","[""弱我"",""弱他"",""强我"",""强他""]","","","","","","","","7","","","","","","","","","SRET","SRET_math_calculate","","key","7","6.9443620071685075","960","536","","","","","4+3= ?","7","1","","","","","","","",""
"2078","","8","psychophysics","114","357052","0.0-7.0-5.0-0.11","3","1","2","3","2","4","3","2","3","4","5","-2","0","-1","-2","-3","0","1","2","5","4","5","5","4","5","4","3","4","4","4","6","7","7","3","3","5","4","8","4","6","3","7","4","3","6","3","2","5","1","1","2","4","1","2","3","3","7","5","2","3","2","5","2","5","7","7","6","7","7","6","3","3","2","4","5","2","7","6","6","766385413542907906","梁","514","Male","[""坏我"",""坏他"",""好我"",""好他""]","[""弱我"",""弱他"",""强我"",""强他""]","","","","","","","","8","","","","","","","","","SRET","SRET_math_calculate","","key","8","6.944335570469836","960","536","","","","","72/9= ?","8","1","","","","","","","",""
"1798","","8","psychophysics","115","358852","0.0-7.0-5.0-0.12","3","1","2","3","2","4","3","2","3","4","5","-2","0","-1","-2","-3","0","1","2","5","4","5","5","4","5","4","3","4","4","4","6","7","7","3","3","5","4","8","4","6","3","7","4","3","6","3","2","5","1","1","2","4","1","2","3","3","7","5","2","3","2","5","2","5","7","7","6","7","7","6","3","3","2","4","5","2","7","6","6","766385413542907906","梁","514","Male","[""坏我"",""坏他"",""好我"",""好他""]","[""弱我"",""弱他"",""强我"",""强他""]","","","","","","","","8","","","","","","","","","SRET","SRET_math_calculate","","key","8","6.944182170542587","960","536","","","","","5+3= ?","8","1","","","","","","","",""
"1750","","8","psychophysics","116","360604","0.0-7.0-5.0-0.13","3","1","2","3","2","4","3","2","3","4","5","-2","0","-1","-2","-3","0","1","2","5","4","5","5","4","5","4","3","4","4","4","6","7","7","3","3","5","4","8","4","6","3","7","4","3","6","3","2","5","1","1","2","4","1","2","3","3","7","5","2","3","2","5","2","5","7","7","6","7","7","6","3","3","2","4","5","2","7","6","6","766385413542907906","梁","514","Male","[""坏我"",""坏他"",""好我"",""好他""]","[""弱我"",""弱他"",""强我"",""强他""]","","","","","","","","8","","","","","","","","","SRET","SRET_math_calculate","","key","8","6.944420634920659","960","536","","","","","9-1= ?","8","1","","","","","","","",""
"1934","","6","psychophysics","117","362541","0.0-7.0-5.0-0.14","3","1","2","3","2","4","3","2","3","4","5","-2","0","-1","-2","-3","0","1","2","5","4","5","5","4","5","4","3","4","4","4","6","7","7","3","3","5","4","8","4","6","3","7","4","3","6","3","2","5","1","1","2","4","1","2","3","3","7","5","2","3","2","5","2","5","7","7","6","7","7","6","3","3","2","4","5","2","7","6","6","766385413542907906","梁","514","Male","[""坏我"",""坏他"",""好我"",""好他""]","[""弱我"",""弱他"",""强我"",""强他""]","","","","","","","","6","","","","","","","","","SRET","SRET_math_calculate","","key","6","6.944249097472822","960","536","","","","","11-5= ?","6","1","","","","","","","",""
"1782","","6","psychophysics","118","364325","0.0-7.0-5.0-0.15","3","1","2","3","2","4","3","2","3","4","5","-2","0","-1","-2","-3","0","1","2","5","4","5","5","4","5","4","3","4","4","4","6","7","7","3","3","5","4","8","4","6","3","7","4","3","6","3","2","5","1","1","2","4","1","2","3","3","7","5","2","3","2","5","2","5","7","7","6","7","7","6","3","3","2","4","5","2","7","6","6","766385413542907906","梁","514","Male","[""坏我"",""坏他"",""好我"",""好他""]","[""弱我"",""弱他"",""强我"",""强他""]","","","","","","","","6","","","","","","","","","SRET","SRET_math_calculate","","key","6","6.944632812500004","960","536","","","","","5+1= ?","6","1","","","","","","","",""
"1934","","2","psychophysics","119","366261","0.0-7.0-5.0-0.16","3","1","2","3","2","4","3","2","3","4","5","-2","0","-1","-2","-3","0","1","2","5","4","5","5","4","5","4","3","4","4","4","6","7","7","3","3","5","4","8","4","6","3","7","4","3","6","3","2","5","1","1","2","4","1","2","3","3","7","5","2","3","2","5","2","5","7","7","6","7","7","6","3","3","2","4","5","2","7","6","6","766385413542907906","梁","514","Male","[""坏我"",""坏他"",""好我"",""好他""]","[""弱我"",""弱他"",""强我"",""强他""]","","","","","","","","2","","","","","","","","","SRET","SRET_math_calculate","","key","2","7.045605839416003","960","536","","","","","22/11= ?","2","1","","","","","","","",""
"1846","","5","psychophysics","120","368108","0.0-7.0-5.0-0.17","3","1","2","3","2","4","3","2","3","4","5","-2","0","-1","-2","-3","0","1","2","5","4","5","5","4","5","4","3","4","4","4","6","7","7","3","3","5","4","8","4","6","3","7","4","3","6","3","2","5","1","1","2","4","1","2","3","3","7","5","2","3","2","5","2","5","7","7","6","7","7","6","3","3","2","4","5","2","7","6","6","766385413542907906","梁","514","Male","[""坏我"",""坏他"",""好我"",""好他""]","[""弱我"",""弱他"",""强我"",""强他""]","","","","","","","","5","","","","","","","","","SRET","SRET_math_calculate","","key","5","6.944411320754608","960","536","","","","","17-12= ? ","5","1","","","","","","","",""
"1886","","0","psychophysics","121","369996","0.0-7.0-5.0-0.18","3","1","2","3","2","4","3","2","3","4","5","-2","0","-1","-2","-3","0","1","2","5","4","5","5","4","5","4","3","4","4","4","6","7","7","3","3","5","4","8","4","6","3","7","4","3","6","3","2","5","1","1","2","4","1","2","3","3","7","5","2","3","2","5","2","5","7","7","6","7","7","6","3","3","2","4","5","2","7","6","6","766385413542907906","梁","514","Male","[""坏我"",""坏他"",""好我"",""好他""]","[""弱我"",""弱他"",""强我"",""强他""]","","","","","","","","0","","","","","","","","","SRET","SRET_math_calculate","","key","0","6.944594095940908","960","536","","","","","9-9= ?","0","1","","","","","","","",""
"1704","","4","psychophysics","122","371703","0.0-7.0-5.0-0.19","3","1","2","3","2","4","3","2","3","4","5","-2","0","-1","-2","-3","0","1","2","5","4","5","5","4","5","4","3","4","4","4","6","7","7","3","3","5","4","8","4","6","3","7","4","3","6","3","2","5","1","1","2","4","1","2","3","3","7","5","2","3","2","5","2","5","7","7","6","7","7","6","3","3","2","4","5","2","7","6","6","766385413542907906","梁","514","Male","[""坏我"",""坏他"",""好我"",""好他""]","[""弱我"",""弱他"",""强我"",""强他""]","","","","","","","","4","","","","","","","","","SRET","SRET_math_calculate","","key","4","6.944746938775465","960","536","","","","","4*1= ?","4","1","","","","","","","",""
"1975","","9","psychophysics","123","373692","0.0-7.0-5.0-0.20","3","1","2","3","2","4","3","2","3","4","5","-2","0","-1","-2","-3","0","1","2","5","4","5","5","4","5","4","3","4","4","4","6","7","7","3","3","5","4","8","4","6","3","7","4","3","6","3","2","5","1","1","2","4","1","2","3","3","7","5","2","3","2","5","2","5","7","7","6","7","7","6","3","3","2","4","5","2","7","6","6","766385413542907906","梁","514","Male","[""坏我"",""坏他"",""好我"",""好他""]","[""弱我"",""弱他"",""强我"",""强他""]","","","","","","","","9","","","","","","","","","SRET","SRET_math_calculate","","key","9","6.944235087719362","960","536","","","","","2+7= ?","9","1","","","","","","","",""
"1827","","7","psychophysics","124","375524","0.0-7.0-5.0-0.21","3","1","2","3","2","4","3","2","3","4","5","-2","0","-1","-2","-3","0","1","2","5","4","5","5","4","5","4","3","4","4","4","6","7","7","3","3","5","4","8","4","6","3","7","4","3","6","3","2","5","1","1","2","4","1","2","3","3","7","5","2","3","2","5","2","5","7","7","6","7","7","6","3","3","2","4","5","2","7","6","6","766385413542907906","梁","514","Male","[""坏我"",""坏他"",""好我"",""好他""]","[""弱我"",""弱他"",""强我"",""强他""]","","","","","","","","7","","","","","","","","","SRET","SRET_math_calculate","","key","7","6.9444334600760405","960","536","","","","","2+5= ?","7","1","","","","","","","",""
"1846","","6","psychophysics","125","377372","0.0-7.0-5.0-0.22","3","1","2","3","2","4","3","2","3","4","5","-2","0","-1","-2","-3","0","1","2","5","4","5","5","4","5","4","3","4","4","4","6","7","7","3","3","5","4","8","4","6","3","7","4","3","6","3","2","5","1","1","2","4","1","2","3","3","7","5","2","3","2","5","2","5","7","7","6","7","7","6","3","3","2","4","5","2","7","6","6","766385413542907906","梁","514","Male","[""坏我"",""坏他"",""好我"",""好他""]","[""弱我"",""弱他"",""强我"",""强他""]","","","","","","","","6","","","","","","","","","SRET","SRET_math_calculate","","key","6","6.9445207547170185","960","536","","","","","3*2= ?","6","1","","","","","","","",""
"1957","","0","psychophysics","126","379332","0.0-7.0-5.0-0.23","3","1","2","3","2","4","3","2","3","4","5","-2","0","-1","-2","-3","0","1","2","5","4","5","5","4","5","4","3","4","4","4","6","7","7","3","3","5","4","8","4","6","3","7","4","3","6","3","2","5","1","1","2","4","1","2","3","3","7","5","2","3","2","5","2","5","7","7","6","7","7","6","3","3","2","4","5","2","7","6","6","766385413542907906","梁","514","Male","[""坏我"",""坏他"",""好我"",""好他""]","[""弱我"",""弱他"",""强我"",""强他""]","","","","","","","","0","","","","","","","","","SRET","SRET_math_calculate","","key","0","6.944526690391499","960","536","","","","","6*0= ?","0","1","","","","","","","",""
"1758","","1","psychophysics","127","381092","0.0-7.0-5.0-0.24","3","1","2","3","2","4","3","2","3","4","5","-2","0","-1","-2","-3","0","1","2","5","4","5","5","4","5","4","3","4","4","4","6","7","7","3","3","5","4","8","4","6","3","7","4","3","6","3","2","5","1","1","2","4","1","2","3","3","7","5","2","3","2","5","2","5","7","7","6","7","7","6","3","3","2","4","5","2","7","6","6","766385413542907906","梁","514","Male","[""坏我"",""坏他"",""好我"",""好他""]","[""弱我"",""弱他"",""强我"",""强他""]","","","","","","","","1","","","","","","","","","SRET","SRET_math_calculate","","key","1","6.944478260869484","960","536","","","","","4/4= ?","1","1","","","","","","","",""
"1758","","5","psychophysics","128","382852","0.0-7.0-5.0-0.25","3","1","2","3","2","4","3","2","3","4","5","-2","0","-1","-2","-3","0","1","2","5","4","5","5","4","5","4","3","4","4","4","6","7","7","3","3","5","4","8","4","6","3","7","4","3","6","3","2","5","1","1","2","4","1","2","3","3","7","5","2","3","2","5","2","5","7","7","6","7","7","6","3","3","2","4","5","2","7","6","6","766385413542907906","梁","514","Male","[""坏我"",""坏他"",""好我"",""好他""]","[""弱我"",""弱他"",""强我"",""强他""]","","","","","","","","5","","","","","","","","","SRET","SRET_math_calculate","","key","5","6.94448809523809","960","536","","","","","2+3= ?","5","1","","","","","","","",""
"2014","","1","psychophysics","129","384868","0.0-7.0-5.0-0.26","3","1","2","3","2","4","3","2","3","4","5","-2","0","-1","-2","-3","0","1","2","5","4","5","5","4","5","4","3","4","4","4","6","7","7","3","3","5","4","8","4","6","3","7","4","3","6","3","2","5","1","1","2","4","1","2","3","3","7","5","2","3","2","5","2","5","7","7","6","7","7","6","3","3","2","4","5","2","7","6","6","766385413542907906","梁","514","Male","[""坏我"",""坏他"",""好我"",""好他""]","[""弱我"",""弱他"",""强我"",""强他""]","","","","","","","","1","","","","","","","","","SRET","SRET_math_calculate","","key","1","6.944248275862051","960","536","","","","","30-29= ?","1","1","","","","","","","",""
"2020","","3","psychophysics","130","386892","0.0-7.0-5.0-0.27","3","1","2","3","2","4","3","2","3","4","5","-2","0","-1","-2","-3","0","1","2","5","4","5","5","4","5","4","3","4","4","4","6","7","7","3","3","5","4","8","4","6","3","7","4","3","6","3","2","5","1","1","2","4","1","2","3","3","7","5","2","3","2","5","2","5","7","7","6","7","7","6","3","3","2","4","5","2","7","6","6","766385413542907906","梁","514","Male","[""坏我"",""坏他"",""好我"",""好他""]","[""弱我"",""弱他"",""强我"",""强他""]","","","","","","","","3","","","","","","","","","SRET","SRET_math_calculate","","key","3","6.9442275862069","960","536","","","","","6/2= ?","3","1","","","","","","","",""
"1814","","2","psychophysics","131","388709","0.0-7.0-5.0-0.28","3","1","2","3","2","4","3","2","3","4","5","-2","0","-1","-2","-3","0","1","2","5","4","5","5","4","5","4","3","4","4","4","6","7","7","3","3","5","4","8","4","6","3","7","4","3","6","3","2","5","1","1","2","4","1","2","3","3","7","5","2","3","2","5","2","5","7","7","6","7","7","6","3","3","2","4","5","2","7","6","6","766385413542907906","梁","514","Male","[""坏我"",""坏他"",""好我"",""好他""]","[""弱我"",""弱他"",""强我"",""强他""]","","","","","","","","2","","","","","","","","","SRET","SRET_math_calculate","","key","2","6.9447203065133545","960","536","","","","","8-6= ?","2","1","","","","","","","",""
"1879","","2","psychophysics","132","390590","0.0-7.0-5.0-0.29","3","1","2","3","2","4","3","2","3","4","5","-2","0","-1","-2","-3","0","1","2","5","4","5","5","4","5","4","3","4","4","4","6","7","7","3","3","5","4","8","4","6","3","7","4","3","6","3","2","5","1","1","2","4","1","2","3","3","7","5","2","3","2","5","2","5","7","7","6","7","7","6","3","3","2","4","5","2","7","6","6","766385413542907906","梁","514","Male","[""坏我"",""坏他"",""好我"",""好他""]","[""弱我"",""弱他"",""强我"",""强他""]","","","","","","","","2","","","","","","","","","SRET","SRET_math_calculate","","key","2","6.944869888475776","960","536","","","","","1+1= ?","2","1","","","","","","","",""
"2002","","7","psychophysics","133","392597","0.0-7.0-5.0-0.30","3","1","2","3","2","4","3","2","3","4","5","-2","0","-1","-2","-3","0","1","2","5","4","5","5","4","5","4","3","4","4","4","6","7","7","3","3","5","4","8","4","6","3","7","4","3","6","3","2","5","1","1","2","4","1","2","3","3","7","5","2","3","2","5","2","5","7","7","6","7","7","6","3","3","2","4","5","2","7","6","6","766385413542907906","梁","514","Male","[""坏我"",""坏他"",""好我"",""好他""]","[""弱我"",""弱他"",""强我"",""强他""]","","","","","","","","7","","","","","","","","","SRET","SRET_math_calculate","","key","7","6.943865051903121","960","536","","","","","13-6= ?","7","1","","","","","","","",""
"1805","","0","psychophysics","134","394404","0.0-7.0-5.0-0.31","3","1","2","3","2","4","3","2","3","4","5","-2","0","-1","-2","-3","0","1","2","5","4","5","5","4","5","4","3","4","4","4","6","7","7","3","3","5","4","8","4","6","3","7","4","3","6","3","2","5","1","1","2","4","1","2","3","3","7","5","2","3","2","5","2","5","7","7","6","7","7","6","3","3","2","4","5","2","7","6","6","766385413542907906","梁","514","Male","[""坏我"",""坏他"",""好我"",""好他""]","[""弱我"",""弱他"",""强我"",""强他""]","","","","","","","","0","","","","","","","","","SRET","SRET_math_calculate","","key","0","6.944687258687255","960","536","","","","","22-22= ?","0","1","","","","","","","",""
"1781","","9","psychophysics","135","396188","0.0-7.0-5.0-0.32","3","1","2","3","2","4","3","2","3","4","5","-2","0","-1","-2","-3","0","1","2","5","4","5","5","4","5","4","3","4","4","4","6","7","7","3","3","5","4","8","4","6","3","7","4","3","6","3","2","5","1","1","2","4","1","2","3","3","7","5","2","3","2","5","2","5","7","7","6","7","7","6","3","3","2","4","5","2","7","6","6","766385413542907906","梁","514","Male","[""坏我"",""坏他"",""好我"",""好他""]","[""弱我"",""弱他"",""强我"",""强他""]","","","","","","","","9","","","","","","","","","SRET","SRET_math_calculate","","key","9","6.9443632812499345","960","536","","","","","8+1= ?","9","1","","","","","","","",""
"2278","","8","psychophysics","136","398468","0.0-7.0-5.0-0.33","3","1","2","3","2","4","3","2","3","4","5","-2","0","-1","-2","-3","0","1","2","5","4","5","5","4","5","4","3","4","4","4","6","7","7","3","3","5","4","8","4","6","3","7","4","3","6","3","2","5","1","1","2","4","1","2","3","3","7","5","2","3","2","5","2","5","7","7","6","7","7","6","3","3","2","4","5","2","7","6","6","766385413542907906","梁","514","Male","[""坏我"",""坏他"",""好我"",""好他""]","[""弱我"",""弱他"",""强我"",""强他""]","","","","","","","","8","","","","","","","","","SRET","SRET_math_calculate","","key","8","6.944626911314929","960","536","","","","","2*4= ?","8","1","","","","","","","",""
"2038","","9","psychophysics","137","400508","0.0-7.0-5.0-0.34","3","1","2","3","2","4","3","2","3","4","5","-2","0","-1","-2","-3","0","1","2","5","4","5","5","4","5","4","3","4","4","4","6","7","7","3","3","5","4","8","4","6","3","7","4","3","6","3","2","5","1","1","2","4","1","2","3","3","7","5","2","3","2","5","2","5","7","7","6","7","7","6","3","3","2","4","5","2","7","6","6","766385413542907906","梁","514","Male","[""坏我"",""坏他"",""好我"",""好他""]","[""弱我"",""弱他"",""强我"",""强他""]","","","","","","","","9","","","","","","","","","SRET","SRET_math_calculate","","key","9","6.944621160409474","960","536","","","","","3*3= ?","9","1","","","","","","","",""
"1789","","8","psychophysics","138","402300","0.0-7.0-5.0-0.35","3","1","2","3","2","4","3","2","3","4","5","-2","0","-1","-2","-3","0","1","2","5","4","5","5","4","5","4","3","4","4","4","6","7","7","3","3","5","4","8","4","6","3","7","4","3","6","3","2","5","1","1","2","4","1","2","3","3","7","5","2","3","2","5","2","5","7","7","6","7","7","6","3","3","2","4","5","2","7","6","6","766385413542907906","梁","514","Male","[""坏我"",""坏他"",""好我"",""好他""]","[""弱我"",""弱他"",""强我"",""强他""]","","","","","","","","8","","","","","","","","","SRET","SRET_math_calculate","","key","8","6.944661478599414","960","536","","","","","1+7= ?","8","1","","","","","","","",""
"1886","","2","psychophysics","139","404188","0.0-7.0-5.0-0.36","3","1","2","3","2","4","3","2","3","4","5","-2","0","-1","-2","-3","0","1","2","5","4","5","5","4","5","4","3","4","4","4","6","7","7","3","3","5","4","8","4","6","3","7","4","3","6","3","2","5","1","1","2","4","1","2","3","3","7","5","2","3","2","5","2","5","7","7","6","7","7","6","3","3","2","4","5","2","7","6","6","766385413542907906","梁","514","Male","[""坏我"",""坏他"",""好我"",""好他""]","[""弱我"",""弱他"",""强我"",""强他""]","","","","","","","","2","","","","","","","","","SRET","SRET_math_calculate","","key","2","6.944428044280452","960","536","","","","","8/4= ?","2","1","","","","","","","",""
"1958","","8","psychophysics","140","406148","0.0-7.0-5.0-0.37","3","1","2","3","2","4","3","2","3","4","5","-2","0","-1","-2","-3","0","1","2","5","4","5","5","4","5","4","3","4","4","4","6","7","7","3","3","5","4","8","4","6","3","7","4","3","6","3","2","5","1","1","2","4","1","2","3","3","7","5","2","3","2","5","2","5","7","7","6","7","7","6","3","3","2","4","5","2","7","6","6","766385413542907906","梁","514","Male","[""坏我"",""坏他"",""好我"",""好他""]","[""弱我"",""弱他"",""强我"",""强他""]","","","","","","","","8","","","","","","","","","SRET","SRET_math_calculate","","key","8","6.944530249110322","960","536","","","","","50-42= ?","8","1","","","","","","","",""
"1798","","4","psychophysics","141","407948","0.0-7.0-5.0-0.38","3","1","2","3","2","4","3","2","3","4","5","-2","0","-1","-2","-3","0","1","2","5","4","5","5","4","5","4","3","4","4","4","6","7","7","3","3","5","4","8","4","6","3","7","4","3","6","3","2","5","1","1","2","4","1","2","3","3","7","5","2","3","2","5","2","5","7","7","6","7","7","6","3","3","2","4","5","2","7","6","6","766385413542907906","梁","514","Male","[""坏我"",""坏他"",""好我"",""好他""]","[""弱我"",""弱他"",""强我"",""强他""]","","","","","","","","4","","","","","","","","","SRET","SRET_math_calculate","","key","4","7.026082352941226","960","536","","","","","2+2= ?","4","1","","","","","","","",""
"1814","","9","psychophysics","142","409764","0.0-7.0-5.0-0.39","3","1","2","3","2","4","3","2","3","4","5","-2","0","-1","-2","-3","0","1","2","5","4","5","5","4","5","4","3","4","4","4","6","7","7","3","3","5","4","8","4","6","3","7","4","3","6","3","2","5","1","1","2","4","1","2","3","3","7","5","2","3","2","5","2","5","7","7","6","7","7","6","3","3","2","4","5","2","7","6","6","766385413542907906","梁","514","Male","[""坏我"",""坏他"",""好我"",""好他""]","[""弱我"",""弱他"",""强我"",""强他""]","","","","","","","","9","","","","","","","","","SRET","SRET_math_calculate","","key","9","6.944632183908042","960","536","","","","","1*9= ?","9","1","","","","","","","",""
