"rt","stimulus","response","trial_type","trial_index","time_elapsed","internal_node_id","swb_1","swb_2","swb_3","swb_4","swb_5","LOT_1","LOT_2","LOT_3","LOT_4","LOT_5","LOT_6","IPC_1","IPC_2","IPC_3","IPC_4","IPC_5","IPC_6","IPC_7","IPC_8","MorIden_1","MorIden_2","MorIden_3","MorIden_4","MorIden_5","MorIden_6","MorIden_7","MorIden_8","MorIden_9","MorIden_10","moralSeImag_1","moralSeImag_2","moralSeImag_3","moralSeImag_4","moralSeImag_5","moralSeImag_6","moralSeImag_7","moralSeImag_8","moralSeImag_9","sde_1","sde_2","sde_3","sde_4","sde_5","sde_6","sde_7","sde_8","sde_9","sde_10","trap2","sde_11","sde_12","sde_13","sde_14","sde_15","sde_16","sde_17","sde_18","sde_19","sde_20","IM_1","IM_2","IM_3","IM_4","IM_5","IM_6","IM_7","IM_8","IM_9","IM_10","IM_11","IM_12","IM_13","IM_14","IM_15","IM_16","IM_17","IM_18","IM_19","IM_20","subj_idx","friend_name","ParticipantID","Sex","Word","Word2","value","success","timeout","failed_images","failed_audio","failed_video","user_agent","responses","item_order","radio_event_ids","radio_event_times","key_event_times","mouse_event_times","straightlining","zigzagging","honeypot","view_history","response_type","key_press","avg_frame_time","center_x","center_y","correct_response","correct","identity","Image","word","condition","task_id","screen_id","time_stamp","person","valence","domain","math","status","duration","question_order","trap2_item"
"1926","
   <p><div style='color:white; font-size: 25px'>您好，欢迎参加本次实验。</div></p>
   <p><div style='color:white; font-size: 25px'>为充分保障您的权利，请确保您已经知晓并同意《参与实验同意书》以及《数据公开知情同意书》。</div></p>
   <p><div style='color:white; font-size: 25px'>如果您未见过上述内容，请咨询实验员。</div></p>
   <p style='color:white; font-size: 25px'>如果您选择继续实验，则表示您已经清楚两份知情同意书的内容并同意。</p>
   <p><div style = ""color: pink;font-size:30px;"">请确保您记得day0的实验编号，您将在本次实验输入该编号，若您忘记，请咨询实验员后作答。</div></p>
   <p><div style = ""color:lightblue;font-size:25px;"">请您尽可能认真地作答，我们将依据您在各问卷和按键任务中的作答质量发放报酬。</div></p>
   <p> <div style = ""color: green""><按空格键至下页></div> </p>
   "," ","html-keyboard-response","0","1933","0.0-0.0","5","4","6","5","7","4","4","5","4","5","5","-1","1","1","2","-2","1","1","2","5","5","5","5","4","5","4","4","5","4","7","8","7","8","8","7","8","7","8","5","3","6","5","5","3","6","2","3","3","1","5","3","6","3","3","5","4","4","5","4","4","6","6","5","3","6","5","6","7","5","5","6","5","4","6","5","5","6","3","5","797758262056460290","叶","207","Male","[""好他"",""坏我"",""坏他"",""好我""]","[""强他"",""弱我"",""弱他"",""强我""]","","","","","","","","","","","","","","","","","","","","","","","","","","","","","","","","","","","","","","",""
"","","","call-function","1","1935","0.0-1.0-0.0","5","4","6","5","7","4","4","5","4","5","5","-1","1","1","2","-2","1","1","2","5","5","5","5","4","5","4","4","5","4","7","8","7","8","8","7","8","7","8","5","3","6","5","5","3","6","2","3","3","1","5","3","6","3","3","5","4","4","5","4","4","6","6","5","3","6","5","6","7","5","5","6","5","4","6","5","5","6","3","5","797758262056460290","叶","207","Male","[""好他"",""坏我"",""坏他"",""好我""]","[""强他"",""弱我"",""弱他"",""强我""]","","","","","","","","","","","","","","","","","","","","","","","","","","","","","","","","","","","","","","",""
"25651","","[{""name"":""Sex"",""value"":""0""},{""name"":""friend_name"",""value"":""叶""},{""name"":""ParticipantID"",""value"":""207""}]","survey-html-form","2","27589","0.0-1.0-1.0","5","4","6","5","7","4","4","5","4","5","5","-1","1","1","2","-2","1","1","2","5","5","5","5","4","5","4","4","5","4","7","8","7","8","8","7","8","7","8","5","3","6","5","5","3","6","2","3","3","1","5","3","6","3","3","5","4","4","5","4","4","6","6","5","3","6","5","6","7","5","5","6","5","4","6","5","5","6","3","5","797758262056460290","叶","207","Male","[""好他"",""坏我"",""坏他"",""好我""]","[""强他"",""弱我"",""弱他"",""强我""]","","","","","","","","","","","","","","","","","","","","","","","","","","","","","","","","","","","","","","",""
"","","","preload","3","28602","0.0-2.0","5","4","6","5","7","4","4","5","4","5","5","-1","1","1","2","-2","1","1","2","5","5","5","5","4","5","4","4","5","4","7","8","7","8","8","7","8","7","8","5","3","6","5","5","3","6","2","3","3","1","5","3","6","3","3","5","4","4","5","4","4","6","6","5","3","6","5","6","7","5","5","6","5","4","6","5","5","6","3","5","797758262056460290","叶","207","Male","[""好他"",""坏我"",""坏他"",""好我""]","[""强他"",""弱我"",""弱他"",""强我""]","","true","false","[]","[]","[]","","","","","","","","","","","","","","","","","","","","","","","","","","","","","","","","",""
"","","","fullscreen","4","30327","0.0-3.0","5","4","6","5","7","4","4","5","4","5","5","-1","1","1","2","-2","1","1","2","5","5","5","5","4","5","4","4","5","4","7","8","7","8","8","7","8","7","8","5","3","6","5","5","3","6","2","3","3","1","5","3","6","3","3","5","4","4","5","4","4","6","6","5","3","6","5","6","7","5","5","6","5","4","6","5","5","6","3","5","797758262056460290","叶","207","Male","[""好他"",""坏我"",""坏他"",""好我""]","[""强他"",""弱我"",""弱他"",""强我""]","","true","","","","","{}","","","","","","","","","","","","","","","","","","","","","","","","","","","","","","","",""
"32101","","{""Q01"":""5"",""Q02"":""4"",""Q03"":""6"",""Q04"":""5"",""Q05"":""7""}","survey-template","5","62441","0.0-4.0","5","4","6","5","7","4","4","5","4","5","5","-1","1","1","2","-2","1","1","2","5","5","5","5","4","5","4","4","5","4","7","8","7","8","8","7","8","7","8","5","3","6","5","5","3","6","2","3","3","1","5","3","6","3","3","5","4","4","5","4","4","6","6","5","3","6","5","6","7","5","5","6","5","4","6","5","5","6","3","5","797758262056460290","叶","207","Male","[""好他"",""坏我"",""坏他"",""好我""]","[""强他"",""弱我"",""弱他"",""强我""]","","","","","","","","{""Q01"":""5"",""Q02"":""4"",""Q03"":""6"",""Q04"":""5"",""Q05"":""7""}","[0,1,2,3,4]","[""Q01"",""Q02"",""Q03"",""Q04"",""Q05""]","[7514.700000000186,11962,12914.100000000559,15905.900000000373,17217.799999999814]","[]","[7514.700000000186,11962,12914.100000000559,15905.900000000373,16818.10000000056,17217.799999999814,32097.60000000056]","0.4","0.5","0","","","","","","","","","","","","","","","","","","","","","","",""
"16767.299999999814","","{""Q01"":""4"",""Q02"":""4"",""Q03"":""5"",""Q04"":""4"",""Q05"":""5"",""Q06"":""5""}","survey-template","6","79224","0.0-5.0","5","4","6","5","7","4","4","5","4","5","5","-1","1","1","2","-2","1","1","2","5","5","5","5","4","5","4","4","5","4","7","8","7","8","8","7","8","7","8","5","3","6","5","5","3","6","2","3","3","1","5","3","6","3","3","5","4","4","5","4","4","6","6","5","3","6","5","6","7","5","5","6","5","4","6","5","5","6","3","5","797758262056460290","叶","207","Male","[""好他"",""坏我"",""坏他"",""好我""]","[""强他"",""弱我"",""弱他"",""强我""]","","","","","","","","{""Q01"":""4"",""Q02"":""4"",""Q03"":""5"",""Q04"":""4"",""Q05"":""5"",""Q06"":""5""}","[0,1,2,3,4,5]","[""Q01"",""Q02"",""Q03"",""Q04"",""Q05"",""Q06""]","[2565.2000000001863,5437.200000000186,6805.200000000186,8237.099999999627,9716.899999999441,11788.899999999441]","[]","[2565.2000000001863,5437.200000000186,6237.200000000186,6805.200000000186,8237.099999999627,9053.099999999627,9716.899999999441,11013.099999999627,11412.799999999814,11788.899999999441,16765]","0.3333333333333333","0.4","0","","","","","","","","","","","","","","","","","","","","","","",""
"29714.89999999944","","{""Q01"":""-1"",""Q02"":""1"",""Q03"":""1"",""Q04"":""2"",""Q05"":""-2"",""Q06"":""1"",""Q07"":""1"",""Q08"":""2""}","survey-template","7","108953","0.0-6.0","5","4","6","5","7","4","4","5","4","5","5","-1","1","1","2","-2","1","1","2","5","5","5","5","4","5","4","4","5","4","7","8","7","8","8","7","8","7","8","5","3","6","5","5","3","6","2","3","3","1","5","3","6","3","3","5","4","4","5","4","4","6","6","5","3","6","5","6","7","5","5","6","5","4","6","5","5","6","3","5","797758262056460290","叶","207","Male","[""好他"",""坏我"",""坏他"",""好我""]","[""强他"",""弱我"",""弱他"",""强我""]","","","","","","","","{""Q01"":""-1"",""Q02"":""1"",""Q03"":""1"",""Q04"":""2"",""Q05"":""-2"",""Q06"":""1"",""Q07"":""1"",""Q08"":""2""}","[0,1,2,3,4,5,6,7]","[""Q01"",""Q02"",""Q03"",""Q04"",""Q05"",""Q06"",""Q07"",""Q08""]","[2151.899999999441,10447.5,11343.599999999627,12543.799999999814,14071.700000000186,17839.299999999814,19960,21127.5]","[]","[2151.899999999441,10447.5,11343.599999999627,12543.799999999814,14071.700000000186,17839.299999999814,19023.89999999944,19960,21127.5,29711.5]","0.5","0.2857142857142857","0","","","","","","","","","","","","","","","","","","","","","","",""
"7408","","","instructions","8","116372","0.0-7.0","5","4","6","5","7","4","4","5","4","5","5","-1","1","1","2","-2","1","1","2","5","5","5","5","4","5","4","4","5","4","7","8","7","8","8","7","8","7","8","5","3","6","5","5","3","6","2","3","3","1","5","3","6","3","3","5","4","4","5","4","4","6","6","5","3","6","5","6","7","5","5","6","5","4","6","5","5","6","3","5","797758262056460290","叶","207","Male","[""好他"",""坏我"",""坏他"",""好我""]","[""强他"",""弱我"",""弱他"",""强我""]","","","","","","","","","","","","","","","","","[{""page_index"":0,""viewing_time"":7407}]","","","","","","","","","","","","","","","","","","","","","",""
"47057","","","instructions","9","163435","0.0-8.0-1.0-0.0","5","4","6","5","7","4","4","5","4","5","5","-1","1","1","2","-2","1","1","2","5","5","5","5","4","5","4","4","5","4","7","8","7","8","8","7","8","7","8","5","3","6","5","5","3","6","2","3","3","1","5","3","6","3","3","5","4","4","5","4","4","6","6","5","3","6","5","6","7","5","5","6","5","4","6","5","5","6","3","5","797758262056460290","叶","207","Male","[""好他"",""坏我"",""坏他"",""好我""]","[""强他"",""弱我"",""弱他"",""强我""]","","","","","","","","","","","","","","","","","[{""page_index"":0,""viewing_time"":8490},{""page_index"":1,""viewing_time"":30815},{""page_index"":2,""viewing_time"":4232},{""page_index"":3,""viewing_time"":3520}]","","","","","","","","","","","","","","","","","","","","","",""
"1169","","f","psychophysics","10","165619","0.0-8.0-1.0-1.0-0.0-0.0","5","4","6","5","7","4","4","5","4","5","5","-1","1","1","2","-2","1","1","2","5","5","5","5","4","5","4","4","5","4","7","8","7","8","8","7","8","7","8","5","3","6","5","5","3","6","2","3","3","1","5","3","6","3","3","5","4","4","5","4","4","6","6","5","3","6","5","6","7","5","5","6","5","4","6","5","5","6","3","5","797758262056460290","叶","207","Male","[""好他"",""坏我"",""坏他"",""好我""]","[""强他"",""弱我"",""弱他"",""强我""]","","","","","","","","nonmatch","","","","","","","","","","key","f","17.198743999999948","683","380","j","false","match","img/ellipse.png","强我","强我","prac_ALT2_ability","practice_ability","","","","","","","","",""
"null","<span style='color:red; font-size: 70px;'>错误! </span>","null","html-keyboard-response","11","166129","0.0-8.0-1.0-1.0-0.0-1.0","5","4","6","5","7","4","4","5","4","5","5","-1","1","1","2","-2","1","1","2","5","5","5","5","4","5","4","4","5","4","7","8","7","8","8","7","8","7","8","5","3","6","5","5","3","6","2","3","3","1","5","3","6","3","3","5","4","4","5","4","4","6","6","5","3","6","5","6","7","5","5","6","5","4","6","5","5","6","3","5","797758262056460290","叶","207","Male","[""好他"",""坏我"",""坏他"",""好我""]","[""强他"",""弱我"",""弱他"",""强我""]","","","","","","","","","","","","","","","","","","","","","","","","","","","","","","feedback_test","","","","","","","","",""
"940","","f","psychophysics","12","168077","0.0-8.0-1.0-1.0-0.0-0.1","5","4","6","5","7","4","4","5","4","5","5","-1","1","1","2","-2","1","1","2","5","5","5","5","4","5","4","4","5","4","7","8","7","8","8","7","8","7","8","5","3","6","5","5","3","6","2","3","3","1","5","3","6","3","3","5","4","4","5","4","4","6","6","5","3","6","5","6","7","5","5","6","5","4","6","5","5","6","3","5","797758262056460290","叶","207","Male","[""好他"",""坏我"",""坏他"",""好我""]","[""强他"",""弱我"",""弱他"",""强我""]","","","","","","","","nonmatch","","","","","","","","","","key","f","16.668478260869566","683","380","f","true","nonmatch","img/diamond.png","强我","弱他","prac_ALT2_ability","practice_ability","","","","","","","","",""
"null","<span style='color:GreenYellow; font-size: 70px;'>正确! </span>","null","html-keyboard-response","13","168585","0.0-8.0-1.0-1.0-0.0-1.1","5","4","6","5","7","4","4","5","4","5","5","-1","1","1","2","-2","1","1","2","5","5","5","5","4","5","4","4","5","4","7","8","7","8","8","7","8","7","8","5","3","6","5","5","3","6","2","3","3","1","5","3","6","3","3","5","4","4","5","4","4","6","6","5","3","6","5","6","7","5","5","6","5","4","6","5","5","6","3","5","797758262056460290","叶","207","Male","[""好他"",""坏我"",""坏他"",""好我""]","[""强他"",""弱我"",""弱他"",""强我""]","","","","","","","","","","","","","","","","","","","","","","","","","","","","","","feedback_test","","","","","","","","",""
"952","","f","psychophysics","14","170562","0.0-8.0-1.0-1.0-0.0-0.2","5","4","6","5","7","4","4","5","4","5","5","-1","1","1","2","-2","1","1","2","5","5","5","5","4","5","4","4","5","4","7","8","7","8","8","7","8","7","8","5","3","6","5","5","3","6","2","3","3","1","5","3","6","3","3","5","4","4","5","4","4","6","6","5","3","6","5","6","7","5","5","6","5","4","6","5","5","6","3","5","797758262056460290","叶","207","Male","[""好他"",""坏我"",""坏他"",""好我""]","[""强他"",""弱我"",""弱他"",""强我""]","","","","","","","","nonmatch","","","","","","","","","","key","f","16.664957627118614","683","380","f","true","nonmatch","img/hexagon.png","强他","弱我","prac_ALT2_ability","practice_ability","","","","","","","","",""
"null","<span style='color:GreenYellow; font-size: 70px;'>正确! </span>","null","html-keyboard-response","15","171064","0.0-8.0-1.0-1.0-0.0-1.2","5","4","6","5","7","4","4","5","4","5","5","-1","1","1","2","-2","1","1","2","5","5","5","5","4","5","4","4","5","4","7","8","7","8","8","7","8","7","8","5","3","6","5","5","3","6","2","3","3","1","5","3","6","3","3","5","4","4","5","4","4","6","6","5","3","6","5","6","7","5","5","6","5","4","6","5","5","6","3","5","797758262056460290","叶","207","Male","[""好他"",""坏我"",""坏他"",""好我""]","[""强他"",""弱我"",""弱他"",""强我""]","","","","","","","","","","","","","","","","","","","","","","","","","","","","","","feedback_test","","","","","","","","",""
"897","","f","psychophysics","16","172970","0.0-8.0-1.0-1.0-0.0-0.3","5","4","6","5","7","4","4","5","4","5","5","-1","1","1","2","-2","1","1","2","5","5","5","5","4","5","4","4","5","4","7","8","7","8","8","7","8","7","8","5","3","6","5","5","3","6","2","3","3","1","5","3","6","3","3","5","4","4","5","4","4","6","6","5","3","6","5","6","7","5","5","6","5","4","6","5","5","6","3","5","797758262056460290","叶","207","Male","[""好他"",""坏我"",""坏他"",""好我""]","[""强他"",""弱我"",""弱他"",""强我""]","","","","","","","","nonmatch","","","","","","","","","","key","f","16.66349557522129","683","380","f","true","nonmatch","img/triangle.png","弱我","强他","prac_ALT2_ability","practice_ability","","","","","","","","",""
"null","<span style='color:GreenYellow; font-size: 70px;'>正确! </span>","null","html-keyboard-response","17","173480","0.0-8.0-1.0-1.0-0.0-1.3","5","4","6","5","7","4","4","5","4","5","5","-1","1","1","2","-2","1","1","2","5","5","5","5","4","5","4","4","5","4","7","8","7","8","8","7","8","7","8","5","3","6","5","5","3","6","2","3","3","1","5","3","6","3","3","5","4","4","5","4","4","6","6","5","3","6","5","6","7","5","5","6","5","4","6","5","5","6","3","5","797758262056460290","叶","207","Male","[""好他"",""坏我"",""坏他"",""好我""]","[""强他"",""弱我"",""弱他"",""强我""]","","","","","","","","","","","","","","","","","","","","","","","","","","","","","","feedback_test","","","","","","","","",""
"1065","","j","psychophysics","18","175558","0.0-8.0-1.0-1.0-0.0-0.4","5","4","6","5","7","4","4","5","4","5","5","-1","1","1","2","-2","1","1","2","5","5","5","5","4","5","4","4","5","4","7","8","7","8","8","7","8","7","8","5","3","6","5","5","3","6","2","3","3","1","5","3","6","3","3","5","4","4","5","4","4","6","6","5","3","6","5","6","7","5","5","6","5","4","6","5","5","6","3","5","797758262056460290","叶","207","Male","[""好他"",""坏我"",""坏他"",""好我""]","[""强他"",""弱我"",""弱他"",""强我""]","","","","","","","","match","","","","","","","","","","key","j","16.6664308943091","683","380","j","true","match","img/ellipse.png","强我","强我","prac_ALT2_ability","practice_ability","","","","","","","","",""
"null","<span style='color:GreenYellow; font-size: 70px;'>正确! </span>","null","html-keyboard-response","19","176065","0.0-8.0-1.0-1.0-0.0-1.4","5","4","6","5","7","4","4","5","4","5","5","-1","1","1","2","-2","1","1","2","5","5","5","5","4","5","4","4","5","4","7","8","7","8","8","7","8","7","8","5","3","6","5","5","3","6","2","3","3","1","5","3","6","3","3","5","4","4","5","4","4","6","6","5","3","6","5","6","7","5","5","6","5","4","6","5","5","6","3","5","797758262056460290","叶","207","Male","[""好他"",""坏我"",""坏他"",""好我""]","[""强他"",""弱我"",""弱他"",""强我""]","","","","","","","","","","","","","","","","","","","","","","","","","","","","","","feedback_test","","","","","","","","",""
"820","","f","psychophysics","20","177892","0.0-8.0-1.0-1.0-0.0-0.5","5","4","6","5","7","4","4","5","4","5","5","-1","1","1","2","-2","1","1","2","5","5","5","5","4","5","4","4","5","4","7","8","7","8","8","7","8","7","8","5","3","6","5","5","3","6","2","3","3","1","5","3","6","3","3","5","4","4","5","4","4","6","6","5","3","6","5","6","7","5","5","6","5","4","6","5","5","6","3","5","797758262056460290","叶","207","Male","[""好他"",""坏我"",""坏他"",""好我""]","[""强他"",""弱我"",""弱他"",""强我""]","","","","","","","","nonmatch","","","","","","","","","","key","f","16.977570093458","683","380","f","true","nonmatch","img/ellipse.png","强他","强我","prac_ALT2_ability","practice_ability","","","","","","","","",""
"null","<span style='color:GreenYellow; font-size: 70px;'>正确! </span>","null","html-keyboard-response","21","178401","0.0-8.0-1.0-1.0-0.0-1.5","5","4","6","5","7","4","4","5","4","5","5","-1","1","1","2","-2","1","1","2","5","5","5","5","4","5","4","4","5","4","7","8","7","8","8","7","8","7","8","5","3","6","5","5","3","6","2","3","3","1","5","3","6","3","3","5","4","4","5","4","4","6","6","5","3","6","5","6","7","5","5","6","5","4","6","5","5","6","3","5","797758262056460290","叶","207","Male","[""好他"",""坏我"",""坏他"",""好我""]","[""强他"",""弱我"",""弱他"",""强我""]","","","","","","","","","","","","","","","","","","","","","","","","","","","","","","feedback_test","","","","","","","","",""
"1001","","f","psychophysics","22","180410","0.0-8.0-1.0-1.0-0.0-0.6","5","4","6","5","7","4","4","5","4","5","5","-1","1","1","2","-2","1","1","2","5","5","5","5","4","5","4","4","5","4","7","8","7","8","8","7","8","7","8","5","3","6","5","5","3","6","2","3","3","1","5","3","6","3","3","5","4","4","5","4","4","6","6","5","3","6","5","6","7","5","5","6","5","4","6","5","5","6","3","5","797758262056460290","叶","207","Male","[""好他"",""坏我"",""坏他"",""好我""]","[""强他"",""弱我"",""弱他"",""强我""]","","","","","","","","nonmatch","","","","","","","","","","key","f","16.80281355932219","683","380","f","true","nonmatch","img/ellipse.png","弱他","强我","prac_ALT2_ability","practice_ability","","","","","","","","",""
"null","<span style='color:GreenYellow; font-size: 70px;'>正确! </span>","null","html-keyboard-response","23","180913","0.0-8.0-1.0-1.0-0.0-1.6","5","4","6","5","7","4","4","5","4","5","5","-1","1","1","2","-2","1","1","2","5","5","5","5","4","5","4","4","5","4","7","8","7","8","8","7","8","7","8","5","3","6","5","5","3","6","2","3","3","1","5","3","6","3","3","5","4","4","5","4","4","6","6","5","3","6","5","6","7","5","5","6","5","4","6","5","5","6","3","5","797758262056460290","叶","207","Male","[""好他"",""坏我"",""坏他"",""好我""]","[""强他"",""弱我"",""弱他"",""强我""]","","","","","","","","","","","","","","","","","","","","","","","","","","","","","","feedback_test","","","","","","","","",""
"1165","","j","psychophysics","24","183092","0.0-8.0-1.0-1.0-0.0-0.7","5","4","6","5","7","4","4","5","4","5","5","-1","1","1","2","-2","1","1","2","5","5","5","5","4","5","4","4","5","4","7","8","7","8","8","7","8","7","8","5","3","6","5","5","3","6","2","3","3","1","5","3","6","3","3","5","4","4","5","4","4","6","6","5","3","6","5","6","7","5","5","6","5","4","6","5","5","6","3","5","797758262056460290","叶","207","Male","[""好他"",""坏我"",""坏他"",""好我""]","[""强他"",""弱我"",""弱他"",""强我""]","","","","","","","","match","","","","","","","","","","key","j","16.66700769230777","683","380","j","true","match","img/diamond.png","弱他","弱他","prac_ALT2_ability","practice_ability","","","","","","","","",""
"null","<span style='color:GreenYellow; font-size: 70px;'>正确! </span>","null","html-keyboard-response","25","183601","0.0-8.0-1.0-1.0-0.0-1.7","5","4","6","5","7","4","4","5","4","5","5","-1","1","1","2","-2","1","1","2","5","5","5","5","4","5","4","4","5","4","7","8","7","8","8","7","8","7","8","5","3","6","5","5","3","6","2","3","3","1","5","3","6","3","3","5","4","4","5","4","4","6","6","5","3","6","5","6","7","5","5","6","5","4","6","5","5","6","3","5","797758262056460290","叶","207","Male","[""好他"",""坏我"",""坏他"",""好我""]","[""强他"",""弱我"",""弱他"",""强我""]","","","","","","","","","","","","","","","","","","","","","","","","","","","","","","feedback_test","","","","","","","","",""
"876","","f","psychophysics","26","185483","0.0-8.0-1.0-1.0-0.0-0.8","5","4","6","5","7","4","4","5","4","5","5","-1","1","1","2","-2","1","1","2","5","5","5","5","4","5","4","4","5","4","7","8","7","8","8","7","8","7","8","5","3","6","5","5","3","6","2","3","3","1","5","3","6","3","3","5","4","4","5","4","4","6","6","5","3","6","5","6","7","5","5","6","5","4","6","5","5","6","3","5","797758262056460290","叶","207","Male","[""好他"",""坏我"",""坏他"",""好我""]","[""强他"",""弱我"",""弱他"",""强我""]","","","","","","","","nonmatch","","","","","","","","","","key","f","16.668699999999742","683","380","f","true","nonmatch","img/diamond.png","弱我","弱他","prac_ALT2_ability","practice_ability","","","","","","","","",""
"null","<span style='color:GreenYellow; font-size: 70px;'>正确! </span>","null","html-keyboard-response","27","185987","0.0-8.0-1.0-1.0-0.0-1.8","5","4","6","5","7","4","4","5","4","5","5","-1","1","1","2","-2","1","1","2","5","5","5","5","4","5","4","4","5","4","7","8","7","8","8","7","8","7","8","5","3","6","5","5","3","6","2","3","3","1","5","3","6","3","3","5","4","4","5","4","4","6","6","5","3","6","5","6","7","5","5","6","5","4","6","5","5","6","3","5","797758262056460290","叶","207","Male","[""好他"",""坏我"",""坏他"",""好我""]","[""强他"",""弱我"",""弱他"",""强我""]","","","","","","","","","","","","","","","","","","","","","","","","","","","","","","feedback_test","","","","","","","","",""
"1101","","j","psychophysics","28","188094","0.0-8.0-1.0-1.0-0.0-0.9","5","4","6","5","7","4","4","5","4","5","5","-1","1","1","2","-2","1","1","2","5","5","5","5","4","5","4","4","5","4","7","8","7","8","8","7","8","7","8","5","3","6","5","5","3","6","2","3","3","1","5","3","6","3","3","5","4","4","5","4","4","6","6","5","3","6","5","6","7","5","5","6","5","4","6","5","5","6","3","5","797758262056460290","叶","207","Male","[""好他"",""坏我"",""坏他"",""好我""]","[""强他"",""弱我"",""弱他"",""强我""]","","","","","","","","match","","","","","","","","","","key","j","16.664269841269874","683","380","j","true","match","img/triangle.png","强他","强他","prac_ALT2_ability","practice_ability","","","","","","","","",""
"null","<span style='color:GreenYellow; font-size: 70px;'>正确! </span>","null","html-keyboard-response","29","188603","0.0-8.0-1.0-1.0-0.0-1.9","5","4","6","5","7","4","4","5","4","5","5","-1","1","1","2","-2","1","1","2","5","5","5","5","4","5","4","4","5","4","7","8","7","8","8","7","8","7","8","5","3","6","5","5","3","6","2","3","3","1","5","3","6","3","3","5","4","4","5","4","4","6","6","5","3","6","5","6","7","5","5","6","5","4","6","5","5","6","3","5","797758262056460290","叶","207","Male","[""好他"",""坏我"",""坏他"",""好我""]","[""强他"",""弱我"",""弱他"",""强我""]","","","","","","","","","","","","","","","","","","","","","","","","","","","","","","feedback_test","","","","","","","","",""
"1090","","f","psychophysics","30","190699","0.0-8.0-1.0-1.0-0.0-0.10","5","4","6","5","7","4","4","5","4","5","5","-1","1","1","2","-2","1","1","2","5","5","5","5","4","5","4","4","5","4","7","8","7","8","8","7","8","7","8","5","3","6","5","5","3","6","2","3","3","1","5","3","6","3","3","5","4","4","5","4","4","6","6","5","3","6","5","6","7","5","5","6","5","4","6","5","5","6","3","5","797758262056460290","叶","207","Male","[""好他"",""坏我"",""坏他"",""好我""]","[""强他"",""弱我"",""弱他"",""强我""]","","","","","","","","nonmatch","","","","","","","","","","key","f","16.801322580645174","683","380","f","true","nonmatch","img/triangle.png","弱他","强他","prac_ALT2_ability","practice_ability","","","","","","","","",""
"null","<span style='color:GreenYellow; font-size: 70px;'>正确! </span>","null","html-keyboard-response","31","191203","0.0-8.0-1.0-1.0-0.0-1.10","5","4","6","5","7","4","4","5","4","5","5","-1","1","1","2","-2","1","1","2","5","5","5","5","4","5","4","4","5","4","7","8","7","8","8","7","8","7","8","5","3","6","5","5","3","6","2","3","3","1","5","3","6","3","3","5","4","4","5","4","4","6","6","5","3","6","5","6","7","5","5","6","5","4","6","5","5","6","3","5","797758262056460290","叶","207","Male","[""好他"",""坏我"",""坏他"",""好我""]","[""强他"",""弱我"",""弱他"",""强我""]","","","","","","","","","","","","","","","","","","","","","","","","","","","","","","feedback_test","","","","","","","","",""
"1132","","f","psychophysics","32","193341","0.0-8.0-1.0-1.0-0.0-0.11","5","4","6","5","7","4","4","5","4","5","5","-1","1","1","2","-2","1","1","2","5","5","5","5","4","5","4","4","5","4","7","8","7","8","8","7","8","7","8","5","3","6","5","5","3","6","2","3","3","1","5","3","6","3","3","5","4","4","5","4","4","6","6","5","3","6","5","6","7","5","5","6","5","4","6","5","5","6","3","5","797758262056460290","叶","207","Male","[""好他"",""坏我"",""坏他"",""好我""]","[""强他"",""弱我"",""弱他"",""强我""]","","","","","","","","nonmatch","","","","","","","","","","key","f","16.800712000000058","683","380","f","true","nonmatch","img/hexagon.png","弱他","弱我","prac_ALT2_ability","practice_ability","","","","","","","","",""
"null","<span style='color:GreenYellow; font-size: 70px;'>正确! </span>","null","html-keyboard-response","33","193843","0.0-8.0-1.0-1.0-0.0-1.11","5","4","6","5","7","4","4","5","4","5","5","-1","1","1","2","-2","1","1","2","5","5","5","5","4","5","4","4","5","4","7","8","7","8","8","7","8","7","8","5","3","6","5","5","3","6","2","3","3","1","5","3","6","3","3","5","4","4","5","4","4","6","6","5","3","6","5","6","7","5","5","6","5","4","6","5","5","6","3","5","797758262056460290","叶","207","Male","[""好他"",""坏我"",""坏他"",""好我""]","[""强他"",""弱我"",""弱他"",""强我""]","","","","","","","","","","","","","","","","","","","","","","","","","","","","","","feedback_test","","","","","","","","",""
"1176","","j","psychophysics","34","196027","0.0-8.0-1.0-1.0-0.0-0.12","5","4","6","5","7","4","4","5","4","5","5","-1","1","1","2","-2","1","1","2","5","5","5","5","4","5","4","4","5","4","7","8","7","8","8","7","8","7","8","5","3","6","5","5","3","6","2","3","3","1","5","3","6","3","3","5","4","4","5","4","4","6","6","5","3","6","5","6","7","5","5","6","5","4","6","5","5","6","3","5","797758262056460290","叶","207","Male","[""好他"",""坏我"",""坏他"",""好我""]","[""强他"",""弱我"",""弱他"",""强我""]","","","","","","","","match","","","","","","","","","","key","j","16.668767441860528","683","380","f","false","nonmatch","img/diamond.png","强他","弱他","prac_ALT2_ability","practice_ability","","","","","","","","",""
"null","<span style='color:red; font-size: 70px;'>错误! </span>","null","html-keyboard-response","35","196530","0.0-8.0-1.0-1.0-0.0-1.12","5","4","6","5","7","4","4","5","4","5","5","-1","1","1","2","-2","1","1","2","5","5","5","5","4","5","4","4","5","4","7","8","7","8","8","7","8","7","8","5","3","6","5","5","3","6","2","3","3","1","5","3","6","3","3","5","4","4","5","4","4","6","6","5","3","6","5","6","7","5","5","6","5","4","6","5","5","6","3","5","797758262056460290","叶","207","Male","[""好他"",""坏我"",""坏他"",""好我""]","[""强他"",""弱我"",""弱他"",""强我""]","","","","","","","","","","","","","","","","","","","","","","","","","","","","","","feedback_test","","","","","","","","",""
"904","","j","psychophysics","36","198443","0.0-8.0-1.0-1.0-0.0-0.13","5","4","6","5","7","4","4","5","4","5","5","-1","1","1","2","-2","1","1","2","5","5","5","5","4","5","4","4","5","4","7","8","7","8","8","7","8","7","8","5","3","6","5","5","3","6","2","3","3","1","5","3","6","3","3","5","4","4","5","4","4","6","6","5","3","6","5","6","7","5","5","6","5","4","6","5","5","6","3","5","797758262056460290","叶","207","Male","[""好他"",""坏我"",""坏他"",""好我""]","[""强他"",""弱我"",""弱他"",""强我""]","","","","","","","","match","","","","","","","","","","key","j","16.668219298245578","683","380","j","true","match","img/triangle.png","强他","强他","prac_ALT2_ability","practice_ability","","","","","","","","",""
"null","<span style='color:GreenYellow; font-size: 70px;'>正确! </span>","null","html-keyboard-response","37","198946","0.0-8.0-1.0-1.0-0.0-1.13","5","4","6","5","7","4","4","5","4","5","5","-1","1","1","2","-2","1","1","2","5","5","5","5","4","5","4","4","5","4","7","8","7","8","8","7","8","7","8","5","3","6","5","5","3","6","2","3","3","1","5","3","6","3","3","5","4","4","5","4","4","6","6","5","3","6","5","6","7","5","5","6","5","4","6","5","5","6","3","5","797758262056460290","叶","207","Male","[""好他"",""坏我"",""坏他"",""好我""]","[""强他"",""弱我"",""弱他"",""强我""]","","","","","","","","","","","","","","","","","","","","","","","","","","","","","","feedback_test","","","","","","","","",""
"1045","","j","psychophysics","38","201003","0.0-8.0-1.0-1.0-0.0-0.14","5","4","6","5","7","4","4","5","4","5","5","-1","1","1","2","-2","1","1","2","5","5","5","5","4","5","4","4","5","4","7","8","7","8","8","7","8","7","8","5","3","6","5","5","3","6","2","3","3","1","5","3","6","3","3","5","4","4","5","4","4","6","6","5","3","6","5","6","7","5","5","6","5","4","6","5","5","6","3","5","797758262056460290","叶","207","Male","[""好他"",""坏我"",""坏他"",""好我""]","[""强他"",""弱我"",""弱他"",""强我""]","","","","","","","","match","","","","","","","","","","key","j","16.658770491803242","683","380","j","true","match","img/diamond.png","弱他","弱他","prac_ALT2_ability","practice_ability","","","","","","","","",""
"null","<span style='color:GreenYellow; font-size: 70px;'>正确! </span>","null","html-keyboard-response","39","201506","0.0-8.0-1.0-1.0-0.0-1.14","5","4","6","5","7","4","4","5","4","5","5","-1","1","1","2","-2","1","1","2","5","5","5","5","4","5","4","4","5","4","7","8","7","8","8","7","8","7","8","5","3","6","5","5","3","6","2","3","3","1","5","3","6","3","3","5","4","4","5","4","4","6","6","5","3","6","5","6","7","5","5","6","5","4","6","5","5","6","3","5","797758262056460290","叶","207","Male","[""好他"",""坏我"",""坏他"",""好我""]","[""强他"",""弱我"",""弱他"",""强我""]","","","","","","","","","","","","","","","","","","","","","","","","","","","","","","feedback_test","","","","","","","","",""
"1136","","f","psychophysics","40","203650","0.0-8.0-1.0-1.0-0.0-0.15","5","4","6","5","7","4","4","5","4","5","5","-1","1","1","2","-2","1","1","2","5","5","5","5","4","5","4","4","5","4","7","8","7","8","8","7","8","7","8","5","3","6","5","5","3","6","2","3","3","1","5","3","6","3","3","5","4","4","5","4","4","6","6","5","3","6","5","6","7","5","5","6","5","4","6","5","5","6","3","5","797758262056460290","叶","207","Male","[""好他"",""坏我"",""坏他"",""好我""]","[""强他"",""弱我"",""弱他"",""强我""]","","","","","","","","nonmatch","","","","","","","","","","key","f","16.66758267716555","683","380","f","true","nonmatch","img/triangle.png","强我","强他","prac_ALT2_ability","practice_ability","","","","","","","","",""
"null","<span style='color:GreenYellow; font-size: 70px;'>正确! </span>","null","html-keyboard-response","41","204154","0.0-8.0-1.0-1.0-0.0-1.15","5","4","6","5","7","4","4","5","4","5","5","-1","1","1","2","-2","1","1","2","5","5","5","5","4","5","4","4","5","4","7","8","7","8","8","7","8","7","8","5","3","6","5","5","3","6","2","3","3","1","5","3","6","3","3","5","4","4","5","4","4","6","6","5","3","6","5","6","7","5","5","6","5","4","6","5","5","6","3","5","797758262056460290","叶","207","Male","[""好他"",""坏我"",""坏他"",""好我""]","[""强他"",""弱我"",""弱他"",""强我""]","","","","","","","","","","","","","","","","","","","","","","","","","","","","","","feedback_test","","","","","","","","",""
"986","","j","psychophysics","42","206179","0.0-8.0-1.0-1.0-0.0-0.16","5","4","6","5","7","4","4","5","4","5","5","-1","1","1","2","-2","1","1","2","5","5","5","5","4","5","4","4","5","4","7","8","7","8","8","7","8","7","8","5","3","6","5","5","3","6","2","3","3","1","5","3","6","3","3","5","4","4","5","4","4","6","6","5","3","6","5","6","7","5","5","6","5","4","6","5","5","6","3","5","797758262056460290","叶","207","Male","[""好他"",""坏我"",""坏他"",""好我""]","[""强他"",""弱我"",""弱他"",""强我""]","","","","","","","","match","","","","","","","","","","key","j","16.67163865546233","683","380","j","true","match","img/diamond.png","弱他","弱他","prac_ALT2_ability","practice_ability","","","","","","","","",""
"null","<span style='color:GreenYellow; font-size: 70px;'>正确! </span>","null","html-keyboard-response","43","206682","0.0-8.0-1.0-1.0-0.0-1.16","5","4","6","5","7","4","4","5","4","5","5","-1","1","1","2","-2","1","1","2","5","5","5","5","4","5","4","4","5","4","7","8","7","8","8","7","8","7","8","5","3","6","5","5","3","6","2","3","3","1","5","3","6","3","3","5","4","4","5","4","4","6","6","5","3","6","5","6","7","5","5","6","5","4","6","5","5","6","3","5","797758262056460290","叶","207","Male","[""好他"",""坏我"",""坏他"",""好我""]","[""强他"",""弱我"",""弱他"",""强我""]","","","","","","","","","","","","","","","","","","","","","","","","","","","","","","feedback_test","","","","","","","","",""
"1024","","f","psychophysics","44","208715","0.0-8.0-1.0-1.0-0.0-0.17","5","4","6","5","7","4","4","5","4","5","5","-1","1","1","2","-2","1","1","2","5","5","5","5","4","5","4","4","5","4","7","8","7","8","8","7","8","7","8","5","3","6","5","5","3","6","2","3","3","1","5","3","6","3","3","5","4","4","5","4","4","6","6","5","3","6","5","6","7","5","5","6","5","4","6","5","5","6","3","5","797758262056460290","叶","207","Male","[""好他"",""坏我"",""坏他"",""好我""]","[""强他"",""弱我"",""弱他"",""强我""]","","","","","","","","nonmatch","","","","","","","","","","key","f","16.665375000000008","683","380","j","false","match","img/hexagon.png","弱我","弱我","prac_ALT2_ability","practice_ability","","","","","","","","",""
"null","<span style='color:red; font-size: 70px;'>错误! </span>","null","html-keyboard-response","45","209218","0.0-8.0-1.0-1.0-0.0-1.17","5","4","6","5","7","4","4","5","4","5","5","-1","1","1","2","-2","1","1","2","5","5","5","5","4","5","4","4","5","4","7","8","7","8","8","7","8","7","8","5","3","6","5","5","3","6","2","3","3","1","5","3","6","3","3","5","4","4","5","4","4","6","6","5","3","6","5","6","7","5","5","6","5","4","6","5","5","6","3","5","797758262056460290","叶","207","Male","[""好他"",""坏我"",""坏他"",""好我""]","[""强他"",""弱我"",""弱他"",""强我""]","","","","","","","","","","","","","","","","","","","","","","","","","","","","","","feedback_test","","","","","","","","",""
"1176","","f","psychophysics","46","211405","0.0-8.0-1.0-1.0-0.0-0.18","5","4","6","5","7","4","4","5","4","5","5","-1","1","1","2","-2","1","1","2","5","5","5","5","4","5","4","4","5","4","7","8","7","8","8","7","8","7","8","5","3","6","5","5","3","6","2","3","3","1","5","3","6","3","3","5","4","4","5","4","4","6","6","5","3","6","5","6","7","5","5","6","5","4","6","5","5","6","3","5","797758262056460290","叶","207","Male","[""好他"",""坏我"",""坏他"",""好我""]","[""强他"",""弱我"",""弱他"",""强我""]","","","","","","","","nonmatch","","","","","","","","","","key","f","16.79629457364348","683","380","f","true","nonmatch","img/hexagon.png","强我","弱我","prac_ALT2_ability","practice_ability","","","","","","","","",""
"null","<span style='color:GreenYellow; font-size: 70px;'>正确! </span>","null","html-keyboard-response","47","211914","0.0-8.0-1.0-1.0-0.0-1.18","5","4","6","5","7","4","4","5","4","5","5","-1","1","1","2","-2","1","1","2","5","5","5","5","4","5","4","4","5","4","7","8","7","8","8","7","8","7","8","5","3","6","5","5","3","6","2","3","3","1","5","3","6","3","3","5","4","4","5","4","4","6","6","5","3","6","5","6","7","5","5","6","5","4","6","5","5","6","3","5","797758262056460290","叶","207","Male","[""好他"",""坏我"",""坏他"",""好我""]","[""强他"",""弱我"",""弱他"",""强我""]","","","","","","","","","","","","","","","","","","","","","","","","","","","","","","feedback_test","","","","","","","","",""
"null","","null","psychophysics","48","214125","0.0-8.0-1.0-1.0-0.0-0.19","5","4","6","5","7","4","4","5","4","5","5","-1","1","1","2","-2","1","1","2","5","5","5","5","4","5","4","4","5","4","7","8","7","8","8","7","8","7","8","5","3","6","5","5","3","6","2","3","3","1","5","3","6","3","3","5","4","4","5","4","4","6","6","5","3","6","5","6","7","5","5","6","5","4","6","5","5","6","3","5","797758262056460290","叶","207","Male","[""好他"",""坏我"",""坏他"",""好我""]","[""强他"",""弱我"",""弱他"",""强我""]","","","","","","","","null","","","","","","","","","","key","null","16.677183206106726","683","380","j","false","match","img/triangle.png","强他","强他","prac_ALT2_ability","practice_ability","","","","","","","","",""
"null","<span class='add_' style='color:yellow; font-size: 70px;'> 太慢! </span>","null","html-keyboard-response","49","214634","0.0-8.0-1.0-1.0-0.0-1.19","5","4","6","5","7","4","4","5","4","5","5","-1","1","1","2","-2","1","1","2","5","5","5","5","4","5","4","4","5","4","7","8","7","8","8","7","8","7","8","5","3","6","5","5","3","6","2","3","3","1","5","3","6","3","3","5","4","4","5","4","4","6","6","5","3","6","5","6","7","5","5","6","5","4","6","5","5","6","3","5","797758262056460290","叶","207","Male","[""好他"",""坏我"",""坏他"",""好我""]","[""强他"",""弱我"",""弱他"",""强我""]","","","","","","","","","","","","","","","","","","","","","","","","","","","","","","feedback_test","","","","","","","","",""
"null","","null","psychophysics","50","216871","0.0-8.0-1.0-1.0-0.0-0.20","5","4","6","5","7","4","4","5","4","5","5","-1","1","1","2","-2","1","1","2","5","5","5","5","4","5","4","4","5","4","7","8","7","8","8","7","8","7","8","5","3","6","5","5","3","6","2","3","3","1","5","3","6","3","3","5","4","4","5","4","4","6","6","5","3","6","5","6","7","5","5","6","5","4","6","5","5","6","3","5","797758262056460290","叶","207","Male","[""好他"",""坏我"",""坏他"",""好我""]","[""强他"",""弱我"",""弱他"",""强我""]","","","","","","","","null","","","","","","","","","","key","null","16.792358778625946","683","380","f","false","nonmatch","img/ellipse.png","弱我","强我","prac_ALT2_ability","practice_ability","","","","","","","","",""
"null","<span class='add_' style='color:yellow; font-size: 70px;'> 太慢! </span>","null","html-keyboard-response","51","217379","0.0-8.0-1.0-1.0-0.0-1.20","5","4","6","5","7","4","4","5","4","5","5","-1","1","1","2","-2","1","1","2","5","5","5","5","4","5","4","4","5","4","7","8","7","8","8","7","8","7","8","5","3","6","5","5","3","6","2","3","3","1","5","3","6","3","3","5","4","4","5","4","4","6","6","5","3","6","5","6","7","5","5","6","5","4","6","5","5","6","3","5","797758262056460290","叶","207","Male","[""好他"",""坏我"",""坏他"",""好我""]","[""强他"",""弱我"",""弱他"",""强我""]","","","","","","","","","","","","","","","","","","","","","","","","","","","","","","feedback_test","","","","","","","","",""
"916","","j","psychophysics","52","219308","0.0-8.0-1.0-1.0-0.0-0.21","5","4","6","5","7","4","4","5","4","5","5","-1","1","1","2","-2","1","1","2","5","5","5","5","4","5","4","4","5","4","7","8","7","8","8","7","8","7","8","5","3","6","5","5","3","6","2","3","3","1","5","3","6","3","3","5","4","4","5","4","4","6","6","5","3","6","5","6","7","5","5","6","5","4","6","5","5","6","3","5","797758262056460290","叶","207","Male","[""好他"",""坏我"",""坏他"",""好我""]","[""强他"",""弱我"",""弱他"",""强我""]","","","","","","","","match","","","","","","","","","","key","j","16.66981739130418","683","380","j","true","match","img/hexagon.png","弱我","弱我","prac_ALT2_ability","practice_ability","","","","","","","","",""
"null","<span style='color:GreenYellow; font-size: 70px;'>正确! </span>","null","html-keyboard-response","53","219811","0.0-8.0-1.0-1.0-0.0-1.21","5","4","6","5","7","4","4","5","4","5","5","-1","1","1","2","-2","1","1","2","5","5","5","5","4","5","4","4","5","4","7","8","7","8","8","7","8","7","8","5","3","6","5","5","3","6","2","3","3","1","5","3","6","3","3","5","4","4","5","4","4","6","6","5","3","6","5","6","7","5","5","6","5","4","6","5","5","6","3","5","797758262056460290","叶","207","Male","[""好他"",""坏我"",""坏他"",""好我""]","[""强他"",""弱我"",""弱他"",""强我""]","","","","","","","","","","","","","","","","","","","","","","","","","","","","","","feedback_test","","","","","","","","",""
"921","","j","psychophysics","54","221741","0.0-8.0-1.0-1.0-0.0-0.22","5","4","6","5","7","4","4","5","4","5","5","-1","1","1","2","-2","1","1","2","5","5","5","5","4","5","4","4","5","4","7","8","7","8","8","7","8","7","8","5","3","6","5","5","3","6","2","3","3","1","5","3","6","3","3","5","4","4","5","4","4","6","6","5","3","6","5","6","7","5","5","6","5","4","6","5","5","6","3","5","797758262056460290","叶","207","Male","[""好他"",""坏我"",""坏他"",""好我""]","[""强他"",""弱我"",""弱他"",""强我""]","","","","","","","","match","","","","","","","","","","key","j","16.812256637168172","683","380","j","true","match","img/ellipse.png","强我","强我","prac_ALT2_ability","practice_ability","","","","","","","","",""
"null","<span style='color:GreenYellow; font-size: 70px;'>正确! </span>","null","html-keyboard-response","55","222250","0.0-8.0-1.0-1.0-0.0-1.22","5","4","6","5","7","4","4","5","4","5","5","-1","1","1","2","-2","1","1","2","5","5","5","5","4","5","4","4","5","4","7","8","7","8","8","7","8","7","8","5","3","6","5","5","3","6","2","3","3","1","5","3","6","3","3","5","4","4","5","4","4","6","6","5","3","6","5","6","7","5","5","6","5","4","6","5","5","6","3","5","797758262056460290","叶","207","Male","[""好他"",""坏我"",""坏他"",""好我""]","[""强他"",""弱我"",""弱他"",""强我""]","","","","","","","","","","","","","","","","","","","","","","","","","","","","","","feedback_test","","","","","","","","",""
"1132","","j","psychophysics","56","224388","0.0-8.0-1.0-1.0-0.0-0.23","5","4","6","5","7","4","4","5","4","5","5","-1","1","1","2","-2","1","1","2","5","5","5","5","4","5","4","4","5","4","7","8","7","8","8","7","8","7","8","5","3","6","5","5","3","6","2","3","3","1","5","3","6","3","3","5","4","4","5","4","4","6","6","5","3","6","5","6","7","5","5","6","5","4","6","5","5","6","3","5","797758262056460290","叶","207","Male","[""好他"",""坏我"",""坏他"",""好我""]","[""强他"",""弱我"",""弱他"",""强我""]","","","","","","","","match","","","","","","","","","","key","j","16.664520000000017","683","380","j","true","match","img/hexagon.png","弱我","弱我","prac_ALT2_ability","practice_ability","","","","","","","","",""
"null","<span style='color:GreenYellow; font-size: 70px;'>正确! </span>","null","html-keyboard-response","57","224890","0.0-8.0-1.0-1.0-0.0-1.23","5","4","6","5","7","4","4","5","4","5","5","-1","1","1","2","-2","1","1","2","5","5","5","5","4","5","4","4","5","4","7","8","7","8","8","7","8","7","8","5","3","6","5","5","3","6","2","3","3","1","5","3","6","3","3","5","4","4","5","4","4","6","6","5","3","6","5","6","7","5","5","6","5","4","6","5","5","6","3","5","797758262056460290","叶","207","Male","[""好他"",""坏我"",""坏他"",""好我""]","[""强他"",""弱我"",""弱他"",""强我""]","","","","","","","","","","","","","","","","","","","","","","","","","","","","","","feedback_test","","","","","","","","",""
"1049","","j","psychophysics","58","226947","0.0-8.0-1.0-1.0-0.0-0.24","5","4","6","5","7","4","4","5","4","5","5","-1","1","1","2","-2","1","1","2","5","5","5","5","4","5","4","4","5","4","7","8","7","8","8","7","8","7","8","5","3","6","5","5","3","6","2","3","3","1","5","3","6","3","3","5","4","4","5","4","4","6","6","5","3","6","5","6","7","5","5","6","5","4","6","5","5","6","3","5","797758262056460290","叶","207","Male","[""好他"",""坏我"",""坏他"",""好我""]","[""强他"",""弱我"",""弱他"",""强我""]","","","","","","","","match","","","","","","","","","","key","j","16.666319672131127","683","380","j","true","match","img/ellipse.png","强我","强我","prac_ALT2_ability","practice_ability","","","","","","","","",""
"null","<span style='color:GreenYellow; font-size: 70px;'>正确! </span>","null","html-keyboard-response","59","227450","0.0-8.0-1.0-1.0-0.0-1.24","5","4","6","5","7","4","4","5","4","5","5","-1","1","1","2","-2","1","1","2","5","5","5","5","4","5","4","4","5","4","7","8","7","8","8","7","8","7","8","5","3","6","5","5","3","6","2","3","3","1","5","3","6","3","3","5","4","4","5","4","4","6","6","5","3","6","5","6","7","5","5","6","5","4","6","5","5","6","3","5","797758262056460290","叶","207","Male","[""好他"",""坏我"",""坏他"",""好我""]","[""强他"",""弱我"",""弱他"",""强我""]","","","","","","","","","","","","","","","","","","","","","","","","","","","","","","feedback_test","","","","","","","","",""
"1020","","f","psychophysics","60","229474","0.0-8.0-1.0-1.0-0.0-0.25","5","4","6","5","7","4","4","5","4","5","5","-1","1","1","2","-2","1","1","2","5","5","5","5","4","5","4","4","5","4","7","8","7","8","8","7","8","7","8","5","3","6","5","5","3","6","2","3","3","1","5","3","6","3","3","5","4","4","5","4","4","6","6","5","3","6","5","6","7","5","5","6","5","4","6","5","5","6","3","5","797758262056460290","叶","207","Male","[""好他"",""坏我"",""坏他"",""好我""]","[""强他"",""弱我"",""弱他"",""强我""]","","","","","","","","nonmatch","","","","","","","","","","key","f","16.79976666666674","683","380","f","true","nonmatch","img/hexagon.png","弱他","弱我","prac_ALT2_ability","practice_ability","","","","","","","","",""
"null","<span style='color:GreenYellow; font-size: 70px;'>正确! </span>","null","html-keyboard-response","61","229978","0.0-8.0-1.0-1.0-0.0-1.25","5","4","6","5","7","4","4","5","4","5","5","-1","1","1","2","-2","1","1","2","5","5","5","5","4","5","4","4","5","4","7","8","7","8","8","7","8","7","8","5","3","6","5","5","3","6","2","3","3","1","5","3","6","3","3","5","4","4","5","4","4","6","6","5","3","6","5","6","7","5","5","6","5","4","6","5","5","6","3","5","797758262056460290","叶","207","Male","[""好他"",""坏我"",""坏他"",""好我""]","[""强他"",""弱我"",""弱他"",""强我""]","","","","","","","","","","","","","","","","","","","","","","","","","","","","","","feedback_test","","","","","","","","",""
"1095","","j","psychophysics","62","232082","0.0-8.0-1.0-1.0-0.0-0.26","5","4","6","5","7","4","4","5","4","5","5","-1","1","1","2","-2","1","1","2","5","5","5","5","4","5","4","4","5","4","7","8","7","8","8","7","8","7","8","5","3","6","5","5","3","6","2","3","3","1","5","3","6","3","3","5","4","4","5","4","4","6","6","5","3","6","5","6","7","5","5","6","5","4","6","5","5","6","3","5","797758262056460290","叶","207","Male","[""好他"",""坏我"",""坏他"",""好我""]","[""强他"",""弱我"",""弱他"",""强我""]","","","","","","","","match","","","","","","","","","","key","j","16.663317073170642","683","380","j","true","match","img/diamond.png","弱他","弱他","prac_ALT2_ability","practice_ability","","","","","","","","",""
"null","<span style='color:GreenYellow; font-size: 70px;'>正确! </span>","null","html-keyboard-response","63","232586","0.0-8.0-1.0-1.0-0.0-1.26","5","4","6","5","7","4","4","5","4","5","5","-1","1","1","2","-2","1","1","2","5","5","5","5","4","5","4","4","5","4","7","8","7","8","8","7","8","7","8","5","3","6","5","5","3","6","2","3","3","1","5","3","6","3","3","5","4","4","5","4","4","6","6","5","3","6","5","6","7","5","5","6","5","4","6","5","5","6","3","5","797758262056460290","叶","207","Male","[""好他"",""坏我"",""坏他"",""好我""]","[""强他"",""弱我"",""弱他"",""强我""]","","","","","","","","","","","","","","","","","","","","","","","","","","","","","","feedback_test","","","","","","","","",""
"877","","f","psychophysics","64","234467","0.0-8.0-1.0-1.0-0.0-0.27","5","4","6","5","7","4","4","5","4","5","5","-1","1","1","2","-2","1","1","2","5","5","5","5","4","5","4","4","5","4","7","8","7","8","8","7","8","7","8","5","3","6","5","5","3","6","2","3","3","1","5","3","6","3","3","5","4","4","5","4","4","6","6","5","3","6","5","6","7","5","5","6","5","4","6","5","5","6","3","5","797758262056460290","叶","207","Male","[""好他"",""坏我"",""坏他"",""好我""]","[""强他"",""弱我"",""弱他"",""强我""]","","","","","","","","nonmatch","","","","","","","","","","key","f","16.673369369369425","683","380","j","false","match","img/hexagon.png","弱我","弱我","prac_ALT2_ability","practice_ability","","","","","","","","",""
"null","<span style='color:red; font-size: 70px;'>错误! </span>","null","html-keyboard-response","65","234970","0.0-8.0-1.0-1.0-0.0-1.27","5","4","6","5","7","4","4","5","4","5","5","-1","1","1","2","-2","1","1","2","5","5","5","5","4","5","4","4","5","4","7","8","7","8","8","7","8","7","8","5","3","6","5","5","3","6","2","3","3","1","5","3","6","3","3","5","4","4","5","4","4","6","6","5","3","6","5","6","7","5","5","6","5","4","6","5","5","6","3","5","797758262056460290","叶","207","Male","[""好他"",""坏我"",""坏他"",""好我""]","[""强他"",""弱我"",""弱他"",""强我""]","","","","","","","","","","","","","","","","","","","","","","","","","","","","","","feedback_test","","","","","","","","",""
"null","","null","psychophysics","66","237180","0.0-8.0-1.0-1.0-0.0-0.28","5","4","6","5","7","4","4","5","4","5","5","-1","1","1","2","-2","1","1","2","5","5","5","5","4","5","4","4","5","4","7","8","7","8","8","7","8","7","8","5","3","6","5","5","3","6","2","3","3","1","5","3","6","3","3","5","4","4","5","4","4","6","6","5","3","6","5","6","7","5","5","6","5","4","6","5","5","6","3","5","797758262056460290","叶","207","Male","[""好他"",""坏我"",""坏他"",""好我""]","[""强他"",""弱我"",""弱他"",""强我""]","","","","","","","","null","","","","","","","","","","key","null","16.791907692307724","683","380","f","false","nonmatch","img/triangle.png","弱他","强他","prac_ALT2_ability","practice_ability","","","","","","","","",""
"null","<span class='add_' style='color:yellow; font-size: 70px;'> 太慢! </span>","null","html-keyboard-response","67","237682","0.0-8.0-1.0-1.0-0.0-1.28","5","4","6","5","7","4","4","5","4","5","5","-1","1","1","2","-2","1","1","2","5","5","5","5","4","5","4","4","5","4","7","8","7","8","8","7","8","7","8","5","3","6","5","5","3","6","2","3","3","1","5","3","6","3","3","5","4","4","5","4","4","6","6","5","3","6","5","6","7","5","5","6","5","4","6","5","5","6","3","5","797758262056460290","叶","207","Male","[""好他"",""坏我"",""坏他"",""好我""]","[""强他"",""弱我"",""弱他"",""强我""]","","","","","","","","","","","","","","","","","","","","","","","","","","","","","","feedback_test","","","","","","","","",""
"976","","j","psychophysics","68","239666","0.0-8.0-1.0-1.0-0.0-0.29","5","4","6","5","7","4","4","5","4","5","5","-1","1","1","2","-2","1","1","2","5","5","5","5","4","5","4","4","5","4","7","8","7","8","8","7","8","7","8","5","3","6","5","5","3","6","2","3","3","1","5","3","6","3","3","5","4","4","5","4","4","6","6","5","3","6","5","6","7","5","5","6","5","4","6","5","5","6","3","5","797758262056460290","叶","207","Male","[""好他"",""坏我"",""坏他"",""好我""]","[""强他"",""弱我"",""弱他"",""强我""]","","","","","","","","match","","","","","","","","","","key","j","16.812623931623847","683","380","j","true","match","img/hexagon.png","弱我","弱我","prac_ALT2_ability","practice_ability","","","","","","","","",""
"null","<span style='color:GreenYellow; font-size: 70px;'>正确! </span>","null","html-keyboard-response","69","240170","0.0-8.0-1.0-1.0-0.0-1.29","5","4","6","5","7","4","4","5","4","5","5","-1","1","1","2","-2","1","1","2","5","5","5","5","4","5","4","4","5","4","7","8","7","8","8","7","8","7","8","5","3","6","5","5","3","6","2","3","3","1","5","3","6","3","3","5","4","4","5","4","4","6","6","5","3","6","5","6","7","5","5","6","5","4","6","5","5","6","3","5","797758262056460290","叶","207","Male","[""好他"",""坏我"",""坏他"",""好我""]","[""强他"",""弱我"",""弱他"",""强我""]","","","","","","","","","","","","","","","","","","","","","","","","","","","","","","feedback_test","","","","","","","","",""
"854","","j","psychophysics","70","242026","0.0-8.0-1.0-1.0-0.0-0.30","5","4","6","5","7","4","4","5","4","5","5","-1","1","1","2","-2","1","1","2","5","5","5","5","4","5","4","4","5","4","7","8","7","8","8","7","8","7","8","5","3","6","5","5","3","6","2","3","3","1","5","3","6","3","3","5","4","4","5","4","4","6","6","5","3","6","5","6","7","5","5","6","5","4","6","5","5","6","3","5","797758262056460290","叶","207","Male","[""好他"",""坏我"",""坏他"",""好我""]","[""强他"",""弱我"",""弱他"",""强我""]","","","","","","","","match","","","","","","","","","","key","j","16.665500000000147","683","380","j","true","match","img/ellipse.png","强我","强我","prac_ALT2_ability","practice_ability","","","","","","","","",""
"null","<span style='color:GreenYellow; font-size: 70px;'>正确! </span>","null","html-keyboard-response","71","242531","0.0-8.0-1.0-1.0-0.0-1.30","5","4","6","5","7","4","4","5","4","5","5","-1","1","1","2","-2","1","1","2","5","5","5","5","4","5","4","4","5","4","7","8","7","8","8","7","8","7","8","5","3","6","5","5","3","6","2","3","3","1","5","3","6","3","3","5","4","4","5","4","4","6","6","5","3","6","5","6","7","5","5","6","5","4","6","5","5","6","3","5","797758262056460290","叶","207","Male","[""好他"",""坏我"",""坏他"",""好我""]","[""强他"",""弱我"",""弱他"",""强我""]","","","","","","","","","","","","","","","","","","","","","","","","","","","","","","feedback_test","","","","","","","","",""
"856","","j","psychophysics","72","244394","0.0-8.0-1.0-1.0-0.0-0.31","5","4","6","5","7","4","4","5","4","5","5","-1","1","1","2","-2","1","1","2","5","5","5","5","4","5","4","4","5","4","7","8","7","8","8","7","8","7","8","5","3","6","5","5","3","6","2","3","3","1","5","3","6","3","3","5","4","4","5","4","4","6","6","5","3","6","5","6","7","5","5","6","5","4","6","5","5","6","3","5","797758262056460290","叶","207","Male","[""好他"",""坏我"",""坏他"",""好我""]","[""强他"",""弱我"",""弱他"",""强我""]","","","","","","","","match","","","","","","","","","","key","j","16.668073394495476","683","380","j","true","match","img/ellipse.png","强我","强我","prac_ALT2_ability","practice_ability","","","","","","","","",""
"null","<span style='color:GreenYellow; font-size: 70px;'>正确! </span>","null","html-keyboard-response","73","244900","0.0-8.0-1.0-1.0-0.0-1.31","5","4","6","5","7","4","4","5","4","5","5","-1","1","1","2","-2","1","1","2","5","5","5","5","4","5","4","4","5","4","7","8","7","8","8","7","8","7","8","5","3","6","5","5","3","6","2","3","3","1","5","3","6","3","3","5","4","4","5","4","4","6","6","5","3","6","5","6","7","5","5","6","5","4","6","5","5","6","3","5","797758262056460290","叶","207","Male","[""好他"",""坏我"",""坏他"",""好我""]","[""强他"",""弱我"",""弱他"",""强我""]","","","","","","","","","","","","","","","","","","","","","","","","","","","","","","feedback_test","","","","","","","","",""
"984","","f","psychophysics","74","246891","0.0-8.0-1.0-1.0-0.0-0.32","5","4","6","5","7","4","4","5","4","5","5","-1","1","1","2","-2","1","1","2","5","5","5","5","4","5","4","4","5","4","7","8","7","8","8","7","8","7","8","5","3","6","5","5","3","6","2","3","3","1","5","3","6","3","3","5","4","4","5","4","4","6","6","5","3","6","5","6","7","5","5","6","5","4","6","5","5","6","3","5","797758262056460290","叶","207","Male","[""好他"",""坏我"",""坏他"",""好我""]","[""强他"",""弱我"",""弱他"",""强我""]","","","","","","","","nonmatch","","","","","","","","","","key","f","16.66625210084021","683","380","f","true","nonmatch","img/triangle.png","弱我","强他","prac_ALT2_ability","practice_ability","","","","","","","","",""
"null","<span style='color:GreenYellow; font-size: 70px;'>正确! </span>","null","html-keyboard-response","75","247396","0.0-8.0-1.0-1.0-0.0-1.32","5","4","6","5","7","4","4","5","4","5","5","-1","1","1","2","-2","1","1","2","5","5","5","5","4","5","4","4","5","4","7","8","7","8","8","7","8","7","8","5","3","6","5","5","3","6","2","3","3","1","5","3","6","3","3","5","4","4","5","4","4","6","6","5","3","6","5","6","7","5","5","6","5","4","6","5","5","6","3","5","797758262056460290","叶","207","Male","[""好他"",""坏我"",""坏他"",""好我""]","[""强他"",""弱我"",""弱他"",""强我""]","","","","","","","","","","","","","","","","","","","","","","","","","","","","","","feedback_test","","","","","","","","",""
"966","","f","psychophysics","76","249374","0.0-8.0-1.0-1.0-0.0-0.33","5","4","6","5","7","4","4","5","4","5","5","-1","1","1","2","-2","1","1","2","5","5","5","5","4","5","4","4","5","4","7","8","7","8","8","7","8","7","8","5","3","6","5","5","3","6","2","3","3","1","5","3","6","3","3","5","4","4","5","4","4","6","6","5","3","6","5","6","7","5","5","6","5","4","6","5","5","6","3","5","797758262056460290","叶","207","Male","[""好他"",""坏我"",""坏他"",""好我""]","[""强他"",""弱我"",""弱他"",""强我""]","","","","","","","","nonmatch","","","","","","","","","","key","f","16.66477118644067","683","380","f","true","nonmatch","img/hexagon.png","强他","弱我","prac_ALT2_ability","practice_ability","","","","","","","","",""
"null","<span style='color:GreenYellow; font-size: 70px;'>正确! </span>","null","html-keyboard-response","77","249883","0.0-8.0-1.0-1.0-0.0-1.33","5","4","6","5","7","4","4","5","4","5","5","-1","1","1","2","-2","1","1","2","5","5","5","5","4","5","4","4","5","4","7","8","7","8","8","7","8","7","8","5","3","6","5","5","3","6","2","3","3","1","5","3","6","3","3","5","4","4","5","4","4","6","6","5","3","6","5","6","7","5","5","6","5","4","6","5","5","6","3","5","797758262056460290","叶","207","Male","[""好他"",""坏我"",""坏他"",""好我""]","[""强他"",""弱我"",""弱他"",""强我""]","","","","","","","","","","","","","","","","","","","","","","","","","","","","","","feedback_test","","","","","","","","",""
"1051","","j","psychophysics","78","251941","0.0-8.0-1.0-1.0-0.0-0.34","5","4","6","5","7","4","4","5","4","5","5","-1","1","1","2","-2","1","1","2","5","5","5","5","4","5","4","4","5","4","7","8","7","8","8","7","8","7","8","5","3","6","5","5","3","6","2","3","3","1","5","3","6","3","3","5","4","4","5","4","4","6","6","5","3","6","5","6","7","5","5","6","5","4","6","5","5","6","3","5","797758262056460290","叶","207","Male","[""好他"",""坏我"",""坏他"",""好我""]","[""强他"",""弱我"",""弱他"",""强我""]","","","","","","","","match","","","","","","","","","","key","j","16.936644628099195","683","380","j","true","match","img/triangle.png","强他","强他","prac_ALT2_ability","practice_ability","","","","","","","","",""
"null","<span style='color:GreenYellow; font-size: 70px;'>正确! </span>","null","html-keyboard-response","79","252443","0.0-8.0-1.0-1.0-0.0-1.34","5","4","6","5","7","4","4","5","4","5","5","-1","1","1","2","-2","1","1","2","5","5","5","5","4","5","4","4","5","4","7","8","7","8","8","7","8","7","8","5","3","6","5","5","3","6","2","3","3","1","5","3","6","3","3","5","4","4","5","4","4","6","6","5","3","6","5","6","7","5","5","6","5","4","6","5","5","6","3","5","797758262056460290","叶","207","Male","[""好他"",""坏我"",""坏他"",""好我""]","[""强他"",""弱我"",""弱他"",""强我""]","","","","","","","","","","","","","","","","","","","","","","","","","","","","","","feedback_test","","","","","","","","",""
"1149","","f","psychophysics","80","254607","0.0-8.0-1.0-1.0-0.0-0.35","5","4","6","5","7","4","4","5","4","5","5","-1","1","1","2","-2","1","1","2","5","5","5","5","4","5","4","4","5","4","7","8","7","8","8","7","8","7","8","5","3","6","5","5","3","6","2","3","3","1","5","3","6","3","3","5","4","4","5","4","4","6","6","5","3","6","5","6","7","5","5","6","5","4","6","5","5","6","3","5","797758262056460290","叶","207","Male","[""好他"",""坏我"",""坏他"",""好我""]","[""强他"",""弱我"",""弱他"",""强我""]","","","","","","","","nonmatch","","","","","","","","","","key","f","16.6669763779528","683","380","j","false","match","img/diamond.png","弱他","弱他","prac_ALT2_ability","practice_ability","","","","","","","","",""
"null","<span style='color:red; font-size: 70px;'>错误! </span>","null","html-keyboard-response","81","255115","0.0-8.0-1.0-1.0-0.0-1.35","5","4","6","5","7","4","4","5","4","5","5","-1","1","1","2","-2","1","1","2","5","5","5","5","4","5","4","4","5","4","7","8","7","8","8","7","8","7","8","5","3","6","5","5","3","6","2","3","3","1","5","3","6","3","3","5","4","4","5","4","4","6","6","5","3","6","5","6","7","5","5","6","5","4","6","5","5","6","3","5","797758262056460290","叶","207","Male","[""好他"",""坏我"",""坏他"",""好我""]","[""强他"",""弱我"",""弱他"",""强我""]","","","","","","","","","","","","","","","","","","","","","","","","","","","","","","feedback_test","","","","","","","","",""
"1098","","f","psychophysics","82","257221","0.0-8.0-1.0-1.0-0.0-0.36","5","4","6","5","7","4","4","5","4","5","5","-1","1","1","2","-2","1","1","2","5","5","5","5","4","5","4","4","5","4","7","8","7","8","8","7","8","7","8","5","3","6","5","5","3","6","2","3","3","1","5","3","6","3","3","5","4","4","5","4","4","6","6","5","3","6","5","6","7","5","5","6","5","4","6","5","5","6","3","5","797758262056460290","叶","207","Male","[""好他"",""坏我"",""坏他"",""好我""]","[""强他"",""弱我"",""弱他"",""强我""]","","","","","","","","nonmatch","","","","","","","","","","key","f","16.667495934959224","683","380","f","true","nonmatch","img/ellipse.png","弱他","强我","prac_ALT2_ability","practice_ability","","","","","","","","",""
"null","<span style='color:GreenYellow; font-size: 70px;'>正确! </span>","null","html-keyboard-response","83","257731","0.0-8.0-1.0-1.0-0.0-1.36","5","4","6","5","7","4","4","5","4","5","5","-1","1","1","2","-2","1","1","2","5","5","5","5","4","5","4","4","5","4","7","8","7","8","8","7","8","7","8","5","3","6","5","5","3","6","2","3","3","1","5","3","6","3","3","5","4","4","5","4","4","6","6","5","3","6","5","6","7","5","5","6","5","4","6","5","5","6","3","5","797758262056460290","叶","207","Male","[""好他"",""坏我"",""坏他"",""好我""]","[""强他"",""弱我"",""弱他"",""强我""]","","","","","","","","","","","","","","","","","","","","","","","","","","","","","","feedback_test","","","","","","","","",""
"1090","","f","psychophysics","84","259827","0.0-8.0-1.0-1.0-0.0-0.37","5","4","6","5","7","4","4","5","4","5","5","-1","1","1","2","-2","1","1","2","5","5","5","5","4","5","4","4","5","4","7","8","7","8","8","7","8","7","8","5","3","6","5","5","3","6","2","3","3","1","5","3","6","3","3","5","4","4","5","4","4","6","6","5","3","6","5","6","7","5","5","6","5","4","6","5","5","6","3","5","797758262056460290","叶","207","Male","[""好他"",""坏我"",""坏他"",""好我""]","[""强他"",""弱我"",""弱他"",""强我""]","","","","","","","","nonmatch","","","","","","","","","","key","f","16.66526829268276","683","380","f","true","nonmatch","img/diamond.png","弱我","弱他","prac_ALT2_ability","practice_ability","","","","","","","","",""
"null","<span style='color:GreenYellow; font-size: 70px;'>正确! </span>","null","html-keyboard-response","85","260331","0.0-8.0-1.0-1.0-0.0-1.37","5","4","6","5","7","4","4","5","4","5","5","-1","1","1","2","-2","1","1","2","5","5","5","5","4","5","4","4","5","4","7","8","7","8","8","7","8","7","8","5","3","6","5","5","3","6","2","3","3","1","5","3","6","3","3","5","4","4","5","4","4","6","6","5","3","6","5","6","7","5","5","6","5","4","6","5","5","6","3","5","797758262056460290","叶","207","Male","[""好他"",""坏我"",""坏他"",""好我""]","[""强他"",""弱我"",""弱他"",""强我""]","","","","","","","","","","","","","","","","","","","","","","","","","","","","","","feedback_test","","","","","","","","",""
"1160","","j","psychophysics","86","262499","0.0-8.0-1.0-1.0-0.0-0.38","5","4","6","5","7","4","4","5","4","5","5","-1","1","1","2","-2","1","1","2","5","5","5","5","4","5","4","4","5","4","7","8","7","8","8","7","8","7","8","5","3","6","5","5","3","6","2","3","3","1","5","3","6","3","3","5","4","4","5","4","4","6","6","5","3","6","5","6","7","5","5","6","5","4","6","5","5","6","3","5","797758262056460290","叶","207","Male","[""好他"",""坏我"",""坏他"",""好我""]","[""强他"",""弱我"",""弱他"",""强我""]","","","","","","","","match","","","","","","","","","","key","j","16.66118749999987","683","380","j","true","match","img/triangle.png","强他","强他","prac_ALT2_ability","practice_ability","","","","","","","","",""
"null","<span style='color:GreenYellow; font-size: 70px;'>正确! </span>","null","html-keyboard-response","87","263004","0.0-8.0-1.0-1.0-0.0-1.38","5","4","6","5","7","4","4","5","4","5","5","-1","1","1","2","-2","1","1","2","5","5","5","5","4","5","4","4","5","4","7","8","7","8","8","7","8","7","8","5","3","6","5","5","3","6","2","3","3","1","5","3","6","3","3","5","4","4","5","4","4","6","6","5","3","6","5","6","7","5","5","6","5","4","6","5","5","6","3","5","797758262056460290","叶","207","Male","[""好他"",""坏我"",""坏他"",""好我""]","[""强他"",""弱我"",""弱他"",""强我""]","","","","","","","","","","","","","","","","","","","","","","","","","","","","","","feedback_test","","","","","","","","",""
"903","","f","psychophysics","88","264914","0.0-8.0-1.0-1.0-0.0-0.39","5","4","6","5","7","4","4","5","4","5","5","-1","1","1","2","-2","1","1","2","5","5","5","5","4","5","4","4","5","4","7","8","7","8","8","7","8","7","8","5","3","6","5","5","3","6","2","3","3","1","5","3","6","3","3","5","4","4","5","4","4","6","6","5","3","6","5","6","7","5","5","6","5","4","6","5","5","6","3","5","797758262056460290","叶","207","Male","[""好他"",""坏我"",""坏他"",""好我""]","[""强他"",""弱我"",""弱他"",""强我""]","","","","","","","","nonmatch","","","","","","","","","","key","f","16.660999999999735","683","380","f","true","nonmatch","img/hexagon.png","强我","弱我","prac_ALT2_ability","practice_ability","","","","","","","","",""
"null","<span style='color:GreenYellow; font-size: 70px;'>正确! </span>","null","html-keyboard-response","89","265420","0.0-8.0-1.0-1.0-0.0-1.39","5","4","6","5","7","4","4","5","4","5","5","-1","1","1","2","-2","1","1","2","5","5","5","5","4","5","4","4","5","4","7","8","7","8","8","7","8","7","8","5","3","6","5","5","3","6","2","3","3","1","5","3","6","3","3","5","4","4","5","4","4","6","6","5","3","6","5","6","7","5","5","6","5","4","6","5","5","6","3","5","797758262056460290","叶","207","Male","[""好他"",""坏我"",""坏他"",""好我""]","[""强他"",""弱我"",""弱他"",""强我""]","","","","","","","","","","","","","","","","","","","","","","","","","","","","","","feedback_test","","","","","","","","",""
"1112","","f","psychophysics","90","267539","0.0-8.0-1.0-1.0-0.0-0.40","5","4","6","5","7","4","4","5","4","5","5","-1","1","1","2","-2","1","1","2","5","5","5","5","4","5","4","4","5","4","7","8","7","8","8","7","8","7","8","5","3","6","5","5","3","6","2","3","3","1","5","3","6","3","3","5","4","4","5","4","4","6","6","5","3","6","5","6","7","5","5","6","5","4","6","5","5","6","3","5","797758262056460290","叶","207","Male","[""好他"",""坏我"",""坏他"",""好我""]","[""强他"",""弱我"",""弱他"",""强我""]","","","","","","","","nonmatch","","","","","","","","","","key","f","16.67076190476193","683","380","f","true","nonmatch","img/ellipse.png","强他","强我","prac_ALT2_ability","practice_ability","","","","","","","","",""
"null","<span style='color:GreenYellow; font-size: 70px;'>正确! </span>","null","html-keyboard-response","91","268044","0.0-8.0-1.0-1.0-0.0-1.40","5","4","6","5","7","4","4","5","4","5","5","-1","1","1","2","-2","1","1","2","5","5","5","5","4","5","4","4","5","4","7","8","7","8","8","7","8","7","8","5","3","6","5","5","3","6","2","3","3","1","5","3","6","3","3","5","4","4","5","4","4","6","6","5","3","6","5","6","7","5","5","6","5","4","6","5","5","6","3","5","797758262056460290","叶","207","Male","[""好他"",""坏我"",""坏他"",""好我""]","[""强他"",""弱我"",""弱他"",""强我""]","","","","","","","","","","","","","","","","","","","","","","","","","","","","","","feedback_test","","","","","","","","",""
"1123","","j","psychophysics","92","270179","0.0-8.0-1.0-1.0-0.0-0.41","5","4","6","5","7","4","4","5","4","5","5","-1","1","1","2","-2","1","1","2","5","5","5","5","4","5","4","4","5","4","7","8","7","8","8","7","8","7","8","5","3","6","5","5","3","6","2","3","3","1","5","3","6","3","3","5","4","4","5","4","4","6","6","5","3","6","5","6","7","5","5","6","5","4","6","5","5","6","3","5","797758262056460290","叶","207","Male","[""好他"",""坏我"",""坏他"",""好我""]","[""强他"",""弱我"",""弱他"",""强我""]","","","","","","","","match","","","","","","","","","","key","j","16.805967999999876","683","380","f","false","nonmatch","img/triangle.png","强我","强他","prac_ALT2_ability","practice_ability","","","","","","","","",""
"null","<span style='color:red; font-size: 70px;'>错误! </span>","null","html-keyboard-response","93","270684","0.0-8.0-1.0-1.0-0.0-1.41","5","4","6","5","7","4","4","5","4","5","5","-1","1","1","2","-2","1","1","2","5","5","5","5","4","5","4","4","5","4","7","8","7","8","8","7","8","7","8","5","3","6","5","5","3","6","2","3","3","1","5","3","6","3","3","5","4","4","5","4","4","6","6","5","3","6","5","6","7","5","5","6","5","4","6","5","5","6","3","5","797758262056460290","叶","207","Male","[""好他"",""坏我"",""坏他"",""好我""]","[""强他"",""弱我"",""弱他"",""强我""]","","","","","","","","","","","","","","","","","","","","","","","","","","","","","","feedback_test","","","","","","","","",""
"1052","","f","psychophysics","94","272739","0.0-8.0-1.0-1.0-0.0-0.42","5","4","6","5","7","4","4","5","4","5","5","-1","1","1","2","-2","1","1","2","5","5","5","5","4","5","4","4","5","4","7","8","7","8","8","7","8","7","8","5","3","6","5","5","3","6","2","3","3","1","5","3","6","3","3","5","4","4","5","4","4","6","6","5","3","6","5","6","7","5","5","6","5","4","6","5","5","6","3","5","797758262056460290","叶","207","Male","[""好他"",""坏我"",""坏他"",""好我""]","[""强他"",""弱我"",""弱他"",""强我""]","","","","","","","","nonmatch","","","","","","","","","","key","f","16.666385245901633","683","380","f","true","nonmatch","img/diamond.png","强我","弱他","prac_ALT2_ability","practice_ability","","","","","","","","",""
"null","<span style='color:GreenYellow; font-size: 70px;'>正确! </span>","null","html-keyboard-response","95","273244","0.0-8.0-1.0-1.0-0.0-1.42","5","4","6","5","7","4","4","5","4","5","5","-1","1","1","2","-2","1","1","2","5","5","5","5","4","5","4","4","5","4","7","8","7","8","8","7","8","7","8","5","3","6","5","5","3","6","2","3","3","1","5","3","6","3","3","5","4","4","5","4","4","6","6","5","3","6","5","6","7","5","5","6","5","4","6","5","5","6","3","5","797758262056460290","叶","207","Male","[""好他"",""坏我"",""坏他"",""好我""]","[""强他"",""弱我"",""弱他"",""强我""]","","","","","","","","","","","","","","","","","","","","","","","","","","","","","","feedback_test","","","","","","","","",""
"1017","","j","psychophysics","96","275268","0.0-8.0-1.0-1.0-0.0-0.43","5","4","6","5","7","4","4","5","4","5","5","-1","1","1","2","-2","1","1","2","5","5","5","5","4","5","4","4","5","4","7","8","7","8","8","7","8","7","8","5","3","6","5","5","3","6","2","3","3","1","5","3","6","3","3","5","4","4","5","4","4","6","6","5","3","6","5","6","7","5","5","6","5","4","6","5","5","6","3","5","797758262056460290","叶","207","Male","[""好他"",""坏我"",""坏他"",""好我""]","[""强他"",""弱我"",""弱他"",""强我""]","","","","","","","","match","","","","","","","","","","key","j","16.807389830508452","683","380","j","true","match","img/diamond.png","弱他","弱他","prac_ALT2_ability","practice_ability","","","","","","","","",""
"null","<span style='color:GreenYellow; font-size: 70px;'>正确! </span>","null","html-keyboard-response","97","275771","0.0-8.0-1.0-1.0-0.0-1.43","5","4","6","5","7","4","4","5","4","5","5","-1","1","1","2","-2","1","1","2","5","5","5","5","4","5","4","4","5","4","7","8","7","8","8","7","8","7","8","5","3","6","5","5","3","6","2","3","3","1","5","3","6","3","3","5","4","4","5","4","4","6","6","5","3","6","5","6","7","5","5","6","5","4","6","5","5","6","3","5","797758262056460290","叶","207","Male","[""好他"",""坏我"",""坏他"",""好我""]","[""强他"",""弱我"",""弱他"",""强我""]","","","","","","","","","","","","","","","","","","","","","","","","","","","","","","feedback_test","","","","","","","","",""
"1026","","j","psychophysics","98","277806","0.0-8.0-1.0-1.0-0.0-0.44","5","4","6","5","7","4","4","5","4","5","5","-1","1","1","2","-2","1","1","2","5","5","5","5","4","5","4","4","5","4","7","8","7","8","8","7","8","7","8","5","3","6","5","5","3","6","2","3","3","1","5","3","6","3","3","5","4","4","5","4","4","6","6","5","3","6","5","6","7","5","5","6","5","4","6","5","5","6","3","5","797758262056460290","叶","207","Male","[""好他"",""坏我"",""坏他"",""好我""]","[""强他"",""弱我"",""弱他"",""强我""]","","","","","","","","match","","","","","","","","","","key","j","16.66570833333341","683","380","f","false","nonmatch","img/ellipse.png","弱我","强我","prac_ALT2_ability","practice_ability","","","","","","","","",""
"null","<span style='color:red; font-size: 70px;'>错误! </span>","null","html-keyboard-response","99","278308","0.0-8.0-1.0-1.0-0.0-1.44","5","4","6","5","7","4","4","5","4","5","5","-1","1","1","2","-2","1","1","2","5","5","5","5","4","5","4","4","5","4","7","8","7","8","8","7","8","7","8","5","3","6","5","5","3","6","2","3","3","1","5","3","6","3","3","5","4","4","5","4","4","6","6","5","3","6","5","6","7","5","5","6","5","4","6","5","5","6","3","5","797758262056460290","叶","207","Male","[""好他"",""坏我"",""坏他"",""好我""]","[""强他"",""弱我"",""弱他"",""强我""]","","","","","","","","","","","","","","","","","","","","","","","","","","","","","","feedback_test","","","","","","","","",""
"1023","","j","psychophysics","100","280338","0.0-8.0-1.0-1.0-0.0-0.45","5","4","6","5","7","4","4","5","4","5","5","-1","1","1","2","-2","1","1","2","5","5","5","5","4","5","4","4","5","4","7","8","7","8","8","7","8","7","8","5","3","6","5","5","3","6","2","3","3","1","5","3","6","3","3","5","4","4","5","4","4","6","6","5","3","6","5","6","7","5","5","6","5","4","6","5","5","6","3","5","797758262056460290","叶","207","Male","[""好他"",""坏我"",""坏他"",""好我""]","[""强他"",""弱我"",""弱他"",""强我""]","","","","","","","","match","","","","","","","","","","key","j","16.66721487603312","683","380","j","true","match","img/triangle.png","强他","强他","prac_ALT2_ability","practice_ability","","","","","","","","",""
"null","<span style='color:GreenYellow; font-size: 70px;'>正确! </span>","null","html-keyboard-response","101","280843","0.0-8.0-1.0-1.0-0.0-1.45","5","4","6","5","7","4","4","5","4","5","5","-1","1","1","2","-2","1","1","2","5","5","5","5","4","5","4","4","5","4","7","8","7","8","8","7","8","7","8","5","3","6","5","5","3","6","2","3","3","1","5","3","6","3","3","5","4","4","5","4","4","6","6","5","3","6","5","6","7","5","5","6","5","4","6","5","5","6","3","5","797758262056460290","叶","207","Male","[""好他"",""坏我"",""坏他"",""好我""]","[""强他"",""弱我"",""弱他"",""强我""]","","","","","","","","","","","","","","","","","","","","","","","","","","","","","","feedback_test","","","","","","","","",""
"1217","","f","psychophysics","102","283072","0.0-8.0-1.0-1.0-0.0-0.46","5","4","6","5","7","4","4","5","4","5","5","-1","1","1","2","-2","1","1","2","5","5","5","5","4","5","4","4","5","4","7","8","7","8","8","7","8","7","8","5","3","6","5","5","3","6","2","3","3","1","5","3","6","3","3","5","4","4","5","4","4","6","6","5","3","6","5","6","7","5","5","6","5","4","6","5","5","6","3","5","797758262056460290","叶","207","Male","[""好他"",""坏我"",""坏他"",""好我""]","[""强他"",""弱我"",""弱他"",""强我""]","","","","","","","","nonmatch","","","","","","","","","","key","f","16.793908396946847","683","380","f","true","nonmatch","img/diamond.png","强他","弱他","prac_ALT2_ability","practice_ability","","","","","","","","",""
"null","<span class='add_' style='color:yellow; font-size: 70px;'> 太慢! </span>","null","html-keyboard-response","103","283579","0.0-8.0-1.0-1.0-0.0-1.46","5","4","6","5","7","4","4","5","4","5","5","-1","1","1","2","-2","1","1","2","5","5","5","5","4","5","4","4","5","4","7","8","7","8","8","7","8","7","8","5","3","6","5","5","3","6","2","3","3","1","5","3","6","3","3","5","4","4","5","4","4","6","6","5","3","6","5","6","7","5","5","6","5","4","6","5","5","6","3","5","797758262056460290","叶","207","Male","[""好他"",""坏我"",""坏他"",""好我""]","[""强他"",""弱我"",""弱他"",""强我""]","","","","","","","","","","","","","","","","","","","","","","","","","","","","","","feedback_test","","","","","","","","",""
"1007","","j","psychophysics","104","285594","0.0-8.0-1.0-1.0-0.0-0.47","5","4","6","5","7","4","4","5","4","5","5","-1","1","1","2","-2","1","1","2","5","5","5","5","4","5","4","4","5","4","7","8","7","8","8","7","8","7","8","5","3","6","5","5","3","6","2","3","3","1","5","3","6","3","3","5","4","4","5","4","4","6","6","5","3","6","5","6","7","5","5","6","5","4","6","5","5","6","3","5","797758262056460290","叶","207","Male","[""好他"",""坏我"",""坏他"",""好我""]","[""强他"",""弱我"",""弱他"",""强我""]","","","","","","","","match","","","","","","","","","","key","j","16.67185833333351","683","380","j","true","match","img/hexagon.png","弱我","弱我","prac_ALT2_ability","practice_ability","","","","","","","","",""
"null","<span style='color:GreenYellow; font-size: 70px;'>正确! </span>","null","html-keyboard-response","105","286099","0.0-8.0-1.0-1.0-0.0-1.47","5","4","6","5","7","4","4","5","4","5","5","-1","1","1","2","-2","1","1","2","5","5","5","5","4","5","4","4","5","4","7","8","7","8","8","7","8","7","8","5","3","6","5","5","3","6","2","3","3","1","5","3","6","3","3","5","4","4","5","4","4","6","6","5","3","6","5","6","7","5","5","6","5","4","6","5","5","6","3","5","797758262056460290","叶","207","Male","[""好他"",""坏我"",""坏他"",""好我""]","[""强他"",""弱我"",""弱他"",""强我""]","","","","","","","","","","","","","","","","","","","","","","","","","","","","","","feedback_test","","","","","","","","",""
"3659","<style>.context{color:white; font-size: 35px; line-height:40px}</style>                          <div><p class='context'>您正确回答了79% 的试次。</p><p class='context'>您的平均反应时为1021毫秒。</p><p class='context'>恭喜您完成练习。按空格键进入正式实验。</p><p class='footer' style='color:white;font-size: 35px; line-height:40px;'>请在进入正式实验实验之前将您的<span style='color: lightgreen;'>食指</span>放在电脑键盘的相应键位上进行按键。</p>"," ","html-keyboard-response","106","289763","0.0-8.0-1.0-2.0","5","4","6","5","7","4","4","5","4","5","5","-1","1","1","2","-2","1","1","2","5","5","5","5","4","5","4","4","5","4","7","8","7","8","8","7","8","7","8","5","3","6","5","5","3","6","2","3","3","1","5","3","6","3","3","5","4","4","5","4","4","6","6","5","3","6","5","6","7","5","5","6","5","4","6","5","5","6","3","5","797758262056460290","叶","207","Male","[""好他"",""坏我"",""坏他"",""好我""]","[""强他"",""弱我"",""弱他"",""强我""]","","","","","","","","","","","","","","","","","","","","","","","","","","","","","","","","","","","","","","",""
"721","
  <p style='color: white; font-size: 22px'>请您将手指放在按键上，准备进入正式的匹配任务。</p>
  <p> <div style = ""color: green""><按空格键进入下一阶段的匹配任务></div></p>
  "," ","html-keyboard-response","107","290499","0.0-8.0-1.0-3.0","5","4","6","5","7","4","4","5","4","5","5","-1","1","1","2","-2","1","1","2","5","5","5","5","4","5","4","4","5","4","7","8","7","8","8","7","8","7","8","5","3","6","5","5","3","6","2","3","3","1","5","3","6","3","3","5","4","4","5","4","4","6","6","5","3","6","5","6","7","5","5","6","5","4","6","5","5","6","3","5","797758262056460290","叶","207","Male","[""好他"",""坏我"",""坏他"",""好我""]","[""强他"",""弱我"",""弱他"",""强我""]","","","","","","","","","","","","","","","","","","","","","","","","","","","","","","","","","","","","","","",""
"868","","j","psychophysics","108","292372","0.0-8.0-1.0-4.0-0.0-0.0","5","4","6","5","7","4","4","5","4","5","5","-1","1","1","2","-2","1","1","2","5","5","5","5","4","5","4","4","5","4","7","8","7","8","8","7","8","7","8","5","3","6","5","5","3","6","2","3","3","1","5","3","6","3","3","5","4","4","5","4","4","6","6","5","3","6","5","6","7","5","5","6","5","4","6","5","5","6","3","5","797758262056460290","叶","207","Male","[""好他"",""坏我"",""坏他"",""好我""]","[""强他"",""弱我"",""弱他"",""强我""]","","","","","","","","match","","","","","","","","","","key","j","16.672666666666906","683","380","f","false","nonmatch","img/triangle.png","强我","强他","ALT2","ability","","","","","","","","",""
"null","<span style='color:red; font-size: 70px;'>错误! </span>","null","html-keyboard-response","109","292876","0.0-8.0-1.0-4.0-0.0-1.0","5","4","6","5","7","4","4","5","4","5","5","-1","1","1","2","-2","1","1","2","5","5","5","5","4","5","4","4","5","4","7","8","7","8","8","7","8","7","8","5","3","6","5","5","3","6","2","3","3","1","5","3","6","3","3","5","4","4","5","4","4","6","6","5","3","6","5","6","7","5","5","6","5","4","6","5","5","6","3","5","797758262056460290","叶","207","Male","[""好他"",""坏我"",""坏他"",""好我""]","[""强他"",""弱我"",""弱他"",""强我""]","","","","","","","","","","","","","","","","","","","","","","","","","","","","","","feedback_test","","","","","","","","",""
"875","","j","psychophysics","110","294763","0.0-8.0-1.0-4.0-0.0-0.1","5","4","6","5","7","4","4","5","4","5","5","-1","1","1","2","-2","1","1","2","5","5","5","5","4","5","4","4","5","4","7","8","7","8","8","7","8","7","8","5","3","6","5","5","3","6","2","3","3","1","5","3","6","3","3","5","4","4","5","4","4","6","6","5","3","6","5","6","7","5","5","6","5","4","6","5","5","6","3","5","797758262056460290","叶","207","Male","[""好他"",""坏我"",""坏他"",""好我""]","[""强他"",""弱我"",""弱他"",""强我""]","","","","","","","","match","","","","","","","","","","key","j","16.666383928571513","683","380","j","true","match","img/triangle.png","强他","强他","ALT2","ability","","","","","","","","",""
"null","<span style='color:GreenYellow; font-size: 70px;'>正确! </span>","null","html-keyboard-response","111","295268","0.0-8.0-1.0-4.0-0.0-1.1","5","4","6","5","7","4","4","5","4","5","5","-1","1","1","2","-2","1","1","2","5","5","5","5","4","5","4","4","5","4","7","8","7","8","8","7","8","7","8","5","3","6","5","5","3","6","2","3","3","1","5","3","6","3","3","5","4","4","5","4","4","6","6","5","3","6","5","6","7","5","5","6","5","4","6","5","5","6","3","5","797758262056460290","叶","207","Male","[""好他"",""坏我"",""坏他"",""好我""]","[""强他"",""弱我"",""弱他"",""强我""]","","","","","","","","","","","","","","","","","","","","","","","","","","","","","","feedback_test","","","","","","","","",""
"852","","j","psychophysics","112","297122","0.0-8.0-1.0-4.0-0.0-0.2","5","4","6","5","7","4","4","5","4","5","5","-1","1","1","2","-2","1","1","2","5","5","5","5","4","5","4","4","5","4","7","8","7","8","8","7","8","7","8","5","3","6","5","5","3","6","2","3","3","1","5","3","6","3","3","5","4","4","5","4","4","6","6","5","3","6","5","6","7","5","5","6","5","4","6","5","5","6","3","5","797758262056460290","叶","207","Male","[""好他"",""坏我"",""坏他"",""好我""]","[""强他"",""弱我"",""弱他"",""强我""]","","","","","","","","match","","","","","","","","","","key","j","16.66770909090939","683","380","j","true","match","img/hexagon.png","弱我","弱我","ALT2","ability","","","","","","","","",""
"null","<span style='color:GreenYellow; font-size: 70px;'>正确! </span>","null","html-keyboard-response","113","297628","0.0-8.0-1.0-4.0-0.0-1.2","5","4","6","5","7","4","4","5","4","5","5","-1","1","1","2","-2","1","1","2","5","5","5","5","4","5","4","4","5","4","7","8","7","8","8","7","8","7","8","5","3","6","5","5","3","6","2","3","3","1","5","3","6","3","3","5","4","4","5","4","4","6","6","5","3","6","5","6","7","5","5","6","5","4","6","5","5","6","3","5","797758262056460290","叶","207","Male","[""好他"",""坏我"",""坏他"",""好我""]","[""强他"",""弱我"",""弱他"",""强我""]","","","","","","","","","","","","","","","","","","","","","","","","","","","","","","feedback_test","","","","","","","","",""
"null","","null","psychophysics","114","299837","0.0-8.0-1.0-4.0-0.0-0.3","5","4","6","5","7","4","4","5","4","5","5","-1","1","1","2","-2","1","1","2","5","5","5","5","4","5","4","4","5","4","7","8","7","8","8","7","8","7","8","5","3","6","5","5","3","6","2","3","3","1","5","3","6","3","3","5","4","4","5","4","4","6","6","5","3","6","5","6","7","5","5","6","5","4","6","5","5","6","3","5","797758262056460290","叶","207","Male","[""好他"",""坏我"",""坏他"",""好我""]","[""强他"",""弱我"",""弱他"",""强我""]","","","","","","","","null","","","","","","","","","","key","null","16.661267175572437","683","380","j","false","match","img/triangle.png","强他","强他","ALT2","ability","","","","","","","","",""
"null","<span class='add_' style='color:yellow; font-size: 70px;'> 太慢! </span>","null","html-keyboard-response","115","300340","0.0-8.0-1.0-4.0-0.0-1.3","5","4","6","5","7","4","4","5","4","5","5","-1","1","1","2","-2","1","1","2","5","5","5","5","4","5","4","4","5","4","7","8","7","8","8","7","8","7","8","5","3","6","5","5","3","6","2","3","3","1","5","3","6","3","3","5","4","4","5","4","4","6","6","5","3","6","5","6","7","5","5","6","5","4","6","5","5","6","3","5","797758262056460290","叶","207","Male","[""好他"",""坏我"",""坏他"",""好我""]","[""强他"",""弱我"",""弱他"",""强我""]","","","","","","","","","","","","","","","","","","","","","","","","","","","","","","feedback_test","","","","","","","","",""
"1143","","j","psychophysics","116","302485","0.0-8.0-1.0-4.0-0.0-0.4","5","4","6","5","7","4","4","5","4","5","5","-1","1","1","2","-2","1","1","2","5","5","5","5","4","5","4","4","5","4","7","8","7","8","8","7","8","7","8","5","3","6","5","5","3","6","2","3","3","1","5","3","6","3","3","5","4","4","5","4","4","6","6","5","3","6","5","6","7","5","5","6","5","4","6","5","5","6","3","5","797758262056460290","叶","207","Male","[""好他"",""坏我"",""坏他"",""好我""]","[""强他"",""弱我"",""弱他"",""强我""]","","","","","","","","match","","","","","","","","","","key","j","16.665566929133874","683","380","f","false","nonmatch","img/diamond.png","强他","弱他","ALT2","ability","","","","","","","","",""
"null","<span style='color:red; font-size: 70px;'>错误! </span>","null","html-keyboard-response","117","302987","0.0-8.0-1.0-4.0-0.0-1.4","5","4","6","5","7","4","4","5","4","5","5","-1","1","1","2","-2","1","1","2","5","5","5","5","4","5","4","4","5","4","7","8","7","8","8","7","8","7","8","5","3","6","5","5","3","6","2","3","3","1","5","3","6","3","3","5","4","4","5","4","4","6","6","5","3","6","5","6","7","5","5","6","5","4","6","5","5","6","3","5","797758262056460290","叶","207","Male","[""好他"",""坏我"",""坏他"",""好我""]","[""强他"",""弱我"",""弱他"",""强我""]","","","","","","","","","","","","","","","","","","","","","","","","","","","","","","feedback_test","","","","","","","","",""
"992","","j","psychophysics","118","304988","0.0-8.0-1.0-4.0-0.0-0.5","5","4","6","5","7","4","4","5","4","5","5","-1","1","1","2","-2","1","1","2","5","5","5","5","4","5","4","4","5","4","7","8","7","8","8","7","8","7","8","5","3","6","5","5","3","6","2","3","3","1","5","3","6","3","3","5","4","4","5","4","4","6","6","5","3","6","5","6","7","5","5","6","5","4","6","5","5","6","3","5","797758262056460290","叶","207","Male","[""好他"",""坏我"",""坏他"",""好我""]","[""强他"",""弱我"",""弱他"",""强我""]","","","","","","","","match","","","","","","","","","","key","j","16.663847457626893","683","380","j","true","match","img/hexagon.png","弱我","弱我","ALT2","ability","","","","","","","","",""
"null","<span style='color:GreenYellow; font-size: 70px;'>正确! </span>","null","html-keyboard-response","119","305492","0.0-8.0-1.0-4.0-0.0-1.5","5","4","6","5","7","4","4","5","4","5","5","-1","1","1","2","-2","1","1","2","5","5","5","5","4","5","4","4","5","4","7","8","7","8","8","7","8","7","8","5","3","6","5","5","3","6","2","3","3","1","5","3","6","3","3","5","4","4","5","4","4","6","6","5","3","6","5","6","7","5","5","6","5","4","6","5","5","6","3","5","797758262056460290","叶","207","Male","[""好他"",""坏我"",""坏他"",""好我""]","[""强他"",""弱我"",""弱他"",""强我""]","","","","","","","","","","","","","","","","","","","","","","","","","","","","","","feedback_test","","","","","","","","",""
"1023","","j","psychophysics","120","307523","0.0-8.0-1.0-4.0-0.0-0.6","5","4","6","5","7","4","4","5","4","5","5","-1","1","1","2","-2","1","1","2","5","5","5","5","4","5","4","4","5","4","7","8","7","8","8","7","8","7","8","5","3","6","5","5","3","6","2","3","3","1","5","3","6","3","3","5","4","4","5","4","4","6","6","5","3","6","5","6","7","5","5","6","5","4","6","5","5","6","3","5","797758262056460290","叶","207","Male","[""好他"",""坏我"",""坏他"",""好我""]","[""强他"",""弱我"",""弱他"",""强我""]","","","","","","","","match","","","","","","","","","","key","j","16.66712396694222","683","380","j","true","match","img/diamond.png","弱他","弱他","ALT2","ability","","","","","","","","",""
"null","<span style='color:GreenYellow; font-size: 70px;'>正确! </span>","null","html-keyboard-response","121","308028","0.0-8.0-1.0-4.0-0.0-1.6","5","4","6","5","7","4","4","5","4","5","5","-1","1","1","2","-2","1","1","2","5","5","5","5","4","5","4","4","5","4","7","8","7","8","8","7","8","7","8","5","3","6","5","5","3","6","2","3","3","1","5","3","6","3","3","5","4","4","5","4","4","6","6","5","3","6","5","6","7","5","5","6","5","4","6","5","5","6","3","5","797758262056460290","叶","207","Male","[""好他"",""坏我"",""坏他"",""好我""]","[""强他"",""弱我"",""弱他"",""强我""]","","","","","","","","","","","","","","","","","","","","","","","","","","","","","","feedback_test","","","","","","","","",""
"894","","j","psychophysics","122","309931","0.0-8.0-1.0-4.0-0.0-0.7","5","4","6","5","7","4","4","5","4","5","5","-1","1","1","2","-2","1","1","2","5","5","5","5","4","5","4","4","5","4","7","8","7","8","8","7","8","7","8","5","3","6","5","5","3","6","2","3","3","1","5","3","6","3","3","5","4","4","5","4","4","6","6","5","3","6","5","6","7","5","5","6","5","4","6","5","5","6","3","5","797758262056460290","叶","207","Male","[""好他"",""坏我"",""坏他"",""好我""]","[""强他"",""弱我"",""弱他"",""强我""]","","","","","","","","match","","","","","","","","","","key","j","16.815297297296965","683","380","j","true","match","img/triangle.png","强他","强他","ALT2","ability","","","","","","","","",""
"null","<span style='color:GreenYellow; font-size: 70px;'>正确! </span>","null","html-keyboard-response","123","310436","0.0-8.0-1.0-4.0-0.0-1.7","5","4","6","5","7","4","4","5","4","5","5","-1","1","1","2","-2","1","1","2","5","5","5","5","4","5","4","4","5","4","7","8","7","8","8","7","8","7","8","5","3","6","5","5","3","6","2","3","3","1","5","3","6","3","3","5","4","4","5","4","4","6","6","5","3","6","5","6","7","5","5","6","5","4","6","5","5","6","3","5","797758262056460290","叶","207","Male","[""好他"",""坏我"",""坏他"",""好我""]","[""强他"",""弱我"",""弱他"",""强我""]","","","","","","","","","","","","","","","","","","","","","","","","","","","","","","feedback_test","","","","","","","","",""
"1127","","f","psychophysics","124","312571","0.0-8.0-1.0-4.0-0.0-0.8","5","4","6","5","7","4","4","5","4","5","5","-1","1","1","2","-2","1","1","2","5","5","5","5","4","5","4","4","5","4","7","8","7","8","8","7","8","7","8","5","3","6","5","5","3","6","2","3","3","1","5","3","6","3","3","5","4","4","5","4","4","6","6","5","3","6","5","6","7","5","5","6","5","4","6","5","5","6","3","5","797758262056460290","叶","207","Male","[""好他"",""坏我"",""坏他"",""好我""]","[""强他"",""弱我"",""弱他"",""强我""]","","","","","","","","nonmatch","","","","","","","","","","key","f","16.66416666666665","683","380","f","true","nonmatch","img/triangle.png","弱他","强他","ALT2","ability","","","","","","","","",""
"null","<span style='color:GreenYellow; font-size: 70px;'>正确! </span>","null","html-keyboard-response","125","313076","0.0-8.0-1.0-4.0-0.0-1.8","5","4","6","5","7","4","4","5","4","5","5","-1","1","1","2","-2","1","1","2","5","5","5","5","4","5","4","4","5","4","7","8","7","8","8","7","8","7","8","5","3","6","5","5","3","6","2","3","3","1","5","3","6","3","3","5","4","4","5","4","4","6","6","5","3","6","5","6","7","5","5","6","5","4","6","5","5","6","3","5","797758262056460290","叶","207","Male","[""好他"",""坏我"",""坏他"",""好我""]","[""强他"",""弱我"",""弱他"",""强我""]","","","","","","","","","","","","","","","","","","","","","","","","","","","","","","feedback_test","","","","","","","","",""
"998","","f","psychophysics","126","315085","0.0-8.0-1.0-4.0-0.0-0.9","5","4","6","5","7","4","4","5","4","5","5","-1","1","1","2","-2","1","1","2","5","5","5","5","4","5","4","4","5","4","7","8","7","8","8","7","8","7","8","5","3","6","5","5","3","6","2","3","3","1","5","3","6","3","3","5","4","4","5","4","4","6","6","5","3","6","5","6","7","5","5","6","5","4","6","5","5","6","3","5","797758262056460290","叶","207","Male","[""好他"",""坏我"",""坏他"",""好我""]","[""强他"",""弱我"",""弱他"",""强我""]","","","","","","","","nonmatch","","","","","","","","","","key","f","16.665880341880307","683","380","f","true","nonmatch","img/diamond.png","强我","弱他","ALT2","ability","","","","","","","","",""
"null","<span style='color:GreenYellow; font-size: 70px;'>正确! </span>","null","html-keyboard-response","127","315588","0.0-8.0-1.0-4.0-0.0-1.9","5","4","6","5","7","4","4","5","4","5","5","-1","1","1","2","-2","1","1","2","5","5","5","5","4","5","4","4","5","4","7","8","7","8","8","7","8","7","8","5","3","6","5","5","3","6","2","3","3","1","5","3","6","3","3","5","4","4","5","4","4","6","6","5","3","6","5","6","7","5","5","6","5","4","6","5","5","6","3","5","797758262056460290","叶","207","Male","[""好他"",""坏我"",""坏他"",""好我""]","[""强他"",""弱我"",""弱他"",""强我""]","","","","","","","","","","","","","","","","","","","","","","","","","","","","","","feedback_test","","","","","","","","",""
"1078","","f","psychophysics","128","317675","0.0-8.0-1.0-4.0-0.0-0.10","5","4","6","5","7","4","4","5","4","5","5","-1","1","1","2","-2","1","1","2","5","5","5","5","4","5","4","4","5","4","7","8","7","8","8","7","8","7","8","5","3","6","5","5","3","6","2","3","3","1","5","3","6","3","3","5","4","4","5","4","4","6","6","5","3","6","5","6","7","5","5","6","5","4","6","5","5","6","3","5","797758262056460290","叶","207","Male","[""好他"",""坏我"",""坏他"",""好我""]","[""强他"",""弱我"",""弱他"",""强我""]","","","","","","","","nonmatch","","","","","","","","","","key","f","16.667774193548418","683","380","f","true","nonmatch","img/hexagon.png","弱他","弱我","ALT2","ability","","","","","","","","",""
"null","<span style='color:GreenYellow; font-size: 70px;'>正确! </span>","null","html-keyboard-response","129","318180","0.0-8.0-1.0-4.0-0.0-1.10","5","4","6","5","7","4","4","5","4","5","5","-1","1","1","2","-2","1","1","2","5","5","5","5","4","5","4","4","5","4","7","8","7","8","8","7","8","7","8","5","3","6","5","5","3","6","2","3","3","1","5","3","6","3","3","5","4","4","5","4","4","6","6","5","3","6","5","6","7","5","5","6","5","4","6","5","5","6","3","5","797758262056460290","叶","207","Male","[""好他"",""坏我"",""坏他"",""好我""]","[""强他"",""弱我"",""弱他"",""强我""]","","","","","","","","","","","","","","","","","","","","","","","","","","","","","","feedback_test","","","","","","","","",""
"1044","","f","psychophysics","130","320227","0.0-8.0-1.0-4.0-0.0-0.11","5","4","6","5","7","4","4","5","4","5","5","-1","1","1","2","-2","1","1","2","5","5","5","5","4","5","4","4","5","4","7","8","7","8","8","7","8","7","8","5","3","6","5","5","3","6","2","3","3","1","5","3","6","3","3","5","4","4","5","4","4","6","6","5","3","6","5","6","7","5","5","6","5","4","6","5","5","6","3","5","797758262056460290","叶","207","Male","[""好他"",""坏我"",""坏他"",""好我""]","[""强他"",""弱我"",""弱他"",""强我""]","","","","","","","","nonmatch","","","","","","","","","","key","f","16.79562809917362","683","380","j","false","match","img/hexagon.png","弱我","弱我","ALT2","ability","","","","","","","","",""
"null","<span style='color:red; font-size: 70px;'>错误! </span>","null","html-keyboard-response","131","320732","0.0-8.0-1.0-4.0-0.0-1.11","5","4","6","5","7","4","4","5","4","5","5","-1","1","1","2","-2","1","1","2","5","5","5","5","4","5","4","4","5","4","7","8","7","8","8","7","8","7","8","5","3","6","5","5","3","6","2","3","3","1","5","3","6","3","3","5","4","4","5","4","4","6","6","5","3","6","5","6","7","5","5","6","5","4","6","5","5","6","3","5","797758262056460290","叶","207","Male","[""好他"",""坏我"",""坏他"",""好我""]","[""强他"",""弱我"",""弱他"",""强我""]","","","","","","","","","","","","","","","","","","","","","","","","","","","","","","feedback_test","","","","","","","","",""
"1187","","f","psychophysics","132","322922","0.0-8.0-1.0-4.0-0.0-0.12","5","4","6","5","7","4","4","5","4","5","5","-1","1","1","2","-2","1","1","2","5","5","5","5","4","5","4","4","5","4","7","8","7","8","8","7","8","7","8","5","3","6","5","5","3","6","2","3","3","1","5","3","6","3","3","5","4","4","5","4","4","6","6","5","3","6","5","6","7","5","5","6","5","4","6","5","5","6","3","5","797758262056460290","叶","207","Male","[""好他"",""坏我"",""坏他"",""好我""]","[""强他"",""弱我"",""弱他"",""强我""]","","","","","","","","nonmatch","","","","","","","","","","key","f","16.66672093023288","683","380","f","true","nonmatch","img/ellipse.png","强他","强我","ALT2","ability","","","","","","","","",""
"null","<span style='color:GreenYellow; font-size: 70px;'>正确! </span>","null","html-keyboard-response","133","323429","0.0-8.0-1.0-4.0-0.0-1.12","5","4","6","5","7","4","4","5","4","5","5","-1","1","1","2","-2","1","1","2","5","5","5","5","4","5","4","4","5","4","7","8","7","8","8","7","8","7","8","5","3","6","5","5","3","6","2","3","3","1","5","3","6","3","3","5","4","4","5","4","4","6","6","5","3","6","5","6","7","5","5","6","5","4","6","5","5","6","3","5","797758262056460290","叶","207","Male","[""好他"",""坏我"",""坏他"",""好我""]","[""强他"",""弱我"",""弱他"",""强我""]","","","","","","","","","","","","","","","","","","","","","","","","","","","","","","feedback_test","","","","","","","","",""
"1127","","f","psychophysics","134","325563","0.0-8.0-1.0-4.0-0.0-0.13","5","4","6","5","7","4","4","5","4","5","5","-1","1","1","2","-2","1","1","2","5","5","5","5","4","5","4","4","5","4","7","8","7","8","8","7","8","7","8","5","3","6","5","5","3","6","2","3","3","1","5","3","6","3","3","5","4","4","5","4","4","6","6","5","3","6","5","6","7","5","5","6","5","4","6","5","5","6","3","5","797758262056460290","叶","207","Male","[""好他"",""坏我"",""坏他"",""好我""]","[""强他"",""弱我"",""弱他"",""强我""]","","","","","","","","nonmatch","","","","","","","","","","key","f","16.668168000000062","683","380","f","true","nonmatch","img/ellipse.png","弱他","强我","ALT2","ability","","","","","","","","",""
"null","<span style='color:GreenYellow; font-size: 70px;'>正确! </span>","null","html-keyboard-response","135","326069","0.0-8.0-1.0-4.0-0.0-1.13","5","4","6","5","7","4","4","5","4","5","5","-1","1","1","2","-2","1","1","2","5","5","5","5","4","5","4","4","5","4","7","8","7","8","8","7","8","7","8","5","3","6","5","5","3","6","2","3","3","1","5","3","6","3","3","5","4","4","5","4","4","6","6","5","3","6","5","6","7","5","5","6","5","4","6","5","5","6","3","5","797758262056460290","叶","207","Male","[""好他"",""坏我"",""坏他"",""好我""]","[""强他"",""弱我"",""弱他"",""强我""]","","","","","","","","","","","","","","","","","","","","","","","","","","","","","","feedback_test","","","","","","","","",""
"null","","null","psychophysics","136","328309","0.0-8.0-1.0-4.0-0.0-0.14","5","4","6","5","7","4","4","5","4","5","5","-1","1","1","2","-2","1","1","2","5","5","5","5","4","5","4","4","5","4","7","8","7","8","8","7","8","7","8","5","3","6","5","5","3","6","2","3","3","1","5","3","6","3","3","5","4","4","5","4","4","6","6","5","3","6","5","6","7","5","5","6","5","4","6","5","5","6","3","5","797758262056460290","叶","207","Male","[""好他"",""坏我"",""坏他"",""好我""]","[""强他"",""弱我"",""弱他"",""强我""]","","","","","","","","null","","","","","","","","","","key","null","16.664454545454866","683","380","j","false","match","img/ellipse.png","强我","强我","ALT2","ability","","","","","","","","",""
"null","<span class='add_' style='color:yellow; font-size: 70px;'> 太慢! </span>","null","html-keyboard-response","137","328812","0.0-8.0-1.0-4.0-0.0-1.14","5","4","6","5","7","4","4","5","4","5","5","-1","1","1","2","-2","1","1","2","5","5","5","5","4","5","4","4","5","4","7","8","7","8","8","7","8","7","8","5","3","6","5","5","3","6","2","3","3","1","5","3","6","3","3","5","4","4","5","4","4","6","6","5","3","6","5","6","7","5","5","6","5","4","6","5","5","6","3","5","797758262056460290","叶","207","Male","[""好他"",""坏我"",""坏他"",""好我""]","[""强他"",""弱我"",""弱他"",""强我""]","","","","","","","","","","","","","","","","","","","","","","","","","","","","","","feedback_test","","","","","","","","",""
