"rt","stimulus","response","trial_type","trial_index","time_elapsed","internal_node_id","swb_1","swb_2","swb_3","swb_4","swb_5","LOT_1","LOT_2","LOT_3","LOT_4","LOT_5","LOT_6","IPC_1","IPC_2","IPC_3","IPC_4","IPC_5","IPC_6","IPC_7","IPC_8","MorIden_1","MorIden_2","MorIden_3","MorIden_4","MorIden_5","MorIden_6","MorIden_7","MorIden_8","MorIden_9","MorIden_10","moralSeImag_1","moralSeImag_2","moralSeImag_3","moralSeImag_4","moralSeImag_5","moralSeImag_6","moralSeImag_7","moralSeImag_8","moralSeImag_9","sde_1","sde_2","sde_3","sde_4","sde_5","sde_6","sde_7","sde_8","sde_9","sde_10","trap2","sde_11","sde_12","sde_13","sde_14","sde_15","sde_16","sde_17","sde_18","sde_19","sde_20","IM_1","IM_2","IM_3","IM_4","IM_5","IM_6","IM_7","IM_8","IM_9","IM_10","IM_11","IM_12","IM_13","IM_14","IM_15","IM_16","IM_17","IM_18","IM_19","IM_20","subj_idx","friend_name","ParticipantID","Sex","Word","Word2","value","success","timeout","failed_images","failed_audio","failed_video","user_agent","responses","item_order","radio_event_ids","radio_event_times","key_event_times","mouse_event_times","straightlining","zigzagging","honeypot","view_history","response_type","key_press","avg_frame_time","center_x","center_y","correct_response","correct","identity","Image","word","condition","task_id","screen_id","time_stamp","person","valence","domain","math","status","duration","question_order","trap2_item"
"2455","
   <p><div style='color:white; font-size: 25px'>您好，欢迎参加本次实验。</div></p>
   <p><div style='color:white; font-size: 25px'>为充分保障您的权利，请确保您已经知晓并同意《参与实验同意书》以及《数据公开知情同意书》。</div></p>
   <p><div style='color:white; font-size: 25px'>如果您未见过上述内容，请咨询实验员。</div></p>
   <p style='color:white; font-size: 25px'>如果您选择继续实验，则表示您已经清楚两份知情同意书的内容并同意。</p>
   <p><div style = ""color: pink;font-size:30px;"">请确保您记得day0的实验编号，您将在本次实验输入该编号，若您忘记，请咨询实验员后作答。</div></p>
   <p><div style = ""color:lightblue;font-size:25px;"">请您尽可能认真地作答，我们将依据您在各问卷和按键任务中的作答质量发放报酬。</div></p>
   <p> <div style = ""color: green""><按空格键至下页></div> </p>
   "," ","html-keyboard-response","0","2456","0.0-0.0","7","7","7","7","7","5","5","5","5","5","5","2","1","2","2","2","2","2","2","5","5","5","5","5","5","5","5","5","5","8","8","8","7","8","6","8","8","8","7","7","7","7","7","6","7","1","7","7","1","7","7","7","7","7","7","7","7","7","7","7","7","7","7","7","7","7","7","7","7","7","7","7","7","7","7","7","7","6","7","633774693194661888","周","345","Male","[""坏我"",""好他"",""坏他"",""好我""]","[""弱我"",""强他"",""弱他"",""强我""]","","","","","","","","","","","","","","","","","","","","","","","","","","","","","","","","","","","","","","",""
"","","","call-function","1","2457","0.0-1.0-0.0","7","7","7","7","7","5","5","5","5","5","5","2","1","2","2","2","2","2","2","5","5","5","5","5","5","5","5","5","5","8","8","8","7","8","6","8","8","8","7","7","7","7","7","6","7","1","7","7","1","7","7","7","7","7","7","7","7","7","7","7","7","7","7","7","7","7","7","7","7","7","7","7","7","7","7","7","7","6","7","633774693194661888","周","345","Male","[""坏我"",""好他"",""坏他"",""好我""]","[""弱我"",""强他"",""弱他"",""强我""]","","","","","","","","","","","","","","","","","","","","","","","","","","","","","","","","","","","","","","",""
"29508","","[{""name"":""Sex"",""value"":""0""},{""name"":""friend_name"",""value"":""周""},{""name"":""ParticipantID"",""value"":""345""}]","survey-html-form","2","31965","0.0-1.0-1.0","7","7","7","7","7","5","5","5","5","5","5","2","1","2","2","2","2","2","2","5","5","5","5","5","5","5","5","5","5","8","8","8","7","8","6","8","8","8","7","7","7","7","7","6","7","1","7","7","1","7","7","7","7","7","7","7","7","7","7","7","7","7","7","7","7","7","7","7","7","7","7","7","7","7","7","7","7","6","7","633774693194661888","周","345","Male","[""坏我"",""好他"",""坏他"",""好我""]","[""弱我"",""强他"",""弱他"",""强我""]","","","","","","","","","","","","","","","","","","","","","","","","","","","","","","","","","","","","","","",""
"","","","preload","3","32185","0.0-2.0","7","7","7","7","7","5","5","5","5","5","5","2","1","2","2","2","2","2","2","5","5","5","5","5","5","5","5","5","5","8","8","8","7","8","6","8","8","8","7","7","7","7","7","6","7","1","7","7","1","7","7","7","7","7","7","7","7","7","7","7","7","7","7","7","7","7","7","7","7","7","7","7","7","7","7","7","7","6","7","633774693194661888","周","345","Male","[""坏我"",""好他"",""坏他"",""好我""]","[""弱我"",""强他"",""弱他"",""强我""]","","true","false","[]","[]","[]","","","","","","","","","","","","","","","","","","","","","","","","","","","","","","","","",""
"","","","fullscreen","4","39322","0.0-3.0","7","7","7","7","7","5","5","5","5","5","5","2","1","2","2","2","2","2","2","5","5","5","5","5","5","5","5","5","5","8","8","8","7","8","6","8","8","8","7","7","7","7","7","6","7","1","7","7","1","7","7","7","7","7","7","7","7","7","7","7","7","7","7","7","7","7","7","7","7","7","7","7","7","7","7","7","7","6","7","633774693194661888","周","345","Male","[""坏我"",""好他"",""坏他"",""好我""]","[""弱我"",""强他"",""弱他"",""强我""]","","true","","","","","{}","","","","","","","","","","","","","","","","","","","","","","","","","","","","","","","",""
"4401.5999999940395","","{""Q01"":""7"",""Q02"":""7"",""Q03"":""7"",""Q04"":""7"",""Q05"":""7""}","survey-template","5","43725","0.0-4.0","7","7","7","7","7","5","5","5","5","5","5","2","1","2","2","2","2","2","2","5","5","5","5","5","5","5","5","5","5","8","8","8","7","8","6","8","8","8","7","7","7","7","7","6","7","1","7","7","1","7","7","7","7","7","7","7","7","7","7","7","7","7","7","7","7","7","7","7","7","7","7","7","7","7","7","7","7","6","7","633774693194661888","周","345","Male","[""坏我"",""好他"",""坏他"",""好我""]","[""弱我"",""强他"",""弱他"",""强我""]","","","","","","","","{""Q01"":""7"",""Q02"":""7"",""Q03"":""7"",""Q04"":""7"",""Q05"":""7""}","[0,1,2,3,4]","[""Q01"",""Q02"",""Q03"",""Q04"",""Q05""]","[1544.8999999910593,2152.8999999910593,2489,3177.2999999970198,3752.7999999970198]","[]","[1544.8999999910593,1953.2999999970198,2152.8999999910593,2489,3177.2999999970198,3560.8999999910593,3752.7999999970198,4400.899999991059]","1","0","0","","","","","","","","","","","","","","","","","","","","","","",""
"7349.4000000059605","","{""Q01"":""5"",""Q02"":""5"",""Q03"":""5"",""Q04"":""5"",""Q05"":""5"",""Q06"":""5""}","survey-template","6","51077","0.0-5.0","7","7","7","7","7","5","5","5","5","5","5","2","1","2","2","2","2","2","2","5","5","5","5","5","5","5","5","5","5","8","8","8","7","8","6","8","8","8","7","7","7","7","7","6","7","1","7","7","1","7","7","7","7","7","7","7","7","7","7","7","7","7","7","7","7","7","7","7","7","7","7","7","7","7","7","7","7","6","7","633774693194661888","周","345","Male","[""坏我"",""好他"",""坏他"",""好我""]","[""弱我"",""强他"",""弱他"",""强我""]","","","","","","","","{""Q01"":""5"",""Q02"":""5"",""Q03"":""5"",""Q04"":""5"",""Q05"":""5"",""Q06"":""5""}","[0,1,2,3,4,5]","[""Q02"",""Q01"",""Q03"",""Q04"",""Q05"",""Q06""]","[2421.1000000089407,3173.2000000029802,3773.1000000089407,4828.9000000059605,5061.100000008941,6060.800000011921]","[]","[1676.7000000029802,2421.1000000089407,3173.2000000029802,3773.1000000089407,4516.70000000298,4828.9000000059605,5061.100000008941,6060.800000011921,7348.800000011921]","0.5","0.8","0","","","","","","","","","","","","","","","","","","","","","","",""
"7789.20000000298","","{""Q01"":""2"",""Q02"":""1"",""Q03"":""2"",""Q04"":""2"",""Q05"":""2"",""Q06"":""2"",""Q07"":""2"",""Q08"":""2""}","survey-template","7","58869","0.0-6.0","7","7","7","7","7","5","5","5","5","5","5","2","1","2","2","2","2","2","2","5","5","5","5","5","5","5","5","5","5","8","8","8","7","8","6","8","8","8","7","7","7","7","7","6","7","1","7","7","1","7","7","7","7","7","7","7","7","7","7","7","7","7","7","7","7","7","7","7","7","7","7","7","7","7","7","7","7","6","7","633774693194661888","周","345","Male","[""坏我"",""好他"",""坏他"",""好我""]","[""弱我"",""强他"",""弱他"",""强我""]","","","","","","","","{""Q01"":""2"",""Q02"":""1"",""Q03"":""2"",""Q04"":""2"",""Q05"":""2"",""Q06"":""2"",""Q07"":""2"",""Q08"":""2""}","[0,1,2,3,4,5,6,7]","[""Q01"",""Q03"",""Q02"",""Q02"",""Q04"",""Q05"",""Q06"",""Q07"",""Q08""]","[1388.8999999910593,2300.5999999940395,2596.7999999970198,3060.3999999910593,4588.79999999702,4933.399999991059,5252.79999999702,5564.70000000298,6389.70000000298]","[]","[1388.8999999910593,1581.2999999970198,1853,2116.5999999940395,2300.5999999940395,2596.7999999970198,3060.3999999910593,3708.7000000029802,3908.7000000029802,4396.70000000298,4588.79999999702,4933.399999991059,5252.79999999702,5564.70000000298,6068.79999999702,6389.70000000298,7788.399999991059]","0.875","0.2857142857142857","0","","","","","","","","","","","","","","","","","","","","","","",""
"1374","","","instructions","8","60244","0.0-7.0","7","7","7","7","7","5","5","5","5","5","5","2","1","2","2","2","2","2","2","5","5","5","5","5","5","5","5","5","5","8","8","8","7","8","6","8","8","8","7","7","7","7","7","6","7","1","7","7","1","7","7","7","7","7","7","7","7","7","7","7","7","7","7","7","7","7","7","7","7","7","7","7","7","7","7","7","7","6","7","633774693194661888","周","345","Male","[""坏我"",""好他"",""坏他"",""好我""]","[""弱我"",""强他"",""弱他"",""强我""]","","","","","","","","","","","","","","","","","[{""page_index"":0,""viewing_time"":1374}]","","","","","","","","","","","","","","","","","","","","","",""
"112384","","","instructions","9","172629","0.0-8.0-0.0-0.0","7","7","7","7","7","5","5","5","5","5","5","2","1","2","2","2","2","2","2","5","5","5","5","5","5","5","5","5","5","8","8","8","7","8","6","8","8","8","7","7","7","7","7","6","7","1","7","7","1","7","7","7","7","7","7","7","7","7","7","7","7","7","7","7","7","7","7","7","7","7","7","7","7","7","7","7","7","6","7","633774693194661888","周","345","Male","[""坏我"",""好他"",""坏他"",""好我""]","[""弱我"",""强他"",""弱他"",""强我""]","","","","","","","","","","","","","","","","","[{""page_index"":0,""viewing_time"":33214},{""page_index"":1,""viewing_time"":77744},{""page_index"":2,""viewing_time"":696},{""page_index"":3,""viewing_time"":728}]","","","","","","","","","","","","","","","","","","","","","",""
"478","","j","psychophysics","10","174111","0.0-8.0-0.0-1.0-0.0-0.0","7","7","7","7","7","5","5","5","5","5","5","2","1","2","2","2","2","2","2","5","5","5","5","5","5","5","5","5","5","8","8","8","7","8","6","8","8","8","7","7","7","7","7","6","7","1","7","7","1","7","7","7","7","7","7","7","7","7","7","7","7","7","7","7","7","7","7","7","7","7","7","7","7","7","7","7","7","6","7","633774693194661888","周","345","Male","[""坏我"",""好他"",""坏他"",""好我""]","[""弱我"",""强他"",""弱他"",""强我""]","","","","","","","","match","","","","","","","","","","key","j","16.651724137930835","768","428","j","true","match","img/ellipse.png","好我","好我","prac_ALT2_moral","practice_moral","","","","","","","","",""
"null","<span style='color:GreenYellow; font-size: 70px;'>正确! </span>","null","html-keyboard-response","11","174613","0.0-8.0-0.0-1.0-0.0-1.0","7","7","7","7","7","5","5","5","5","5","5","2","1","2","2","2","2","2","2","5","5","5","5","5","5","5","5","5","5","8","8","8","7","8","6","8","8","8","7","7","7","7","7","6","7","1","7","7","1","7","7","7","7","7","7","7","7","7","7","7","7","7","7","7","7","7","7","7","7","7","7","7","7","7","7","7","7","6","7","633774693194661888","周","345","Male","[""坏我"",""好他"",""坏他"",""好我""]","[""弱我"",""强他"",""弱他"",""强我""]","","","","","","","","","","","","","","","","","","","","","","","","","","","","","","feedback_test","","","","","","","","",""
"816","","f","psychophysics","12","176432","0.0-8.0-0.0-1.0-0.0-0.1","7","7","7","7","7","5","5","5","5","5","5","2","1","2","2","2","2","2","2","5","5","5","5","5","5","5","5","5","5","8","8","8","7","8","6","8","8","8","7","7","7","7","7","6","7","1","7","7","1","7","7","7","7","7","7","7","7","7","7","7","7","7","7","7","7","7","7","7","7","7","7","7","7","7","7","7","7","6","7","633774693194661888","周","345","Male","[""坏我"",""好他"",""坏他"",""好我""]","[""弱我"",""强他"",""弱他"",""强我""]","","","","","","","","nonmatch","","","","","","","","","","key","f","16.65462962962947","768","428","f","true","nonmatch","img/pentagon.png","坏我","好他","prac_ALT2_moral","practice_moral","","","","","","","","",""
"null","<span style='color:GreenYellow; font-size: 70px;'>正确! </span>","null","html-keyboard-response","13","176934","0.0-8.0-0.0-1.0-0.0-1.1","7","7","7","7","7","5","5","5","5","5","5","2","1","2","2","2","2","2","2","5","5","5","5","5","5","5","5","5","5","8","8","8","7","8","6","8","8","8","7","7","7","7","7","6","7","1","7","7","1","7","7","7","7","7","7","7","7","7","7","7","7","7","7","7","7","7","7","7","7","7","7","7","7","7","7","7","7","6","7","633774693194661888","周","345","Male","[""坏我"",""好他"",""坏他"",""好我""]","[""弱我"",""强他"",""弱他"",""强我""]","","","","","","","","","","","","","","","","","","","","","","","","","","","","","","feedback_test","","","","","","","","",""
"589","","f","psychophysics","14","178524","0.0-8.0-0.0-1.0-0.0-0.2","7","7","7","7","7","5","5","5","5","5","5","2","1","2","2","2","2","2","2","5","5","5","5","5","5","5","5","5","5","8","8","8","7","8","6","8","8","8","7","7","7","7","7","6","7","1","7","7","1","7","7","7","7","7","7","7","7","7","7","7","7","7","7","7","7","7","7","7","7","7","7","7","7","7","7","7","7","6","7","633774693194661888","周","345","Male","[""坏我"",""好他"",""坏他"",""好我""]","[""弱我"",""强他"",""弱他"",""强我""]","","","","","","","","nonmatch","","","","","","","","","","key","f","16.647368421052633","768","428","f","true","nonmatch","img/ellipse.png","坏他","好我","prac_ALT2_moral","practice_moral","","","","","","","","",""
"null","<span style='color:GreenYellow; font-size: 70px;'>正确! </span>","null","html-keyboard-response","15","179025","0.0-8.0-0.0-1.0-0.0-1.2","7","7","7","7","7","5","5","5","5","5","5","2","1","2","2","2","2","2","2","5","5","5","5","5","5","5","5","5","5","8","8","8","7","8","6","8","8","8","7","7","7","7","7","6","7","1","7","7","1","7","7","7","7","7","7","7","7","7","7","7","7","7","7","7","7","7","7","7","7","7","7","7","7","7","7","7","7","6","7","633774693194661888","周","345","Male","[""坏我"",""好他"",""坏他"",""好我""]","[""弱我"",""强他"",""弱他"",""强我""]","","","","","","","","","","","","","","","","","","","","","","","","","","","","","","feedback_test","","","","","","","","",""
"724","","f","psychophysics","16","180750","0.0-8.0-0.0-1.0-0.0-0.3","7","7","7","7","7","5","5","5","5","5","5","2","1","2","2","2","2","2","2","5","5","5","5","5","5","5","5","5","5","8","8","8","7","8","6","8","8","8","7","7","7","7","7","6","7","1","7","7","1","7","7","7","7","7","7","7","7","7","7","7","7","7","7","7","7","7","7","7","7","7","7","7","7","7","7","7","7","6","7","633774693194661888","周","345","Male","[""坏我"",""好他"",""坏他"",""好我""]","[""弱我"",""强他"",""弱他"",""强我""]","","","","","","","","nonmatch","","","","","","","","","","key","f","16.64901960784325","768","428","f","true","nonmatch","img/diamond.png","坏我","坏他","prac_ALT2_moral","practice_moral","","","","","","","","",""
"null","<span style='color:GreenYellow; font-size: 70px;'>正确! </span>","null","html-keyboard-response","17","181252","0.0-8.0-0.0-1.0-0.0-1.3","7","7","7","7","7","5","5","5","5","5","5","2","1","2","2","2","2","2","2","5","5","5","5","5","5","5","5","5","5","8","8","8","7","8","6","8","8","8","7","7","7","7","7","6","7","1","7","7","1","7","7","7","7","7","7","7","7","7","7","7","7","7","7","7","7","7","7","7","7","7","7","7","7","7","7","7","7","6","7","633774693194661888","周","345","Male","[""坏我"",""好他"",""坏他"",""好我""]","[""弱我"",""强他"",""弱他"",""强我""]","","","","","","","","","","","","","","","","","","","","","","","","","","","","","","feedback_test","","","","","","","","",""
"859","","j","psychophysics","18","183112","0.0-8.0-0.0-1.0-0.0-0.4","7","7","7","7","7","5","5","5","5","5","5","2","1","2","2","2","2","2","2","5","5","5","5","5","5","5","5","5","5","8","8","8","7","8","6","8","8","8","7","7","7","7","7","6","7","1","7","7","1","7","7","7","7","7","7","7","7","7","7","7","7","7","7","7","7","7","7","7","7","7","7","7","7","7","7","7","7","6","7","633774693194661888","周","345","Male","[""坏我"",""好他"",""坏他"",""好我""]","[""弱我"",""强他"",""弱他"",""强我""]","","","","","","","","match","","","","","","","","","","key","j","16.65495495495506","768","428","j","true","match","img/square.png","坏我","坏我","prac_ALT2_moral","practice_moral","","","","","","","","",""
"null","<span style='color:GreenYellow; font-size: 70px;'>正确! </span>","null","html-keyboard-response","19","183615","0.0-8.0-0.0-1.0-0.0-1.4","7","7","7","7","7","5","5","5","5","5","5","2","1","2","2","2","2","2","2","5","5","5","5","5","5","5","5","5","5","8","8","8","7","8","6","8","8","8","7","7","7","7","7","6","7","1","7","7","1","7","7","7","7","7","7","7","7","7","7","7","7","7","7","7","7","7","7","7","7","7","7","7","7","7","7","7","7","6","7","633774693194661888","周","345","Male","[""坏我"",""好他"",""坏他"",""好我""]","[""弱我"",""强他"",""弱他"",""强我""]","","","","","","","","","","","","","","","","","","","","","","","","","","","","","","feedback_test","","","","","","","","",""
"897","","j","psychophysics","20","185513","0.0-8.0-0.0-1.0-0.0-0.5","7","7","7","7","7","5","5","5","5","5","5","2","1","2","2","2","2","2","2","5","5","5","5","5","5","5","5","5","5","8","8","8","7","8","6","8","8","8","7","7","7","7","7","6","7","1","7","7","1","7","7","7","7","7","7","7","7","7","7","7","7","7","7","7","7","7","7","7","7","7","7","7","7","7","7","7","7","6","7","633774693194661888","周","345","Male","[""坏我"",""好他"",""坏他"",""好我""]","[""弱我"",""强他"",""弱他"",""强我""]","","","","","","","","match","","","","","","","","","","key","j","16.65132743362837","768","428","j","true","match","img/pentagon.png","好他","好他","prac_ALT2_moral","practice_moral","","","","","","","","",""
"null","<span style='color:GreenYellow; font-size: 70px;'>正确! </span>","null","html-keyboard-response","21","186014","0.0-8.0-0.0-1.0-0.0-1.5","7","7","7","7","7","5","5","5","5","5","5","2","1","2","2","2","2","2","2","5","5","5","5","5","5","5","5","5","5","8","8","8","7","8","6","8","8","8","7","7","7","7","7","6","7","1","7","7","1","7","7","7","7","7","7","7","7","7","7","7","7","7","7","7","7","7","7","7","7","7","7","7","7","7","7","7","7","6","7","633774693194661888","周","345","Male","[""坏我"",""好他"",""坏他"",""好我""]","[""弱我"",""强他"",""弱他"",""强我""]","","","","","","","","","","","","","","","","","","","","","","","","","","","","","","feedback_test","","","","","","","","",""
"949","","j","psychophysics","22","187965","0.0-8.0-0.0-1.0-0.0-0.6","7","7","7","7","7","5","5","5","5","5","5","2","1","2","2","2","2","2","2","5","5","5","5","5","5","5","5","5","5","8","8","8","7","8","6","8","8","8","7","7","7","7","7","6","7","1","7","7","1","7","7","7","7","7","7","7","7","7","7","7","7","7","7","7","7","7","7","7","7","7","7","7","7","7","7","7","7","6","7","633774693194661888","周","345","Male","[""坏我"",""好他"",""坏他"",""好我""]","[""弱我"",""强他"",""弱他"",""强我""]","","","","","","","","match","","","","","","","","","","key","j","16.651724137931083","768","428","j","true","match","img/diamond.png","坏他","坏他","prac_ALT2_moral","practice_moral","","","","","","","","",""
"null","<span style='color:GreenYellow; font-size: 70px;'>正确! </span>","null","html-keyboard-response","23","188466","0.0-8.0-0.0-1.0-0.0-1.6","7","7","7","7","7","5","5","5","5","5","5","2","1","2","2","2","2","2","2","5","5","5","5","5","5","5","5","5","5","8","8","8","7","8","6","8","8","8","7","7","7","7","7","6","7","1","7","7","1","7","7","7","7","7","7","7","7","7","7","7","7","7","7","7","7","7","7","7","7","7","7","7","7","7","7","7","7","6","7","633774693194661888","周","345","Male","[""坏我"",""好他"",""坏他"",""好我""]","[""弱我"",""强他"",""弱他"",""强我""]","","","","","","","","","","","","","","","","","","","","","","","","","","","","","","feedback_test","","","","","","","","",""
"752","","f","psychophysics","24","190221","0.0-8.0-0.0-1.0-0.0-0.7","7","7","7","7","7","5","5","5","5","5","5","2","1","2","2","2","2","2","2","5","5","5","5","5","5","5","5","5","5","8","8","8","7","8","6","8","8","8","7","7","7","7","7","6","7","1","7","7","1","7","7","7","7","7","7","7","7","7","7","7","7","7","7","7","7","7","7","7","7","7","7","7","7","7","7","7","7","6","7","633774693194661888","周","345","Male","[""坏我"",""好他"",""坏他"",""好我""]","[""弱我"",""强他"",""弱他"",""强我""]","","","","","","","","nonmatch","","","","","","","","","","key","f","16.64807692307715","768","428","f","true","nonmatch","img/pentagon.png","好我","好他","prac_ALT2_moral","practice_moral","","","","","","","","",""
"null","<span style='color:GreenYellow; font-size: 70px;'>正确! </span>","null","html-keyboard-response","25","190722","0.0-8.0-0.0-1.0-0.0-1.7","7","7","7","7","7","5","5","5","5","5","5","2","1","2","2","2","2","2","2","5","5","5","5","5","5","5","5","5","5","8","8","8","7","8","6","8","8","8","7","7","7","7","7","6","7","1","7","7","1","7","7","7","7","7","7","7","7","7","7","7","7","7","7","7","7","7","7","7","7","7","7","7","7","7","7","7","7","6","7","633774693194661888","周","345","Male","[""坏我"",""好他"",""坏他"",""好我""]","[""弱我"",""强他"",""弱他"",""强我""]","","","","","","","","","","","","","","","","","","","","","","","","","","","","","","feedback_test","","","","","","","","",""
"898","","f","psychophysics","26","192623","0.0-8.0-0.0-1.0-0.0-0.8","7","7","7","7","7","5","5","5","5","5","5","2","1","2","2","2","2","2","2","5","5","5","5","5","5","5","5","5","5","8","8","8","7","8","6","8","8","8","7","7","7","7","7","6","7","1","7","7","1","7","7","7","7","7","7","7","7","7","7","7","7","7","7","7","7","7","7","7","7","7","7","7","7","7","7","7","7","6","7","633774693194661888","周","345","Male","[""坏我"",""好他"",""坏他"",""好我""]","[""弱我"",""强他"",""弱他"",""强我""]","","","","","","","","nonmatch","","","","","","","","","","key","f","16.65132743362837","768","428","f","true","nonmatch","img/pentagon.png","坏他","好他","prac_ALT2_moral","practice_moral","","","","","","","","",""
"null","<span style='color:GreenYellow; font-size: 70px;'>正确! </span>","null","html-keyboard-response","27","193123","0.0-8.0-0.0-1.0-0.0-1.8","7","7","7","7","7","5","5","5","5","5","5","2","1","2","2","2","2","2","2","5","5","5","5","5","5","5","5","5","5","8","8","8","7","8","6","8","8","8","7","7","7","7","7","6","7","1","7","7","1","7","7","7","7","7","7","7","7","7","7","7","7","7","7","7","7","7","7","7","7","7","7","7","7","7","7","7","7","6","7","633774693194661888","周","345","Male","[""坏我"",""好他"",""坏他"",""好我""]","[""弱我"",""强他"",""弱他"",""强我""]","","","","","","","","","","","","","","","","","","","","","","","","","","","","","","feedback_test","","","","","","","","",""
"764","","j","psychophysics","28","194889","0.0-8.0-0.0-1.0-0.0-0.9","7","7","7","7","7","5","5","5","5","5","5","2","1","2","2","2","2","2","2","5","5","5","5","5","5","5","5","5","5","8","8","8","7","8","6","8","8","8","7","7","7","7","7","6","7","1","7","7","1","7","7","7","7","7","7","7","7","7","7","7","7","7","7","7","7","7","7","7","7","7","7","7","7","7","7","7","7","6","7","633774693194661888","周","345","Male","[""坏我"",""好他"",""坏他"",""好我""]","[""弱我"",""强他"",""弱他"",""强我""]","","","","","","","","match","","","","","","","","","","key","j","16.65333333333339","768","428","j","true","match","img/diamond.png","坏他","坏他","prac_ALT2_moral","practice_moral","","","","","","","","",""
"null","<span style='color:GreenYellow; font-size: 70px;'>正确! </span>","null","html-keyboard-response","29","195390","0.0-8.0-0.0-1.0-0.0-1.9","7","7","7","7","7","5","5","5","5","5","5","2","1","2","2","2","2","2","2","5","5","5","5","5","5","5","5","5","5","8","8","8","7","8","6","8","8","8","7","7","7","7","7","6","7","1","7","7","1","7","7","7","7","7","7","7","7","7","7","7","7","7","7","7","7","7","7","7","7","7","7","7","7","7","7","7","7","6","7","633774693194661888","周","345","Male","[""坏我"",""好他"",""坏他"",""好我""]","[""弱我"",""强他"",""弱他"",""强我""]","","","","","","","","","","","","","","","","","","","","","","","","","","","","","","feedback_test","","","","","","","","",""
"730","","f","psychophysics","30","197121","0.0-8.0-0.0-1.0-0.0-0.10","7","7","7","7","7","5","5","5","5","5","5","2","1","2","2","2","2","2","2","5","5","5","5","5","5","5","5","5","5","8","8","8","7","8","6","8","8","8","7","7","7","7","7","6","7","1","7","7","1","7","7","7","7","7","7","7","7","7","7","7","7","7","7","7","7","7","7","7","7","7","7","7","7","7","7","7","7","6","7","633774693194661888","周","345","Male","[""坏我"",""好他"",""坏他"",""好我""]","[""弱我"",""强他"",""弱他"",""强我""]","","","","","","","","nonmatch","","","","","","","","","","key","f","16.64757281553381","768","428","f","true","nonmatch","img/square.png","坏他","坏我","prac_ALT2_moral","practice_moral","","","","","","","","",""
"null","<span style='color:GreenYellow; font-size: 70px;'>正确! </span>","null","html-keyboard-response","31","197622","0.0-8.0-0.0-1.0-0.0-1.10","7","7","7","7","7","5","5","5","5","5","5","2","1","2","2","2","2","2","2","5","5","5","5","5","5","5","5","5","5","8","8","8","7","8","6","8","8","8","7","7","7","7","7","6","7","1","7","7","1","7","7","7","7","7","7","7","7","7","7","7","7","7","7","7","7","7","7","7","7","7","7","7","7","7","7","7","7","6","7","633774693194661888","周","345","Male","[""坏我"",""好他"",""坏他"",""好我""]","[""弱我"",""强他"",""弱他"",""强我""]","","","","","","","","","","","","","","","","","","","","","","","","","","","","","","feedback_test","","","","","","","","",""
"558","","j","psychophysics","32","199182","0.0-8.0-0.0-1.0-0.0-0.11","7","7","7","7","7","5","5","5","5","5","5","2","1","2","2","2","2","2","2","5","5","5","5","5","5","5","5","5","5","8","8","8","7","8","6","8","8","8","7","7","7","7","7","6","7","1","7","7","1","7","7","7","7","7","7","7","7","7","7","7","7","7","7","7","7","7","7","7","7","7","7","7","7","7","7","7","7","6","7","633774693194661888","周","345","Male","[""坏我"",""好他"",""坏他"",""好我""]","[""弱我"",""强他"",""弱他"",""强我""]","","","","","","","","match","","","","","","","","","","key","j","16.63586956521739","768","428","j","true","match","img/ellipse.png","好我","好我","prac_ALT2_moral","practice_moral","","","","","","","","",""
"null","<span style='color:GreenYellow; font-size: 70px;'>正确! </span>","null","html-keyboard-response","33","199685","0.0-8.0-0.0-1.0-0.0-1.11","7","7","7","7","7","5","5","5","5","5","5","2","1","2","2","2","2","2","2","5","5","5","5","5","5","5","5","5","5","8","8","8","7","8","6","8","8","8","7","7","7","7","7","6","7","1","7","7","1","7","7","7","7","7","7","7","7","7","7","7","7","7","7","7","7","7","7","7","7","7","7","7","7","7","7","7","7","6","7","633774693194661888","周","345","Male","[""坏我"",""好他"",""坏他"",""好我""]","[""弱我"",""强他"",""弱他"",""强我""]","","","","","","","","","","","","","","","","","","","","","","","","","","","","","","feedback_test","","","","","","","","",""
"538","","f","psychophysics","34","201224","0.0-8.0-0.0-1.0-0.0-0.12","7","7","7","7","7","5","5","5","5","5","5","2","1","2","2","2","2","2","2","5","5","5","5","5","5","5","5","5","5","8","8","8","7","8","6","8","8","8","7","7","7","7","7","6","7","1","7","7","1","7","7","7","7","7","7","7","7","7","7","7","7","7","7","7","7","7","7","7","7","7","7","7","7","7","7","7","7","6","7","633774693194661888","周","345","Male","[""坏我"",""好他"",""坏他"",""好我""]","[""弱我"",""强他"",""弱他"",""强我""]","","","","","","","","nonmatch","","","","","","","","","","key","f","16.651086956521677","768","428","f","true","nonmatch","img/ellipse.png","坏我","好我","prac_ALT2_moral","practice_moral","","","","","","","","",""
"null","<span style='color:GreenYellow; font-size: 70px;'>正确! </span>","null","html-keyboard-response","35","201726","0.0-8.0-0.0-1.0-0.0-1.12","7","7","7","7","7","5","5","5","5","5","5","2","1","2","2","2","2","2","2","5","5","5","5","5","5","5","5","5","5","8","8","8","7","8","6","8","8","8","7","7","7","7","7","6","7","1","7","7","1","7","7","7","7","7","7","7","7","7","7","7","7","7","7","7","7","7","7","7","7","7","7","7","7","7","7","7","7","6","7","633774693194661888","周","345","Male","[""坏我"",""好他"",""坏他"",""好我""]","[""弱我"",""强他"",""弱他"",""强我""]","","","","","","","","","","","","","","","","","","","","","","","","","","","","","","feedback_test","","","","","","","","",""
"454","","f","psychophysics","36","203182","0.0-8.0-0.0-1.0-0.0-0.13","7","7","7","7","7","5","5","5","5","5","5","2","1","2","2","2","2","2","2","5","5","5","5","5","5","5","5","5","5","8","8","8","7","8","6","8","8","8","7","7","7","7","7","6","7","1","7","7","1","7","7","7","7","7","7","7","7","7","7","7","7","7","7","7","7","7","7","7","7","7","7","7","7","7","7","7","7","6","7","633774693194661888","周","345","Male","[""坏我"",""好他"",""坏他"",""好我""]","[""弱我"",""强他"",""弱他"",""强我""]","","","","","","","","nonmatch","","","","","","","","","","key","f","16.646511627906705","768","428","f","true","nonmatch","img/ellipse.png","好他","好我","prac_ALT2_moral","practice_moral","","","","","","","","",""
"null","<span style='color:GreenYellow; font-size: 70px;'>正确! </span>","null","html-keyboard-response","37","203684","0.0-8.0-0.0-1.0-0.0-1.13","7","7","7","7","7","5","5","5","5","5","5","2","1","2","2","2","2","2","2","5","5","5","5","5","5","5","5","5","5","8","8","8","7","8","6","8","8","8","7","7","7","7","7","6","7","1","7","7","1","7","7","7","7","7","7","7","7","7","7","7","7","7","7","7","7","7","7","7","7","7","7","7","7","7","7","7","7","6","7","633774693194661888","周","345","Male","[""坏我"",""好他"",""坏他"",""好我""]","[""弱我"",""强他"",""弱他"",""强我""]","","","","","","","","","","","","","","","","","","","","","","","","","","","","","","feedback_test","","","","","","","","",""
"464","","j","psychophysics","38","205149","0.0-8.0-0.0-1.0-0.0-0.14","7","7","7","7","7","5","5","5","5","5","5","2","1","2","2","2","2","2","2","5","5","5","5","5","5","5","5","5","5","8","8","8","7","8","6","8","8","8","7","7","7","7","7","6","7","1","7","7","1","7","7","7","7","7","7","7","7","7","7","7","7","7","7","7","7","7","7","7","7","7","7","7","7","7","7","7","7","6","7","633774693194661888","周","345","Male","[""坏我"",""好他"",""坏他"",""好我""]","[""弱我"",""强他"",""弱他"",""强我""]","","","","","","","","match","","","","","","","","","","key","j","16.6453488372093","768","428","f","false","nonmatch","img/diamond.png","好他","坏他","prac_ALT2_moral","practice_moral","","","","","","","","",""
"null","<span style='color:red; font-size: 70px;'>错误! </span>","null","html-keyboard-response","39","205650","0.0-8.0-0.0-1.0-0.0-1.14","7","7","7","7","7","5","5","5","5","5","5","2","1","2","2","2","2","2","2","5","5","5","5","5","5","5","5","5","5","8","8","8","7","8","6","8","8","8","7","7","7","7","7","6","7","1","7","7","1","7","7","7","7","7","7","7","7","7","7","7","7","7","7","7","7","7","7","7","7","7","7","7","7","7","7","7","7","6","7","633774693194661888","周","345","Male","[""坏我"",""好他"",""坏他"",""好我""]","[""弱我"",""强他"",""弱他"",""强我""]","","","","","","","","","","","","","","","","","","","","","","","","","","","","","","feedback_test","","","","","","","","",""
"639","","j","psychophysics","40","207290","0.0-8.0-0.0-1.0-0.0-0.15","7","7","7","7","7","5","5","5","5","5","5","2","1","2","2","2","2","2","2","5","5","5","5","5","5","5","5","5","5","8","8","8","7","8","6","8","8","8","7","7","7","7","7","6","7","1","7","7","1","7","7","7","7","7","7","7","7","7","7","7","7","7","7","7","7","7","7","7","7","7","7","7","7","7","7","7","7","6","7","633774693194661888","周","345","Male","[""坏我"",""好他"",""坏他"",""好我""]","[""弱我"",""强他"",""弱他"",""强我""]","","","","","","","","match","","","","","","","","","","key","j","16.65257731958781","768","428","j","true","match","img/pentagon.png","好他","好他","prac_ALT2_moral","practice_moral","","","","","","","","",""
"null","<span style='color:GreenYellow; font-size: 70px;'>正确! </span>","null","html-keyboard-response","41","207793","0.0-8.0-0.0-1.0-0.0-1.15","7","7","7","7","7","5","5","5","5","5","5","2","1","2","2","2","2","2","2","5","5","5","5","5","5","5","5","5","5","8","8","8","7","8","6","8","8","8","7","7","7","7","7","6","7","1","7","7","1","7","7","7","7","7","7","7","7","7","7","7","7","7","7","7","7","7","7","7","7","7","7","7","7","7","7","7","7","6","7","633774693194661888","周","345","Male","[""坏我"",""好他"",""坏他"",""好我""]","[""弱我"",""强他"",""弱他"",""强我""]","","","","","","","","","","","","","","","","","","","","","","","","","","","","","","feedback_test","","","","","","","","",""
"782","","f","psychophysics","42","209577","0.0-8.0-0.0-1.0-0.0-0.16","7","7","7","7","7","5","5","5","5","5","5","2","1","2","2","2","2","2","2","5","5","5","5","5","5","5","5","5","5","8","8","8","7","8","6","8","8","8","7","7","7","7","7","6","7","1","7","7","1","7","7","7","7","7","7","7","7","7","7","7","7","7","7","7","7","7","7","7","7","7","7","7","7","7","7","7","7","6","7","633774693194661888","周","345","Male","[""坏我"",""好他"",""坏他"",""好我""]","[""弱我"",""强他"",""弱他"",""强我""]","","","","","","","","nonmatch","","","","","","","","","","key","f","16.651886792452885","768","428","j","false","match","img/square.png","坏我","坏我","prac_ALT2_moral","practice_moral","","","","","","","","",""
"null","<span style='color:red; font-size: 70px;'>错误! </span>","null","html-keyboard-response","43","210079","0.0-8.0-0.0-1.0-0.0-1.16","7","7","7","7","7","5","5","5","5","5","5","2","1","2","2","2","2","2","2","5","5","5","5","5","5","5","5","5","5","8","8","8","7","8","6","8","8","8","7","7","7","7","7","6","7","1","7","7","1","7","7","7","7","7","7","7","7","7","7","7","7","7","7","7","7","7","7","7","7","7","7","7","7","7","7","7","7","6","7","633774693194661888","周","345","Male","[""坏我"",""好他"",""坏他"",""好我""]","[""弱我"",""强他"",""弱他"",""强我""]","","","","","","","","","","","","","","","","","","","","","","","","","","","","","","feedback_test","","","","","","","","",""
"514","","j","psychophysics","44","211595","0.0-8.0-0.0-1.0-0.0-0.17","7","7","7","7","7","5","5","5","5","5","5","2","1","2","2","2","2","2","2","5","5","5","5","5","5","5","5","5","5","8","8","8","7","8","6","8","8","8","7","7","7","7","7","6","7","1","7","7","1","7","7","7","7","7","7","7","7","7","7","7","7","7","7","7","7","7","7","7","7","7","7","7","7","7","7","7","7","6","7","633774693194661888","周","345","Male","[""坏我"",""好他"",""坏他"",""好我""]","[""弱我"",""强他"",""弱他"",""强我""]","","","","","","","","match","","","","","","","","","","key","j","16.657777777777582","768","428","j","true","match","img/square.png","坏我","坏我","prac_ALT2_moral","practice_moral","","","","","","","","",""
"null","<span style='color:GreenYellow; font-size: 70px;'>正确! </span>","null","html-keyboard-response","45","212095","0.0-8.0-0.0-1.0-0.0-1.17","7","7","7","7","7","5","5","5","5","5","5","2","1","2","2","2","2","2","2","5","5","5","5","5","5","5","5","5","5","8","8","8","7","8","6","8","8","8","7","7","7","7","7","6","7","1","7","7","1","7","7","7","7","7","7","7","7","7","7","7","7","7","7","7","7","7","7","7","7","7","7","7","7","7","7","7","7","6","7","633774693194661888","周","345","Male","[""坏我"",""好他"",""坏他"",""好我""]","[""弱我"",""强他"",""弱他"",""强我""]","","","","","","","","","","","","","","","","","","","","","","","","","","","","","","feedback_test","","","","","","","","",""
"674","","f","psychophysics","46","213771","0.0-8.0-0.0-1.0-0.0-0.18","7","7","7","7","7","5","5","5","5","5","5","2","1","2","2","2","2","2","2","5","5","5","5","5","5","5","5","5","5","8","8","8","7","8","6","8","8","8","7","7","7","7","7","6","7","1","7","7","1","7","7","7","7","7","7","7","7","7","7","7","7","7","7","7","7","7","7","7","7","7","7","7","7","7","7","7","7","6","7","633774693194661888","周","345","Male","[""坏我"",""好他"",""坏他"",""好我""]","[""弱我"",""强他"",""弱他"",""强我""]","","","","","","","","nonmatch","","","","","","","","","","key","f","16.651515151515152","768","428","f","true","nonmatch","img/diamond.png","好我","坏他","prac_ALT2_moral","practice_moral","","","","","","","","",""
"null","<span style='color:GreenYellow; font-size: 70px;'>正确! </span>","null","html-keyboard-response","47","214272","0.0-8.0-0.0-1.0-0.0-1.18","7","7","7","7","7","5","5","5","5","5","5","2","1","2","2","2","2","2","2","5","5","5","5","5","5","5","5","5","5","8","8","8","7","8","6","8","8","8","7","7","7","7","7","6","7","1","7","7","1","7","7","7","7","7","7","7","7","7","7","7","7","7","7","7","7","7","7","7","7","7","7","7","7","7","7","7","7","6","7","633774693194661888","周","345","Male","[""坏我"",""好他"",""坏他"",""好我""]","[""弱我"",""强他"",""弱他"",""强我""]","","","","","","","","","","","","","","","","","","","","","","","","","","","","","","feedback_test","","","","","","","","",""
"919","","j","psychophysics","48","216193","0.0-8.0-0.0-1.0-0.0-0.19","7","7","7","7","7","5","5","5","5","5","5","2","1","2","2","2","2","2","2","5","5","5","5","5","5","5","5","5","5","8","8","8","7","8","6","8","8","8","7","7","7","7","7","6","7","1","7","7","1","7","7","7","7","7","7","7","7","7","7","7","7","7","7","7","7","7","7","7","7","7","7","7","7","7","7","7","7","6","7","633774693194661888","周","345","Male","[""坏我"",""好他"",""坏他"",""好我""]","[""弱我"",""强他"",""弱他"",""强我""]","","","","","","","","match","","","","","","","","","","key","j","16.651304347826038","768","428","f","false","nonmatch","img/square.png","好我","坏我","prac_ALT2_moral","practice_moral","","","","","","","","",""
"null","<span style='color:red; font-size: 70px;'>错误! </span>","null","html-keyboard-response","49","216694","0.0-8.0-0.0-1.0-0.0-1.19","7","7","7","7","7","5","5","5","5","5","5","2","1","2","2","2","2","2","2","5","5","5","5","5","5","5","5","5","5","8","8","8","7","8","6","8","8","8","7","7","7","7","7","6","7","1","7","7","1","7","7","7","7","7","7","7","7","7","7","7","7","7","7","7","7","7","7","7","7","7","7","7","7","7","7","7","7","6","7","633774693194661888","周","345","Male","[""坏我"",""好他"",""坏他"",""好我""]","[""弱我"",""强他"",""弱他"",""强我""]","","","","","","","","","","","","","","","","","","","","","","","","","","","","","","feedback_test","","","","","","","","",""
"619","","j","psychophysics","50","218316","0.0-8.0-0.0-1.0-0.0-0.20","7","7","7","7","7","5","5","5","5","5","5","2","1","2","2","2","2","2","2","5","5","5","5","5","5","5","5","5","5","8","8","8","7","8","6","8","8","8","7","7","7","7","7","6","7","1","7","7","1","7","7","7","7","7","7","7","7","7","7","7","7","7","7","7","7","7","7","7","7","7","7","7","7","7","7","7","7","6","7","633774693194661888","周","345","Male","[""坏我"",""好他"",""坏他"",""好我""]","[""弱我"",""强他"",""弱他"",""强我""]","","","","","","","","match","","","","","","","","","","key","j","16.649999999999938","768","428","j","true","match","img/pentagon.png","好他","好他","prac_ALT2_moral","practice_moral","","","","","","","","",""
"null","<span style='color:GreenYellow; font-size: 70px;'>正确! </span>","null","html-keyboard-response","51","218817","0.0-8.0-0.0-1.0-0.0-1.20","7","7","7","7","7","5","5","5","5","5","5","2","1","2","2","2","2","2","2","5","5","5","5","5","5","5","5","5","5","8","8","8","7","8","6","8","8","8","7","7","7","7","7","6","7","1","7","7","1","7","7","7","7","7","7","7","7","7","7","7","7","7","7","7","7","7","7","7","7","7","7","7","7","7","7","7","7","6","7","633774693194661888","周","345","Male","[""坏我"",""好他"",""坏他"",""好我""]","[""弱我"",""强他"",""弱他"",""强我""]","","","","","","","","","","","","","","","","","","","","","","","","","","","","","","feedback_test","","","","","","","","",""
"777","","j","psychophysics","52","220596","0.0-8.0-0.0-1.0-0.0-0.21","7","7","7","7","7","5","5","5","5","5","5","2","1","2","2","2","2","2","2","5","5","5","5","5","5","5","5","5","5","8","8","8","7","8","6","8","8","8","7","7","7","7","7","6","7","1","7","7","1","7","7","7","7","7","7","7","7","7","7","7","7","7","7","7","7","7","7","7","7","7","7","7","7","7","7","7","7","6","7","633774693194661888","周","345","Male","[""坏我"",""好他"",""坏他"",""好我""]","[""弱我"",""强他"",""弱他"",""强我""]","","","","","","","","match","","","","","","","","","","key","j","16.650943396226417","768","428","f","false","nonmatch","img/square.png","好他","坏我","prac_ALT2_moral","practice_moral","","","","","","","","",""
"null","<span style='color:red; font-size: 70px;'>错误! </span>","null","html-keyboard-response","53","221098","0.0-8.0-0.0-1.0-0.0-1.21","7","7","7","7","7","5","5","5","5","5","5","2","1","2","2","2","2","2","2","5","5","5","5","5","5","5","5","5","5","8","8","8","7","8","6","8","8","8","7","7","7","7","7","6","7","1","7","7","1","7","7","7","7","7","7","7","7","7","7","7","7","7","7","7","7","7","7","7","7","7","7","7","7","7","7","7","7","6","7","633774693194661888","周","345","Male","[""坏我"",""好他"",""坏他"",""好我""]","[""弱我"",""强他"",""弱他"",""强我""]","","","","","","","","","","","","","","","","","","","","","","","","","","","","","","feedback_test","","","","","","","","",""
"864","","f","psychophysics","54","222962","0.0-8.0-0.0-1.0-0.0-0.22","7","7","7","7","7","5","5","5","5","5","5","2","1","2","2","2","2","2","2","5","5","5","5","5","5","5","5","5","5","8","8","8","7","8","6","8","8","8","7","7","7","7","7","6","7","1","7","7","1","7","7","7","7","7","7","7","7","7","7","7","7","7","7","7","7","7","7","7","7","7","7","7","7","7","7","7","7","6","7","633774693194661888","周","345","Male","[""坏我"",""好他"",""坏他"",""好我""]","[""弱我"",""强他"",""弱他"",""强我""]","","","","","","","","nonmatch","","","","","","","","","","key","f","16.654054054054107","768","428","j","false","match","img/diamond.png","坏他","坏他","prac_ALT2_moral","practice_moral","","","","","","","","",""
"null","<span style='color:red; font-size: 70px;'>错误! </span>","null","html-keyboard-response","55","223464","0.0-8.0-0.0-1.0-0.0-1.22","7","7","7","7","7","5","5","5","5","5","5","2","1","2","2","2","2","2","2","5","5","5","5","5","5","5","5","5","5","8","8","8","7","8","6","8","8","8","7","7","7","7","7","6","7","1","7","7","1","7","7","7","7","7","7","7","7","7","7","7","7","7","7","7","7","7","7","7","7","7","7","7","7","7","7","7","7","6","7","633774693194661888","周","345","Male","[""坏我"",""好他"",""坏他"",""好我""]","[""弱我"",""强他"",""弱他"",""强我""]","","","","","","","","","","","","","","","","","","","","","","","","","","","","","","feedback_test","","","","","","","","",""
"585","","j","psychophysics","56","225050","0.0-8.0-0.0-1.0-0.0-0.23","7","7","7","7","7","5","5","5","5","5","5","2","1","2","2","2","2","2","2","5","5","5","5","5","5","5","5","5","5","8","8","8","7","8","6","8","8","8","7","7","7","7","7","6","7","1","7","7","1","7","7","7","7","7","7","7","7","7","7","7","7","7","7","7","7","7","7","7","7","7","7","7","7","7","7","7","7","6","7","633774693194661888","周","345","Male","[""坏我"",""好他"",""坏他"",""好我""]","[""弱我"",""强他"",""弱他"",""强我""]","","","","","","","","match","","","","","","","","","","key","j","16.65473684210508","768","428","j","true","match","img/ellipse.png","好我","好我","prac_ALT2_moral","practice_moral","","","","","","","","",""
"null","<span style='color:GreenYellow; font-size: 70px;'>正确! </span>","null","html-keyboard-response","57","225551","0.0-8.0-0.0-1.0-0.0-1.23","7","7","7","7","7","5","5","5","5","5","5","2","1","2","2","2","2","2","2","5","5","5","5","5","5","5","5","5","5","8","8","8","7","8","6","8","8","8","7","7","7","7","7","6","7","1","7","7","1","7","7","7","7","7","7","7","7","7","7","7","7","7","7","7","7","7","7","7","7","7","7","7","7","7","7","7","7","6","7","633774693194661888","周","345","Male","[""坏我"",""好他"",""坏他"",""好我""]","[""弱我"",""强他"",""弱他"",""强我""]","","","","","","","","","","","","","","","","","","","","","","","","","","","","","","feedback_test","","","","","","","","",""
"693","","f","psychophysics","58","227246","0.0-8.0-0.0-1.0-0.0-0.24","7","7","7","7","7","5","5","5","5","5","5","2","1","2","2","2","2","2","2","5","5","5","5","5","5","5","5","5","5","8","8","8","7","8","6","8","8","8","7","7","7","7","7","6","7","1","7","7","1","7","7","7","7","7","7","7","7","7","7","7","7","7","7","7","7","7","7","7","7","7","7","7","7","7","7","7","7","6","7","633774693194661888","周","345","Male","[""坏我"",""好他"",""坏他"",""好我""]","[""弱我"",""强他"",""弱他"",""强我""]","","","","","","","","nonmatch","","","","","","","","","","key","f","16.651485148514737","768","428","f","true","nonmatch","img/square.png","好我","坏我","prac_ALT2_moral","practice_moral","","","","","","","","",""
"null","<span style='color:GreenYellow; font-size: 70px;'>正确! </span>","null","html-keyboard-response","59","227747","0.0-8.0-0.0-1.0-0.0-1.24","7","7","7","7","7","5","5","5","5","5","5","2","1","2","2","2","2","2","2","5","5","5","5","5","5","5","5","5","5","8","8","8","7","8","6","8","8","8","7","7","7","7","7","6","7","1","7","7","1","7","7","7","7","7","7","7","7","7","7","7","7","7","7","7","7","7","7","7","7","7","7","7","7","7","7","7","7","6","7","633774693194661888","周","345","Male","[""坏我"",""好他"",""坏他"",""好我""]","[""弱我"",""强他"",""弱他"",""强我""]","","","","","","","","","","","","","","","","","","","","","","","","","","","","","","feedback_test","","","","","","","","",""
"905","","f","psychophysics","60","229653","0.0-8.0-0.0-1.0-0.0-0.25","7","7","7","7","7","5","5","5","5","5","5","2","1","2","2","2","2","2","2","5","5","5","5","5","5","5","5","5","5","8","8","8","7","8","6","8","8","8","7","7","7","7","7","6","7","1","7","7","1","7","7","7","7","7","7","7","7","7","7","7","7","7","7","7","7","7","7","7","7","7","7","7","7","7","7","7","7","6","7","633774693194661888","周","345","Male","[""坏我"",""好他"",""坏他"",""好我""]","[""弱我"",""强他"",""弱他"",""强我""]","","","","","","","","nonmatch","","","","","","","","","","key","f","16.65309734513264","768","428","f","true","nonmatch","img/pentagon.png","好我","好他","prac_ALT2_moral","practice_moral","","","","","","","","",""
"null","<span style='color:GreenYellow; font-size: 70px;'>正确! </span>","null","html-keyboard-response","61","230153","0.0-8.0-0.0-1.0-0.0-1.25","7","7","7","7","7","5","5","5","5","5","5","2","1","2","2","2","2","2","2","5","5","5","5","5","5","5","5","5","5","8","8","8","7","8","6","8","8","8","7","7","7","7","7","6","7","1","7","7","1","7","7","7","7","7","7","7","7","7","7","7","7","7","7","7","7","7","7","7","7","7","7","7","7","7","7","7","7","6","7","633774693194661888","周","345","Male","[""坏我"",""好他"",""坏他"",""好我""]","[""弱我"",""强他"",""弱他"",""强我""]","","","","","","","","","","","","","","","","","","","","","","","","","","","","","","feedback_test","","","","","","","","",""
"819","","f","psychophysics","62","231974","0.0-8.0-0.0-1.0-0.0-0.26","7","7","7","7","7","5","5","5","5","5","5","2","1","2","2","2","2","2","2","5","5","5","5","5","5","5","5","5","5","8","8","8","7","8","6","8","8","8","7","7","7","7","7","6","7","1","7","7","1","7","7","7","7","7","7","7","7","7","7","7","7","7","7","7","7","7","7","7","7","7","7","7","7","7","7","7","7","6","7","633774693194661888","周","345","Male","[""坏我"",""好他"",""坏他"",""好我""]","[""弱我"",""强他"",""弱他"",""强我""]","","","","","","","","nonmatch","","","","","","","","","","key","f","16.65185185185207","768","428","f","true","nonmatch","img/diamond.png","好我","坏他","prac_ALT2_moral","practice_moral","","","","","","","","",""
"null","<span style='color:GreenYellow; font-size: 70px;'>正确! </span>","null","html-keyboard-response","63","232475","0.0-8.0-0.0-1.0-0.0-1.26","7","7","7","7","7","5","5","5","5","5","5","2","1","2","2","2","2","2","2","5","5","5","5","5","5","5","5","5","5","8","8","8","7","8","6","8","8","8","7","7","7","7","7","6","7","1","7","7","1","7","7","7","7","7","7","7","7","7","7","7","7","7","7","7","7","7","7","7","7","7","7","7","7","7","7","7","7","6","7","633774693194661888","周","345","Male","[""坏我"",""好他"",""坏他"",""好我""]","[""弱我"",""强他"",""弱他"",""强我""]","","","","","","","","","","","","","","","","","","","","","","","","","","","","","","feedback_test","","","","","","","","",""
"693","","j","psychophysics","64","234170","0.0-8.0-0.0-1.0-0.0-0.27","7","7","7","7","7","5","5","5","5","5","5","2","1","2","2","2","2","2","2","5","5","5","5","5","5","5","5","5","5","8","8","8","7","8","6","8","8","8","7","7","7","7","7","6","7","1","7","7","1","7","7","7","7","7","7","7","7","7","7","7","7","7","7","7","7","7","7","7","7","7","7","7","7","7","7","7","7","6","7","633774693194661888","周","345","Male","[""坏我"",""好他"",""坏他"",""好我""]","[""弱我"",""强他"",""弱他"",""强我""]","","","","","","","","match","","","","","","","","","","key","j","16.651000000000057","768","428","j","true","match","img/diamond.png","坏他","坏他","prac_ALT2_moral","practice_moral","","","","","","","","",""
"null","<span style='color:GreenYellow; font-size: 70px;'>正确! </span>","null","html-keyboard-response","65","234671","0.0-8.0-0.0-1.0-0.0-1.27","7","7","7","7","7","5","5","5","5","5","5","2","1","2","2","2","2","2","2","5","5","5","5","5","5","5","5","5","5","8","8","8","7","8","6","8","8","8","7","7","7","7","7","6","7","1","7","7","1","7","7","7","7","7","7","7","7","7","7","7","7","7","7","7","7","7","7","7","7","7","7","7","7","7","7","7","7","6","7","633774693194661888","周","345","Male","[""坏我"",""好他"",""坏他"",""好我""]","[""弱我"",""强他"",""弱他"",""强我""]","","","","","","","","","","","","","","","","","","","","","","","","","","","","","","feedback_test","","","","","","","","",""
"665","","f","psychophysics","66","236337","0.0-8.0-0.0-1.0-0.0-0.28","7","7","7","7","7","5","5","5","5","5","5","2","1","2","2","2","2","2","2","5","5","5","5","5","5","5","5","5","5","8","8","8","7","8","6","8","8","8","7","7","7","7","7","6","7","1","7","7","1","7","7","7","7","7","7","7","7","7","7","7","7","7","7","7","7","7","7","7","7","7","7","7","7","7","7","7","7","6","7","633774693194661888","周","345","Male","[""坏我"",""好他"",""坏他"",""好我""]","[""弱我"",""强他"",""弱他"",""强我""]","","","","","","","","nonmatch","","","","","","","","","","key","f","16.643434343434166","768","428","f","true","nonmatch","img/diamond.png","坏我","坏他","prac_ALT2_moral","practice_moral","","","","","","","","",""
"null","<span style='color:GreenYellow; font-size: 70px;'>正确! </span>","null","html-keyboard-response","67","236838","0.0-8.0-0.0-1.0-0.0-1.28","7","7","7","7","7","5","5","5","5","5","5","2","1","2","2","2","2","2","2","5","5","5","5","5","5","5","5","5","5","8","8","8","7","8","6","8","8","8","7","7","7","7","7","6","7","1","7","7","1","7","7","7","7","7","7","7","7","7","7","7","7","7","7","7","7","7","7","7","7","7","7","7","7","7","7","7","7","6","7","633774693194661888","周","345","Male","[""坏我"",""好他"",""坏他"",""好我""]","[""弱我"",""强他"",""弱他"",""强我""]","","","","","","","","","","","","","","","","","","","","","","","","","","","","","","feedback_test","","","","","","","","",""
"729","","f","psychophysics","68","238569","0.0-8.0-0.0-1.0-0.0-0.29","7","7","7","7","7","5","5","5","5","5","5","2","1","2","2","2","2","2","2","5","5","5","5","5","5","5","5","5","5","8","8","8","7","8","6","8","8","8","7","7","7","7","7","6","7","1","7","7","1","7","7","7","7","7","7","7","7","7","7","7","7","7","7","7","7","7","7","7","7","7","7","7","7","7","7","7","7","6","7","633774693194661888","周","345","Male","[""坏我"",""好他"",""坏他"",""好我""]","[""弱我"",""强他"",""弱他"",""强我""]","","","","","","","","nonmatch","","","","","","","","","","key","f","16.651456310679666","768","428","f","true","nonmatch","img/square.png","坏他","坏我","prac_ALT2_moral","practice_moral","","","","","","","","",""
"null","<span style='color:GreenYellow; font-size: 70px;'>正确! </span>","null","html-keyboard-response","69","239070","0.0-8.0-0.0-1.0-0.0-1.29","7","7","7","7","7","5","5","5","5","5","5","2","1","2","2","2","2","2","2","5","5","5","5","5","5","5","5","5","5","8","8","8","7","8","6","8","8","8","7","7","7","7","7","6","7","1","7","7","1","7","7","7","7","7","7","7","7","7","7","7","7","7","7","7","7","7","7","7","7","7","7","7","7","7","7","7","7","6","7","633774693194661888","周","345","Male","[""坏我"",""好他"",""坏他"",""好我""]","[""弱我"",""强他"",""弱他"",""强我""]","","","","","","","","","","","","","","","","","","","","","","","","","","","","","","feedback_test","","","","","","","","",""
"675","","f","psychophysics","70","240746","0.0-8.0-0.0-1.0-0.0-0.30","7","7","7","7","7","5","5","5","5","5","5","2","1","2","2","2","2","2","2","5","5","5","5","5","5","5","5","5","5","8","8","8","7","8","6","8","8","8","7","7","7","7","7","6","7","1","7","7","1","7","7","7","7","7","7","7","7","7","7","7","7","7","7","7","7","7","7","7","7","7","7","7","7","7","7","7","7","6","7","633774693194661888","周","345","Male","[""坏我"",""好他"",""坏他"",""好我""]","[""弱我"",""强他"",""弱他"",""强我""]","","","","","","","","nonmatch","","","","","","","","","","key","f","16.649494949494834","768","428","f","true","nonmatch","img/ellipse.png","好他","好我","prac_ALT2_moral","practice_moral","","","","","","","","",""
"null","<span style='color:GreenYellow; font-size: 70px;'>正确! </span>","null","html-keyboard-response","71","241247","0.0-8.0-0.0-1.0-0.0-1.30","7","7","7","7","7","5","5","5","5","5","5","2","1","2","2","2","2","2","2","5","5","5","5","5","5","5","5","5","5","8","8","8","7","8","6","8","8","8","7","7","7","7","7","6","7","1","7","7","1","7","7","7","7","7","7","7","7","7","7","7","7","7","7","7","7","7","7","7","7","7","7","7","7","7","7","7","7","6","7","633774693194661888","周","345","Male","[""坏我"",""好他"",""坏他"",""好我""]","[""弱我"",""强他"",""弱他"",""强我""]","","","","","","","","","","","","","","","","","","","","","","","","","","","","","","feedback_test","","","","","","","","",""
"938","","j","psychophysics","72","243187","0.0-8.0-0.0-1.0-0.0-0.31","7","7","7","7","7","5","5","5","5","5","5","2","1","2","2","2","2","2","2","5","5","5","5","5","5","5","5","5","5","8","8","8","7","8","6","8","8","8","7","7","7","7","7","6","7","1","7","7","1","7","7","7","7","7","7","7","7","7","7","7","7","7","7","7","7","7","7","7","7","7","7","7","7","7","7","7","7","6","7","633774693194661888","周","345","Male","[""坏我"",""好他"",""坏他"",""好我""]","[""弱我"",""强他"",""弱他"",""强我""]","","","","","","","","match","","","","","","","","","","key","j","16.650862068965516","768","428","j","true","match","img/square.png","坏我","坏我","prac_ALT2_moral","practice_moral","","","","","","","","",""
"null","<span style='color:GreenYellow; font-size: 70px;'>正确! </span>","null","html-keyboard-response","73","243688","0.0-8.0-0.0-1.0-0.0-1.31","7","7","7","7","7","5","5","5","5","5","5","2","1","2","2","2","2","2","2","5","5","5","5","5","5","5","5","5","5","8","8","8","7","8","6","8","8","8","7","7","7","7","7","6","7","1","7","7","1","7","7","7","7","7","7","7","7","7","7","7","7","7","7","7","7","7","7","7","7","7","7","7","7","7","7","7","7","6","7","633774693194661888","周","345","Male","[""坏我"",""好他"",""坏他"",""好我""]","[""弱我"",""强他"",""弱他"",""强我""]","","","","","","","","","","","","","","","","","","","","","","","","","","","","","","feedback_test","","","","","","","","",""
"739","","j","psychophysics","74","245429","0.0-8.0-0.0-1.0-0.0-0.32","7","7","7","7","7","5","5","5","5","5","5","2","1","2","2","2","2","2","2","5","5","5","5","5","5","5","5","5","5","8","8","8","7","8","6","8","8","8","7","7","7","7","7","6","7","1","7","7","1","7","7","7","7","7","7","7","7","7","7","7","7","7","7","7","7","7","7","7","7","7","7","7","7","7","7","7","7","6","7","633774693194661888","周","345","Male","[""坏我"",""好他"",""坏他"",""好我""]","[""弱我"",""强他"",""弱他"",""强我""]","","","","","","","","match","","","","","","","","","","key","j","16.650000000000055","768","428","f","false","nonmatch","img/diamond.png","好他","坏他","prac_ALT2_moral","practice_moral","","","","","","","","",""
"null","<span style='color:red; font-size: 70px;'>错误! </span>","null","html-keyboard-response","75","245930","0.0-8.0-0.0-1.0-0.0-1.32","7","7","7","7","7","5","5","5","5","5","5","2","1","2","2","2","2","2","2","5","5","5","5","5","5","5","5","5","5","8","8","8","7","8","6","8","8","8","7","7","7","7","7","6","7","1","7","7","1","7","7","7","7","7","7","7","7","7","7","7","7","7","7","7","7","7","7","7","7","7","7","7","7","7","7","7","7","6","7","633774693194661888","周","345","Male","[""坏我"",""好他"",""坏他"",""好我""]","[""弱我"",""强他"",""弱他"",""强我""]","","","","","","","","","","","","","","","","","","","","","","","","","","","","","","feedback_test","","","","","","","","",""
"858","","f","psychophysics","76","247790","0.0-8.0-0.0-1.0-0.0-0.33","7","7","7","7","7","5","5","5","5","5","5","2","1","2","2","2","2","2","2","5","5","5","5","5","5","5","5","5","5","8","8","8","7","8","6","8","8","8","7","7","7","7","7","6","7","1","7","7","1","7","7","7","7","7","7","7","7","7","7","7","7","7","7","7","7","7","7","7","7","7","7","7","7","7","7","7","7","6","7","633774693194661888","周","345","Male","[""坏我"",""好他"",""坏他"",""好我""]","[""弱我"",""强他"",""弱他"",""强我""]","","","","","","","","nonmatch","","","","","","","","","","key","f","16.64727272727257","768","428","f","true","nonmatch","img/pentagon.png","坏他","好他","prac_ALT2_moral","practice_moral","","","","","","","","",""
"null","<span style='color:GreenYellow; font-size: 70px;'>正确! </span>","null","html-keyboard-response","77","248292","0.0-8.0-0.0-1.0-0.0-1.33","7","7","7","7","7","5","5","5","5","5","5","2","1","2","2","2","2","2","2","5","5","5","5","5","5","5","5","5","5","8","8","8","7","8","6","8","8","8","7","7","7","7","7","6","7","1","7","7","1","7","7","7","7","7","7","7","7","7","7","7","7","7","7","7","7","7","7","7","7","7","7","7","7","7","7","7","7","6","7","633774693194661888","周","345","Male","[""坏我"",""好他"",""坏他"",""好我""]","[""弱我"",""强他"",""弱他"",""强我""]","","","","","","","","","","","","","","","","","","","","","","","","","","","","","","feedback_test","","","","","","","","",""
"684","","j","psychophysics","78","249977","0.0-8.0-0.0-1.0-0.0-0.34","7","7","7","7","7","5","5","5","5","5","5","2","1","2","2","2","2","2","2","5","5","5","5","5","5","5","5","5","5","8","8","8","7","8","6","8","8","8","7","7","7","7","7","6","7","1","7","7","1","7","7","7","7","7","7","7","7","7","7","7","7","7","7","7","7","7","7","7","7","7","7","7","7","7","7","7","7","6","7","633774693194661888","周","345","Male","[""坏我"",""好他"",""坏他"",""好我""]","[""弱我"",""强他"",""弱他"",""强我""]","","","","","","","","match","","","","","","","","","","key","j","16.647000000000116","768","428","j","true","match","img/square.png","坏我","坏我","prac_ALT2_moral","practice_moral","","","","","","","","",""
"null","<span style='color:GreenYellow; font-size: 70px;'>正确! </span>","null","html-keyboard-response","79","250479","0.0-8.0-0.0-1.0-0.0-1.34","7","7","7","7","7","5","5","5","5","5","5","2","1","2","2","2","2","2","2","5","5","5","5","5","5","5","5","5","5","8","8","8","7","8","6","8","8","8","7","7","7","7","7","6","7","1","7","7","1","7","7","7","7","7","7","7","7","7","7","7","7","7","7","7","7","7","7","7","7","7","7","7","7","7","7","7","7","6","7","633774693194661888","周","345","Male","[""坏我"",""好他"",""坏他"",""好我""]","[""弱我"",""强他"",""弱他"",""强我""]","","","","","","","","","","","","","","","","","","","","","","","","","","","","","","feedback_test","","","","","","","","",""
"758","","f","psychophysics","80","252239","0.0-8.0-0.0-1.0-0.0-0.35","7","7","7","7","7","5","5","5","5","5","5","2","1","2","2","2","2","2","2","5","5","5","5","5","5","5","5","5","5","8","8","8","7","8","6","8","8","8","7","7","7","7","7","6","7","1","7","7","1","7","7","7","7","7","7","7","7","7","7","7","7","7","7","7","7","7","7","7","7","7","7","7","7","7","7","7","7","6","7","633774693194661888","周","345","Male","[""坏我"",""好他"",""坏他"",""好我""]","[""弱我"",""强他"",""弱他"",""强我""]","","","","","","","","nonmatch","","","","","","","","","","key","f","16.650000000000055","768","428","f","true","nonmatch","img/square.png","好他","坏我","prac_ALT2_moral","practice_moral","","","","","","","","",""
"null","<span style='color:GreenYellow; font-size: 70px;'>正确! </span>","null","html-keyboard-response","81","252740","0.0-8.0-0.0-1.0-0.0-1.35","7","7","7","7","7","5","5","5","5","5","5","2","1","2","2","2","2","2","2","5","5","5","5","5","5","5","5","5","5","8","8","8","7","8","6","8","8","8","7","7","7","7","7","6","7","1","7","7","1","7","7","7","7","7","7","7","7","7","7","7","7","7","7","7","7","7","7","7","7","7","7","7","7","7","7","7","7","6","7","633774693194661888","周","345","Male","[""坏我"",""好他"",""坏他"",""好我""]","[""弱我"",""强他"",""弱他"",""强我""]","","","","","","","","","","","","","","","","","","","","","","","","","","","","","","feedback_test","","","","","","","","",""
"907","","f","psychophysics","82","254650","0.0-8.0-0.0-1.0-0.0-0.36","7","7","7","7","7","5","5","5","5","5","5","2","1","2","2","2","2","2","2","5","5","5","5","5","5","5","5","5","5","8","8","8","7","8","6","8","8","8","7","7","7","7","7","6","7","1","7","7","1","7","7","7","7","7","7","7","7","7","7","7","7","7","7","7","7","7","7","7","7","7","7","7","7","7","7","7","7","6","7","633774693194661888","周","345","Male","[""坏我"",""好他"",""坏他"",""好我""]","[""弱我"",""强他"",""弱他"",""强我""]","","","","","","","","nonmatch","","","","","","","","","","key","f","16.65132743362837","768","428","j","false","match","img/square.png","坏我","坏我","prac_ALT2_moral","practice_moral","","","","","","","","",""
"null","<span style='color:red; font-size: 70px;'>错误! </span>","null","html-keyboard-response","83","255152","0.0-8.0-0.0-1.0-0.0-1.36","7","7","7","7","7","5","5","5","5","5","5","2","1","2","2","2","2","2","2","5","5","5","5","5","5","5","5","5","5","8","8","8","7","8","6","8","8","8","7","7","7","7","7","6","7","1","7","7","1","7","7","7","7","7","7","7","7","7","7","7","7","7","7","7","7","7","7","7","7","7","7","7","7","7","7","7","7","6","7","633774693194661888","周","345","Male","[""坏我"",""好他"",""坏他"",""好我""]","[""弱我"",""强他"",""弱他"",""强我""]","","","","","","","","","","","","","","","","","","","","","","","","","","","","","","feedback_test","","","","","","","","",""
"939","","j","psychophysics","84","257091","0.0-8.0-0.0-1.0-0.0-0.37","7","7","7","7","7","5","5","5","5","5","5","2","1","2","2","2","2","2","2","5","5","5","5","5","5","5","5","5","5","8","8","8","7","8","6","8","8","8","7","7","7","7","7","6","7","1","7","7","1","7","7","7","7","7","7","7","7","7","7","7","7","7","7","7","7","7","7","7","7","7","7","7","7","7","7","7","7","6","7","633774693194661888","周","345","Male","[""坏我"",""好他"",""坏他"",""好我""]","[""弱我"",""强他"",""弱他"",""强我""]","","","","","","","","match","","","","","","","","","","key","j","16.64521739130445","768","428","j","true","match","img/diamond.png","坏他","坏他","prac_ALT2_moral","practice_moral","","","","","","","","",""
"null","<span style='color:GreenYellow; font-size: 70px;'>正确! </span>","null","html-keyboard-response","85","257592","0.0-8.0-0.0-1.0-0.0-1.37","7","7","7","7","7","5","5","5","5","5","5","2","1","2","2","2","2","2","2","5","5","5","5","5","5","5","5","5","5","8","8","8","7","8","6","8","8","8","7","7","7","7","7","6","7","1","7","7","1","7","7","7","7","7","7","7","7","7","7","7","7","7","7","7","7","7","7","7","7","7","7","7","7","7","7","7","7","6","7","633774693194661888","周","345","Male","[""坏我"",""好他"",""坏他"",""好我""]","[""弱我"",""强他"",""弱他"",""强我""]","","","","","","","","","","","","","","","","","","","","","","","","","","","","","","feedback_test","","","","","","","","",""
"545","","j","psychophysics","86","259138","0.0-8.0-0.0-1.0-0.0-0.38","7","7","7","7","7","5","5","5","5","5","5","2","1","2","2","2","2","2","2","5","5","5","5","5","5","5","5","5","5","8","8","8","7","8","6","8","8","8","7","7","7","7","7","6","7","1","7","7","1","7","7","7","7","7","7","7","7","7","7","7","7","7","7","7","7","7","7","7","7","7","7","7","7","7","7","7","7","6","7","633774693194661888","周","345","Male","[""坏我"",""好他"",""坏他"",""好我""]","[""弱我"",""强他"",""弱他"",""强我""]","","","","","","","","match","","","","","","","","","","key","j","16.651086956521677","768","428","j","true","match","img/ellipse.png","好我","好我","prac_ALT2_moral","practice_moral","","","","","","","","",""
"null","<span style='color:GreenYellow; font-size: 70px;'>正确! </span>","null","html-keyboard-response","87","259639","0.0-8.0-0.0-1.0-0.0-1.38","7","7","7","7","7","5","5","5","5","5","5","2","1","2","2","2","2","2","2","5","5","5","5","5","5","5","5","5","5","8","8","8","7","8","6","8","8","8","7","7","7","7","7","6","7","1","7","7","1","7","7","7","7","7","7","7","7","7","7","7","7","7","7","7","7","7","7","7","7","7","7","7","7","7","7","7","7","6","7","633774693194661888","周","345","Male","[""坏我"",""好他"",""坏他"",""好我""]","[""弱我"",""强他"",""弱他"",""强我""]","","","","","","","","","","","","","","","","","","","","","","","","","","","","","","feedback_test","","","","","","","","",""
"818","","j","psychophysics","88","261459","0.0-8.0-0.0-1.0-0.0-0.39","7","7","7","7","7","5","5","5","5","5","5","2","1","2","2","2","2","2","2","5","5","5","5","5","5","5","5","5","5","8","8","8","7","8","6","8","8","8","7","7","7","7","7","6","7","1","7","7","1","7","7","7","7","7","7","7","7","7","7","7","7","7","7","7","7","7","7","7","7","7","7","7","7","7","7","7","7","6","7","633774693194661888","周","345","Male","[""坏我"",""好他"",""坏他"",""好我""]","[""弱我"",""强他"",""弱他"",""强我""]","","","","","","","","match","","","","","","","","","","key","j","16.64722222222244","768","428","j","true","match","img/diamond.png","坏他","坏他","prac_ALT2_moral","practice_moral","","","","","","","","",""
"null","<span style='color:GreenYellow; font-size: 70px;'>正确! </span>","null","html-keyboard-response","89","261960","0.0-8.0-0.0-1.0-0.0-1.39","7","7","7","7","7","5","5","5","5","5","5","2","1","2","2","2","2","2","2","5","5","5","5","5","5","5","5","5","5","8","8","8","7","8","6","8","8","8","7","7","7","7","7","6","7","1","7","7","1","7","7","7","7","7","7","7","7","7","7","7","7","7","7","7","7","7","7","7","7","7","7","7","7","7","7","7","7","6","7","633774693194661888","周","345","Male","[""坏我"",""好他"",""坏他"",""好我""]","[""弱我"",""强他"",""弱他"",""强我""]","","","","","","","","","","","","","","","","","","","","","","","","","","","","","","feedback_test","","","","","","","","",""
"809","","f","psychophysics","90","263771","0.0-8.0-0.0-1.0-0.0-0.40","7","7","7","7","7","5","5","5","5","5","5","2","1","2","2","2","2","2","2","5","5","5","5","5","5","5","5","5","5","8","8","8","7","8","6","8","8","8","7","7","7","7","7","6","7","1","7","7","1","7","7","7","7","7","7","7","7","7","7","7","7","7","7","7","7","7","7","7","7","7","7","7","7","7","7","7","7","6","7","633774693194661888","周","345","Male","[""坏我"",""好他"",""坏他"",""好我""]","[""弱我"",""强他"",""弱他"",""强我""]","","","","","","","","nonmatch","","","","","","","","","","key","f","16.65092592592636","768","428","f","true","nonmatch","img/pentagon.png","坏我","好他","prac_ALT2_moral","practice_moral","","","","","","","","",""
"null","<span style='color:GreenYellow; font-size: 70px;'>正确! </span>","null","html-keyboard-response","91","264271","0.0-8.0-0.0-1.0-0.0-1.40","7","7","7","7","7","5","5","5","5","5","5","2","1","2","2","2","2","2","2","5","5","5","5","5","5","5","5","5","5","8","8","8","7","8","6","8","8","8","7","7","7","7","7","6","7","1","7","7","1","7","7","7","7","7","7","7","7","7","7","7","7","7","7","7","7","7","7","7","7","7","7","7","7","7","7","7","7","6","7","633774693194661888","周","345","Male","[""坏我"",""好他"",""坏他"",""好我""]","[""弱我"",""强他"",""弱他"",""强我""]","","","","","","","","","","","","","","","","","","","","","","","","","","","","","","feedback_test","","","","","","","","",""
"805","","f","psychophysics","92","266078","0.0-8.0-0.0-1.0-0.0-0.41","7","7","7","7","7","5","5","5","5","5","5","2","1","2","2","2","2","2","2","5","5","5","5","5","5","5","5","5","5","8","8","8","7","8","6","8","8","8","7","7","7","7","7","6","7","1","7","7","1","7","7","7","7","7","7","7","7","7","7","7","7","7","7","7","7","7","7","7","7","7","7","7","7","7","7","7","7","6","7","633774693194661888","周","345","Male","[""坏我"",""好他"",""坏他"",""好我""]","[""弱我"",""强他"",""弱他"",""强我""]","","","","","","","","nonmatch","","","","","","","","","","key","f","16.65092592592636","768","428","j","false","match","img/pentagon.png","好他","好他","prac_ALT2_moral","practice_moral","","","","","","","","",""
"null","<span style='color:red; font-size: 70px;'>错误! </span>","null","html-keyboard-response","93","266579","0.0-8.0-0.0-1.0-0.0-1.41","7","7","7","7","7","5","5","5","5","5","5","2","1","2","2","2","2","2","2","5","5","5","5","5","5","5","5","5","5","8","8","8","7","8","6","8","8","8","7","7","7","7","7","6","7","1","7","7","1","7","7","7","7","7","7","7","7","7","7","7","7","7","7","7","7","7","7","7","7","7","7","7","7","7","7","7","7","6","7","633774693194661888","周","345","Male","[""坏我"",""好他"",""坏他"",""好我""]","[""弱我"",""强他"",""弱他"",""强我""]","","","","","","","","","","","","","","","","","","","","","","","","","","","","","","feedback_test","","","","","","","","",""
"657","","f","psychophysics","94","268238","0.0-8.0-0.0-1.0-0.0-0.42","7","7","7","7","7","5","5","5","5","5","5","2","1","2","2","2","2","2","2","5","5","5","5","5","5","5","5","5","5","8","8","8","7","8","6","8","8","8","7","7","7","7","7","6","7","1","7","7","1","7","7","7","7","7","7","7","7","7","7","7","7","7","7","7","7","7","7","7","7","7","7","7","7","7","7","7","7","6","7","633774693194661888","周","345","Male","[""坏我"",""好他"",""坏他"",""好我""]","[""弱我"",""强他"",""弱他"",""强我""]","","","","","","","","nonmatch","","","","","","","","","","key","f","16.651020408163742","768","428","f","true","nonmatch","img/ellipse.png","坏我","好我","prac_ALT2_moral","practice_moral","","","","","","","","",""
"null","<span style='color:GreenYellow; font-size: 70px;'>正确! </span>","null","html-keyboard-response","95","268740","0.0-8.0-0.0-1.0-0.0-1.42","7","7","7","7","7","5","5","5","5","5","5","2","1","2","2","2","2","2","2","5","5","5","5","5","5","5","5","5","5","8","8","8","7","8","6","8","8","8","7","7","7","7","7","6","7","1","7","7","1","7","7","7","7","7","7","7","7","7","7","7","7","7","7","7","7","7","7","7","7","7","7","7","7","7","7","7","7","6","7","633774693194661888","周","345","Male","[""坏我"",""好他"",""坏他"",""好我""]","[""弱我"",""强他"",""弱他"",""强我""]","","","","","","","","","","","","","","","","","","","","","","","","","","","","","","feedback_test","","","","","","","","",""
"754","","j","psychophysics","96","270495","0.0-8.0-0.0-1.0-0.0-0.43","7","7","7","7","7","5","5","5","5","5","5","2","1","2","2","2","2","2","2","5","5","5","5","5","5","5","5","5","5","8","8","8","7","8","6","8","8","8","7","7","7","7","7","6","7","1","7","7","1","7","7","7","7","7","7","7","7","7","7","7","7","7","7","7","7","7","7","7","7","7","7","7","7","7","7","7","7","6","7","633774693194661888","周","345","Male","[""坏我"",""好他"",""坏他"",""好我""]","[""弱我"",""强他"",""弱他"",""强我""]","","","","","","","","match","","","","","","","","","","key","j","16.647115384615272","768","428","j","true","match","img/pentagon.png","好他","好他","prac_ALT2_moral","practice_moral","","","","","","","","",""
"null","<span style='color:GreenYellow; font-size: 70px;'>正确! </span>","null","html-keyboard-response","97","270996","0.0-8.0-0.0-1.0-0.0-1.43","7","7","7","7","7","5","5","5","5","5","5","2","1","2","2","2","2","2","2","5","5","5","5","5","5","5","5","5","5","8","8","8","7","8","6","8","8","8","7","7","7","7","7","6","7","1","7","7","1","7","7","7","7","7","7","7","7","7","7","7","7","7","7","7","7","7","7","7","7","7","7","7","7","7","7","7","7","6","7","633774693194661888","周","345","Male","[""坏我"",""好他"",""坏他"",""好我""]","[""弱我"",""强他"",""弱他"",""强我""]","","","","","","","","","","","","","","","","","","","","","","","","","","","","","","feedback_test","","","","","","","","",""
"750","","f","psychophysics","98","272747","0.0-8.0-0.0-1.0-0.0-0.44","7","7","7","7","7","5","5","5","5","5","5","2","1","2","2","2","2","2","2","5","5","5","5","5","5","5","5","5","5","8","8","8","7","8","6","8","8","8","7","7","7","7","7","6","7","1","7","7","1","7","7","7","7","7","7","7","7","7","7","7","7","7","7","7","7","7","7","7","7","7","7","7","7","7","7","7","7","6","7","633774693194661888","周","345","Male","[""坏我"",""好他"",""坏他"",""好我""]","[""弱我"",""强他"",""弱他"",""强我""]","","","","","","","","nonmatch","","","","","","","","","","key","f","16.65096153846165","768","428","f","true","nonmatch","img/ellipse.png","坏他","好我","prac_ALT2_moral","practice_moral","","","","","","","","",""
"null","<span style='color:GreenYellow; font-size: 70px;'>正确! </span>","null","html-keyboard-response","99","273249","0.0-8.0-0.0-1.0-0.0-1.44","7","7","7","7","7","5","5","5","5","5","5","2","1","2","2","2","2","2","2","5","5","5","5","5","5","5","5","5","5","8","8","8","7","8","6","8","8","8","7","7","7","7","7","6","7","1","7","7","1","7","7","7","7","7","7","7","7","7","7","7","7","7","7","7","7","7","7","7","7","7","7","7","7","7","7","7","7","6","7","633774693194661888","周","345","Male","[""坏我"",""好他"",""坏他"",""好我""]","[""弱我"",""强他"",""弱他"",""强我""]","","","","","","","","","","","","","","","","","","","","","","","","","","","","","","feedback_test","","","","","","","","",""
"534","","j","psychophysics","100","274785","0.0-8.0-0.0-1.0-0.0-0.45","7","7","7","7","7","5","5","5","5","5","5","2","1","2","2","2","2","2","2","5","5","5","5","5","5","5","5","5","5","8","8","8","7","8","6","8","8","8","7","7","7","7","7","6","7","1","7","7","1","7","7","7","7","7","7","7","7","7","7","7","7","7","7","7","7","7","7","7","7","7","7","7","7","7","7","7","7","6","7","633774693194661888","周","345","Male","[""坏我"",""好他"",""坏他"",""好我""]","[""弱我"",""强他"",""弱他"",""强我""]","","","","","","","","match","","","","","","","","","","key","j","16.653260869564964","768","428","j","true","match","img/ellipse.png","好我","好我","prac_ALT2_moral","practice_moral","","","","","","","","",""
"null","<span style='color:GreenYellow; font-size: 70px;'>正确! </span>","null","html-keyboard-response","101","275287","0.0-8.0-0.0-1.0-0.0-1.45","7","7","7","7","7","5","5","5","5","5","5","2","1","2","2","2","2","2","2","5","5","5","5","5","5","5","5","5","5","8","8","8","7","8","6","8","8","8","7","7","7","7","7","6","7","1","7","7","1","7","7","7","7","7","7","7","7","7","7","7","7","7","7","7","7","7","7","7","7","7","7","7","7","7","7","7","7","6","7","633774693194661888","周","345","Male","[""坏我"",""好他"",""坏他"",""好我""]","[""弱我"",""强他"",""弱他"",""强我""]","","","","","","","","","","","","","","","","","","","","","","","","","","","","","","feedback_test","","","","","","","","",""
"592","","j","psychophysics","102","276881","0.0-8.0-0.0-1.0-0.0-0.46","7","7","7","7","7","5","5","5","5","5","5","2","1","2","2","2","2","2","2","5","5","5","5","5","5","5","5","5","5","8","8","8","7","8","6","8","8","8","7","7","7","7","7","6","7","1","7","7","1","7","7","7","7","7","7","7","7","7","7","7","7","7","7","7","7","7","7","7","7","7","7","7","7","7","7","7","7","6","7","633774693194661888","周","345","Male","[""坏我"",""好他"",""坏他"",""好我""]","[""弱我"",""强他"",""弱他"",""强我""]","","","","","","","","match","","","","","","","","","","key","j","16.652127659574962","768","428","j","true","match","img/pentagon.png","好他","好他","prac_ALT2_moral","practice_moral","","","","","","","","",""
"null","<span style='color:GreenYellow; font-size: 70px;'>正确! </span>","null","html-keyboard-response","103","277382","0.0-8.0-0.0-1.0-0.0-1.46","7","7","7","7","7","5","5","5","5","5","5","2","1","2","2","2","2","2","2","5","5","5","5","5","5","5","5","5","5","8","8","8","7","8","6","8","8","8","7","7","7","7","7","6","7","1","7","7","1","7","7","7","7","7","7","7","7","7","7","7","7","7","7","7","7","7","7","7","7","7","7","7","7","7","7","7","7","6","7","633774693194661888","周","345","Male","[""坏我"",""好他"",""坏他"",""好我""]","[""弱我"",""强他"",""弱他"",""强我""]","","","","","","","","","","","","","","","","","","","","","","","","","","","","","","feedback_test","","","","","","","","",""
"545","","j","psychophysics","104","278928","0.0-8.0-0.0-1.0-0.0-0.47","7","7","7","7","7","5","5","5","5","5","5","2","1","2","2","2","2","2","2","5","5","5","5","5","5","5","5","5","5","8","8","8","7","8","6","8","8","8","7","7","7","7","7","6","7","1","7","7","1","7","7","7","7","7","7","7","7","7","7","7","7","7","7","7","7","7","7","7","7","7","7","7","7","7","7","7","7","6","7","633774693194661888","周","345","Male","[""坏我"",""好他"",""坏他"",""好我""]","[""弱我"",""强他"",""弱他"",""强我""]","","","","","","","","match","","","","","","","","","","key","j","16.65274725274687","768","428","j","true","match","img/ellipse.png","好我","好我","prac_ALT2_moral","practice_moral","","","","","","","","",""
"null","<span style='color:GreenYellow; font-size: 70px;'>正确! </span>","null","html-keyboard-response","105","279430","0.0-8.0-0.0-1.0-0.0-1.47","7","7","7","7","7","5","5","5","5","5","5","2","1","2","2","2","2","2","2","5","5","5","5","5","5","5","5","5","5","8","8","8","7","8","6","8","8","8","7","7","7","7","7","6","7","1","7","7","1","7","7","7","7","7","7","7","7","7","7","7","7","7","7","7","7","7","7","7","7","7","7","7","7","7","7","7","7","6","7","633774693194661888","周","345","Male","[""坏我"",""好他"",""坏他"",""好我""]","[""弱我"",""强他"",""弱他"",""强我""]","","","","","","","","","","","","","","","","","","","","","","","","","","","","","","feedback_test","","","","","","","","",""
"16212","<style>.context{color:white; font-size: 35px; line-height:40px}</style>                            <div><p class='context'>您正确回答了83% 的试次。</p><p class='context'>您的平均反应时为710毫秒。</p><p class='context'>恭喜您完成练习。按空格键进入正式实验。</p><p class='footer' style='font-size: 35px; line-height:40px;'>请在进入正式实验实验之前将您的<span style='color: lightgreen;'>食指</span>放在电脑键盘的相应键位上进行按键。</p>"," ","html-keyboard-response","106","295643","0.0-8.0-0.0-2.0","7","7","7","7","7","5","5","5","5","5","5","2","1","2","2","2","2","2","2","5","5","5","5","5","5","5","5","5","5","8","8","8","7","8","6","8","8","8","7","7","7","7","7","6","7","1","7","7","1","7","7","7","7","7","7","7","7","7","7","7","7","7","7","7","7","7","7","7","7","7","7","7","7","7","7","7","7","6","7","633774693194661888","周","345","Male","[""坏我"",""好他"",""坏他"",""好我""]","[""弱我"",""强他"",""弱他"",""强我""]","","","","","","","","","","","","","","","","","","","","","","","","","","","","","","","","","","","","","","",""
"1204","
    <p style='color: white; font-size: 22px'>请您将手指放在按键上，准备进入正式的匹配任务。</p>
    <p> <div style = ""color: green""><按空格键进入下一阶段的匹配任务></div></p>
    "," ","html-keyboard-response","107","296848","0.0-8.0-0.0-3.0","7","7","7","7","7","5","5","5","5","5","5","2","1","2","2","2","2","2","2","5","5","5","5","5","5","5","5","5","5","8","8","8","7","8","6","8","8","8","7","7","7","7","7","6","7","1","7","7","1","7","7","7","7","7","7","7","7","7","7","7","7","7","7","7","7","7","7","7","7","7","7","7","7","7","7","7","7","6","7","633774693194661888","周","345","Male","[""坏我"",""好他"",""坏他"",""好我""]","[""弱我"",""强他"",""弱他"",""强我""]","","","","","","","","","","","","","","","","","","","","","","","","","","","","","","","","","","","","","","",""
"547","","j","psychophysics","108","298398","0.0-8.0-0.0-4.0-0.0-0.0","7","7","7","7","7","5","5","5","5","5","5","2","1","2","2","2","2","2","2","5","5","5","5","5","5","5","5","5","5","8","8","8","7","8","6","8","8","8","7","7","7","7","7","6","7","1","7","7","1","7","7","7","7","7","7","7","7","7","7","7","7","7","7","7","7","7","7","7","7","7","7","7","7","7","7","7","7","6","7","633774693194661888","周","345","Male","[""坏我"",""好他"",""坏他"",""好我""]","[""弱我"",""强他"",""弱他"",""强我""]","","","","","","","","match","","","","","","","","","","key","j","16.65108695652136","768","428","j","true","match","img/pentagon.png","好他","好他","ALT2","moral","","","","","","","","",""
"null","<span style='color:GreenYellow; font-size: 70px;'>正确! </span>","null","html-keyboard-response","109","298900","0.0-8.0-0.0-4.0-0.0-1.0","7","7","7","7","7","5","5","5","5","5","5","2","1","2","2","2","2","2","2","5","5","5","5","5","5","5","5","5","5","8","8","8","7","8","6","8","8","8","7","7","7","7","7","6","7","1","7","7","1","7","7","7","7","7","7","7","7","7","7","7","7","7","7","7","7","7","7","7","7","7","7","7","7","7","7","7","7","6","7","633774693194661888","周","345","Male","[""坏我"",""好他"",""坏他"",""好我""]","[""弱我"",""强他"",""弱他"",""强我""]","","","","","","","","","","","","","","","","","","","","","","","","","","","","","","feedback_test","","","","","","","","",""
"632","","f","psychophysics","110","300534","0.0-8.0-0.0-4.0-0.0-0.1","7","7","7","7","7","5","5","5","5","5","5","2","1","2","2","2","2","2","2","5","5","5","5","5","5","5","5","5","5","8","8","8","7","8","6","8","8","8","7","7","7","7","7","6","7","1","7","7","1","7","7","7","7","7","7","7","7","7","7","7","7","7","7","7","7","7","7","7","7","7","7","7","7","7","7","7","7","6","7","633774693194661888","周","345","Male","[""坏我"",""好他"",""坏他"",""好我""]","[""弱我"",""强他"",""弱他"",""强我""]","","","","","","","","nonmatch","","","","","","","","","","key","f","16.651546391752696","768","428","f","true","nonmatch","img/pentagon.png","坏我","好他","ALT2","moral","","","","","","","","",""
"null","<span style='color:GreenYellow; font-size: 70px;'>正确! </span>","null","html-keyboard-response","111","301035","0.0-8.0-0.0-4.0-0.0-1.1","7","7","7","7","7","5","5","5","5","5","5","2","1","2","2","2","2","2","2","5","5","5","5","5","5","5","5","5","5","8","8","8","7","8","6","8","8","8","7","7","7","7","7","6","7","1","7","7","1","7","7","7","7","7","7","7","7","7","7","7","7","7","7","7","7","7","7","7","7","7","7","7","7","7","7","7","7","6","7","633774693194661888","周","345","Male","[""坏我"",""好他"",""坏他"",""好我""]","[""弱我"",""强他"",""弱他"",""强我""]","","","","","","","","","","","","","","","","","","","","","","","","","","","","","","feedback_test","","","","","","","","",""
"613","","j","psychophysics","112","302651","0.0-8.0-0.0-4.0-0.0-0.2","7","7","7","7","7","5","5","5","5","5","5","2","1","2","2","2","2","2","2","5","5","5","5","5","5","5","5","5","5","8","8","8","7","8","6","8","8","8","7","7","7","7","7","6","7","1","7","7","1","7","7","7","7","7","7","7","7","7","7","7","7","7","7","7","7","7","7","7","7","7","7","7","7","7","7","7","7","6","7","633774693194661888","周","345","Male","[""坏我"",""好他"",""坏他"",""好我""]","[""弱我"",""强他"",""弱他"",""强我""]","","","","","","","","match","","","","","","","","","","key","j","16.654166666666544","768","428","j","true","match","img/pentagon.png","好他","好他","ALT2","moral","","","","","","","","",""
"null","<span style='color:GreenYellow; font-size: 70px;'>正确! </span>","null","html-keyboard-response","113","303151","0.0-8.0-0.0-4.0-0.0-1.2","7","7","7","7","7","5","5","5","5","5","5","2","1","2","2","2","2","2","2","5","5","5","5","5","5","5","5","5","5","8","8","8","7","8","6","8","8","8","7","7","7","7","7","6","7","1","7","7","1","7","7","7","7","7","7","7","7","7","7","7","7","7","7","7","7","7","7","7","7","7","7","7","7","7","7","7","7","6","7","633774693194661888","周","345","Male","[""坏我"",""好他"",""坏他"",""好我""]","[""弱我"",""强他"",""弱他"",""强我""]","","","","","","","","","","","","","","","","","","","","","","","","","","","","","","feedback_test","","","","","","","","",""
"654","","f","psychophysics","114","304807","0.0-8.0-0.0-4.0-0.0-0.3","7","7","7","7","7","5","5","5","5","5","5","2","1","2","2","2","2","2","2","5","5","5","5","5","5","5","5","5","5","8","8","8","7","8","6","8","8","8","7","7","7","7","7","6","7","1","7","7","1","7","7","7","7","7","7","7","7","7","7","7","7","7","7","7","7","7","7","7","7","7","7","7","7","7","7","7","7","6","7","633774693194661888","周","345","Male","[""坏我"",""好他"",""坏他"",""好我""]","[""弱我"",""强他"",""弱他"",""强我""]","","","","","","","","nonmatch","","","","","","","","","","key","f","16.650505050505284","768","428","f","true","nonmatch","img/square.png","好他","坏我","ALT2","moral","","","","","","","","",""
"null","<span style='color:GreenYellow; font-size: 70px;'>正确! </span>","null","html-keyboard-response","115","305309","0.0-8.0-0.0-4.0-0.0-1.3","7","7","7","7","7","5","5","5","5","5","5","2","1","2","2","2","2","2","2","5","5","5","5","5","5","5","5","5","5","8","8","8","7","8","6","8","8","8","7","7","7","7","7","6","7","1","7","7","1","7","7","7","7","7","7","7","7","7","7","7","7","7","7","7","7","7","7","7","7","7","7","7","7","7","7","7","7","6","7","633774693194661888","周","345","Male","[""坏我"",""好他"",""坏他"",""好我""]","[""弱我"",""强他"",""弱他"",""强我""]","","","","","","","","","","","","","","","","","","","","","","","","","","","","","","feedback_test","","","","","","","","",""
"838","","f","psychophysics","116","307149","0.0-8.0-0.0-4.0-0.0-0.4","7","7","7","7","7","5","5","5","5","5","5","2","1","2","2","2","2","2","2","5","5","5","5","5","5","5","5","5","5","8","8","8","7","8","6","8","8","8","7","7","7","7","7","6","7","1","7","7","1","7","7","7","7","7","7","7","7","7","7","7","7","7","7","7","7","7","7","7","7","7","7","7","7","7","7","7","7","6","7","633774693194661888","周","345","Male","[""坏我"",""好他"",""坏他"",""好我""]","[""弱我"",""强他"",""弱他"",""强我""]","","","","","","","","nonmatch","","","","","","","","","","key","f","16.655045871559313","768","428","f","true","nonmatch","img/square.png","坏他","坏我","ALT2","moral","","","","","","","","",""
"null","<span style='color:GreenYellow; font-size: 70px;'>正确! </span>","null","html-keyboard-response","117","307650","0.0-8.0-0.0-4.0-0.0-1.4","7","7","7","7","7","5","5","5","5","5","5","2","1","2","2","2","2","2","2","5","5","5","5","5","5","5","5","5","5","8","8","8","7","8","6","8","8","8","7","7","7","7","7","6","7","1","7","7","1","7","7","7","7","7","7","7","7","7","7","7","7","7","7","7","7","7","7","7","7","7","7","7","7","7","7","7","7","6","7","633774693194661888","周","345","Male","[""坏我"",""好他"",""坏他"",""好我""]","[""弱我"",""强他"",""弱他"",""强我""]","","","","","","","","","","","","","","","","","","","","","","","","","","","","","","feedback_test","","","","","","","","",""
"774","","f","psychophysics","118","309425","0.0-8.0-0.0-4.0-0.0-0.5","7","7","7","7","7","5","5","5","5","5","5","2","1","2","2","2","2","2","2","5","5","5","5","5","5","5","5","5","5","8","8","8","7","8","6","8","8","8","7","7","7","7","7","6","7","1","7","7","1","7","7","7","7","7","7","7","7","7","7","7","7","7","7","7","7","7","7","7","7","7","7","7","7","7","7","7","7","6","7","633774693194661888","周","345","Male","[""坏我"",""好他"",""坏他"",""好我""]","[""弱我"",""强他"",""弱他"",""强我""]","","","","","","","","nonmatch","","","","","","","","","","key","f","16.652830188678806","768","428","j","false","match","img/square.png","坏我","坏我","ALT2","moral","","","","","","","","",""
"null","<span style='color:red; font-size: 70px;'>错误! </span>","null","html-keyboard-response","119","309926","0.0-8.0-0.0-4.0-0.0-1.5","7","7","7","7","7","5","5","5","5","5","5","2","1","2","2","2","2","2","2","5","5","5","5","5","5","5","5","5","5","8","8","8","7","8","6","8","8","8","7","7","7","7","7","6","7","1","7","7","1","7","7","7","7","7","7","7","7","7","7","7","7","7","7","7","7","7","7","7","7","7","7","7","7","7","7","7","7","6","7","633774693194661888","周","345","Male","[""坏我"",""好他"",""坏他"",""好我""]","[""弱我"",""强他"",""弱他"",""强我""]","","","","","","","","","","","","","","","","","","","","","","","","","","","","","","feedback_test","","","","","","","","",""
"770","","f","psychophysics","120","311697","0.0-8.0-0.0-4.0-0.0-0.6","7","7","7","7","7","5","5","5","5","5","5","2","1","2","2","2","2","2","2","5","5","5","5","5","5","5","5","5","5","8","8","8","7","8","6","8","8","8","7","7","7","7","7","6","7","1","7","7","1","7","7","7","7","7","7","7","7","7","7","7","7","7","7","7","7","7","7","7","7","7","7","7","7","7","7","7","7","6","7","633774693194661888","周","345","Male","[""坏我"",""好他"",""坏他"",""好我""]","[""弱我"",""强他"",""弱他"",""强我""]","","","","","","","","nonmatch","","","","","","","","","","key","f","16.64952380952392","768","428","f","true","nonmatch","img/pentagon.png","好我","好他","ALT2","moral","","","","","","","","",""
"null","<span style='color:GreenYellow; font-size: 70px;'>正确! </span>","null","html-keyboard-response","121","312198","0.0-8.0-0.0-4.0-0.0-1.6","7","7","7","7","7","5","5","5","5","5","5","2","1","2","2","2","2","2","2","5","5","5","5","5","5","5","5","5","5","8","8","8","7","8","6","8","8","8","7","7","7","7","7","6","7","1","7","7","1","7","7","7","7","7","7","7","7","7","7","7","7","7","7","7","7","7","7","7","7","7","7","7","7","7","7","7","7","6","7","633774693194661888","周","345","Male","[""坏我"",""好他"",""坏他"",""好我""]","[""弱我"",""强他"",""弱他"",""强我""]","","","","","","","","","","","","","","","","","","","","","","","","","","","","","","feedback_test","","","","","","","","",""
"739","","f","psychophysics","122","313938","0.0-8.0-0.0-4.0-0.0-0.7","7","7","7","7","7","5","5","5","5","5","5","2","1","2","2","2","2","2","2","5","5","5","5","5","5","5","5","5","5","8","8","8","7","8","6","8","8","8","7","7","7","7","7","6","7","1","7","7","1","7","7","7","7","7","7","7","7","7","7","7","7","7","7","7","7","7","7","7","7","7","7","7","7","7","7","7","7","6","7","633774693194661888","周","345","Male","[""坏我"",""好他"",""坏他"",""好我""]","[""弱我"",""强他"",""弱他"",""强我""]","","","","","","","","nonmatch","","","","","","","","","","key","f","16.640776699029125","768","428","j","false","match","img/diamond.png","坏他","坏他","ALT2","moral","","","","","","","","",""
"null","<span style='color:red; font-size: 70px;'>错误! </span>","null","html-keyboard-response","123","314439","0.0-8.0-0.0-4.0-0.0-1.7","7","7","7","7","7","5","5","5","5","5","5","2","1","2","2","2","2","2","2","5","5","5","5","5","5","5","5","5","5","8","8","8","7","8","6","8","8","8","7","7","7","7","7","6","7","1","7","7","1","7","7","7","7","7","7","7","7","7","7","7","7","7","7","7","7","7","7","7","7","7","7","7","7","7","7","7","7","6","7","633774693194661888","周","345","Male","[""坏我"",""好他"",""坏他"",""好我""]","[""弱我"",""强他"",""弱他"",""强我""]","","","","","","","","","","","","","","","","","","","","","","","","","","","","","","feedback_test","","","","","","","","",""
"490","","j","psychophysics","124","315931","0.0-8.0-0.0-4.0-0.0-0.8","7","7","7","7","7","5","5","5","5","5","5","2","1","2","2","2","2","2","2","5","5","5","5","5","5","5","5","5","5","8","8","8","7","8","6","8","8","8","7","7","7","7","7","6","7","1","7","7","1","7","7","7","7","7","7","7","7","7","7","7","7","7","7","7","7","7","7","7","7","7","7","7","7","7","7","7","7","6","7","633774693194661888","周","345","Male","[""坏我"",""好他"",""坏他"",""好我""]","[""弱我"",""强他"",""弱他"",""强我""]","","","","","","","","match","","","","","","","","","","key","j","16.648314606741703","768","428","f","false","nonmatch","img/diamond.png","好他","坏他","ALT2","moral","","","","","","","","",""
"null","<span style='color:red; font-size: 70px;'>错误! </span>","null","html-keyboard-response","125","316431","0.0-8.0-0.0-4.0-0.0-1.8","7","7","7","7","7","5","5","5","5","5","5","2","1","2","2","2","2","2","2","5","5","5","5","5","5","5","5","5","5","8","8","8","7","8","6","8","8","8","7","7","7","7","7","6","7","1","7","7","1","7","7","7","7","7","7","7","7","7","7","7","7","7","7","7","7","7","7","7","7","7","7","7","7","7","7","7","7","6","7","633774693194661888","周","345","Male","[""坏我"",""好他"",""坏他"",""好我""]","[""弱我"",""强他"",""弱他"",""强我""]","","","","","","","","","","","","","","","","","","","","","","","","","","","","","","feedback_test","","","","","","","","",""
"855","","j","psychophysics","126","318287","0.0-8.0-0.0-4.0-0.0-0.9","7","7","7","7","7","5","5","5","5","5","5","2","1","2","2","2","2","2","2","5","5","5","5","5","5","5","5","5","5","8","8","8","7","8","6","8","8","8","7","7","7","7","7","6","7","1","7","7","1","7","7","7","7","7","7","7","7","7","7","7","7","7","7","7","7","7","7","7","7","7","7","7","7","7","7","7","7","6","7","633774693194661888","周","345","Male","[""坏我"",""好他"",""坏他"",""好我""]","[""弱我"",""强他"",""弱他"",""强我""]","","","","","","","","match","","","","","","","","","","key","j","16.653636363636576","768","428","f","false","nonmatch","img/diamond.png","好我","坏他","ALT2","moral","","","","","","","","",""
"null","<span style='color:red; font-size: 70px;'>错误! </span>","null","html-keyboard-response","127","318788","0.0-8.0-0.0-4.0-0.0-1.9","7","7","7","7","7","5","5","5","5","5","5","2","1","2","2","2","2","2","2","5","5","5","5","5","5","5","5","5","5","8","8","8","7","8","6","8","8","8","7","7","7","7","7","6","7","1","7","7","1","7","7","7","7","7","7","7","7","7","7","7","7","7","7","7","7","7","7","7","7","7","7","7","7","7","7","7","7","6","7","633774693194661888","周","345","Male","[""坏我"",""好他"",""坏他"",""好我""]","[""弱我"",""强他"",""弱他"",""强我""]","","","","","","","","","","","","","","","","","","","","","","","","","","","","","","feedback_test","","","","","","","","",""
"624","","f","psychophysics","128","320414","0.0-8.0-0.0-4.0-0.0-0.10","7","7","7","7","7","5","5","5","5","5","5","2","1","2","2","2","2","2","2","5","5","5","5","5","5","5","5","5","5","8","8","8","7","8","6","8","8","8","7","7","7","7","7","6","7","1","7","7","1","7","7","7","7","7","7","7","7","7","7","7","7","7","7","7","7","7","7","7","7","7","7","7","7","7","7","7","7","6","7","633774693194661888","周","345","Male","[""坏我"",""好他"",""坏他"",""好我""]","[""弱我"",""强他"",""弱他"",""强我""]","","","","","","","","nonmatch","","","","","","","","","","key","f","16.651546391752696","768","428","f","true","nonmatch","img/ellipse.png","坏他","好我","ALT2","moral","","","","","","","","",""
"null","<span style='color:GreenYellow; font-size: 70px;'>正确! </span>","null","html-keyboard-response","129","320916","0.0-8.0-0.0-4.0-0.0-1.10","7","7","7","7","7","5","5","5","5","5","5","2","1","2","2","2","2","2","2","5","5","5","5","5","5","5","5","5","5","8","8","8","7","8","6","8","8","8","7","7","7","7","7","6","7","1","7","7","1","7","7","7","7","7","7","7","7","7","7","7","7","7","7","7","7","7","7","7","7","7","7","7","7","7","7","7","7","6","7","633774693194661888","周","345","Male","[""坏我"",""好他"",""坏他"",""好我""]","[""弱我"",""强他"",""弱他"",""强我""]","","","","","","","","","","","","","","","","","","","","","","","","","","","","","","feedback_test","","","","","","","","",""
"908","","f","psychophysics","130","322825","0.0-8.0-0.0-4.0-0.0-0.11","7","7","7","7","7","5","5","5","5","5","5","2","1","2","2","2","2","2","2","5","5","5","5","5","5","5","5","5","5","8","8","8","7","8","6","8","8","8","7","7","7","7","7","6","7","1","7","7","1","7","7","7","7","7","7","7","7","7","7","7","7","7","7","7","7","7","7","7","7","7","7","7","7","7","7","7","7","6","7","633774693194661888","周","345","Male","[""坏我"",""好他"",""坏他"",""好我""]","[""弱我"",""强他"",""弱他"",""强我""]","","","","","","","","nonmatch","","","","","","","","","","key","f","16.65175438596481","768","428","f","true","nonmatch","img/ellipse.png","好他","好我","ALT2","moral","","","","","","","","",""
"null","<span style='color:GreenYellow; font-size: 70px;'>正确! </span>","null","html-keyboard-response","131","323325","0.0-8.0-0.0-4.0-0.0-1.11","7","7","7","7","7","5","5","5","5","5","5","2","1","2","2","2","2","2","2","5","5","5","5","5","5","5","5","5","5","8","8","8","7","8","6","8","8","8","7","7","7","7","7","6","7","1","7","7","1","7","7","7","7","7","7","7","7","7","7","7","7","7","7","7","7","7","7","7","7","7","7","7","7","7","7","7","7","6","7","633774693194661888","周","345","Male","[""坏我"",""好他"",""坏他"",""好我""]","[""弱我"",""强他"",""弱他"",""强我""]","","","","","","","","","","","","","","","","","","","","","","","","","","","","","","feedback_test","","","","","","","","",""
"758","","j","psychophysics","132","325087","0.0-8.0-0.0-4.0-0.0-0.12","7","7","7","7","7","5","5","5","5","5","5","2","1","2","2","2","2","2","2","5","5","5","5","5","5","5","5","5","5","8","8","8","7","8","6","8","8","8","7","7","7","7","7","6","7","1","7","7","1","7","7","7","7","7","7","7","7","7","7","7","7","7","7","7","7","7","7","7","7","7","7","7","7","7","7","7","7","6","7","633774693194661888","周","345","Male","[""坏我"",""好他"",""坏他"",""好我""]","[""弱我"",""强他"",""弱他"",""强我""]","","","","","","","","match","","","","","","","","","","key","j","16.64903846153846","768","428","j","true","match","img/pentagon.png","好他","好他","ALT2","moral","","","","","","","","",""
"null","<span style='color:GreenYellow; font-size: 70px;'>正确! </span>","null","html-keyboard-response","133","325587","0.0-8.0-0.0-4.0-0.0-1.12","7","7","7","7","7","5","5","5","5","5","5","2","1","2","2","2","2","2","2","5","5","5","5","5","5","5","5","5","5","8","8","8","7","8","6","8","8","8","7","7","7","7","7","6","7","1","7","7","1","7","7","7","7","7","7","7","7","7","7","7","7","7","7","7","7","7","7","7","7","7","7","7","7","7","7","7","7","6","7","633774693194661888","周","345","Male","[""坏我"",""好他"",""坏他"",""好我""]","[""弱我"",""强他"",""弱他"",""强我""]","","","","","","","","","","","","","","","","","","","","","","","","","","","","","","feedback_test","","","","","","","","",""
"734","","j","psychophysics","134","327323","0.0-8.0-0.0-4.0-0.0-0.13","7","7","7","7","7","5","5","5","5","5","5","2","1","2","2","2","2","2","2","5","5","5","5","5","5","5","5","5","5","8","8","8","7","8","6","8","8","8","7","7","7","7","7","6","7","1","7","7","1","7","7","7","7","7","7","7","7","7","7","7","7","7","7","7","7","7","7","7","7","7","7","7","7","7","7","7","7","6","7","633774693194661888","周","345","Male","[""坏我"",""好他"",""坏他"",""好我""]","[""弱我"",""强他"",""弱他"",""强我""]","","","","","","","","match","","","","","","","","","","key","j","16.647572815534094","768","428","j","true","match","img/square.png","坏我","坏我","ALT2","moral","","","","","","","","",""
"null","<span style='color:GreenYellow; font-size: 70px;'>正确! </span>","null","html-keyboard-response","135","327824","0.0-8.0-0.0-4.0-0.0-1.13","7","7","7","7","7","5","5","5","5","5","5","2","1","2","2","2","2","2","2","5","5","5","5","5","5","5","5","5","5","8","8","8","7","8","6","8","8","8","7","7","7","7","7","6","7","1","7","7","1","7","7","7","7","7","7","7","7","7","7","7","7","7","7","7","7","7","7","7","7","7","7","7","7","7","7","7","7","6","7","633774693194661888","周","345","Male","[""坏我"",""好他"",""坏他"",""好我""]","[""弱我"",""强他"",""弱他"",""强我""]","","","","","","","","","","","","","","","","","","","","","","","","","","","","","","feedback_test","","","","","","","","",""
"681","","f","psychophysics","136","329507","0.0-8.0-0.0-4.0-0.0-0.14","7","7","7","7","7","5","5","5","5","5","5","2","1","2","2","2","2","2","2","5","5","5","5","5","5","5","5","5","5","8","8","8","7","8","6","8","8","8","7","7","7","7","7","6","7","1","7","7","1","7","7","7","7","7","7","7","7","7","7","7","7","7","7","7","7","7","7","7","7","7","7","7","7","7","7","7","7","6","7","633774693194661888","周","345","Male","[""坏我"",""好他"",""坏他"",""好我""]","[""弱我"",""强他"",""弱他"",""强我""]","","","","","","","","nonmatch","","","","","","","","","","key","f","16.652999999999885","768","428","j","false","match","img/diamond.png","坏他","坏他","ALT2","moral","","","","","","","","",""
"null","<span style='color:red; font-size: 70px;'>错误! </span>","null","html-keyboard-response","137","330009","0.0-8.0-0.0-4.0-0.0-1.14","7","7","7","7","7","5","5","5","5","5","5","2","1","2","2","2","2","2","2","5","5","5","5","5","5","5","5","5","5","8","8","8","7","8","6","8","8","8","7","7","7","7","7","6","7","1","7","7","1","7","7","7","7","7","7","7","7","7","7","7","7","7","7","7","7","7","7","7","7","7","7","7","7","7","7","7","7","6","7","633774693194661888","周","345","Male","[""坏我"",""好他"",""坏他"",""好我""]","[""弱我"",""强他"",""弱他"",""强我""]","","","","","","","","","","","","","","","","","","","","","","","","","","","","","","feedback_test","","","","","","","","",""
"676","","j","psychophysics","138","331687","0.0-8.0-0.0-4.0-0.0-0.15","7","7","7","7","7","5","5","5","5","5","5","2","1","2","2","2","2","2","2","5","5","5","5","5","5","5","5","5","5","8","8","8","7","8","6","8","8","8","7","7","7","7","7","6","7","1","7","7","1","7","7","7","7","7","7","7","7","7","7","7","7","7","7","7","7","7","7","7","7","7","7","7","7","7","7","7","7","6","7","633774693194661888","周","345","Male","[""坏我"",""好他"",""坏他"",""好我""]","[""弱我"",""强他"",""弱他"",""强我""]","","","","","","","","match","","","","","","","","","","key","j","16.651999999999536","768","428","j","true","match","img/square.png","坏我","坏我","ALT2","moral","","","","","","","","",""
