"rt","stimulus","response","trial_type","trial_index","time_elapsed","internal_node_id","swb_1","swb_2","swb_3","swb_4","swb_5","LOT_1","LOT_2","LOT_3","LOT_4","LOT_5","LOT_6","IPC_1","IPC_2","IPC_3","IPC_4","IPC_5","IPC_6","IPC_7","IPC_8","MorIden_1","MorIden_2","MorIden_3","MorIden_4","MorIden_5","MorIden_6","MorIden_7","MorIden_8","MorIden_9","MorIden_10","moralSeImag_1","moralSeImag_2","moralSeImag_3","moralSeImag_4","moralSeImag_5","moralSeImag_6","moralSeImag_7","moralSeImag_8","moralSeImag_9","sde_1","sde_2","sde_3","sde_4","sde_5","sde_6","sde_7","sde_8","sde_9","sde_10","trap2","sde_11","sde_12","sde_13","sde_14","sde_15","sde_16","sde_17","sde_18","sde_19","sde_20","IM_1","IM_2","IM_3","IM_4","IM_5","IM_6","IM_7","IM_8","IM_9","IM_10","IM_11","IM_12","IM_13","IM_14","IM_15","IM_16","IM_17","IM_18","IM_19","IM_20","subj_idx","friend_name","ParticipantID","Sex","Word","Word2","value","success","timeout","failed_images","failed_audio","failed_video","user_agent","responses","item_order","radio_event_ids","radio_event_times","key_event_times","mouse_event_times","straightlining","zigzagging","honeypot","view_history","response_type","key_press","avg_frame_time","center_x","center_y","correct_response","correct","identity","Image","word","condition","task_id","screen_id","time_stamp","person","valence","domain","math","status","duration","question_order","trap2_item"
"11548","
   <p><div style='color:white; font-size: 25px'>您好，欢迎参加本次实验。</div></p>
   <p><div style='color:white; font-size: 25px'>为充分保障您的权利，请确保您已经知晓并同意《参与实验同意书》以及《数据公开知情同意书》。</div></p>
   <p><div style='color:white; font-size: 25px'>如果您未见过上述内容，请咨询实验员。</div></p>
   <p style='color:white; font-size: 25px'>如果您选择继续实验，则表示您已经清楚两份知情同意书的内容并同意。</p>
   <p><div style = ""color: pink;font-size:30px;"">请确保您记得day0的实验编号，您将在本次实验输入该编号，若您忘记，请咨询实验员后作答。</div></p>
   <p><div style = ""color:lightblue;font-size:25px;"">请您尽可能认真地作答，我们将依据您在各问卷和按键任务中的作答质量发放报酬。</div></p>
   <p> <div style = ""color: green""><按空格键至下页></div> </p>
   "," ","html-keyboard-response","0","11549","0.0-0.0","3","2","2","2","1","2","3","2","4","3","4","-2","1","-1","-1","-2","-1","0","-1","4","4","4","2","4","2","2","2","2","1","1","2","3","5","2","2","3","3","2","3","2","2","2","3","2","5","4","2","2","1","3","2","6","3","2","3","6","4","2","2","3","3","3","2","3","3","3","3","3","2","6","3","5","2","2","2","1","3","6","3","793983472925548545","王","625","Female","[""好我"",""坏我"",""坏她"",""好她""]","[""强我"",""弱我"",""弱她"",""强她""]","","","","","","","","","","","","","","","","","","","","","","","","","","","","","","","","","","","","","","",""
"","","","call-function","1","11551","0.0-1.0-0.0","3","2","2","2","1","2","3","2","4","3","4","-2","1","-1","-1","-2","-1","0","-1","4","4","4","2","4","2","2","2","2","1","1","2","3","5","2","2","3","3","2","3","2","2","2","3","2","5","4","2","2","1","3","2","6","3","2","3","6","4","2","2","3","3","3","2","3","3","3","3","3","2","6","3","5","2","2","2","1","3","6","3","793983472925548545","王","625","Female","[""好我"",""坏我"",""坏她"",""好她""]","[""强我"",""弱我"",""弱她"",""强她""]","","","","","","","","","","","","","","","","","","","","","","","","","","","","","","","","","","","","","","",""
"59467","","[{""name"":""Sex"",""value"":""1""},{""name"":""friend_name"",""value"":""王""},{""name"":""ParticipantID"",""value"":""625""}]","survey-html-form","2","71018","0.0-1.0-1.0","3","2","2","2","1","2","3","2","4","3","4","-2","1","-1","-1","-2","-1","0","-1","4","4","4","2","4","2","2","2","2","1","1","2","3","5","2","2","3","3","2","3","2","2","2","3","2","5","4","2","2","1","3","2","6","3","2","3","6","4","2","2","3","3","3","2","3","3","3","3","3","2","6","3","5","2","2","2","1","3","6","3","793983472925548545","王","625","Female","[""好我"",""坏我"",""坏她"",""好她""]","[""强我"",""弱我"",""弱她"",""强她""]","","","","","","","","","","","","","","","","","","","","","","","","","","","","","","","","","","","","","","",""
"","","","preload","3","71261","0.0-2.0","3","2","2","2","1","2","3","2","4","3","4","-2","1","-1","-1","-2","-1","0","-1","4","4","4","2","4","2","2","2","2","1","1","2","3","5","2","2","3","3","2","3","2","2","2","3","2","5","4","2","2","1","3","2","6","3","2","3","6","4","2","2","3","3","3","2","3","3","3","3","3","2","6","3","5","2","2","2","1","3","6","3","793983472925548545","王","625","Female","[""好我"",""坏我"",""坏她"",""好她""]","[""强我"",""弱我"",""弱她"",""强她""]","","true","false","[]","[]","[]","","","","","","","","","","","","","","","","","","","","","","","","","","","","","","","","",""
"","","","fullscreen","4","76183","0.0-3.0","3","2","2","2","1","2","3","2","4","3","4","-2","1","-1","-1","-2","-1","0","-1","4","4","4","2","4","2","2","2","2","1","1","2","3","5","2","2","3","3","2","3","2","2","2","3","2","5","4","2","2","1","3","2","6","3","2","3","6","4","2","2","3","3","3","2","3","3","3","3","3","2","6","3","5","2","2","2","1","3","6","3","793983472925548545","王","625","Female","[""好我"",""坏我"",""坏她"",""好她""]","[""强我"",""弱我"",""弱她"",""强她""]","","true","","","","","{}","","","","","","","","","","","","","","","","","","","","","","","","","","","","","","","",""
"14606.699999999255","","{""Q01"":""3"",""Q02"":""2"",""Q03"":""2"",""Q04"":""2"",""Q05"":""1""}","survey-template","5","90791","0.0-4.0","3","2","2","2","1","2","3","2","4","3","4","-2","1","-1","-1","-2","-1","0","-1","4","4","4","2","4","2","2","2","2","1","1","2","3","5","2","2","3","3","2","3","2","2","2","3","2","5","4","2","2","1","3","2","6","3","2","3","6","4","2","2","3","3","3","2","3","3","3","3","3","2","6","3","5","2","2","2","1","3","6","3","793983472925548545","王","625","Female","[""好我"",""坏我"",""坏她"",""好她""]","[""强我"",""弱我"",""弱她"",""强她""]","","","","","","","","{""Q01"":""3"",""Q02"":""2"",""Q03"":""2"",""Q04"":""2"",""Q05"":""1""}","[0,1,2,3,4]","[""Q01"",""Q02"",""Q03"",""Q04"",""Q05""]","[5025.5,6573.5999999996275,7428.699999999255,8469.699999999255,13638.599999999627]","[]","[4580.799999998882,5025.5,5539.5,5833.5999999996275,6307.5,6573.5999999996275,7048.299999998882,7428.699999999255,8159.5999999996275,8469.699999999255,9893.699999999255,10178.599999999627,11828.699999999255,13283.299999998882,13638.599999999627,14605.699999999255]","0.6","0.5","0","","","","","","","","","","","","","","","","","","","","","","",""
"22932.800000000745","","{""Q01"":""2"",""Q02"":""3"",""Q03"":""2"",""Q04"":""4"",""Q05"":""3"",""Q06"":""4""}","survey-template","6","113728","0.0-5.0","3","2","2","2","1","2","3","2","4","3","4","-2","1","-1","-1","-2","-1","0","-1","4","4","4","2","4","2","2","2","2","1","1","2","3","5","2","2","3","3","2","3","2","2","2","3","2","5","4","2","2","1","3","2","6","3","2","3","6","4","2","2","3","3","3","2","3","3","3","3","3","2","6","3","5","2","2","2","1","3","6","3","793983472925548545","王","625","Female","[""好我"",""坏我"",""坏她"",""好她""]","[""强我"",""弱我"",""弱她"",""强她""]","","","","","","","","{""Q01"":""2"",""Q02"":""3"",""Q03"":""2"",""Q04"":""4"",""Q05"":""3"",""Q06"":""4""}","[0,1,2,3,4,5]","[""Q01"",""Q03"",""Q02"",""Q05"",""Q04"",""Q06""]","[5307.200000001118,7268.10000000149,11292.10000000149,14793.200000001118,19005.200000001118,22023.200000001118]","[]","[5307.200000001118,7268.10000000149,11292.10000000149,14793.200000001118,19005.200000001118,22023.200000001118,22932.200000001118]","0.5","0.8","0","","","","","","","","","","","","","","","","","","","","","","",""
"33016.90000000037","","{""Q01"":""-2"",""Q02"":""1"",""Q03"":""-1"",""Q04"":""-1"",""Q05"":""-2"",""Q06"":""-1"",""Q07"":""0"",""Q08"":""-1""}","survey-template","7","146747","0.0-6.0","3","2","2","2","1","2","3","2","4","3","4","-2","1","-1","-1","-2","-1","0","-1","4","4","4","2","4","2","2","2","2","1","1","2","3","5","2","2","3","3","2","3","2","2","2","3","2","5","4","2","2","1","3","2","6","3","2","3","6","4","2","2","3","3","3","2","3","3","3","3","3","2","6","3","5","2","2","2","1","3","6","3","793983472925548545","王","625","Female","[""好我"",""坏我"",""坏她"",""好她""]","[""强我"",""弱我"",""弱她"",""强她""]","","","","","","","","{""Q01"":""-2"",""Q02"":""1"",""Q03"":""-1"",""Q04"":""-1"",""Q05"":""-2"",""Q06"":""-1"",""Q07"":""0"",""Q08"":""-1""}","[0,1,2,3,4,5,6,7]","[""Q02"",""Q01"",""Q03"",""Q04"",""Q04"",""Q05"",""Q06"",""Q08"",""Q07""]","[6014.700000001118,7881.9000000003725,13222.60000000149,15282.700000001118,17658.800000000745,18874,22414.700000001118,25898.700000001118,28579.800000000745]","[]","[3921.800000000745,4678.60000000149,5572.5,6014.700000001118,6889.800000000745,7412.700000001118,7881.9000000003725,13222.60000000149,15282.700000001118,17042.800000000745,17658.800000000745,18874,22414.700000001118,25898.700000001118,28579.800000000745,33015.90000000037]","0.5","0.5714285714285714","0","","","","","","","","","","","","","","","","","","","","","","",""
"63959","","","instructions","8","210708","0.0-7.0","3","2","2","2","1","2","3","2","4","3","4","-2","1","-1","-1","-2","-1","0","-1","4","4","4","2","4","2","2","2","2","1","1","2","3","5","2","2","3","3","2","3","2","2","2","3","2","5","4","2","2","1","3","2","6","3","2","3","6","4","2","2","3","3","3","2","3","3","3","3","3","2","6","3","5","2","2","2","1","3","6","3","793983472925548545","王","625","Female","[""好我"",""坏我"",""坏她"",""好她""]","[""强我"",""弱我"",""弱她"",""强她""]","","","","","","","","","","","","","","","","","[{""page_index"":0,""viewing_time"":63959}]","","","","","","","","","","","","","","","","","","","","","",""
"103341","","","instructions","9","314050","0.0-8.0-1.0-0.0","3","2","2","2","1","2","3","2","4","3","4","-2","1","-1","-1","-2","-1","0","-1","4","4","4","2","4","2","2","2","2","1","1","2","3","5","2","2","3","3","2","3","2","2","2","3","2","5","4","2","2","1","3","2","6","3","2","3","6","4","2","2","3","3","3","2","3","3","3","3","3","2","6","3","5","2","2","2","1","3","6","3","793983472925548545","王","625","Female","[""好我"",""坏我"",""坏她"",""好她""]","[""强我"",""弱我"",""弱她"",""强她""]","","","","","","","","","","","","","","","","","[{""page_index"":0,""viewing_time"":23785},{""page_index"":1,""viewing_time"":74994},{""page_index"":2,""viewing_time"":2804},{""page_index"":3,""viewing_time"":1758}]","","","","","","","","","","","","","","","","","","","","","",""
"null","","null","psychophysics","10","316254","0.0-8.0-1.0-1.0-0.0-0.0","3","2","2","2","1","2","3","2","4","3","4","-2","1","-1","-1","-2","-1","0","-1","4","4","4","2","4","2","2","2","2","1","1","2","3","5","2","2","3","3","2","3","2","2","2","3","2","5","4","2","2","1","3","2","6","3","2","3","6","4","2","2","3","3","3","2","3","3","3","3","3","2","6","3","5","2","2","2","1","3","6","3","793983472925548545","王","625","Female","[""好我"",""坏我"",""坏她"",""好她""]","[""强我"",""弱我"",""弱她"",""强她""]","","","","","","","","null","","","","","","","","","","key","null","8.333140151515016","960","536","f","false","nonmatch","img/hexagon.png","强我","弱她","prac_ALT2_ability","practice_ability","","","","","","","","",""
"null","<span class='add_' style='color:yellow; font-size: 70px;'> 太慢! </span>","null","html-keyboard-response","11","316756","0.0-8.0-1.0-1.0-0.0-1.0","3","2","2","2","1","2","3","2","4","3","4","-2","1","-1","-1","-2","-1","0","-1","4","4","4","2","4","2","2","2","2","1","1","2","3","5","2","2","3","3","2","3","2","2","2","3","2","5","4","2","2","1","3","2","6","3","2","3","6","4","2","2","3","3","3","2","3","3","3","3","3","2","6","3","5","2","2","2","1","3","6","3","793983472925548545","王","625","Female","[""好我"",""坏我"",""坏她"",""好她""]","[""强我"",""弱我"",""弱她"",""强她""]","","","","","","","","","","","","","","","","","","","","","","","","","","","","","","feedback_test","","","","","","","","",""
"739","","f","psychophysics","12","318496","0.0-8.0-1.0-1.0-0.0-0.1","3","2","2","2","1","2","3","2","4","3","4","-2","1","-1","-1","-2","-1","0","-1","4","4","4","2","4","2","2","2","2","1","1","2","3","5","2","2","3","3","2","3","2","2","2","3","2","5","4","2","2","1","3","2","6","3","2","3","6","4","2","2","3","3","3","2","3","3","3","3","3","2","6","3","5","2","2","2","1","3","6","3","793983472925548545","王","625","Female","[""好我"",""坏我"",""坏她"",""好她""]","[""强我"",""弱我"",""弱她"",""强她""]","","","","","","","","nonmatch","","","","","","","","","","key","f","8.332966346153766","960","536","j","false","match","img/diamond.png","强她","强她","prac_ALT2_ability","practice_ability","","","","","","","","",""
"null","<span style='color:red; font-size: 70px;'>错误! </span>","null","html-keyboard-response","13","318997","0.0-8.0-1.0-1.0-0.0-1.1","3","2","2","2","1","2","3","2","4","3","4","-2","1","-1","-1","-2","-1","0","-1","4","4","4","2","4","2","2","2","2","1","1","2","3","5","2","2","3","3","2","3","2","2","2","3","2","5","4","2","2","1","3","2","6","3","2","3","6","4","2","2","3","3","3","2","3","3","3","3","3","2","6","3","5","2","2","2","1","3","6","3","793983472925548545","王","625","Female","[""好我"",""坏我"",""坏她"",""好她""]","[""强我"",""弱我"",""弱她"",""强她""]","","","","","","","","","","","","","","","","","","","","","","","","","","","","","","feedback_test","","","","","","","","",""
"null","","null","psychophysics","14","321199","0.0-8.0-1.0-1.0-0.0-0.2","3","2","2","2","1","2","3","2","4","3","4","-2","1","-1","-1","-2","-1","0","-1","4","4","4","2","4","2","2","2","2","1","1","2","3","5","2","2","3","3","2","3","2","2","2","3","2","5","4","2","2","1","3","2","6","3","2","3","6","4","2","2","3","3","3","2","3","3","3","3","3","2","6","3","5","2","2","2","1","3","6","3","793983472925548545","王","625","Female","[""好我"",""坏我"",""坏她"",""好她""]","[""强我"",""弱我"",""弱她"",""强她""]","","","","","","","","null","","","","","","","","","","key","null","8.333064638783345","960","536","j","false","match","img/diamond.png","强她","强她","prac_ALT2_ability","practice_ability","","","","","","","","",""
"null","<span class='add_' style='color:yellow; font-size: 70px;'> 太慢! </span>","null","html-keyboard-response","15","321701","0.0-8.0-1.0-1.0-0.0-1.2","3","2","2","2","1","2","3","2","4","3","4","-2","1","-1","-1","-2","-1","0","-1","4","4","4","2","4","2","2","2","2","1","1","2","3","5","2","2","3","3","2","3","2","2","2","3","2","5","4","2","2","1","3","2","6","3","2","3","6","4","2","2","3","3","3","2","3","3","3","3","3","2","6","3","5","2","2","2","1","3","6","3","793983472925548545","王","625","Female","[""好我"",""坏我"",""坏她"",""好她""]","[""强我"",""弱我"",""弱她"",""强她""]","","","","","","","","","","","","","","","","","","","","","","","","","","","","","","feedback_test","","","","","","","","",""
"null","","null","psychophysics","16","323903","0.0-8.0-1.0-1.0-0.0-0.3","3","2","2","2","1","2","3","2","4","3","4","-2","1","-1","-1","-2","-1","0","-1","4","4","4","2","4","2","2","2","2","1","1","2","3","5","2","2","3","3","2","3","2","2","2","3","2","5","4","2","2","1","3","2","6","3","2","3","6","4","2","2","3","3","3","2","3","3","3","3","3","2","6","3","5","2","2","2","1","3","6","3","793983472925548545","王","625","Female","[""好我"",""坏我"",""坏她"",""好她""]","[""强我"",""弱我"",""弱她"",""强她""]","","","","","","","","null","","","","","","","","","","key","null","8.332969581749035","960","536","f","false","nonmatch","img/diamond.png","弱我","强她","prac_ALT2_ability","practice_ability","","","","","","","","",""
"null","<span class='add_' style='color:yellow; font-size: 70px;'> 太慢! </span>","null","html-keyboard-response","17","324403","0.0-8.0-1.0-1.0-0.0-1.3","3","2","2","2","1","2","3","2","4","3","4","-2","1","-1","-1","-2","-1","0","-1","4","4","4","2","4","2","2","2","2","1","1","2","3","5","2","2","3","3","2","3","2","2","2","3","2","5","4","2","2","1","3","2","6","3","2","3","6","4","2","2","3","3","3","2","3","3","3","3","3","2","6","3","5","2","2","2","1","3","6","3","793983472925548545","王","625","Female","[""好我"",""坏我"",""坏她"",""好她""]","[""强我"",""弱我"",""弱她"",""强她""]","","","","","","","","","","","","","","","","","","","","","","","","","","","","","","feedback_test","","","","","","","","",""
"645","","j","psychophysics","18","326050","0.0-8.0-1.0-1.0-0.0-0.4","3","2","2","2","1","2","3","2","4","3","4","-2","1","-1","-1","-2","-1","0","-1","4","4","4","2","4","2","2","2","2","1","1","2","3","5","2","2","3","3","2","3","2","2","2","3","2","5","4","2","2","1","3","2","6","3","2","3","6","4","2","2","3","3","3","2","3","3","3","3","3","2","6","3","5","2","2","2","1","3","6","3","793983472925548545","王","625","Female","[""好我"",""坏我"",""坏她"",""好她""]","[""强我"",""弱我"",""弱她"",""强她""]","","","","","","","","match","","","","","","","","","","key","j","8.333076530612521","960","536","f","false","nonmatch","img/triangle.png","强她","弱我","prac_ALT2_ability","practice_ability","","","","","","","","",""
"null","<span style='color:red; font-size: 70px;'>错误! </span>","null","html-keyboard-response","19","326551","0.0-8.0-1.0-1.0-0.0-1.4","3","2","2","2","1","2","3","2","4","3","4","-2","1","-1","-1","-2","-1","0","-1","4","4","4","2","4","2","2","2","2","1","1","2","3","5","2","2","3","3","2","3","2","2","2","3","2","5","4","2","2","1","3","2","6","3","2","3","6","4","2","2","3","3","3","2","3","3","3","3","3","2","6","3","5","2","2","2","1","3","6","3","793983472925548545","王","625","Female","[""好我"",""坏我"",""坏她"",""好她""]","[""强我"",""弱我"",""弱她"",""强她""]","","","","","","","","","","","","","","","","","","","","","","","","","","","","","","feedback_test","","","","","","","","",""
"null","","null","psychophysics","20","328752","0.0-8.0-1.0-1.0-0.0-0.5","3","2","2","2","1","2","3","2","4","3","4","-2","1","-1","-1","-2","-1","0","-1","4","4","4","2","4","2","2","2","2","1","1","2","3","5","2","2","3","3","2","3","2","2","2","3","2","5","4","2","2","1","3","2","6","3","2","3","6","4","2","2","3","3","3","2","3","3","3","3","3","2","6","3","5","2","2","2","1","3","6","3","793983472925548545","王","625","Female","[""好我"",""坏我"",""坏她"",""好她""]","[""强我"",""弱我"",""弱她"",""强她""]","","","","","","","","null","","","","","","","","","","key","null","8.333083650190206","960","536","j","false","match","img/triangle.png","弱我","弱我","prac_ALT2_ability","practice_ability","","","","","","","","",""
"null","<span class='add_' style='color:yellow; font-size: 70px;'> 太慢! </span>","null","html-keyboard-response","21","329254","0.0-8.0-1.0-1.0-0.0-1.5","3","2","2","2","1","2","3","2","4","3","4","-2","1","-1","-1","-2","-1","0","-1","4","4","4","2","4","2","2","2","2","1","1","2","3","5","2","2","3","3","2","3","2","2","2","3","2","5","4","2","2","1","3","2","6","3","2","3","6","4","2","2","3","3","3","2","3","3","3","3","3","2","6","3","5","2","2","2","1","3","6","3","793983472925548545","王","625","Female","[""好我"",""坏我"",""坏她"",""好她""]","[""强我"",""弱我"",""弱她"",""强她""]","","","","","","","","","","","","","","","","","","","","","","","","","","","","","","feedback_test","","","","","","","","",""
"524","","f","psychophysics","22","330778","0.0-8.0-1.0-1.0-0.0-0.6","3","2","2","2","1","2","3","2","4","3","4","-2","1","-1","-1","-2","-1","0","-1","4","4","4","2","4","2","2","2","2","1","1","2","3","5","2","2","3","3","2","3","2","2","2","3","2","5","4","2","2","1","3","2","6","3","2","3","6","4","2","2","3","3","3","2","3","3","3","3","3","2","6","3","5","2","2","2","1","3","6","3","793983472925548545","王","625","Female","[""好我"",""坏我"",""坏她"",""好她""]","[""强我"",""弱我"",""弱她"",""强她""]","","","","","","","","nonmatch","","","","","","","","","","key","f","8.332917582417664","960","536","j","false","match","img/hexagon.png","弱她","弱她","prac_ALT2_ability","practice_ability","","","","","","","","",""
"null","<span style='color:red; font-size: 70px;'>错误! </span>","null","html-keyboard-response","23","331279","0.0-8.0-1.0-1.0-0.0-1.6","3","2","2","2","1","2","3","2","4","3","4","-2","1","-1","-1","-2","-1","0","-1","4","4","4","2","4","2","2","2","2","1","1","2","3","5","2","2","3","3","2","3","2","2","2","3","2","5","4","2","2","1","3","2","6","3","2","3","6","4","2","2","3","3","3","2","3","3","3","3","3","2","6","3","5","2","2","2","1","3","6","3","793983472925548545","王","625","Female","[""好我"",""坏我"",""坏她"",""好她""]","[""强我"",""弱我"",""弱她"",""强她""]","","","","","","","","","","","","","","","","","","","","","","","","","","","","","","feedback_test","","","","","","","","",""
"null","","null","psychophysics","24","333481","0.0-8.0-1.0-1.0-0.0-0.7","3","2","2","2","1","2","3","2","4","3","4","-2","1","-1","-1","-2","-1","0","-1","4","4","4","2","4","2","2","2","2","1","1","2","3","5","2","2","3","3","2","3","2","2","2","3","2","5","4","2","2","1","3","2","6","3","2","3","6","4","2","2","3","3","3","2","3","3","3","3","3","2","6","3","5","2","2","2","1","3","6","3","793983472925548545","王","625","Female","[""好我"",""坏我"",""坏她"",""好她""]","[""强我"",""弱我"",""弱她"",""强她""]","","","","","","","","null","","","","","","","","","","key","null","8.364637404580277","960","536","j","false","match","img/hexagon.png","弱她","弱她","prac_ALT2_ability","practice_ability","","","","","","","","",""
"null","<span class='add_' style='color:yellow; font-size: 70px;'> 太慢! </span>","null","html-keyboard-response","25","333982","0.0-8.0-1.0-1.0-0.0-1.7","3","2","2","2","1","2","3","2","4","3","4","-2","1","-1","-1","-2","-1","0","-1","4","4","4","2","4","2","2","2","2","1","1","2","3","5","2","2","3","3","2","3","2","2","2","3","2","5","4","2","2","1","3","2","6","3","2","3","6","4","2","2","3","3","3","2","3","3","3","3","3","2","6","3","5","2","2","2","1","3","6","3","793983472925548545","王","625","Female","[""好我"",""坏我"",""坏她"",""好她""]","[""强我"",""弱我"",""弱她"",""强她""]","","","","","","","","","","","","","","","","","","","","","","","","","","","","","","feedback_test","","","","","","","","",""
"null","","null","psychophysics","26","336184","0.0-8.0-1.0-1.0-0.0-0.8","3","2","2","2","1","2","3","2","4","3","4","-2","1","-1","-1","-2","-1","0","-1","4","4","4","2","4","2","2","2","2","1","1","2","3","5","2","2","3","3","2","3","2","2","2","3","2","5","4","2","2","1","3","2","6","3","2","3","6","4","2","2","3","3","3","2","3","3","3","3","3","2","6","3","5","2","2","2","1","3","6","3","793983472925548545","王","625","Female","[""好我"",""坏我"",""坏她"",""好她""]","[""强我"",""弱我"",""弱她"",""强她""]","","","","","","","","null","","","","","","","","","","key","null","8.333091254752862","960","536","f","false","nonmatch","img/circle.png","弱她","强我","prac_ALT2_ability","practice_ability","","","","","","","","",""
"null","<span class='add_' style='color:yellow; font-size: 70px;'> 太慢! </span>","null","html-keyboard-response","27","336685","0.0-8.0-1.0-1.0-0.0-1.8","3","2","2","2","1","2","3","2","4","3","4","-2","1","-1","-1","-2","-1","0","-1","4","4","4","2","4","2","2","2","2","1","1","2","3","5","2","2","3","3","2","3","2","2","2","3","2","5","4","2","2","1","3","2","6","3","2","3","6","4","2","2","3","3","3","2","3","3","3","3","3","2","6","3","5","2","2","2","1","3","6","3","793983472925548545","王","625","Female","[""好我"",""坏我"",""坏她"",""好她""]","[""强我"",""弱我"",""弱她"",""强她""]","","","","","","","","","","","","","","","","","","","","","","","","","","","","","","feedback_test","","","","","","","","",""
"270","","f","psychophysics","28","337956","0.0-8.0-1.0-1.0-0.0-0.9","3","2","2","2","1","2","3","2","4","3","4","-2","1","-1","-1","-2","-1","0","-1","4","4","4","2","4","2","2","2","2","1","1","2","3","5","2","2","3","3","2","3","2","2","2","3","2","5","4","2","2","1","3","2","6","3","2","3","6","4","2","2","3","3","3","2","3","3","3","3","3","2","6","3","5","2","2","2","1","3","6","3","793983472925548545","王","625","Female","[""好我"",""坏我"",""坏她"",""好她""]","[""强我"",""弱我"",""弱她"",""强她""]","","","","","","","","nonmatch","","","","","","","","","","key","f","8.33303973509927","960","536","j","false","match","img/circle.png","强我","强我","prac_ALT2_ability","practice_ability","","","","","","","","",""
"null","<span style='color:red; font-size: 70px;'>错误! </span>","null","html-keyboard-response","29","338456","0.0-8.0-1.0-1.0-0.0-1.9","3","2","2","2","1","2","3","2","4","3","4","-2","1","-1","-1","-2","-1","0","-1","4","4","4","2","4","2","2","2","2","1","1","2","3","5","2","2","3","3","2","3","2","2","2","3","2","5","4","2","2","1","3","2","6","3","2","3","6","4","2","2","3","3","3","2","3","3","3","3","3","2","6","3","5","2","2","2","1","3","6","3","793983472925548545","王","625","Female","[""好我"",""坏我"",""坏她"",""好她""]","[""强我"",""弱我"",""弱她"",""强她""]","","","","","","","","","","","","","","","","","","","","","","","","","","","","","","feedback_test","","","","","","","","",""
"null","","null","psychophysics","30","340658","0.0-8.0-1.0-1.0-0.0-0.10","3","2","2","2","1","2","3","2","4","3","4","-2","1","-1","-1","-2","-1","0","-1","4","4","4","2","4","2","2","2","2","1","1","2","3","5","2","2","3","3","2","3","2","2","2","3","2","5","4","2","2","1","3","2","6","3","2","3","6","4","2","2","3","3","3","2","3","3","3","3","3","2","6","3","5","2","2","2","1","3","6","3","793983472925548545","王","625","Female","[""好我"",""坏我"",""坏她"",""好她""]","[""强我"",""弱我"",""弱她"",""强她""]","","","","","","","","null","","","","","","","","","","key","null","8.333064638783345","960","536","f","false","nonmatch","img/diamond.png","弱她","强她","prac_ALT2_ability","practice_ability","","","","","","","","",""
"null","<span class='add_' style='color:yellow; font-size: 70px;'> 太慢! </span>","null","html-keyboard-response","31","341160","0.0-8.0-1.0-1.0-0.0-1.10","3","2","2","2","1","2","3","2","4","3","4","-2","1","-1","-1","-2","-1","0","-1","4","4","4","2","4","2","2","2","2","1","1","2","3","5","2","2","3","3","2","3","2","2","2","3","2","5","4","2","2","1","3","2","6","3","2","3","6","4","2","2","3","3","3","2","3","3","3","3","3","2","6","3","5","2","2","2","1","3","6","3","793983472925548545","王","625","Female","[""好我"",""坏我"",""坏她"",""好她""]","[""强我"",""弱我"",""弱她"",""强她""]","","","","","","","","","","","","","","","","","","","","","","","","","","","","","","feedback_test","","","","","","","","",""
"180","","f","psychophysics","32","342341","0.0-8.0-1.0-1.0-0.0-0.11","3","2","2","2","1","2","3","2","4","3","4","-2","1","-1","-1","-2","-1","0","-1","4","4","4","2","4","2","2","2","2","1","1","2","3","5","2","2","3","3","2","3","2","2","2","3","2","5","4","2","2","1","3","2","6","3","2","3","6","4","2","2","3","3","3","2","3","3","3","3","3","2","6","3","5","2","2","2","1","3","6","3","793983472925548545","王","625","Female","[""好我"",""坏我"",""坏她"",""好她""]","[""强我"",""弱我"",""弱她"",""强她""]","","","","","","","","nonmatch","","","","","","","","","","key","f","8.33287943262402","960","536","f","true","nonmatch","img/hexagon.png","强她","弱她","prac_ALT2_ability","practice_ability","","","","","","","","",""
"null","<span style='color:yellow; font-size: 70px;'>过快! </span>","null","html-keyboard-response","33","342841","0.0-8.0-1.0-1.0-0.0-1.11","3","2","2","2","1","2","3","2","4","3","4","-2","1","-1","-1","-2","-1","0","-1","4","4","4","2","4","2","2","2","2","1","1","2","3","5","2","2","3","3","2","3","2","2","2","3","2","5","4","2","2","1","3","2","6","3","2","3","6","4","2","2","3","3","3","2","3","3","3","3","3","2","6","3","5","2","2","2","1","3","6","3","793983472925548545","王","625","Female","[""好我"",""坏我"",""坏她"",""好她""]","[""强我"",""弱我"",""弱她"",""强她""]","","","","","","","","","","","","","","","","","","","","","","","","","","","","","","feedback_test","","","","","","","","",""
"412","","j","psychophysics","34","344254","0.0-8.0-1.0-1.0-0.0-0.12","3","2","2","2","1","2","3","2","4","3","4","-2","1","-1","-1","-2","-1","0","-1","4","4","4","2","4","2","2","2","2","1","1","2","3","5","2","2","3","3","2","3","2","2","2","3","2","5","4","2","2","1","3","2","6","3","2","3","6","4","2","2","3","3","3","2","3","3","3","3","3","2","6","3","5","2","2","2","1","3","6","3","793983472925548545","王","625","Female","[""好我"",""坏我"",""坏她"",""好她""]","[""强我"",""弱我"",""弱她"",""强她""]","","","","","","","","match","","","","","","","","","","key","j","8.332934911242623","960","536","f","false","nonmatch","img/triangle.png","强我","弱我","prac_ALT2_ability","practice_ability","","","","","","","","",""
"null","<span style='color:red; font-size: 70px;'>错误! </span>","null","html-keyboard-response","35","344755","0.0-8.0-1.0-1.0-0.0-1.12","3","2","2","2","1","2","3","2","4","3","4","-2","1","-1","-1","-2","-1","0","-1","4","4","4","2","4","2","2","2","2","1","1","2","3","5","2","2","3","3","2","3","2","2","2","3","2","5","4","2","2","1","3","2","6","3","2","3","6","4","2","2","3","3","3","2","3","3","3","3","3","2","6","3","5","2","2","2","1","3","6","3","793983472925548545","王","625","Female","[""好我"",""坏我"",""坏她"",""好她""]","[""强我"",""弱我"",""弱她"",""强她""]","","","","","","","","","","","","","","","","","","","","","","","","","","","","","","feedback_test","","","","","","","","",""
"null","","null","psychophysics","36","346957","0.0-8.0-1.0-1.0-0.0-0.13","3","2","2","2","1","2","3","2","4","3","4","-2","1","-1","-1","-2","-1","0","-1","4","4","4","2","4","2","2","2","2","1","1","2","3","5","2","2","3","3","2","3","2","2","2","3","2","5","4","2","2","1","3","2","6","3","2","3","6","4","2","2","3","3","3","2","3","3","3","3","3","2","6","3","5","2","2","2","1","3","6","3","793983472925548545","王","625","Female","[""好我"",""坏我"",""坏她"",""好她""]","[""强我"",""弱我"",""弱她"",""强她""]","","","","","","","","null","","","","","","","","","","key","null","8.333125475285257","960","536","j","false","match","img/circle.png","强我","强我","prac_ALT2_ability","practice_ability","","","","","","","","",""
"null","<span class='add_' style='color:yellow; font-size: 70px;'> 太慢! </span>","null","html-keyboard-response","37","347458","0.0-8.0-1.0-1.0-0.0-1.13","3","2","2","2","1","2","3","2","4","3","4","-2","1","-1","-1","-2","-1","0","-1","4","4","4","2","4","2","2","2","2","1","1","2","3","5","2","2","3","3","2","3","2","2","2","3","2","5","4","2","2","1","3","2","6","3","2","3","6","4","2","2","3","3","3","2","3","3","3","3","3","2","6","3","5","2","2","2","1","3","6","3","793983472925548545","王","625","Female","[""好我"",""坏我"",""坏她"",""好她""]","[""强我"",""弱我"",""弱她"",""强她""]","","","","","","","","","","","","","","","","","","","","","","","","","","","","","","feedback_test","","","","","","","","",""
"null","","null","psychophysics","38","349659","0.0-8.0-1.0-1.0-0.0-0.14","3","2","2","2","1","2","3","2","4","3","4","-2","1","-1","-1","-2","-1","0","-1","4","4","4","2","4","2","2","2","2","1","1","2","3","5","2","2","3","3","2","3","2","2","2","3","2","5","4","2","2","1","3","2","6","3","2","3","6","4","2","2","3","3","3","2","3","3","3","3","3","2","6","3","5","2","2","2","1","3","6","3","793983472925548545","王","625","Female","[""好我"",""坏我"",""坏她"",""好她""]","[""强我"",""弱我"",""弱她"",""强她""]","","","","","","","","null","","","","","","","","","","key","null","8.364805343511332","960","536","f","false","nonmatch","img/circle.png","强她","强我","prac_ALT2_ability","practice_ability","","","","","","","","",""
"null","<span class='add_' style='color:yellow; font-size: 70px;'> 太慢! </span>","null","html-keyboard-response","39","350161","0.0-8.0-1.0-1.0-0.0-1.14","3","2","2","2","1","2","3","2","4","3","4","-2","1","-1","-1","-2","-1","0","-1","4","4","4","2","4","2","2","2","2","1","1","2","3","5","2","2","3","3","2","3","2","2","2","3","2","5","4","2","2","1","3","2","6","3","2","3","6","4","2","2","3","3","3","2","3","3","3","3","3","2","6","3","5","2","2","2","1","3","6","3","793983472925548545","王","625","Female","[""好我"",""坏我"",""坏她"",""好她""]","[""强我"",""弱我"",""弱她"",""强她""]","","","","","","","","","","","","","","","","","","","","","","","","","","","","","","feedback_test","","","","","","","","",""
"308","","f","psychophysics","40","351470","0.0-8.0-1.0-1.0-0.0-0.15","3","2","2","2","1","2","3","2","4","3","4","-2","1","-1","-1","-2","-1","0","-1","4","4","4","2","4","2","2","2","2","1","1","2","3","5","2","2","3","3","2","3","2","2","2","3","2","5","4","2","2","1","3","2","6","3","2","3","6","4","2","2","3","3","3","2","3","3","3","3","3","2","6","3","5","2","2","2","1","3","6","3","793983472925548545","王","625","Female","[""好我"",""坏我"",""坏她"",""好她""]","[""强我"",""弱我"",""弱她"",""强她""]","","","","","","","","nonmatch","","","","","","","","","","key","f","8.332967948717757","960","536","f","true","nonmatch","img/circle.png","弱我","强我","prac_ALT2_ability","practice_ability","","","","","","","","",""
"null","<span style='color:GreenYellow; font-size: 70px;'>正确! </span>","null","html-keyboard-response","41","351970","0.0-8.0-1.0-1.0-0.0-1.15","3","2","2","2","1","2","3","2","4","3","4","-2","1","-1","-1","-2","-1","0","-1","4","4","4","2","4","2","2","2","2","1","1","2","3","5","2","2","3","3","2","3","2","2","2","3","2","5","4","2","2","1","3","2","6","3","2","3","6","4","2","2","3","3","3","2","3","3","3","3","3","2","6","3","5","2","2","2","1","3","6","3","793983472925548545","王","625","Female","[""好我"",""坏我"",""坏她"",""好她""]","[""强我"",""弱我"",""弱她"",""强她""]","","","","","","","","","","","","","","","","","","","","","","","","","","","","","","feedback_test","","","","","","","","",""
"197","","j","psychophysics","42","353170","0.0-8.0-1.0-1.0-0.0-0.16","3","2","2","2","1","2","3","2","4","3","4","-2","1","-1","-1","-2","-1","0","-1","4","4","4","2","4","2","2","2","2","1","1","2","3","5","2","2","3","3","2","3","2","2","2","3","2","5","4","2","2","1","3","2","6","3","2","3","6","4","2","2","3","3","3","2","3","3","3","3","3","2","6","3","5","2","2","2","1","3","6","3","793983472925548545","王","625","Female","[""好我"",""坏我"",""坏她"",""好她""]","[""强我"",""弱我"",""弱她"",""强她""]","","","","","","","","match","","","","","","","","","","key","j","8.333006993006961","960","536","j","true","match","img/diamond.png","强她","强她","prac_ALT2_ability","practice_ability","","","","","","","","",""
"null","<span style='color:yellow; font-size: 70px;'>过快! </span>","null","html-keyboard-response","43","353671","0.0-8.0-1.0-1.0-0.0-1.16","3","2","2","2","1","2","3","2","4","3","4","-2","1","-1","-1","-2","-1","0","-1","4","4","4","2","4","2","2","2","2","1","1","2","3","5","2","2","3","3","2","3","2","2","2","3","2","5","4","2","2","1","3","2","6","3","2","3","6","4","2","2","3","3","3","2","3","3","3","3","3","2","6","3","5","2","2","2","1","3","6","3","793983472925548545","王","625","Female","[""好我"",""坏我"",""坏她"",""好她""]","[""强我"",""弱我"",""弱她"",""强她""]","","","","","","","","","","","","","","","","","","","","","","","","","","","","","","feedback_test","","","","","","","","",""
"282","","f","psychophysics","44","354954","0.0-8.0-1.0-1.0-0.0-0.17","3","2","2","2","1","2","3","2","4","3","4","-2","1","-1","-1","-2","-1","0","-1","4","4","4","2","4","2","2","2","2","1","1","2","3","5","2","2","3","3","2","3","2","2","2","3","2","5","4","2","2","1","3","2","6","3","2","3","6","4","2","2","3","3","3","2","3","3","3","3","3","2","6","3","5","2","2","2","1","3","6","3","793983472925548545","王","625","Female","[""好我"",""坏我"",""坏她"",""好她""]","[""强我"",""弱我"",""弱她"",""强她""]","","","","","","","","nonmatch","","","","","","","","","","key","f","8.333078431372236","960","536","f","true","nonmatch","img/diamond.png","强我","强她","prac_ALT2_ability","practice_ability","","","","","","","","",""
"null","<span style='color:GreenYellow; font-size: 70px;'>正确! </span>","null","html-keyboard-response","45","355455","0.0-8.0-1.0-1.0-0.0-1.17","3","2","2","2","1","2","3","2","4","3","4","-2","1","-1","-1","-2","-1","0","-1","4","4","4","2","4","2","2","2","2","1","1","2","3","5","2","2","3","3","2","3","2","2","2","3","2","5","4","2","2","1","3","2","6","3","2","3","6","4","2","2","3","3","3","2","3","3","3","3","3","2","6","3","5","2","2","2","1","3","6","3","793983472925548545","王","625","Female","[""好我"",""坏我"",""坏她"",""好她""]","[""强我"",""弱我"",""弱她"",""强她""]","","","","","","","","","","","","","","","","","","","","","","","","","","","","","","feedback_test","","","","","","","","",""
"283","","f","psychophysics","46","356738","0.0-8.0-1.0-1.0-0.0-0.18","3","2","2","2","1","2","3","2","4","3","4","-2","1","-1","-1","-2","-1","0","-1","4","4","4","2","4","2","2","2","2","1","1","2","3","5","2","2","3","3","2","3","2","2","2","3","2","5","4","2","2","1","3","2","6","3","2","3","6","4","2","2","3","3","3","2","3","3","3","3","3","2","6","3","5","2","2","2","1","3","6","3","793983472925548545","王","625","Female","[""好我"",""坏我"",""坏她"",""好她""]","[""强我"",""弱我"",""弱她"",""强她""]","","","","","","","","nonmatch","","","","","","","","","","key","f","8.333071895424974","960","536","f","true","nonmatch","img/triangle.png","弱她","弱我","prac_ALT2_ability","practice_ability","","","","","","","","",""
"null","<span style='color:GreenYellow; font-size: 70px;'>正确! </span>","null","html-keyboard-response","47","357239","0.0-8.0-1.0-1.0-0.0-1.18","3","2","2","2","1","2","3","2","4","3","4","-2","1","-1","-1","-2","-1","0","-1","4","4","4","2","4","2","2","2","2","1","1","2","3","5","2","2","3","3","2","3","2","2","2","3","2","5","4","2","2","1","3","2","6","3","2","3","6","4","2","2","3","3","3","2","3","3","3","3","3","2","6","3","5","2","2","2","1","3","6","3","793983472925548545","王","625","Female","[""好我"",""坏我"",""坏她"",""好她""]","[""强我"",""弱我"",""弱她"",""强她""]","","","","","","","","","","","","","","","","","","","","","","","","","","","","","","feedback_test","","","","","","","","",""
"389","","f","psychophysics","48","358629","0.0-8.0-1.0-1.0-0.0-0.19","3","2","2","2","1","2","3","2","4","3","4","-2","1","-1","-1","-2","-1","0","-1","4","4","4","2","4","2","2","2","2","1","1","2","3","5","2","2","3","3","2","3","2","2","2","3","2","5","4","2","2","1","3","2","6","3","2","3","6","4","2","2","3","3","3","2","3","3","3","3","3","2","6","3","5","2","2","2","1","3","6","3","793983472925548545","王","625","Female","[""好我"",""坏我"",""坏她"",""好她""]","[""强我"",""弱我"",""弱她"",""强她""]","","","","","","","","nonmatch","","","","","","","","","","key","f","8.383418181818332","960","536","j","false","match","img/triangle.png","弱我","弱我","prac_ALT2_ability","practice_ability","","","","","","","","",""
"null","<span style='color:red; font-size: 70px;'>错误! </span>","null","html-keyboard-response","49","359130","0.0-8.0-1.0-1.0-0.0-1.19","3","2","2","2","1","2","3","2","4","3","4","-2","1","-1","-1","-2","-1","0","-1","4","4","4","2","4","2","2","2","2","1","1","2","3","5","2","2","3","3","2","3","2","2","2","3","2","5","4","2","2","1","3","2","6","3","2","3","6","4","2","2","3","3","3","2","3","3","3","3","3","2","6","3","5","2","2","2","1","3","6","3","793983472925548545","王","625","Female","[""好我"",""坏我"",""坏她"",""好她""]","[""强我"",""弱我"",""弱她"",""强她""]","","","","","","","","","","","","","","","","","","","","","","","","","","","","","","feedback_test","","","","","","","","",""
"327","","j","psychophysics","50","360458","0.0-8.0-1.0-1.0-0.0-0.20","3","2","2","2","1","2","3","2","4","3","4","-2","1","-1","-1","-2","-1","0","-1","4","4","4","2","4","2","2","2","2","1","1","2","3","5","2","2","3","3","2","3","2","2","2","3","2","5","4","2","2","1","3","2","6","3","2","3","6","4","2","2","3","3","3","2","3","3","3","3","3","2","6","3","5","2","2","2","1","3","6","3","793983472925548545","王","625","Female","[""好我"",""坏我"",""坏她"",""好她""]","[""强我"",""弱我"",""弱她"",""强她""]","","","","","","","","match","","","","","","","","","","key","j","8.332955696202646","960","536","j","true","match","img/hexagon.png","弱她","弱她","prac_ALT2_ability","practice_ability","","","","","","","","",""
"null","<span style='color:GreenYellow; font-size: 70px;'>正确! </span>","null","html-keyboard-response","51","360959","0.0-8.0-1.0-1.0-0.0-1.20","3","2","2","2","1","2","3","2","4","3","4","-2","1","-1","-1","-2","-1","0","-1","4","4","4","2","4","2","2","2","2","1","1","2","3","5","2","2","3","3","2","3","2","2","2","3","2","5","4","2","2","1","3","2","6","3","2","3","6","4","2","2","3","3","3","2","3","3","3","3","3","2","6","3","5","2","2","2","1","3","6","3","793983472925548545","王","625","Female","[""好我"",""坏我"",""坏她"",""好她""]","[""强我"",""弱我"",""弱她"",""强她""]","","","","","","","","","","","","","","","","","","","","","","","","","","","","","","feedback_test","","","","","","","","",""
"606","","f","psychophysics","52","362566","0.0-8.0-1.0-1.0-0.0-0.21","3","2","2","2","1","2","3","2","4","3","4","-2","1","-1","-1","-2","-1","0","-1","4","4","4","2","4","2","2","2","2","1","1","2","3","5","2","2","3","3","2","3","2","2","2","3","2","5","4","2","2","1","3","2","6","3","2","3","6","4","2","2","3","3","3","2","3","3","3","3","3","2","6","3","5","2","2","2","1","3","6","3","793983472925548545","王","625","Female","[""好我"",""坏我"",""坏她"",""好她""]","[""强我"",""弱我"",""弱她"",""强她""]","","","","","","","","nonmatch","","","","","","","","","","key","f","8.376507853403144","960","536","j","false","match","img/triangle.png","弱我","弱我","prac_ALT2_ability","practice_ability","","","","","","","","",""
"null","<span style='color:red; font-size: 70px;'>错误! </span>","null","html-keyboard-response","53","363066","0.0-8.0-1.0-1.0-0.0-1.21","3","2","2","2","1","2","3","2","4","3","4","-2","1","-1","-1","-2","-1","0","-1","4","4","4","2","4","2","2","2","2","1","1","2","3","5","2","2","3","3","2","3","2","2","2","3","2","5","4","2","2","1","3","2","6","3","2","3","6","4","2","2","3","3","3","2","3","3","3","3","3","2","6","3","5","2","2","2","1","3","6","3","793983472925548545","王","625","Female","[""好我"",""坏我"",""坏她"",""好她""]","[""强我"",""弱我"",""弱她"",""强她""]","","","","","","","","","","","","","","","","","","","","","","","","","","","","","","feedback_test","","","","","","","","",""
"385","","j","psychophysics","54","364452","0.0-8.0-1.0-1.0-0.0-0.22","3","2","2","2","1","2","3","2","4","3","4","-2","1","-1","-1","-2","-1","0","-1","4","4","4","2","4","2","2","2","2","1","1","2","3","5","2","2","3","3","2","3","2","2","2","3","2","5","4","2","2","1","3","2","6","3","2","3","6","4","2","2","3","3","3","2","3","3","3","3","3","2","6","3","5","2","2","2","1","3","6","3","793983472925548545","王","625","Female","[""好我"",""坏我"",""坏她"",""好她""]","[""强我"",""弱我"",""弱她"",""强她""]","","","","","","","","match","","","","","","","","","","key","j","8.332975903614663","960","536","j","true","match","img/circle.png","强我","强我","prac_ALT2_ability","practice_ability","","","","","","","","",""
"null","<span style='color:GreenYellow; font-size: 70px;'>正确! </span>","null","html-keyboard-response","55","364953","0.0-8.0-1.0-1.0-0.0-1.22","3","2","2","2","1","2","3","2","4","3","4","-2","1","-1","-1","-2","-1","0","-1","4","4","4","2","4","2","2","2","2","1","1","2","3","5","2","2","3","3","2","3","2","2","2","3","2","5","4","2","2","1","3","2","6","3","2","3","6","4","2","2","3","3","3","2","3","3","3","3","3","2","6","3","5","2","2","2","1","3","6","3","793983472925548545","王","625","Female","[""好我"",""坏我"",""坏她"",""好她""]","[""强我"",""弱我"",""弱她"",""强她""]","","","","","","","","","","","","","","","","","","","","","","","","","","","","","","feedback_test","","","","","","","","",""
"457","","j","psychophysics","56","366411","0.0-8.0-1.0-1.0-0.0-0.23","3","2","2","2","1","2","3","2","4","3","4","-2","1","-1","-1","-2","-1","0","-1","4","4","4","2","4","2","2","2","2","1","1","2","3","5","2","2","3","3","2","3","2","2","2","3","2","5","4","2","2","1","3","2","6","3","2","3","6","4","2","2","3","3","3","2","3","3","3","3","3","2","6","3","5","2","2","2","1","3","6","3","793983472925548545","王","625","Female","[""好我"",""坏我"",""坏她"",""好她""]","[""强我"",""弱我"",""弱她"",""强她""]","","","","","","","","match","","","","","","","","","","key","j","8.333057471264311","960","536","f","false","nonmatch","img/hexagon.png","弱我","弱她","prac_ALT2_ability","practice_ability","","","","","","","","",""
"null","<span style='color:red; font-size: 70px;'>错误! </span>","null","html-keyboard-response","57","366912","0.0-8.0-1.0-1.0-0.0-1.23","3","2","2","2","1","2","3","2","4","3","4","-2","1","-1","-1","-2","-1","0","-1","4","4","4","2","4","2","2","2","2","1","1","2","3","5","2","2","3","3","2","3","2","2","2","3","2","5","4","2","2","1","3","2","6","3","2","3","6","4","2","2","3","3","3","2","3","3","3","3","3","2","6","3","5","2","2","2","1","3","6","3","793983472925548545","王","625","Female","[""好我"",""坏我"",""坏她"",""好她""]","[""强我"",""弱我"",""弱她"",""强她""]","","","","","","","","","","","","","","","","","","","","","","","","","","","","","","feedback_test","","","","","","","","",""
"791","","f","psychophysics","58","368704","0.0-8.0-1.0-1.0-0.0-0.24","3","2","2","2","1","2","3","2","4","3","4","-2","1","-1","-1","-2","-1","0","-1","4","4","4","2","4","2","2","2","2","1","1","2","3","5","2","2","3","3","2","3","2","2","2","3","2","5","4","2","2","1","3","2","6","3","2","3","6","4","2","2","3","3","3","2","3","3","3","3","3","2","6","3","5","2","2","2","1","3","6","3","793983472925548545","王","625","Female","[""好我"",""坏我"",""坏她"",""好她""]","[""强我"",""弱我"",""弱她"",""强她""]","","","","","","","","nonmatch","","","","","","","","","","key","f","8.37202816901394","960","536","j","false","match","img/diamond.png","强她","强她","prac_ALT2_ability","practice_ability","","","","","","","","",""
"null","<span style='color:red; font-size: 70px;'>错误! </span>","null","html-keyboard-response","59","369205","0.0-8.0-1.0-1.0-0.0-1.24","3","2","2","2","1","2","3","2","4","3","4","-2","1","-1","-1","-2","-1","0","-1","4","4","4","2","4","2","2","2","2","1","1","2","3","5","2","2","3","3","2","3","2","2","2","3","2","5","4","2","2","1","3","2","6","3","2","3","6","4","2","2","3","3","3","2","3","3","3","3","3","2","6","3","5","2","2","2","1","3","6","3","793983472925548545","王","625","Female","[""好我"",""坏我"",""坏她"",""好她""]","[""强我"",""弱我"",""弱她"",""强她""]","","","","","","","","","","","","","","","","","","","","","","","","","","","","","","feedback_test","","","","","","","","",""
"873","","f","psychophysics","60","371080","0.0-8.0-1.0-1.0-0.0-0.25","3","2","2","2","1","2","3","2","4","3","4","-2","1","-1","-1","-2","-1","0","-1","4","4","4","2","4","2","2","2","2","1","1","2","3","5","2","2","3","3","2","3","2","2","2","3","2","5","4","2","2","1","3","2","6","3","2","3","6","4","2","2","3","3","3","2","3","3","3","3","3","2","6","3","5","2","2","2","1","3","6","3","793983472925548545","王","625","Female","[""好我"",""坏我"",""坏她"",""好她""]","[""强我"",""弱我"",""弱她"",""强她""]","","","","","","","","nonmatch","","","","","","","","","","key","f","8.333066964285795","960","536","j","false","match","img/circle.png","强我","强我","prac_ALT2_ability","practice_ability","","","","","","","","",""
"null","<span style='color:red; font-size: 70px;'>错误! </span>","null","html-keyboard-response","61","371580","0.0-8.0-1.0-1.0-0.0-1.25","3","2","2","2","1","2","3","2","4","3","4","-2","1","-1","-1","-2","-1","0","-1","4","4","4","2","4","2","2","2","2","1","1","2","3","5","2","2","3","3","2","3","2","2","2","3","2","5","4","2","2","1","3","2","6","3","2","3","6","4","2","2","3","3","3","2","3","3","3","3","3","2","6","3","5","2","2","2","1","3","6","3","793983472925548545","王","625","Female","[""好我"",""坏我"",""坏她"",""好她""]","[""强我"",""弱我"",""弱她"",""强她""]","","","","","","","","","","","","","","","","","","","","","","","","","","","","","","feedback_test","","","","","","","","",""
"null","","null","psychophysics","62","373782","0.0-8.0-1.0-1.0-0.0-0.26","3","2","2","2","1","2","3","2","4","3","4","-2","1","-1","-1","-2","-1","0","-1","4","4","4","2","4","2","2","2","2","1","1","2","3","5","2","2","3","3","2","3","2","2","2","3","2","5","4","2","2","1","3","2","6","3","2","3","6","4","2","2","3","3","3","2","3","3","3","3","3","2","6","3","5","2","2","2","1","3","6","3","793983472925548545","王","625","Female","[""好我"",""坏我"",""坏她"",""好她""]","[""强我"",""弱我"",""弱她"",""强她""]","","","","","","","","null","","","","","","","","","","key","null","8.33284030418233","960","536","j","false","match","img/diamond.png","强她","强她","prac_ALT2_ability","practice_ability","","","","","","","","",""
"null","<span class='add_' style='color:yellow; font-size: 70px;'> 太慢! </span>","null","html-keyboard-response","63","374283","0.0-8.0-1.0-1.0-0.0-1.26","3","2","2","2","1","2","3","2","4","3","4","-2","1","-1","-1","-2","-1","0","-1","4","4","4","2","4","2","2","2","2","1","1","2","3","5","2","2","3","3","2","3","2","2","2","3","2","5","4","2","2","1","3","2","6","3","2","3","6","4","2","2","3","3","3","2","3","3","3","3","3","2","6","3","5","2","2","2","1","3","6","3","793983472925548545","王","625","Female","[""好我"",""坏我"",""坏她"",""好她""]","[""强我"",""弱我"",""弱她"",""强她""]","","","","","","","","","","","","","","","","","","","","","","","","","","","","","","feedback_test","","","","","","","","",""
"259","","j","psychophysics","64","375543","0.0-8.0-1.0-1.0-0.0-0.27","3","2","2","2","1","2","3","2","4","3","4","-2","1","-1","-1","-2","-1","0","-1","4","4","4","2","4","2","2","2","2","1","1","2","3","5","2","2","3","3","2","3","2","2","2","3","2","5","4","2","2","1","3","2","6","3","2","3","6","4","2","2","3","3","3","2","3","3","3","3","3","2","6","3","5","2","2","2","1","3","6","3","793983472925548545","王","625","Female","[""好我"",""坏我"",""坏她"",""好她""]","[""强我"",""弱我"",""弱她"",""强她""]","","","","","","","","match","","","","","","","","","","key","j","8.32232666666697","960","536","j","true","match","img/triangle.png","弱我","弱我","prac_ALT2_ability","practice_ability","","","","","","","","",""
"null","<span style='color:GreenYellow; font-size: 70px;'>正确! </span>","null","html-keyboard-response","65","376044","0.0-8.0-1.0-1.0-0.0-1.27","3","2","2","2","1","2","3","2","4","3","4","-2","1","-1","-1","-2","-1","0","-1","4","4","4","2","4","2","2","2","2","1","1","2","3","5","2","2","3","3","2","3","2","2","2","3","2","5","4","2","2","1","3","2","6","3","2","3","6","4","2","2","3","3","3","2","3","3","3","3","3","2","6","3","5","2","2","2","1","3","6","3","793983472925548545","王","625","Female","[""好我"",""坏我"",""坏她"",""好她""]","[""强我"",""弱我"",""弱她"",""强她""]","","","","","","","","","","","","","","","","","","","","","","","","","","","","","","feedback_test","","","","","","","","",""
"903","","j","psychophysics","66","377947","0.0-8.0-1.0-1.0-0.0-0.28","3","2","2","2","1","2","3","2","4","3","4","-2","1","-1","-1","-2","-1","0","-1","4","4","4","2","4","2","2","2","2","1","1","2","3","5","2","2","3","3","2","3","2","2","2","3","2","5","4","2","2","1","3","2","6","3","2","3","6","4","2","2","3","3","3","2","3","3","3","3","3","2","6","3","5","2","2","2","1","3","6","3","793983472925548545","王","625","Female","[""好我"",""坏我"",""坏她"",""好她""]","[""强我"",""弱我"",""弱她"",""强她""]","","","","","","","","match","","","","","","","","","","key","j","8.332867841409891","960","536","j","true","match","img/diamond.png","强她","强她","prac_ALT2_ability","practice_ability","","","","","","","","",""
"null","<span style='color:GreenYellow; font-size: 70px;'>正确! </span>","null","html-keyboard-response","67","378448","0.0-8.0-1.0-1.0-0.0-1.28","3","2","2","2","1","2","3","2","4","3","4","-2","1","-1","-1","-2","-1","0","-1","4","4","4","2","4","2","2","2","2","1","1","2","3","5","2","2","3","3","2","3","2","2","2","3","2","5","4","2","2","1","3","2","6","3","2","3","6","4","2","2","3","3","3","2","3","3","3","3","3","2","6","3","5","2","2","2","1","3","6","3","793983472925548545","王","625","Female","[""好我"",""坏我"",""坏她"",""好她""]","[""强我"",""弱我"",""弱她"",""强她""]","","","","","","","","","","","","","","","","","","","","","","","","","","","","","","feedback_test","","","","","","","","",""
"null","","null","psychophysics","68","380650","0.0-8.0-1.0-1.0-0.0-0.29","3","2","2","2","1","2","3","2","4","3","4","-2","1","-1","-1","-2","-1","0","-1","4","4","4","2","4","2","2","2","2","1","1","2","3","5","2","2","3","3","2","3","2","2","2","3","2","5","4","2","2","1","3","2","6","3","2","3","6","4","2","2","3","3","3","2","3","3","3","3","3","2","6","3","5","2","2","2","1","3","6","3","793983472925548545","王","625","Female","[""好我"",""坏我"",""坏她"",""好她""]","[""强我"",""弱我"",""弱她"",""强她""]","","","","","","","","null","","","","","","","","","","key","null","8.33300380228143","960","536","j","false","match","img/triangle.png","弱我","弱我","prac_ALT2_ability","practice_ability","","","","","","","","",""
"null","<span class='add_' style='color:yellow; font-size: 70px;'> 太慢! </span>","null","html-keyboard-response","69","381151","0.0-8.0-1.0-1.0-0.0-1.29","3","2","2","2","1","2","3","2","4","3","4","-2","1","-1","-1","-2","-1","0","-1","4","4","4","2","4","2","2","2","2","1","1","2","3","5","2","2","3","3","2","3","2","2","2","3","2","5","4","2","2","1","3","2","6","3","2","3","6","4","2","2","3","3","3","2","3","3","3","3","3","2","6","3","5","2","2","2","1","3","6","3","793983472925548545","王","625","Female","[""好我"",""坏我"",""坏她"",""好她""]","[""强我"",""弱我"",""弱她"",""强她""]","","","","","","","","","","","","","","","","","","","","","","","","","","","","","","feedback_test","","","","","","","","",""
"null","","null","psychophysics","70","383353","0.0-8.0-1.0-1.0-0.0-0.30","3","2","2","2","1","2","3","2","4","3","4","-2","1","-1","-1","-2","-1","0","-1","4","4","4","2","4","2","2","2","2","1","1","2","3","5","2","2","3","3","2","3","2","2","2","3","2","5","4","2","2","1","3","2","6","3","2","3","6","4","2","2","3","3","3","2","3","3","3","3","3","2","6","3","5","2","2","2","1","3","6","3","793983472925548545","王","625","Female","[""好我"",""坏我"",""坏她"",""好她""]","[""强我"",""弱我"",""弱她"",""强她""]","","","","","","","","null","","","","","","","","","","key","null","8.332741444866915","960","536","f","false","nonmatch","img/circle.png","弱我","强我","prac_ALT2_ability","practice_ability","","","","","","","","",""
"null","<span class='add_' style='color:yellow; font-size: 70px;'> 太慢! </span>","null","html-keyboard-response","71","383854","0.0-8.0-1.0-1.0-0.0-1.30","3","2","2","2","1","2","3","2","4","3","4","-2","1","-1","-1","-2","-1","0","-1","4","4","4","2","4","2","2","2","2","1","1","2","3","5","2","2","3","3","2","3","2","2","2","3","2","5","4","2","2","1","3","2","6","3","2","3","6","4","2","2","3","3","3","2","3","3","3","3","3","2","6","3","5","2","2","2","1","3","6","3","793983472925548545","王","625","Female","[""好我"",""坏我"",""坏她"",""好她""]","[""强我"",""弱我"",""弱她"",""强她""]","","","","","","","","","","","","","","","","","","","","","","","","","","","","","","feedback_test","","","","","","","","",""
"null","","null","psychophysics","72","386056","0.0-8.0-1.0-1.0-0.0-0.31","3","2","2","2","1","2","3","2","4","3","4","-2","1","-1","-1","-2","-1","0","-1","4","4","4","2","4","2","2","2","2","1","1","2","3","5","2","2","3","3","2","3","2","2","2","3","2","5","4","2","2","1","3","2","6","3","2","3","6","4","2","2","3","3","3","2","3","3","3","3","3","2","6","3","5","2","2","2","1","3","6","3","793983472925548545","王","625","Female","[""好我"",""坏我"",""坏她"",""好她""]","[""强我"",""弱我"",""弱她"",""强她""]","","","","","","","","null","","","","","","","","","","key","null","8.332939163498189","960","536","f","false","nonmatch","img/diamond.png","弱我","强她","prac_ALT2_ability","practice_ability","","","","","","","","",""
"null","<span class='add_' style='color:yellow; font-size: 70px;'> 太慢! </span>","null","html-keyboard-response","73","386557","0.0-8.0-1.0-1.0-0.0-1.31","3","2","2","2","1","2","3","2","4","3","4","-2","1","-1","-1","-2","-1","0","-1","4","4","4","2","4","2","2","2","2","1","1","2","3","5","2","2","3","3","2","3","2","2","2","3","2","5","4","2","2","1","3","2","6","3","2","3","6","4","2","2","3","3","3","2","3","3","3","3","3","2","6","3","5","2","2","2","1","3","6","3","793983472925548545","王","625","Female","[""好我"",""坏我"",""坏她"",""好她""]","[""强我"",""弱我"",""弱她"",""强她""]","","","","","","","","","","","","","","","","","","","","","","","","","","","","","","feedback_test","","","","","","","","",""
"135","","f","psychophysics","74","387693","0.0-8.0-1.0-1.0-0.0-0.32","3","2","2","2","1","2","3","2","4","3","4","-2","1","-1","-1","-2","-1","0","-1","4","4","4","2","4","2","2","2","2","1","1","2","3","5","2","2","3","3","2","3","2","2","2","3","2","5","4","2","2","1","3","2","6","3","2","3","6","4","2","2","3","3","3","2","3","3","3","3","3","2","6","3","5","2","2","2","1","3","6","3","793983472925548545","王","625","Female","[""好我"",""坏我"",""坏她"",""好她""]","[""强我"",""弱我"",""弱她"",""强她""]","","","","","","","","nonmatch","","","","","","","","","","key","f","8.332867647058961","960","536","f","true","nonmatch","img/diamond.png","弱她","强她","prac_ALT2_ability","practice_ability","","","","","","","","",""
"null","<span style='color:yellow; font-size: 70px;'>过快! </span>","null","html-keyboard-response","75","388194","0.0-8.0-1.0-1.0-0.0-1.32","3","2","2","2","1","2","3","2","4","3","4","-2","1","-1","-1","-2","-1","0","-1","4","4","4","2","4","2","2","2","2","1","1","2","3","5","2","2","3","3","2","3","2","2","2","3","2","5","4","2","2","1","3","2","6","3","2","3","6","4","2","2","3","3","3","2","3","3","3","3","3","2","6","3","5","2","2","2","1","3","6","3","793983472925548545","王","625","Female","[""好我"",""坏我"",""坏她"",""好她""]","[""强我"",""弱我"",""弱她"",""强她""]","","","","","","","","","","","","","","","","","","","","","","","","","","","","","","feedback_test","","","","","","","","",""
"157","","f","psychophysics","76","389352","0.0-8.0-1.0-1.0-0.0-0.33","3","2","2","2","1","2","3","2","4","3","4","-2","1","-1","-1","-2","-1","0","-1","4","4","4","2","4","2","2","2","2","1","1","2","3","5","2","2","3","3","2","3","2","2","2","3","2","5","4","2","2","1","3","2","6","3","2","3","6","4","2","2","3","3","3","2","3","3","3","3","3","2","6","3","5","2","2","2","1","3","6","3","793983472925548545","王","625","Female","[""好我"",""坏我"",""坏她"",""好她""]","[""强我"",""弱我"",""弱她"",""强她""]","","","","","","","","nonmatch","","","","","","","","","","key","f","8.332847826087095","960","536","f","true","nonmatch","img/circle.png","强她","强我","prac_ALT2_ability","practice_ability","","","","","","","","",""
"null","<span style='color:yellow; font-size: 70px;'>过快! </span>","null","html-keyboard-response","77","389853","0.0-8.0-1.0-1.0-0.0-1.33","3","2","2","2","1","2","3","2","4","3","4","-2","1","-1","-1","-2","-1","0","-1","4","4","4","2","4","2","2","2","2","1","1","2","3","5","2","2","3","3","2","3","2","2","2","3","2","5","4","2","2","1","3","2","6","3","2","3","6","4","2","2","3","3","3","2","3","3","3","3","3","2","6","3","5","2","2","2","1","3","6","3","793983472925548545","王","625","Female","[""好我"",""坏我"",""坏她"",""好她""]","[""强我"",""弱我"",""弱她"",""强她""]","","","","","","","","","","","","","","","","","","","","","","","","","","","","","","feedback_test","","","","","","","","",""
"249","","j","psychophysics","78","391103","0.0-8.0-1.0-1.0-0.0-0.34","3","2","2","2","1","2","3","2","4","3","4","-2","1","-1","-1","-2","-1","0","-1","4","4","4","2","4","2","2","2","2","1","1","2","3","5","2","2","3","3","2","3","2","2","2","3","2","5","4","2","2","1","3","2","6","3","2","3","6","4","2","2","3","3","3","2","3","3","3","3","3","2","6","3","5","2","2","2","1","3","6","3","793983472925548545","王","625","Female","[""好我"",""坏我"",""坏她"",""好她""]","[""强我"",""弱我"",""弱她"",""强她""]","","","","","","","","match","","","","","","","","","","key","j","8.333000000000185","960","536","f","false","nonmatch","img/hexagon.png","强她","弱她","prac_ALT2_ability","practice_ability","","","","","","","","",""
"null","<span style='color:red; font-size: 70px;'>错误! </span>","null","html-keyboard-response","79","391604","0.0-8.0-1.0-1.0-0.0-1.34","3","2","2","2","1","2","3","2","4","3","4","-2","1","-1","-1","-2","-1","0","-1","4","4","4","2","4","2","2","2","2","1","1","2","3","5","2","2","3","3","2","3","2","2","2","3","2","5","4","2","2","1","3","2","6","3","2","3","6","4","2","2","3","3","3","2","3","3","3","3","3","2","6","3","5","2","2","2","1","3","6","3","793983472925548545","王","625","Female","[""好我"",""坏我"",""坏她"",""好她""]","[""强我"",""弱我"",""弱她"",""强她""]","","","","","","","","","","","","","","","","","","","","","","","","","","","","","","feedback_test","","","","","","","","",""
"70","","f","psychophysics","80","392675","0.0-8.0-1.0-1.0-0.0-0.35","3","2","2","2","1","2","3","2","4","3","4","-2","1","-1","-1","-2","-1","0","-1","4","4","4","2","4","2","2","2","2","1","1","2","3","5","2","2","3","3","2","3","2","2","2","3","2","5","4","2","2","1","3","2","6","3","2","3","6","4","2","2","3","3","3","2","3","3","3","3","3","2","6","3","5","2","2","2","1","3","6","3","793983472925548545","王","625","Female","[""好我"",""坏我"",""坏她"",""好她""]","[""强我"",""弱我"",""弱她"",""强她""]","","","","","","","","nonmatch","","","","","","","","","","key","f","8.332771653543212","960","536","j","false","match","img/circle.png","强我","强我","prac_ALT2_ability","practice_ability","","","","","","","","",""
"null","<span style='color:yellow; font-size: 70px;'>过快! </span>","null","html-keyboard-response","81","393176","0.0-8.0-1.0-1.0-0.0-1.35","3","2","2","2","1","2","3","2","4","3","4","-2","1","-1","-1","-2","-1","0","-1","4","4","4","2","4","2","2","2","2","1","1","2","3","5","2","2","3","3","2","3","2","2","2","3","2","5","4","2","2","1","3","2","6","3","2","3","6","4","2","2","3","3","3","2","3","3","3","3","3","2","6","3","5","2","2","2","1","3","6","3","793983472925548545","王","625","Female","[""好我"",""坏我"",""坏她"",""好她""]","[""强我"",""弱我"",""弱她"",""强她""]","","","","","","","","","","","","","","","","","","","","","","","","","","","","","","feedback_test","","","","","","","","",""
"356","","f","psychophysics","82","394533","0.0-8.0-1.0-1.0-0.0-0.36","3","2","2","2","1","2","3","2","4","3","4","-2","1","-1","-1","-2","-1","0","-1","4","4","4","2","4","2","2","2","2","1","1","2","3","5","2","2","3","3","2","3","2","2","2","3","2","5","4","2","2","1","3","2","6","3","2","3","6","4","2","2","3","3","3","2","3","3","3","3","3","2","6","3","5","2","2","2","1","3","6","3","793983472925548545","王","625","Female","[""好我"",""坏我"",""坏她"",""好她""]","[""强我"",""弱我"",""弱她"",""强她""]","","","","","","","","nonmatch","","","","","","","","","","key","f","8.332863354036999","960","536","f","true","nonmatch","img/hexagon.png","弱我","弱她","prac_ALT2_ability","practice_ability","","","","","","","","",""
"null","<span style='color:GreenYellow; font-size: 70px;'>正确! </span>","null","html-keyboard-response","83","395034","0.0-8.0-1.0-1.0-0.0-1.36","3","2","2","2","1","2","3","2","4","3","4","-2","1","-1","-1","-2","-1","0","-1","4","4","4","2","4","2","2","2","2","1","1","2","3","5","2","2","3","3","2","3","2","2","2","3","2","5","4","2","2","1","3","2","6","3","2","3","6","4","2","2","3","3","3","2","3","3","3","3","3","2","6","3","5","2","2","2","1","3","6","3","793983472925548545","王","625","Female","[""好我"",""坏我"",""坏她"",""好她""]","[""强我"",""弱我"",""弱她"",""强她""]","","","","","","","","","","","","","","","","","","","","","","","","","","","","","","feedback_test","","","","","","","","",""
"null","","null","psychophysics","84","397237","0.0-8.0-1.0-1.0-0.0-0.37","3","2","2","2","1","2","3","2","4","3","4","-2","1","-1","-1","-2","-1","0","-1","4","4","4","2","4","2","2","2","2","1","1","2","3","5","2","2","3","3","2","3","2","2","2","3","2","5","4","2","2","1","3","2","6","3","2","3","6","4","2","2","3","3","3","2","3","3","3","3","3","2","6","3","5","2","2","2","1","3","6","3","793983472925548545","王","625","Female","[""好我"",""坏我"",""坏她"",""好她""]","[""强我"",""弱我"",""弱她"",""强她""]","","","","","","","","null","","","","","","","","","","key","null","8.333041825095155","960","536","f","false","nonmatch","img/circle.png","弱她","强我","prac_ALT2_ability","practice_ability","","","","","","","","",""
"null","<span class='add_' style='color:yellow; font-size: 70px;'> 太慢! </span>","null","html-keyboard-response","85","397738","0.0-8.0-1.0-1.0-0.0-1.37","3","2","2","2","1","2","3","2","4","3","4","-2","1","-1","-1","-2","-1","0","-1","4","4","4","2","4","2","2","2","2","1","1","2","3","5","2","2","3","3","2","3","2","2","2","3","2","5","4","2","2","1","3","2","6","3","2","3","6","4","2","2","3","3","3","2","3","3","3","3","3","2","6","3","5","2","2","2","1","3","6","3","793983472925548545","王","625","Female","[""好我"",""坏我"",""坏她"",""好她""]","[""强我"",""弱我"",""弱她"",""强她""]","","","","","","","","","","","","","","","","","","","","","","","","","","","","","","feedback_test","","","","","","","","",""
"620","","f","psychophysics","86","399359","0.0-8.0-1.0-1.0-0.0-0.38","3","2","2","2","1","2","3","2","4","3","4","-2","1","-1","-1","-2","-1","0","-1","4","4","4","2","4","2","2","2","2","1","1","2","3","5","2","2","3","3","2","3","2","2","2","3","2","5","4","2","2","1","3","2","6","3","2","3","6","4","2","2","3","3","3","2","3","3","3","3","3","2","6","3","5","2","2","2","1","3","6","3","793983472925548545","王","625","Female","[""好我"",""坏我"",""坏她"",""好她""]","[""强我"",""弱我"",""弱她"",""强她""]","","","","","","","","nonmatch","","","","","","","","","","key","f","8.332932989690608","960","536","f","true","nonmatch","img/triangle.png","弱她","弱我","prac_ALT2_ability","practice_ability","","","","","","","","",""
"null","<span style='color:GreenYellow; font-size: 70px;'>正确! </span>","null","html-keyboard-response","87","399860","0.0-8.0-1.0-1.0-0.0-1.38","3","2","2","2","1","2","3","2","4","3","4","-2","1","-1","-1","-2","-1","0","-1","4","4","4","2","4","2","2","2","2","1","1","2","3","5","2","2","3","3","2","3","2","2","2","3","2","5","4","2","2","1","3","2","6","3","2","3","6","4","2","2","3","3","3","2","3","3","3","3","3","2","6","3","5","2","2","2","1","3","6","3","793983472925548545","王","625","Female","[""好我"",""坏我"",""坏她"",""好她""]","[""强我"",""弱我"",""弱她"",""强她""]","","","","","","","","","","","","","","","","","","","","","","","","","","","","","","feedback_test","","","","","","","","",""
"null","","null","psychophysics","88","402062","0.0-8.0-1.0-1.0-0.0-0.39","3","2","2","2","1","2","3","2","4","3","4","-2","1","-1","-1","-2","-1","0","-1","4","4","4","2","4","2","2","2","2","1","1","2","3","5","2","2","3","3","2","3","2","2","2","3","2","5","4","2","2","1","3","2","6","3","2","3","6","4","2","2","3","3","3","2","3","3","3","3","3","2","6","3","5","2","2","2","1","3","6","3","793983472925548545","王","625","Female","[""好我"",""坏我"",""坏她"",""好她""]","[""强我"",""弱我"",""弱她"",""强她""]","","","","","","","","null","","","","","","","","","","key","null","8.332950570342174","960","536","j","false","match","img/hexagon.png","弱她","弱她","prac_ALT2_ability","practice_ability","","","","","","","","",""
"null","<span class='add_' style='color:yellow; font-size: 70px;'> 太慢! </span>","null","html-keyboard-response","89","402563","0.0-8.0-1.0-1.0-0.0-1.39","3","2","2","2","1","2","3","2","4","3","4","-2","1","-1","-1","-2","-1","0","-1","4","4","4","2","4","2","2","2","2","1","1","2","3","5","2","2","3","3","2","3","2","2","2","3","2","5","4","2","2","1","3","2","6","3","2","3","6","4","2","2","3","3","3","2","3","3","3","3","3","2","6","3","5","2","2","2","1","3","6","3","793983472925548545","王","625","Female","[""好我"",""坏我"",""坏她"",""好她""]","[""强我"",""弱我"",""弱她"",""强她""]","","","","","","","","","","","","","","","","","","","","","","","","","","","","","","feedback_test","","","","","","","","",""
"null","","null","psychophysics","90","404765","0.0-8.0-1.0-1.0-0.0-0.40","3","2","2","2","1","2","3","2","4","3","4","-2","1","-1","-1","-2","-1","0","-1","4","4","4","2","4","2","2","2","2","1","1","2","3","5","2","2","3","3","2","3","2","2","2","3","2","5","4","2","2","1","3","2","6","3","2","3","6","4","2","2","3","3","3","2","3","3","3","3","3","2","6","3","5","2","2","2","1","3","6","3","793983472925548545","王","625","Female","[""好我"",""坏我"",""坏她"",""好她""]","[""强我"",""弱我"",""弱她"",""强她""]","","","","","","","","null","","","","","","","","","","key","null","8.33305323193914","960","536","f","false","nonmatch","img/triangle.png","强她","弱我","prac_ALT2_ability","practice_ability","","","","","","","","",""
"null","<span class='add_' style='color:yellow; font-size: 70px;'> 太慢! </span>","null","html-keyboard-response","91","405266","0.0-8.0-1.0-1.0-0.0-1.40","3","2","2","2","1","2","3","2","4","3","4","-2","1","-1","-1","-2","-1","0","-1","4","4","4","2","4","2","2","2","2","1","1","2","3","5","2","2","3","3","2","3","2","2","2","3","2","5","4","2","2","1","3","2","6","3","2","3","6","4","2","2","3","3","3","2","3","3","3","3","3","2","6","3","5","2","2","2","1","3","6","3","793983472925548545","王","625","Female","[""好我"",""坏我"",""坏她"",""好她""]","[""强我"",""弱我"",""弱她"",""强她""]","","","","","","","","","","","","","","","","","","","","","","","","","","","","","","feedback_test","","","","","","","","",""
"null","","null","psychophysics","92","407467","0.0-8.0-1.0-1.0-0.0-0.41","3","2","2","2","1","2","3","2","4","3","4","-2","1","-1","-1","-2","-1","0","-1","4","4","4","2","4","2","2","2","2","1","1","2","3","5","2","2","3","3","2","3","2","2","2","3","2","5","4","2","2","1","3","2","6","3","2","3","6","4","2","2","3","3","3","2","3","3","3","3","3","2","6","3","5","2","2","2","1","3","6","3","793983472925548545","王","625","Female","[""好我"",""坏我"",""坏她"",""好她""]","[""强我"",""弱我"",""弱她"",""强她""]","","","","","","","","null","","","","","","","","","","key","null","8.333034220532276","960","536","f","false","nonmatch","img/triangle.png","强我","弱我","prac_ALT2_ability","practice_ability","","","","","","","","",""
"null","<span class='add_' style='color:yellow; font-size: 70px;'> 太慢! </span>","null","html-keyboard-response","93","407967","0.0-8.0-1.0-1.0-0.0-1.41","3","2","2","2","1","2","3","2","4","3","4","-2","1","-1","-1","-2","-1","0","-1","4","4","4","2","4","2","2","2","2","1","1","2","3","5","2","2","3","3","2","3","2","2","2","3","2","5","4","2","2","1","3","2","6","3","2","3","6","4","2","2","3","3","3","2","3","3","3","3","3","2","6","3","5","2","2","2","1","3","6","3","793983472925548545","王","625","Female","[""好我"",""坏我"",""坏她"",""好她""]","[""强我"",""弱我"",""弱她"",""强她""]","","","","","","","","","","","","","","","","","","","","","","","","","","","","","","feedback_test","","","","","","","","",""
"null","","null","psychophysics","94","410169","0.0-8.0-1.0-1.0-0.0-0.42","3","2","2","2","1","2","3","2","4","3","4","-2","1","-1","-1","-2","-1","0","-1","4","4","4","2","4","2","2","2","2","1","1","2","3","5","2","2","3","3","2","3","2","2","2","3","2","5","4","2","2","1","3","2","6","3","2","3","6","4","2","2","3","3","3","2","3","3","3","3","3","2","6","3","5","2","2","2","1","3","6","3","793983472925548545","王","625","Female","[""好我"",""坏我"",""坏她"",""好她""]","[""强我"",""弱我"",""弱她"",""强她""]","","","","","","","","null","","","","","","","","","","key","null","8.333011406844086","960","536","f","false","nonmatch","img/diamond.png","强我","强她","prac_ALT2_ability","practice_ability","","","","","","","","",""
"null","<span class='add_' style='color:yellow; font-size: 70px;'> 太慢! </span>","null","html-keyboard-response","95","410670","0.0-8.0-1.0-1.0-0.0-1.42","3","2","2","2","1","2","3","2","4","3","4","-2","1","-1","-1","-2","-1","0","-1","4","4","4","2","4","2","2","2","2","1","1","2","3","5","2","2","3","3","2","3","2","2","2","3","2","5","4","2","2","1","3","2","6","3","2","3","6","4","2","2","3","3","3","2","3","3","3","3","3","2","6","3","5","2","2","2","1","3","6","3","793983472925548545","王","625","Female","[""好我"",""坏我"",""坏她"",""好她""]","[""强我"",""弱我"",""弱她"",""强她""]","","","","","","","","","","","","","","","","","","","","","","","","","","","","","","feedback_test","","","","","","","","",""
"118","","f","psychophysics","96","411789","0.0-8.0-1.0-1.0-0.0-0.43","3","2","2","2","1","2","3","2","4","3","4","-2","1","-1","-1","-2","-1","0","-1","4","4","4","2","4","2","2","2","2","1","1","2","3","5","2","2","3","3","2","3","2","2","2","3","2","5","4","2","2","1","3","2","6","3","2","3","6","4","2","2","3","3","3","2","3","3","3","3","3","2","6","3","5","2","2","2","1","3","6","3","793983472925548545","王","625","Female","[""好我"",""坏我"",""坏她"",""好她""]","[""强我"",""弱我"",""弱她"",""强她""]","","","","","","","","nonmatch","","","","","","","","","","key","f","8.33312781954874","960","536","j","false","match","img/hexagon.png","弱她","弱她","prac_ALT2_ability","practice_ability","","","","","","","","",""
"null","<span style='color:yellow; font-size: 70px;'>过快! </span>","null","html-keyboard-response","97","412290","0.0-8.0-1.0-1.0-0.0-1.43","3","2","2","2","1","2","3","2","4","3","4","-2","1","-1","-1","-2","-1","0","-1","4","4","4","2","4","2","2","2","2","1","1","2","3","5","2","2","3","3","2","3","2","2","2","3","2","5","4","2","2","1","3","2","6","3","2","3","6","4","2","2","3","3","3","2","3","3","3","3","3","2","6","3","5","2","2","2","1","3","6","3","793983472925548545","王","625","Female","[""好我"",""坏我"",""坏她"",""好她""]","[""强我"",""弱我"",""弱她"",""强她""]","","","","","","","","","","","","","","","","","","","","","","","","","","","","","","feedback_test","","","","","","","","",""
"null","","null","psychophysics","98","414491","0.0-8.0-1.0-1.0-0.0-0.44","3","2","2","2","1","2","3","2","4","3","4","-2","1","-1","-1","-2","-1","0","-1","4","4","4","2","4","2","2","2","2","1","1","2","3","5","2","2","3","3","2","3","2","2","2","3","2","5","4","2","2","1","3","2","6","3","2","3","6","4","2","2","3","3","3","2","3","3","3","3","3","2","6","3","5","2","2","2","1","3","6","3","793983472925548545","王","625","Female","[""好我"",""坏我"",""坏她"",""好她""]","[""强我"",""弱我"",""弱她"",""强她""]","","","","","","","","null","","","","","","","","","","key","null","8.332946768060845","960","536","f","false","nonmatch","img/hexagon.png","强我","弱她","prac_ALT2_ability","practice_ability","","","","","","","","",""
"null","<span class='add_' style='color:yellow; font-size: 70px;'> 太慢! </span>","null","html-keyboard-response","99","414992","0.0-8.0-1.0-1.0-0.0-1.44","3","2","2","2","1","2","3","2","4","3","4","-2","1","-1","-1","-2","-1","0","-1","4","4","4","2","4","2","2","2","2","1","1","2","3","5","2","2","3","3","2","3","2","2","2","3","2","5","4","2","2","1","3","2","6","3","2","3","6","4","2","2","3","3","3","2","3","3","3","3","3","2","6","3","5","2","2","2","1","3","6","3","793983472925548545","王","625","Female","[""好我"",""坏我"",""坏她"",""好她""]","[""强我"",""弱我"",""弱她"",""强她""]","","","","","","","","","","","","","","","","","","","","","","","","","","","","","","feedback_test","","","","","","","","",""
"null","","null","psychophysics","100","417194","0.0-8.0-1.0-1.0-0.0-0.45","3","2","2","2","1","2","3","2","4","3","4","-2","1","-1","-1","-2","-1","0","-1","4","4","4","2","4","2","2","2","2","1","1","2","3","5","2","2","3","3","2","3","2","2","2","3","2","5","4","2","2","1","3","2","6","3","2","3","6","4","2","2","3","3","3","2","3","3","3","3","3","2","6","3","5","2","2","2","1","3","6","3","793983472925548545","王","625","Female","[""好我"",""坏我"",""坏她"",""好她""]","[""强我"",""弱我"",""弱她"",""强她""]","","","","","","","","null","","","","","","","","","","key","null","8.332965779467708","960","536","j","false","match","img/circle.png","强我","强我","prac_ALT2_ability","practice_ability","","","","","","","","",""
"null","<span class='add_' style='color:yellow; font-size: 70px;'> 太慢! </span>","null","html-keyboard-response","101","417696","0.0-8.0-1.0-1.0-0.0-1.45","3","2","2","2","1","2","3","2","4","3","4","-2","1","-1","-1","-2","-1","0","-1","4","4","4","2","4","2","2","2","2","1","1","2","3","5","2","2","3","3","2","3","2","2","2","3","2","5","4","2","2","1","3","2","6","3","2","3","6","4","2","2","3","3","3","2","3","3","3","3","3","2","6","3","5","2","2","2","1","3","6","3","793983472925548545","王","625","Female","[""好我"",""坏我"",""坏她"",""好她""]","[""强我"",""弱我"",""弱她"",""强她""]","","","","","","","","","","","","","","","","","","","","","","","","","","","","","","feedback_test","","","","","","","","",""
"null","","null","psychophysics","102","419898","0.0-8.0-1.0-1.0-0.0-0.46","3","2","2","2","1","2","3","2","4","3","4","-2","1","-1","-1","-2","-1","0","-1","4","4","4","2","4","2","2","2","2","1","1","2","3","5","2","2","3","3","2","3","2","2","2","3","2","5","4","2","2","1","3","2","6","3","2","3","6","4","2","2","3","3","3","2","3","3","3","3","3","2","6","3","5","2","2","2","1","3","6","3","793983472925548545","王","625","Female","[""好我"",""坏我"",""坏她"",""好她""]","[""强我"",""弱我"",""弱她"",""强她""]","","","","","","","","null","","","","","","","","","","key","null","8.332623574144415","960","536","j","false","match","img/triangle.png","弱我","弱我","prac_ALT2_ability","practice_ability","","","","","","","","",""
"null","<span class='add_' style='color:yellow; font-size: 70px;'> 太慢! </span>","null","html-keyboard-response","103","420400","0.0-8.0-1.0-1.0-0.0-1.46","3","2","2","2","1","2","3","2","4","3","4","-2","1","-1","-1","-2","-1","0","-1","4","4","4","2","4","2","2","2","2","1","1","2","3","5","2","2","3","3","2","3","2","2","2","3","2","5","4","2","2","1","3","2","6","3","2","3","6","4","2","2","3","3","3","2","3","3","3","3","3","2","6","3","5","2","2","2","1","3","6","3","793983472925548545","王","625","Female","[""好我"",""坏我"",""坏她"",""好她""]","[""强我"",""弱我"",""弱她"",""强她""]","","","","","","","","","","","","","","","","","","","","","","","","","","","","","","feedback_test","","","","","","","","",""
"null","","null","psychophysics","104","422602","0.0-8.0-1.0-1.0-0.0-0.47","3","2","2","2","1","2","3","2","4","3","4","-2","1","-1","-1","-2","-1","0","-1","4","4","4","2","4","2","2","2","2","1","1","2","3","5","2","2","3","3","2","3","2","2","2","3","2","5","4","2","2","1","3","2","6","3","2","3","6","4","2","2","3","3","3","2","3","3","3","3","3","2","6","3","5","2","2","2","1","3","6","3","793983472925548545","王","625","Female","[""好我"",""坏我"",""坏她"",""好她""]","[""强我"",""弱我"",""弱她"",""强她""]","","","","","","","","null","","","","","","","","","","key","null","8.333034220532276","960","536","j","false","match","img/hexagon.png","弱她","弱她","prac_ALT2_ability","practice_ability","","","","","","","","",""
"null","<span class='add_' style='color:yellow; font-size: 70px;'> 太慢! </span>","null","html-keyboard-response","105","423102","0.0-8.0-1.0-1.0-0.0-1.47","3","2","2","2","1","2","3","2","4","3","4","-2","1","-1","-1","-2","-1","0","-1","4","4","4","2","4","2","2","2","2","1","1","2","3","5","2","2","3","3","2","3","2","2","2","3","2","5","4","2","2","1","3","2","6","3","2","3","6","4","2","2","3","3","3","2","3","3","3","3","3","2","6","3","5","2","2","2","1","3","6","3","793983472925548545","王","625","Female","[""好我"",""坏我"",""坏她"",""好她""]","[""强我"",""弱我"",""弱她"",""强她""]","","","","","","","","","","","","","","","","","","","","","","","","","","","","","","feedback_test","","","","","","","","",""
"164175","<style>.context{color:white; font-size: 35px; line-height:40px}</style>                          <div><p class='context'>您正确回答了27% 的试次。</p><p class='context'>您的平均反应时为338毫秒。</p><p class='context'>恭喜您完成练习。按空格键继续。</p></div>"," ","html-keyboard-response","106","587279","0.0-8.0-1.0-1.0-1.0-0.0","3","2","2","2","1","2","3","2","4","3","4","-2","1","-1","-1","-2","-1","0","-1","4","4","4","2","4","2","2","2","2","1","1","2","3","5","2","2","3","3","2","3","2","2","2","3","2","5","4","2","2","1","3","2","6","3","2","3","6","4","2","2","3","3","3","2","3","3","3","3","3","2","6","3","5","2","2","2","1","3","6","3","793983472925548545","王","625","Female","[""好我"",""坏我"",""坏她"",""好她""]","[""强我"",""弱我"",""弱她"",""强她""]","","","","","","","","","","","","","","","","","","","","","","","","","","","","","","","","","","","","","","",""
"6571","","","instructions","107","593852","0.0-8.0-1.0-1.0-1.0-1.0","3","2","2","2","1","2","3","2","4","3","4","-2","1","-1","-1","-2","-1","0","-1","4","4","4","2","4","2","2","2","2","1","1","2","3","5","2","2","3","3","2","3","2","2","2","3","2","5","4","2","2","1","3","2","6","3","2","3","6","4","2","2","3","3","3","2","3","3","3","3","3","2","6","3","5","2","2","2","1","3","6","3","793983472925548545","王","625","Female","[""好我"",""坏我"",""坏她"",""好她""]","[""强我"",""弱我"",""弱她"",""强她""]","","","","","","","","","","","","","","","","","[{""page_index"":0,""viewing_time"":3297},{""page_index"":1,""viewing_time"":1674},{""page_index"":2,""viewing_time"":1600}]","","","","","","","","","","","","","","","","","","","","","",""
"null","","null","psychophysics","108","596055","0.0-8.0-1.0-1.1-0.1-0.48","3","2","2","2","1","2","3","2","4","3","4","-2","1","-1","-1","-2","-1","0","-1","4","4","4","2","4","2","2","2","2","1","1","2","3","5","2","2","3","3","2","3","2","2","2","3","2","5","4","2","2","1","3","2","6","3","2","3","6","4","2","2","3","3","3","2","3","3","3","3","3","2","6","3","5","2","2","2","1","3","6","3","793983472925548545","王","625","Female","[""好我"",""坏我"",""坏她"",""好她""]","[""强我"",""弱我"",""弱她"",""强她""]","","","","","","","","null","","","","","","","","","","key","null","8.332897338402695","960","536","j","false","match","img/hexagon.png","弱她","弱她","prac_ALT2_ability","practice_ability","","","","","","","","",""
"null","<span class='add_' style='color:yellow; font-size: 70px;'> 太慢! </span>","null","html-keyboard-response","109","596555","0.0-8.0-1.0-1.1-0.1-1.48","3","2","2","2","1","2","3","2","4","3","4","-2","1","-1","-1","-2","-1","0","-1","4","4","4","2","4","2","2","2","2","1","1","2","3","5","2","2","3","3","2","3","2","2","2","3","2","5","4","2","2","1","3","2","6","3","2","3","6","4","2","2","3","3","3","2","3","3","3","3","3","2","6","3","5","2","2","2","1","3","6","3","793983472925548545","王","625","Female","[""好我"",""坏我"",""坏她"",""好她""]","[""强我"",""弱我"",""弱她"",""强她""]","","","","","","","","","","","","","","","","","","","","","","","","","","","","","","feedback_test","","","","","","","","",""
"1186","","j","psychophysics","110","598742","0.0-8.0-1.0-1.1-0.1-0.49","3","2","2","2","1","2","3","2","4","3","4","-2","1","-1","-1","-2","-1","0","-1","4","4","4","2","4","2","2","2","2","1","1","2","3","5","2","2","3","3","2","3","2","2","2","3","2","5","4","2","2","1","3","2","6","3","2","3","6","4","2","2","3","3","3","2","3","3","3","3","3","2","6","3","5","2","2","2","1","3","6","3","793983472925548545","王","625","Female","[""好我"",""坏我"",""坏她"",""好她""]","[""强我"",""弱我"",""弱她"",""强她""]","","","","","","","","match","","","","","","","","","","key","j","8.332996168582419","960","536","j","true","match","img/circle.png","强我","强我","prac_ALT2_ability","practice_ability","","","","","","","","",""
"null","<span style='color:GreenYellow; font-size: 70px;'>正确! </span>","null","html-keyboard-response","111","599242","0.0-8.0-1.0-1.1-0.1-1.49","3","2","2","2","1","2","3","2","4","3","4","-2","1","-1","-1","-2","-1","0","-1","4","4","4","2","4","2","2","2","2","1","1","2","3","5","2","2","3","3","2","3","2","2","2","3","2","5","4","2","2","1","3","2","6","3","2","3","6","4","2","2","3","3","3","2","3","3","3","3","3","2","6","3","5","2","2","2","1","3","6","3","793983472925548545","王","625","Female","[""好我"",""坏我"",""坏她"",""好她""]","[""强我"",""弱我"",""弱她"",""强她""]","","","","","","","","","","","","","","","","","","","","","","","","","","","","","","feedback_test","","","","","","","","",""
"null","","null","psychophysics","112","601445","0.0-8.0-1.0-1.1-0.1-0.50","3","2","2","2","1","2","3","2","4","3","4","-2","1","-1","-1","-2","-1","0","-1","4","4","4","2","4","2","2","2","2","1","1","2","3","5","2","2","3","3","2","3","2","2","2","3","2","5","4","2","2","1","3","2","6","3","2","3","6","4","2","2","3","3","3","2","3","3","3","3","3","2","6","3","5","2","2","2","1","3","6","3","793983472925548545","王","625","Female","[""好我"",""坏我"",""坏她"",""好她""]","[""强我"",""弱我"",""弱她"",""强她""]","","","","","","","","null","","","","","","","","","","key","null","8.332927756653762","960","536","f","false","nonmatch","img/hexagon.png","弱我","弱她","prac_ALT2_ability","practice_ability","","","","","","","","",""
"null","<span class='add_' style='color:yellow; font-size: 70px;'> 太慢! </span>","null","html-keyboard-response","113","601946","0.0-8.0-1.0-1.1-0.1-1.50","3","2","2","2","1","2","3","2","4","3","4","-2","1","-1","-1","-2","-1","0","-1","4","4","4","2","4","2","2","2","2","1","1","2","3","5","2","2","3","3","2","3","2","2","2","3","2","5","4","2","2","1","3","2","6","3","2","3","6","4","2","2","3","3","3","2","3","3","3","3","3","2","6","3","5","2","2","2","1","3","6","3","793983472925548545","王","625","Female","[""好我"",""坏我"",""坏她"",""好她""]","[""强我"",""弱我"",""弱她"",""强她""]","","","","","","","","","","","","","","","","","","","","","","","","","","","","","","feedback_test","","","","","","","","",""
"null","","null","psychophysics","114","604148","0.0-8.0-1.0-1.1-0.1-0.51","3","2","2","2","1","2","3","2","4","3","4","-2","1","-1","-1","-2","-1","0","-1","4","4","4","2","4","2","2","2","2","1","1","2","3","5","2","2","3","3","2","3","2","2","2","3","2","5","4","2","2","1","3","2","6","3","2","3","6","4","2","2","3","3","3","2","3","3","3","3","3","2","6","3","5","2","2","2","1","3","6","3","793983472925548545","王","625","Female","[""好我"",""坏我"",""坏她"",""好她""]","[""强我"",""弱我"",""弱她"",""强她""]","","","","","","","","null","","","","","","","","","","key","null","8.33302661596962","960","536","j","false","match","img/hexagon.png","弱她","弱她","prac_ALT2_ability","practice_ability","","","","","","","","",""
"null","<span class='add_' style='color:yellow; font-size: 70px;'> 太慢! </span>","null","html-keyboard-response","115","604648","0.0-8.0-1.0-1.1-0.1-1.51","3","2","2","2","1","2","3","2","4","3","4","-2","1","-1","-1","-2","-1","0","-1","4","4","4","2","4","2","2","2","2","1","1","2","3","5","2","2","3","3","2","3","2","2","2","3","2","5","4","2","2","1","3","2","6","3","2","3","6","4","2","2","3","3","3","2","3","3","3","3","3","2","6","3","5","2","2","2","1","3","6","3","793983472925548545","王","625","Female","[""好我"",""坏我"",""坏她"",""好她""]","[""强我"",""弱我"",""弱她"",""强她""]","","","","","","","","","","","","","","","","","","","","","","","","","","","","","","feedback_test","","","","","","","","",""
"979","","f","psychophysics","116","606628","0.0-8.0-1.0-1.1-0.1-0.52","3","2","2","2","1","2","3","2","4","3","4","-2","1","-1","-1","-2","-1","0","-1","4","4","4","2","4","2","2","2","2","1","1","2","3","5","2","2","3","3","2","3","2","2","2","3","2","5","4","2","2","1","3","2","6","3","2","3","6","4","2","2","3","3","3","2","3","3","3","3","3","2","6","3","5","2","2","2","1","3","6","3","793983472925548545","王","625","Female","[""好我"",""坏我"",""坏她"",""好她""]","[""强我"",""弱我"",""弱她"",""强她""]","","","","","","","","nonmatch","","","","","","","","","","key","f","8.33297046413547","960","536","f","true","nonmatch","img/hexagon.png","强我","弱她","prac_ALT2_ability","practice_ability","","","","","","","","",""
"null","<span style='color:GreenYellow; font-size: 70px;'>正确! </span>","null","html-keyboard-response","117","607130","0.0-8.0-1.0-1.1-0.1-1.52","3","2","2","2","1","2","3","2","4","3","4","-2","1","-1","-1","-2","-1","0","-1","4","4","4","2","4","2","2","2","2","1","1","2","3","5","2","2","3","3","2","3","2","2","2","3","2","5","4","2","2","1","3","2","6","3","2","3","6","4","2","2","3","3","3","2","3","3","3","3","3","2","6","3","5","2","2","2","1","3","6","3","793983472925548545","王","625","Female","[""好我"",""坏我"",""坏她"",""好她""]","[""强我"",""弱我"",""弱她"",""强她""]","","","","","","","","","","","","","","","","","","","","","","","","","","","","","","feedback_test","","","","","","","","",""
"863","","j","psychophysics","118","608994","0.0-8.0-1.0-1.1-0.1-0.53","3","2","2","2","1","2","3","2","4","3","4","-2","1","-1","-1","-2","-1","0","-1","4","4","4","2","4","2","2","2","2","1","1","2","3","5","2","2","3","3","2","3","2","2","2","3","2","5","4","2","2","1","3","2","6","3","2","3","6","4","2","2","3","3","3","2","3","3","3","3","3","2","6","3","5","2","2","2","1","3","6","3","793983472925548545","王","625","Female","[""好我"",""坏我"",""坏她"",""好她""]","[""强我"",""弱我"",""弱她"",""强她""]","","","","","","","","match","","","","","","","","","","key","j","8.333049327354344","960","536","j","true","match","img/circle.png","强我","强我","prac_ALT2_ability","practice_ability","","","","","","","","",""
"null","<span style='color:GreenYellow; font-size: 70px;'>正确! </span>","null","html-keyboard-response","119","609495","0.0-8.0-1.0-1.1-0.1-1.53","3","2","2","2","1","2","3","2","4","3","4","-2","1","-1","-1","-2","-1","0","-1","4","4","4","2","4","2","2","2","2","1","1","2","3","5","2","2","3","3","2","3","2","2","2","3","2","5","4","2","2","1","3","2","6","3","2","3","6","4","2","2","3","3","3","2","3","3","3","3","3","2","6","3","5","2","2","2","1","3","6","3","793983472925548545","王","625","Female","[""好我"",""坏我"",""坏她"",""好她""]","[""强我"",""弱我"",""弱她"",""强她""]","","","","","","","","","","","","","","","","","","","","","","","","","","","","","","feedback_test","","","","","","","","",""
"null","","null","psychophysics","120","611697","0.0-8.0-1.0-1.1-0.1-0.54","3","2","2","2","1","2","3","2","4","3","4","-2","1","-1","-1","-2","-1","0","-1","4","4","4","2","4","2","2","2","2","1","1","2","3","5","2","2","3","3","2","3","2","2","2","3","2","5","4","2","2","1","3","2","6","3","2","3","6","4","2","2","3","3","3","2","3","3","3","3","3","2","6","3","5","2","2","2","1","3","6","3","793983472925548545","王","625","Female","[""好我"",""坏我"",""坏她"",""好她""]","[""强我"",""弱我"",""弱她"",""强她""]","","","","","","","","null","","","","","","","","","","key","null","8.364675572519245","960","536","f","false","nonmatch","img/hexagon.png","强她","弱她","prac_ALT2_ability","practice_ability","","","","","","","","",""
"null","<span class='add_' style='color:yellow; font-size: 70px;'> 太慢! </span>","null","html-keyboard-response","121","612197","0.0-8.0-1.0-1.1-0.1-1.54","3","2","2","2","1","2","3","2","4","3","4","-2","1","-1","-1","-2","-1","0","-1","4","4","4","2","4","2","2","2","2","1","1","2","3","5","2","2","3","3","2","3","2","2","2","3","2","5","4","2","2","1","3","2","6","3","2","3","6","4","2","2","3","3","3","2","3","3","3","3","3","2","6","3","5","2","2","2","1","3","6","3","793983472925548545","王","625","Female","[""好我"",""坏我"",""坏她"",""好她""]","[""强我"",""弱我"",""弱她"",""强她""]","","","","","","","","","","","","","","","","","","","","","","","","","","","","","","feedback_test","","","","","","","","",""
"null","","null","psychophysics","122","614399","0.0-8.0-1.0-1.1-0.1-0.55","3","2","2","2","1","2","3","2","4","3","4","-2","1","-1","-1","-2","-1","0","-1","4","4","4","2","4","2","2","2","2","1","1","2","3","5","2","2","3","3","2","3","2","2","2","3","2","5","4","2","2","1","3","2","6","3","2","3","6","4","2","2","3","3","3","2","3","3","3","3","3","2","6","3","5","2","2","2","1","3","6","3","793983472925548545","王","625","Female","[""好我"",""坏我"",""坏她"",""好她""]","[""强我"",""弱我"",""弱她"",""强她""]","","","","","","","","null","","","","","","","","","","key","null","8.332954372623723","960","536","j","false","match","img/diamond.png","强她","强她","prac_ALT2_ability","practice_ability","","","","","","","","",""
"null","<span class='add_' style='color:yellow; font-size: 70px;'> 太慢! </span>","null","html-keyboard-response","123","614900","0.0-8.0-1.0-1.1-0.1-1.55","3","2","2","2","1","2","3","2","4","3","4","-2","1","-1","-1","-2","-1","0","-1","4","4","4","2","4","2","2","2","2","1","1","2","3","5","2","2","3","3","2","3","2","2","2","3","2","5","4","2","2","1","3","2","6","3","2","3","6","4","2","2","3","3","3","2","3","3","3","3","3","2","6","3","5","2","2","2","1","3","6","3","793983472925548545","王","625","Female","[""好我"",""坏我"",""坏她"",""好她""]","[""强我"",""弱我"",""弱她"",""强她""]","","","","","","","","","","","","","","","","","","","","","","","","","","","","","","feedback_test","","","","","","","","",""
"1071","","f","psychophysics","124","616972","0.0-8.0-1.0-1.1-0.1-0.56","3","2","2","2","1","2","3","2","4","3","4","-2","1","-1","-1","-2","-1","0","-1","4","4","4","2","4","2","2","2","2","1","1","2","3","5","2","2","3","3","2","3","2","2","2","3","2","5","4","2","2","1","3","2","6","3","2","3","6","4","2","2","3","3","3","2","3","3","3","3","3","2","6","3","5","2","2","2","1","3","6","3","793983472925548545","王","625","Female","[""好我"",""坏我"",""坏她"",""好她""]","[""强我"",""弱我"",""弱她"",""强她""]","","","","","","","","nonmatch","","","","","","","","","","key","f","8.333032388663813","960","536","f","true","nonmatch","img/diamond.png","弱她","强她","prac_ALT2_ability","practice_ability","","","","","","","","",""
"null","<span style='color:GreenYellow; font-size: 70px;'>正确! </span>","null","html-keyboard-response","125","617473","0.0-8.0-1.0-1.1-0.1-1.56","3","2","2","2","1","2","3","2","4","3","4","-2","1","-1","-1","-2","-1","0","-1","4","4","4","2","4","2","2","2","2","1","1","2","3","5","2","2","3","3","2","3","2","2","2","3","2","5","4","2","2","1","3","2","6","3","2","3","6","4","2","2","3","3","3","2","3","3","3","3","3","2","6","3","5","2","2","2","1","3","6","3","793983472925548545","王","625","Female","[""好我"",""坏我"",""坏她"",""好她""]","[""强我"",""弱我"",""弱她"",""强她""]","","","","","","","","","","","","","","","","","","","","","","","","","","","","","","feedback_test","","","","","","","","",""
"1000","","j","psychophysics","126","619474","0.0-8.0-1.0-1.1-0.1-0.57","3","2","2","2","1","2","3","2","4","3","4","-2","1","-1","-1","-2","-1","0","-1","4","4","4","2","4","2","2","2","2","1","1","2","3","5","2","2","3","3","2","3","2","2","2","3","2","5","4","2","2","1","3","2","6","3","2","3","6","4","2","2","3","3","3","2","3","3","3","3","3","2","6","3","5","2","2","2","1","3","6","3","793983472925548545","王","625","Female","[""好我"",""坏我"",""坏她"",""好她""]","[""强我"",""弱我"",""弱她"",""强她""]","","","","","","","","match","","","","","","","","","","key","j","8.333092050209435","960","536","j","true","match","img/hexagon.png","弱她","弱她","prac_ALT2_ability","practice_ability","","","","","","","","",""
"null","<span style='color:GreenYellow; font-size: 70px;'>正确! </span>","null","html-keyboard-response","127","619975","0.0-8.0-1.0-1.1-0.1-1.57","3","2","2","2","1","2","3","2","4","3","4","-2","1","-1","-1","-2","-1","0","-1","4","4","4","2","4","2","2","2","2","1","1","2","3","5","2","2","3","3","2","3","2","2","2","3","2","5","4","2","2","1","3","2","6","3","2","3","6","4","2","2","3","3","3","2","3","3","3","3","3","2","6","3","5","2","2","2","1","3","6","3","793983472925548545","王","625","Female","[""好我"",""坏我"",""坏她"",""好她""]","[""强我"",""弱我"",""弱她"",""强她""]","","","","","","","","","","","","","","","","","","","","","","","","","","","","","","feedback_test","","","","","","","","",""
"1102","","f","psychophysics","128","622078","0.0-8.0-1.0-1.1-0.1-0.58","3","2","2","2","1","2","3","2","4","3","4","-2","1","-1","-1","-2","-1","0","-1","4","4","4","2","4","2","2","2","2","1","1","2","3","5","2","2","3","3","2","3","2","2","2","3","2","5","4","2","2","1","3","2","6","3","2","3","6","4","2","2","3","3","3","2","3","3","3","3","3","2","6","3","5","2","2","2","1","3","6","3","793983472925548545","王","625","Female","[""好我"",""坏我"",""坏她"",""好她""]","[""强我"",""弱我"",""弱她"",""强她""]","","","","","","","","nonmatch","","","","","","","","","","key","f","8.332864541832665","960","536","j","false","match","img/triangle.png","弱我","弱我","prac_ALT2_ability","practice_ability","","","","","","","","",""
"null","<span style='color:red; font-size: 70px;'>错误! </span>","null","html-keyboard-response","129","622579","0.0-8.0-1.0-1.1-0.1-1.58","3","2","2","2","1","2","3","2","4","3","4","-2","1","-1","-1","-2","-1","0","-1","4","4","4","2","4","2","2","2","2","1","1","2","3","5","2","2","3","3","2","3","2","2","2","3","2","5","4","2","2","1","3","2","6","3","2","3","6","4","2","2","3","3","3","2","3","3","3","3","3","2","6","3","5","2","2","2","1","3","6","3","793983472925548545","王","625","Female","[""好我"",""坏我"",""坏她"",""好她""]","[""强我"",""弱我"",""弱她"",""强她""]","","","","","","","","","","","","","","","","","","","","","","","","","","","","","","feedback_test","","","","","","","","",""
"1177","","j","psychophysics","130","624758","0.0-8.0-1.0-1.1-0.1-0.59","3","2","2","2","1","2","3","2","4","3","4","-2","1","-1","-1","-2","-1","0","-1","4","4","4","2","4","2","2","2","2","1","1","2","3","5","2","2","3","3","2","3","2","2","2","3","2","5","4","2","2","1","3","2","6","3","2","3","6","4","2","2","3","3","3","2","3","3","3","3","3","2","6","3","5","2","2","2","1","3","6","3","793983472925548545","王","625","Female","[""好我"",""坏我"",""坏她"",""好她""]","[""强我"",""弱我"",""弱她"",""强她""]","","","","","","","","match","","","","","","","","","","key","j","8.333057692307586","960","536","f","false","nonmatch","img/triangle.png","弱她","弱我","prac_ALT2_ability","practice_ability","","","","","","","","",""
"null","<span style='color:red; font-size: 70px;'>错误! </span>","null","html-keyboard-response","131","625258","0.0-8.0-1.0-1.1-0.1-1.59","3","2","2","2","1","2","3","2","4","3","4","-2","1","-1","-1","-2","-1","0","-1","4","4","4","2","4","2","2","2","2","1","1","2","3","5","2","2","3","3","2","3","2","2","2","3","2","5","4","2","2","1","3","2","6","3","2","3","6","4","2","2","3","3","3","2","3","3","3","3","3","2","6","3","5","2","2","2","1","3","6","3","793983472925548545","王","625","Female","[""好我"",""坏我"",""坏她"",""好她""]","[""强我"",""弱我"",""弱她"",""强她""]","","","","","","","","","","","","","","","","","","","","","","","","","","","","","","feedback_test","","","","","","","","",""
"291","","j","psychophysics","132","626552","0.0-8.0-1.0-1.1-0.1-0.60","3","2","2","2","1","2","3","2","4","3","4","-2","1","-1","-1","-2","-1","0","-1","4","4","4","2","4","2","2","2","2","1","1","2","3","5","2","2","3","3","2","3","2","2","2","3","2","5","4","2","2","1","3","2","6","3","2","3","6","4","2","2","3","3","3","2","3","3","3","3","3","2","6","3","5","2","2","2","1","3","6","3","793983472925548545","王","625","Female","[""好我"",""坏我"",""坏她"",""好她""]","[""强我"",""弱我"",""弱她"",""强她""]","","","","","","","","match","","","","","","","","","","key","j","8.332727272727212","960","536","j","true","match","img/diamond.png","强她","强她","prac_ALT2_ability","practice_ability","","","","","","","","",""
"null","<span style='color:GreenYellow; font-size: 70px;'>正确! </span>","null","html-keyboard-response","133","627052","0.0-8.0-1.0-1.1-0.1-1.60","3","2","2","2","1","2","3","2","4","3","4","-2","1","-1","-1","-2","-1","0","-1","4","4","4","2","4","2","2","2","2","1","1","2","3","5","2","2","3","3","2","3","2","2","2","3","2","5","4","2","2","1","3","2","6","3","2","3","6","4","2","2","3","3","3","2","3","3","3","3","3","2","6","3","5","2","2","2","1","3","6","3","793983472925548545","王","625","Female","[""好我"",""坏我"",""坏她"",""好她""]","[""强我"",""弱我"",""弱她"",""强她""]","","","","","","","","","","","","","","","","","","","","","","","","","","","","","","feedback_test","","","","","","","","",""
"645","","j","psychophysics","134","628698","0.0-8.0-1.0-1.1-0.1-0.61","3","2","2","2","1","2","3","2","4","3","4","-2","1","-1","-1","-2","-1","0","-1","4","4","4","2","4","2","2","2","2","1","1","2","3","5","2","2","3","3","2","3","2","2","2","3","2","5","4","2","2","1","3","2","6","3","2","3","6","4","2","2","3","3","3","2","3","3","3","3","3","2","6","3","5","2","2","2","1","3","6","3","793983472925548545","王","625","Female","[""好我"",""坏我"",""坏她"",""好她""]","[""强我"",""弱我"",""弱她"",""强她""]","","","","","","","","match","","","","","","","","","","key","j","8.333091836734509","960","536","f","false","nonmatch","img/triangle.png","强她","弱我","prac_ALT2_ability","practice_ability","","","","","","","","",""
"null","<span style='color:red; font-size: 70px;'>错误! </span>","null","html-keyboard-response","135","629199","0.0-8.0-1.0-1.1-0.1-1.61","3","2","2","2","1","2","3","2","4","3","4","-2","1","-1","-1","-2","-1","0","-1","4","4","4","2","4","2","2","2","2","1","1","2","3","5","2","2","3","3","2","3","2","2","2","3","2","5","4","2","2","1","3","2","6","3","2","3","6","4","2","2","3","3","3","2","3","3","3","3","3","2","6","3","5","2","2","2","1","3","6","3","793983472925548545","王","625","Female","[""好我"",""坏我"",""坏她"",""好她""]","[""强我"",""弱我"",""弱她"",""强她""]","","","","","","","","","","","","","","","","","","","","","","","","","","","","","","feedback_test","","","","","","","","",""
