"rt","stimulus","response","trial_type","trial_index","time_elapsed","internal_node_id","swb_1","swb_2","swb_3","swb_4","swb_5","LOT_1","LOT_2","LOT_3","LOT_4","LOT_5","LOT_6","IPC_1","IPC_2","IPC_3","IPC_4","IPC_5","IPC_6","IPC_7","IPC_8","MorIden_1","MorIden_2","MorIden_3","MorIden_4","MorIden_5","MorIden_6","MorIden_7","MorIden_8","MorIden_9","MorIden_10","moralSeImag_1","moralSeImag_2","moralSeImag_3","moralSeImag_4","moralSeImag_5","moralSeImag_6","moralSeImag_7","moralSeImag_8","moralSeImag_9","sde_1","sde_2","sde_3","sde_4","sde_5","sde_6","sde_7","sde_8","sde_9","sde_10","trap2","sde_11","sde_12","sde_13","sde_14","sde_15","sde_16","sde_17","sde_18","sde_19","sde_20","IM_1","IM_2","IM_3","IM_4","IM_5","IM_6","IM_7","IM_8","IM_9","IM_10","IM_11","IM_12","IM_13","IM_14","IM_15","IM_16","IM_17","IM_18","IM_19","IM_20","subj_idx","friend_name","ParticipantID","Sex","Word","Word2","value","success","timeout","failed_images","failed_audio","failed_video","user_agent","responses","item_order","radio_event_ids","radio_event_times","key_event_times","mouse_event_times","straightlining","zigzagging","honeypot","view_history","response_type","key_press","avg_frame_time","center_x","center_y","correct_response","correct","identity","Image","word","condition","task_id","screen_id","time_stamp","person","valence","domain","math","status","duration","question_order","trap2_item"
"10064","
   <p><div style='color:white; font-size: 25px'>您好，欢迎参加本次实验。</div></p>
   <p><div style='color:white; font-size: 25px'>为充分保障您的权利，请确保您已经知晓并同意《参与实验同意书》以及《数据公开知情同意书》。</div></p>
   <p><div style='color:white; font-size: 25px'>如果您未见过上述内容，请咨询实验员。</div></p>
   <p style='color:white; font-size: 25px'>如果您选择继续实验，则表示您已经清楚两份知情同意书的内容并同意。</p>
   <p><div style = ""color: pink;font-size:30px;"">请确保您记得day0的实验编号，您将在本次实验输入该编号，若您忘记，请咨询实验员后作答。</div></p>
   <p><div style = ""color:lightblue;font-size:25px;"">请您尽可能认真地作答，我们将依据您在各问卷和按键任务中的作答质量发放报酬。</div></p>
   <p> <div style = ""color: green""><按空格键至下页></div> </p>
   "," ","html-keyboard-response","0","10067","0.0-0.0","5","4","5","3","3","4","3","5","4","5","4","0","1","1","0","0","2","1","0","4","5","5","2","3","4","4","5","4","5","6","8","7","9","8","8","6","8","9","6","6","5","6","7","6","5","6","6","7","1","5","5","6","5","5","5","6","6","5","7","5","5","3","7","5","6","3","6","7","6","7","3","6","7","3","5","2","7","5","5","790355489568464897","刘","542","Male","[""好他"",""坏我"",""好我"",""坏他""]","[""强他"",""弱我"",""强我"",""弱他""]","","","","","","","","","","","","","","","","","","","","","","","","","","","","","","","","","","","","","","",""
"","","","call-function","1","10068","0.0-1.0-0.0","5","4","5","3","3","4","3","5","4","5","4","0","1","1","0","0","2","1","0","4","5","5","2","3","4","4","5","4","5","6","8","7","9","8","8","6","8","9","6","6","5","6","7","6","5","6","6","7","1","5","5","6","5","5","5","6","6","5","7","5","5","3","7","5","6","3","6","7","6","7","3","6","7","3","5","2","7","5","5","790355489568464897","刘","542","Male","[""好他"",""坏我"",""好我"",""坏他""]","[""强他"",""弱我"",""强我"",""弱他""]","","","","","","","","","","","","","","","","","","","","","","","","","","","","","","","","","","","","","","",""
"32668","","[{""name"":""Sex"",""value"":""0""},{""name"":""friend_name"",""value"":""刘""},{""name"":""ParticipantID"",""value"":""542""}]","survey-html-form","2","42737","0.0-1.0-1.0","5","4","5","3","3","4","3","5","4","5","4","0","1","1","0","0","2","1","0","4","5","5","2","3","4","4","5","4","5","6","8","7","9","8","8","6","8","9","6","6","5","6","7","6","5","6","6","7","1","5","5","6","5","5","5","6","6","5","7","5","5","3","7","5","6","3","6","7","6","7","3","6","7","3","5","2","7","5","5","790355489568464897","刘","542","Male","[""好他"",""坏我"",""好我"",""坏他""]","[""强他"",""弱我"",""强我"",""弱他""]","","","","","","","","","","","","","","","","","","","","","","","","","","","","","","","","","","","","","","",""
"","","","preload","3","43393","0.0-2.0","5","4","5","3","3","4","3","5","4","5","4","0","1","1","0","0","2","1","0","4","5","5","2","3","4","4","5","4","5","6","8","7","9","8","8","6","8","9","6","6","5","6","7","6","5","6","6","7","1","5","5","6","5","5","5","6","6","5","7","5","5","3","7","5","6","3","6","7","6","7","3","6","7","3","5","2","7","5","5","790355489568464897","刘","542","Male","[""好他"",""坏我"",""好我"",""坏他""]","[""强他"",""弱我"",""强我"",""弱他""]","","true","false","[]","[]","[]","","","","","","","","","","","","","","","","","","","","","","","","","","","","","","","","",""
"","","","fullscreen","4","71919","0.0-3.0","5","4","5","3","3","4","3","5","4","5","4","0","1","1","0","0","2","1","0","4","5","5","2","3","4","4","5","4","5","6","8","7","9","8","8","6","8","9","6","6","5","6","7","6","5","6","6","7","1","5","5","6","5","5","5","6","6","5","7","5","5","3","7","5","6","3","6","7","6","7","3","6","7","3","5","2","7","5","5","790355489568464897","刘","542","Male","[""好他"",""坏我"",""好我"",""坏他""]","[""强他"",""弱我"",""强我"",""弱他""]","","true","","","","","{}","","","","","","","","","","","","","","","","","","","","","","","","","","","","","","","",""
"21013.30000001192","","{""Q01"":""5"",""Q02"":""4"",""Q03"":""5"",""Q04"":""3"",""Q05"":""3""}","survey-template","5","92936","0.0-4.0","5","4","5","3","3","4","3","5","4","5","4","0","1","1","0","0","2","1","0","4","5","5","2","3","4","4","5","4","5","6","8","7","9","8","8","6","8","9","6","6","5","6","7","6","5","6","6","7","1","5","5","6","5","5","5","6","6","5","7","5","5","3","7","5","6","3","6","7","6","7","3","6","7","3","5","2","7","5","5","790355489568464897","刘","542","Male","[""好他"",""坏我"",""好我"",""坏他""]","[""强他"",""弱我"",""强我"",""弱他""]","","","","","","","","{""Q01"":""5"",""Q02"":""4"",""Q03"":""5"",""Q04"":""3"",""Q05"":""3""}","[0,1,2,3,4]","[""Q01"",""Q02"",""Q03"",""Q04"",""Q05"",""Q05""]","[7427,9186.90000000596,11268.800000011921,12822.699999988079,15540.5,17139.69999998808]","[]","[7427,9186.90000000596,11268.800000011921,12822.699999988079,15540.5,17139.69999998808,21011.40000000596]","0.4","0.5","0","","","","","","","","","","","","","","","","","","","","","","",""
"22462.19999998808","","{""Q01"":""4"",""Q02"":""3"",""Q03"":""5"",""Q04"":""4"",""Q05"":""5"",""Q06"":""4""}","survey-template","6","115405","0.0-5.0","5","4","5","3","3","4","3","5","4","5","4","0","1","1","0","0","2","1","0","4","5","5","2","3","4","4","5","4","5","6","8","7","9","8","8","6","8","9","6","6","5","6","7","6","5","6","6","7","1","5","5","6","5","5","5","6","6","5","7","5","5","3","7","5","6","3","6","7","6","7","3","6","7","3","5","2","7","5","5","790355489568464897","刘","542","Male","[""好他"",""坏我"",""好我"",""坏他""]","[""强他"",""弱我"",""强我"",""弱他""]","","","","","","","","{""Q01"":""4"",""Q02"":""3"",""Q03"":""5"",""Q04"":""4"",""Q05"":""5"",""Q06"":""4""}","[0,1,2,3,4,5]","[""Q01"",""Q02"",""Q03"",""Q04"",""Q05"",""Q06"",""Q06""]","[2602.199999988079,6388.5999999940395,9473,12904.40000000596,16108,18889.5,20944.09999999404]","[]","[2602.199999988079,6388.5999999940395,9473,12904.40000000596,16108,18889.5,20944.09999999404,22460.69999998808]","0.3333333333333333","0.4","0","","","","","","","","","","","","","","","","","","","","","","",""
"26384.59999999404","","{""Q01"":""0"",""Q02"":""1"",""Q03"":""1"",""Q04"":""0"",""Q05"":""0"",""Q06"":""2"",""Q07"":""1"",""Q08"":""0""}","survey-template","7","141796","0.0-6.0","5","4","5","3","3","4","3","5","4","5","4","0","1","1","0","0","2","1","0","4","5","5","2","3","4","4","5","4","5","6","8","7","9","8","8","6","8","9","6","6","5","6","7","6","5","6","6","7","1","5","5","6","5","5","5","6","6","5","7","5","5","3","7","5","6","3","6","7","6","7","3","6","7","3","5","2","7","5","5","790355489568464897","刘","542","Male","[""好他"",""坏我"",""好我"",""坏他""]","[""强他"",""弱我"",""强我"",""弱他""]","","","","","","","","{""Q01"":""0"",""Q02"":""1"",""Q03"":""1"",""Q04"":""0"",""Q05"":""0"",""Q06"":""2"",""Q07"":""1"",""Q08"":""0""}","[0,1,2,3,4,5,6,7]","[""Q01"",""Q02"",""Q03"",""Q04"",""Q05"",""Q06"",""Q07"",""Q08""]","[4059.2999999821186,8009.199999988079,10743.699999988079,13325.59999999404,17343.09999999404,19923.899999976158,23423.69999998808,24792.899999976158]","[]","[4059.2999999821186,8009.199999988079,10743.699999988079,13325.59999999404,17343.09999999404,19152.79999998212,19923.899999976158,23423.69999998808,24792.899999976158,26383.399999976158]","0.5","0.5714285714285714","0","","","","","","","","","","","","","","","","","","","","","","",""
"29039","","","instructions","8","170839","0.0-7.0","5","4","5","3","3","4","3","5","4","5","4","0","1","1","0","0","2","1","0","4","5","5","2","3","4","4","5","4","5","6","8","7","9","8","8","6","8","9","6","6","5","6","7","6","5","6","6","7","1","5","5","6","5","5","5","6","6","5","7","5","5","3","7","5","6","3","6","7","6","7","3","6","7","3","5","2","7","5","5","790355489568464897","刘","542","Male","[""好他"",""坏我"",""好我"",""坏他""]","[""强他"",""弱我"",""强我"",""弱他""]","","","","","","","","","","","","","","","","","[{""page_index"":0,""viewing_time"":29039}]","","","","","","","","","","","","","","","","","","","","","",""
"86411","","","instructions","9","257251","0.0-8.0-1.0-0.0","5","4","5","3","3","4","3","5","4","5","4","0","1","1","0","0","2","1","0","4","5","5","2","3","4","4","5","4","5","6","8","7","9","8","8","6","8","9","6","6","5","6","7","6","5","6","6","7","1","5","5","6","5","5","5","6","6","5","7","5","5","3","7","5","6","3","6","7","6","7","3","6","7","3","5","2","7","5","5","790355489568464897","刘","542","Male","[""好他"",""坏我"",""好我"",""坏他""]","[""强他"",""弱我"",""强我"",""弱他""]","","","","","","","","","","","","","","","","","[{""page_index"":0,""viewing_time"":18776},{""page_index"":1,""viewing_time"":59979},{""page_index"":2,""viewing_time"":4808},{""page_index"":3,""viewing_time"":2848}]","","","","","","","","","","","","","","","","","","","","","",""
"null","","null","psychophysics","10","259457","0.0-8.0-1.0-1.0-0.0-0.0","5","4","5","3","3","4","3","5","4","5","4","0","1","1","0","0","2","1","0","4","5","5","2","3","4","4","5","4","5","6","8","7","9","8","8","6","8","9","6","6","5","6","7","6","5","6","6","7","1","5","5","6","5","5","5","6","6","5","7","5","5","3","7","5","6","3","6","7","6","7","3","6","7","3","5","2","7","5","5","790355489568464897","刘","542","Male","[""好他"",""坏我"",""好我"",""坏他""]","[""强他"",""弱我"",""强我"",""弱他""]","","","","","","","","null","","","","","","","","","","key","null","16.666412213740593","640","356","f","false","match","img/ellipse.png","强他","强他","prac_ALT2_ability","practice_ability","","","","","","","","",""
"null","<span class='add_' style='color:yellow; font-size: 70px;'> 太慢! </span>","null","html-keyboard-response","11","259959","0.0-8.0-1.0-1.0-0.0-1.0","5","4","5","3","3","4","3","5","4","5","4","0","1","1","0","0","2","1","0","4","5","5","2","3","4","4","5","4","5","6","8","7","9","8","8","6","8","9","6","6","5","6","7","6","5","6","6","7","1","5","5","6","5","5","5","6","6","5","7","5","5","3","7","5","6","3","6","7","6","7","3","6","7","3","5","2","7","5","5","790355489568464897","刘","542","Male","[""好他"",""坏我"",""好我"",""坏他""]","[""强他"",""弱我"",""强我"",""弱他""]","","","","","","","","","","","","","","","","","","","","","","","","","","","","","","feedback_test","","","","","","","","",""
"398","","j","psychophysics","12","261358","0.0-8.0-1.0-1.0-0.0-0.1","5","4","5","3","3","4","3","5","4","5","4","0","1","1","0","0","2","1","0","4","5","5","2","3","4","4","5","4","5","6","8","7","9","8","8","6","8","9","6","6","5","6","7","6","5","6","6","7","1","5","5","6","5","5","5","6","6","5","7","5","5","3","7","5","6","3","6","7","6","7","3","6","7","3","5","2","7","5","5","790355489568464897","刘","542","Male","[""好他"",""坏我"",""好我"",""坏他""]","[""强他"",""弱我"",""强我"",""弱他""]","","","","","","","","nonmatch","","","","","","","","","","key","j","16.663414634146626","640","356","j","true","nonmatch","img/pentagon.png","弱他","强我","prac_ALT2_ability","practice_ability","","","","","","","","",""
"null","<span style='color:GreenYellow; font-size: 70px;'>正确! </span>","null","html-keyboard-response","13","261859","0.0-8.0-1.0-1.0-0.0-1.1","5","4","5","3","3","4","3","5","4","5","4","0","1","1","0","0","2","1","0","4","5","5","2","3","4","4","5","4","5","6","8","7","9","8","8","6","8","9","6","6","5","6","7","6","5","6","6","7","1","5","5","6","5","5","5","6","6","5","7","5","5","3","7","5","6","3","6","7","6","7","3","6","7","3","5","2","7","5","5","790355489568464897","刘","542","Male","[""好他"",""坏我"",""好我"",""坏他""]","[""强他"",""弱我"",""强我"",""弱他""]","","","","","","","","","","","","","","","","","","","","","","","","","","","","","","feedback_test","","","","","","","","",""
"392","","f","psychophysics","14","263252","0.0-8.0-1.0-1.0-0.0-0.2","5","4","5","3","3","4","3","5","4","5","4","0","1","1","0","0","2","1","0","4","5","5","2","3","4","4","5","4","5","6","8","7","9","8","8","6","8","9","6","6","5","6","7","6","5","6","6","7","1","5","5","6","5","5","5","6","6","5","7","5","5","3","7","5","6","3","6","7","6","7","3","6","7","3","5","2","7","5","5","790355489568464897","刘","542","Male","[""好他"",""坏我"",""好我"",""坏他""]","[""强他"",""弱我"",""强我"",""弱他""]","","","","","","","","match","","","","","","","","","","key","f","16.664634146341463","640","356","j","false","nonmatch","img/ellipse.png","强我","强他","prac_ALT2_ability","practice_ability","","","","","","","","",""
"null","<span style='color:red; font-size: 70px;'>错误! </span>","null","html-keyboard-response","15","263754","0.0-8.0-1.0-1.0-0.0-1.2","5","4","5","3","3","4","3","5","4","5","4","0","1","1","0","0","2","1","0","4","5","5","2","3","4","4","5","4","5","6","8","7","9","8","8","6","8","9","6","6","5","6","7","6","5","6","6","7","1","5","5","6","5","5","5","6","6","5","7","5","5","3","7","5","6","3","6","7","6","7","3","6","7","3","5","2","7","5","5","790355489568464897","刘","542","Male","[""好他"",""坏我"",""好我"",""坏他""]","[""强他"",""弱我"",""强我"",""弱他""]","","","","","","","","","","","","","","","","","","","","","","","","","","","","","","feedback_test","","","","","","","","",""
"401","","j","psychophysics","16","265159","0.0-8.0-1.0-1.0-0.0-0.3","5","4","5","3","3","4","3","5","4","5","4","0","1","1","0","0","2","1","0","4","5","5","2","3","4","4","5","4","5","6","8","7","9","8","8","6","8","9","6","6","5","6","7","6","5","6","6","7","1","5","5","6","5","5","5","6","6","5","7","5","5","3","7","5","6","3","6","7","6","7","3","6","7","3","5","2","7","5","5","790355489568464897","刘","542","Male","[""好他"",""坏我"",""好我"",""坏他""]","[""强他"",""弱我"",""强我"",""弱他""]","","","","","","","","nonmatch","","","","","","","","","","key","j","16.666666666666668","640","356","f","false","match","img/ellipse.png","强他","强他","prac_ALT2_ability","practice_ability","","","","","","","","",""
"null","<span style='color:red; font-size: 70px;'>错误! </span>","null","html-keyboard-response","17","265660","0.0-8.0-1.0-1.0-0.0-1.3","5","4","5","3","3","4","3","5","4","5","4","0","1","1","0","0","2","1","0","4","5","5","2","3","4","4","5","4","5","6","8","7","9","8","8","6","8","9","6","6","5","6","7","6","5","6","6","7","1","5","5","6","5","5","5","6","6","5","7","5","5","3","7","5","6","3","6","7","6","7","3","6","7","3","5","2","7","5","5","790355489568464897","刘","542","Male","[""好他"",""坏我"",""好我"",""坏他""]","[""强他"",""弱我"",""强我"",""弱他""]","","","","","","","","","","","","","","","","","","","","","","","","","","","","","","feedback_test","","","","","","","","",""
"650","","j","psychophysics","18","267311","0.0-8.0-1.0-1.0-0.0-0.4","5","4","5","3","3","4","3","5","4","5","4","0","1","1","0","0","2","1","0","4","5","5","2","3","4","4","5","4","5","6","8","7","9","8","8","6","8","9","6","6","5","6","7","6","5","6","6","7","1","5","5","6","5","5","5","6","6","5","7","5","5","3","7","5","6","3","6","7","6","7","3","6","7","3","5","2","7","5","5","790355489568464897","刘","542","Male","[""好他"",""坏我"",""好我"",""坏他""]","[""强他"",""弱我"",""强我"",""弱他""]","","","","","","","","nonmatch","","","","","","","","","","key","j","16.6653061224491","640","356","f","false","match","img/pentagon.png","强我","强我","prac_ALT2_ability","practice_ability","","","","","","","","",""
"null","<span style='color:red; font-size: 70px;'>错误! </span>","null","html-keyboard-response","19","267813","0.0-8.0-1.0-1.0-0.0-1.4","5","4","5","3","3","4","3","5","4","5","4","0","1","1","0","0","2","1","0","4","5","5","2","3","4","4","5","4","5","6","8","7","9","8","8","6","8","9","6","6","5","6","7","6","5","6","6","7","1","5","5","6","5","5","5","6","6","5","7","5","5","3","7","5","6","3","6","7","6","7","3","6","7","3","5","2","7","5","5","790355489568464897","刘","542","Male","[""好他"",""坏我"",""好我"",""坏他""]","[""强他"",""弱我"",""强我"",""弱他""]","","","","","","","","","","","","","","","","","","","","","","","","","","","","","","feedback_test","","","","","","","","",""
"663","","j","psychophysics","20","269477","0.0-8.0-1.0-1.0-0.0-0.5","5","4","5","3","3","4","3","5","4","5","4","0","1","1","0","0","2","1","0","4","5","5","2","3","4","4","5","4","5","6","8","7","9","8","8","6","8","9","6","6","5","6","7","6","5","6","6","7","1","5","5","6","5","5","5","6","6","5","7","5","5","3","7","5","6","3","6","7","6","7","3","6","7","3","5","2","7","5","5","790355489568464897","刘","542","Male","[""好他"",""坏我"",""好我"",""坏他""]","[""强他"",""弱我"",""强我"",""弱他""]","","","","","","","","nonmatch","","","","","","","","","","key","j","16.664646464646346","640","356","f","false","match","img/square.png","弱我","弱我","prac_ALT2_ability","practice_ability","","","","","","","","",""
"null","<span style='color:red; font-size: 70px;'>错误! </span>","null","html-keyboard-response","21","269980","0.0-8.0-1.0-1.0-0.0-1.5","5","4","5","3","3","4","3","5","4","5","4","0","1","1","0","0","2","1","0","4","5","5","2","3","4","4","5","4","5","6","8","7","9","8","8","6","8","9","6","6","5","6","7","6","5","6","6","7","1","5","5","6","5","5","5","6","6","5","7","5","5","3","7","5","6","3","6","7","6","7","3","6","7","3","5","2","7","5","5","790355489568464897","刘","542","Male","[""好他"",""坏我"",""好我"",""坏他""]","[""强他"",""弱我"",""强我"",""弱他""]","","","","","","","","","","","","","","","","","","","","","","","","","","","","","","feedback_test","","","","","","","","",""
"773","","j","psychophysics","22","271755","0.0-8.0-1.0-1.0-0.0-0.6","5","4","5","3","3","4","3","5","4","5","4","0","1","1","0","0","2","1","0","4","5","5","2","3","4","4","5","4","5","6","8","7","9","8","8","6","8","9","6","6","5","6","7","6","5","6","6","7","1","5","5","6","5","5","5","6","6","5","7","5","5","3","7","5","6","3","6","7","6","7","3","6","7","3","5","2","7","5","5","790355489568464897","刘","542","Male","[""好他"",""坏我"",""好我"",""坏他""]","[""强他"",""弱我"",""强我"",""弱他""]","","","","","","","","nonmatch","","","","","","","","","","key","j","16.665714285714508","640","356","j","true","nonmatch","img/trapezoid.png","强我","弱他","prac_ALT2_ability","practice_ability","","","","","","","","",""
"null","<span style='color:GreenYellow; font-size: 70px;'>正确! </span>","null","html-keyboard-response","23","272255","0.0-8.0-1.0-1.0-0.0-1.6","5","4","5","3","3","4","3","5","4","5","4","0","1","1","0","0","2","1","0","4","5","5","2","3","4","4","5","4","5","6","8","7","9","8","8","6","8","9","6","6","5","6","7","6","5","6","6","7","1","5","5","6","5","5","5","6","6","5","7","5","5","3","7","5","6","3","6","7","6","7","3","6","7","3","5","2","7","5","5","790355489568464897","刘","542","Male","[""好他"",""坏我"",""好我"",""坏他""]","[""强他"",""弱我"",""强我"",""弱他""]","","","","","","","","","","","","","","","","","","","","","","","","","","","","","","feedback_test","","","","","","","","",""
"1007","","f","psychophysics","24","274264","0.0-8.0-1.0-1.0-0.0-0.7","5","4","5","3","3","4","3","5","4","5","4","0","1","1","0","0","2","1","0","4","5","5","2","3","4","4","5","4","5","6","8","7","9","8","8","6","8","9","6","6","5","6","7","6","5","6","6","7","1","5","5","6","5","5","5","6","6","5","7","5","5","3","7","5","6","3","6","7","6","7","3","6","7","3","5","2","7","5","5","790355489568464897","刘","542","Male","[""好他"",""坏我"",""好我"",""坏他""]","[""强他"",""弱我"",""强我"",""弱他""]","","","","","","","","match","","","","","","","","","","key","f","16.654621848739204","640","356","j","false","nonmatch","img/trapezoid.png","强他","弱他","prac_ALT2_ability","practice_ability","","","","","","","","",""
"null","<span style='color:red; font-size: 70px;'>错误! </span>","null","html-keyboard-response","25","274764","0.0-8.0-1.0-1.0-0.0-1.7","5","4","5","3","3","4","3","5","4","5","4","0","1","1","0","0","2","1","0","4","5","5","2","3","4","4","5","4","5","6","8","7","9","8","8","6","8","9","6","6","5","6","7","6","5","6","6","7","1","5","5","6","5","5","5","6","6","5","7","5","5","3","7","5","6","3","6","7","6","7","3","6","7","3","5","2","7","5","5","790355489568464897","刘","542","Male","[""好他"",""坏我"",""好我"",""坏他""]","[""强他"",""弱我"",""强我"",""弱他""]","","","","","","","","","","","","","","","","","","","","","","","","","","","","","","feedback_test","","","","","","","","",""
"791","","j","psychophysics","26","276557","0.0-8.0-1.0-1.0-0.0-0.8","5","4","5","3","3","4","3","5","4","5","4","0","1","1","0","0","2","1","0","4","5","5","2","3","4","4","5","4","5","6","8","7","9","8","8","6","8","9","6","6","5","6","7","6","5","6","6","7","1","5","5","6","5","5","5","6","6","5","7","5","5","3","7","5","6","3","6","7","6","7","3","6","7","3","5","2","7","5","5","790355489568464897","刘","542","Male","[""好他"",""坏我"",""好我"",""坏他""]","[""强他"",""弱我"",""强我"",""弱他""]","","","","","","","","nonmatch","","","","","","","","","","key","j","16.665420560747773","640","356","j","true","nonmatch","img/pentagon.png","弱我","强我","prac_ALT2_ability","practice_ability","","","","","","","","",""
"null","<span style='color:GreenYellow; font-size: 70px;'>正确! </span>","null","html-keyboard-response","27","277058","0.0-8.0-1.0-1.0-0.0-1.8","5","4","5","3","3","4","3","5","4","5","4","0","1","1","0","0","2","1","0","4","5","5","2","3","4","4","5","4","5","6","8","7","9","8","8","6","8","9","6","6","5","6","7","6","5","6","6","7","1","5","5","6","5","5","5","6","6","5","7","5","5","3","7","5","6","3","6","7","6","7","3","6","7","3","5","2","7","5","5","790355489568464897","刘","542","Male","[""好他"",""坏我"",""好我"",""坏他""]","[""强他"",""弱我"",""强我"",""弱他""]","","","","","","","","","","","","","","","","","","","","","","","","","","","","","","feedback_test","","","","","","","","",""
"758","","f","psychophysics","28","278818","0.0-8.0-1.0-1.0-0.0-0.9","5","4","5","3","3","4","3","5","4","5","4","0","1","1","0","0","2","1","0","4","5","5","2","3","4","4","5","4","5","6","8","7","9","8","8","6","8","9","6","6","5","6","7","6","5","6","6","7","1","5","5","6","5","5","5","6","6","5","7","5","5","3","7","5","6","3","6","7","6","7","3","6","7","3","5","2","7","5","5","790355489568464897","刘","542","Male","[""好他"",""坏我"",""好我"",""坏他""]","[""强他"",""弱我"",""强我"",""弱他""]","","","","","","","","match","","","","","","","","","","key","f","16.66346153846154","640","356","f","true","match","img/trapezoid.png","弱他","弱他","prac_ALT2_ability","practice_ability","","","","","","","","",""
"null","<span style='color:GreenYellow; font-size: 70px;'>正确! </span>","null","html-keyboard-response","29","279332","0.0-8.0-1.0-1.0-0.0-1.9","5","4","5","3","3","4","3","5","4","5","4","0","1","1","0","0","2","1","0","4","5","5","2","3","4","4","5","4","5","6","8","7","9","8","8","6","8","9","6","6","5","6","7","6","5","6","6","7","1","5","5","6","5","5","5","6","6","5","7","5","5","3","7","5","6","3","6","7","6","7","3","6","7","3","5","2","7","5","5","790355489568464897","刘","542","Male","[""好他"",""坏我"",""好我"",""坏他""]","[""强他"",""弱我"",""强我"",""弱他""]","","","","","","","","","","","","","","","","","","","","","","","","","","","","","","feedback_test","","","","","","","","",""
"798","","j","psychophysics","30","281131","0.0-8.0-1.0-1.0-0.0-0.10","5","4","5","3","3","4","3","5","4","5","4","0","1","1","0","0","2","1","0","4","5","5","2","3","4","4","5","4","5","6","8","7","9","8","8","6","8","9","6","6","5","6","7","6","5","6","6","7","1","5","5","6","5","5","5","6","6","5","7","5","5","3","7","5","6","3","6","7","6","7","3","6","7","3","5","2","7","5","5","790355489568464897","刘","542","Male","[""好他"",""坏我"",""好我"",""坏他""]","[""强他"",""弱我"",""强我"",""弱他""]","","","","","","","","nonmatch","","","","","","","","","","key","j","16.664485981308193","640","356","f","false","match","img/pentagon.png","强我","强我","prac_ALT2_ability","practice_ability","","","","","","","","",""
"null","<span style='color:red; font-size: 70px;'>错误! </span>","null","html-keyboard-response","31","281631","0.0-8.0-1.0-1.0-0.0-1.10","5","4","5","3","3","4","3","5","4","5","4","0","1","1","0","0","2","1","0","4","5","5","2","3","4","4","5","4","5","6","8","7","9","8","8","6","8","9","6","6","5","6","7","6","5","6","6","7","1","5","5","6","5","5","5","6","6","5","7","5","5","3","7","5","6","3","6","7","6","7","3","6","7","3","5","2","7","5","5","790355489568464897","刘","542","Male","[""好他"",""坏我"",""好我"",""坏他""]","[""强他"",""弱我"",""强我"",""弱他""]","","","","","","","","","","","","","","","","","","","","","","","","","","","","","","feedback_test","","","","","","","","",""
"416","","f","psychophysics","32","283050","0.0-8.0-1.0-1.0-0.0-0.11","5","4","5","3","3","4","3","5","4","5","4","0","1","1","0","0","2","1","0","4","5","5","2","3","4","4","5","4","5","6","8","7","9","8","8","6","8","9","6","6","5","6","7","6","5","6","6","7","1","5","5","6","5","5","5","6","6","5","7","5","5","3","7","5","6","3","6","7","6","7","3","6","7","3","5","2","7","5","5","790355489568464897","刘","542","Male","[""好他"",""坏我"",""好我"",""坏他""]","[""强他"",""弱我"",""强我"",""弱他""]","","","","","","","","match","","","","","","","","","","key","f","16.66428571428627","640","356","j","false","nonmatch","img/ellipse.png","弱他","强他","prac_ALT2_ability","practice_ability","","","","","","","","",""
"null","<span style='color:red; font-size: 70px;'>错误! </span>","null","html-keyboard-response","33","283551","0.0-8.0-1.0-1.0-0.0-1.11","5","4","5","3","3","4","3","5","4","5","4","0","1","1","0","0","2","1","0","4","5","5","2","3","4","4","5","4","5","6","8","7","9","8","8","6","8","9","6","6","5","6","7","6","5","6","6","7","1","5","5","6","5","5","5","6","6","5","7","5","5","3","7","5","6","3","6","7","6","7","3","6","7","3","5","2","7","5","5","790355489568464897","刘","542","Male","[""好他"",""坏我"",""好我"",""坏他""]","[""强他"",""弱我"",""强我"",""弱他""]","","","","","","","","","","","","","","","","","","","","","","","","","","","","","","feedback_test","","","","","","","","",""
"265","","j","psychophysics","34","284817","0.0-8.0-1.0-1.0-0.0-0.12","5","4","5","3","3","4","3","5","4","5","4","0","1","1","0","0","2","1","0","4","5","5","2","3","4","4","5","4","5","6","8","7","9","8","8","6","8","9","6","6","5","6","7","6","5","6","6","7","1","5","5","6","5","5","5","6","6","5","7","5","5","3","7","5","6","3","6","7","6","7","3","6","7","3","5","2","7","5","5","790355489568464897","刘","542","Male","[""好他"",""坏我"",""好我"",""坏他""]","[""强他"",""弱我"",""强我"",""弱他""]","","","","","","","","nonmatch","","","","","","","","","","key","j","16.665333333333646","640","356","f","false","match","img/trapezoid.png","弱他","弱他","prac_ALT2_ability","practice_ability","","","","","","","","",""
"null","<span style='color:red; font-size: 70px;'>错误! </span>","null","html-keyboard-response","35","285318","0.0-8.0-1.0-1.0-0.0-1.12","5","4","5","3","3","4","3","5","4","5","4","0","1","1","0","0","2","1","0","4","5","5","2","3","4","4","5","4","5","6","8","7","9","8","8","6","8","9","6","6","5","6","7","6","5","6","6","7","1","5","5","6","5","5","5","6","6","5","7","5","5","3","7","5","6","3","6","7","6","7","3","6","7","3","5","2","7","5","5","790355489568464897","刘","542","Male","[""好他"",""坏我"",""好我"",""坏他""]","[""强他"",""弱我"",""强我"",""弱他""]","","","","","","","","","","","","","","","","","","","","","","","","","","","","","","feedback_test","","","","","","","","",""
"234","","f","psychophysics","36","286553","0.0-8.0-1.0-1.0-0.0-0.13","5","4","5","3","3","4","3","5","4","5","4","0","1","1","0","0","2","1","0","4","5","5","2","3","4","4","5","4","5","6","8","7","9","8","8","6","8","9","6","6","5","6","7","6","5","6","6","7","1","5","5","6","5","5","5","6","6","5","7","5","5","3","7","5","6","3","6","7","6","7","3","6","7","3","5","2","7","5","5","790355489568464897","刘","542","Male","[""好他"",""坏我"",""好我"",""坏他""]","[""强他"",""弱我"",""强我"",""弱他""]","","","","","","","","match","","","","","","","","","","key","f","16.66712328767139","640","356","j","false","nonmatch","img/pentagon.png","强他","强我","prac_ALT2_ability","practice_ability","","","","","","","","",""
"null","<span style='color:red; font-size: 70px;'>错误! </span>","null","html-keyboard-response","37","287054","0.0-8.0-1.0-1.0-0.0-1.13","5","4","5","3","3","4","3","5","4","5","4","0","1","1","0","0","2","1","0","4","5","5","2","3","4","4","5","4","5","6","8","7","9","8","8","6","8","9","6","6","5","6","7","6","5","6","6","7","1","5","5","6","5","5","5","6","6","5","7","5","5","3","7","5","6","3","6","7","6","7","3","6","7","3","5","2","7","5","5","790355489568464897","刘","542","Male","[""好他"",""坏我"",""好我"",""坏他""]","[""强他"",""弱我"",""强我"",""弱他""]","","","","","","","","","","","","","","","","","","","","","","","","","","","","","","feedback_test","","","","","","","","",""
"367","","j","psychophysics","38","288422","0.0-8.0-1.0-1.0-0.0-0.14","5","4","5","3","3","4","3","5","4","5","4","0","1","1","0","0","2","1","0","4","5","5","2","3","4","4","5","4","5","6","8","7","9","8","8","6","8","9","6","6","5","6","7","6","5","6","6","7","1","5","5","6","5","5","5","6","6","5","7","5","5","3","7","5","6","3","6","7","6","7","3","6","7","3","5","2","7","5","5","790355489568464897","刘","542","Male","[""好他"",""坏我"",""好我"",""坏他""]","[""强他"",""弱我"",""强我"",""弱他""]","","","","","","","","nonmatch","","","","","","","","","","key","j","16.664197530864055","640","356","f","false","match","img/trapezoid.png","弱他","弱他","prac_ALT2_ability","practice_ability","","","","","","","","",""
"null","<span style='color:red; font-size: 70px;'>错误! </span>","null","html-keyboard-response","39","288928","0.0-8.0-1.0-1.0-0.0-1.14","5","4","5","3","3","4","3","5","4","5","4","0","1","1","0","0","2","1","0","4","5","5","2","3","4","4","5","4","5","6","8","7","9","8","8","6","8","9","6","6","5","6","7","6","5","6","6","7","1","5","5","6","5","5","5","6","6","5","7","5","5","3","7","5","6","3","6","7","6","7","3","6","7","3","5","2","7","5","5","790355489568464897","刘","542","Male","[""好他"",""坏我"",""好我"",""坏他""]","[""强他"",""弱我"",""强我"",""弱他""]","","","","","","","","","","","","","","","","","","","","","","","","","","","","","","feedback_test","","","","","","","","",""
"null","","null","psychophysics","40","291132","0.0-8.0-1.0-1.0-0.0-0.15","5","4","5","3","3","4","3","5","4","5","4","0","1","1","0","0","2","1","0","4","5","5","2","3","4","4","5","4","5","6","8","7","9","8","8","6","8","9","6","6","5","6","7","6","5","6","6","7","1","5","5","6","5","5","5","6","6","5","7","5","5","3","7","5","6","3","6","7","6","7","3","6","7","3","5","2","7","5","5","790355489568464897","刘","542","Male","[""好他"",""坏我"",""好我"",""坏他""]","[""强他"",""弱我"",""强我"",""弱他""]","","","","","","","","null","","","","","","","","","","key","null","16.666412213740813","640","356","f","false","match","img/square.png","弱我","弱我","prac_ALT2_ability","practice_ability","","","","","","","","",""
"null","<span class='add_' style='color:yellow; font-size: 70px;'> 太慢! </span>","null","html-keyboard-response","41","291634","0.0-8.0-1.0-1.0-0.0-1.15","5","4","5","3","3","4","3","5","4","5","4","0","1","1","0","0","2","1","0","4","5","5","2","3","4","4","5","4","5","6","8","7","9","8","8","6","8","9","6","6","5","6","7","6","5","6","6","7","1","5","5","6","5","5","5","6","6","5","7","5","5","3","7","5","6","3","6","7","6","7","3","6","7","3","5","2","7","5","5","790355489568464897","刘","542","Male","[""好他"",""坏我"",""好我"",""坏他""]","[""强他"",""弱我"",""强我"",""弱他""]","","","","","","","","","","","","","","","","","","","","","","","","","","","","","","feedback_test","","","","","","","","",""
"null","","null","psychophysics","42","293837","0.0-8.0-1.0-1.0-0.0-0.16","5","4","5","3","3","4","3","5","4","5","4","0","1","1","0","0","2","1","0","4","5","5","2","3","4","4","5","4","5","6","8","7","9","8","8","6","8","9","6","6","5","6","7","6","5","6","6","7","1","5","5","6","5","5","5","6","6","5","7","5","5","3","7","5","6","3","6","7","6","7","3","6","7","3","5","2","7","5","5","790355489568464897","刘","542","Male","[""好他"",""坏我"",""好我"",""坏他""]","[""强他"",""弱我"",""强我"",""弱他""]","","","","","","","","null","","","","","","","","","","key","null","16.665648854961923","640","356","j","false","nonmatch","img/square.png","强他","弱我","prac_ALT2_ability","practice_ability","","","","","","","","",""
"null","<span class='add_' style='color:yellow; font-size: 70px;'> 太慢! </span>","null","html-keyboard-response","43","294338","0.0-8.0-1.0-1.0-0.0-1.16","5","4","5","3","3","4","3","5","4","5","4","0","1","1","0","0","2","1","0","4","5","5","2","3","4","4","5","4","5","6","8","7","9","8","8","6","8","9","6","6","5","6","7","6","5","6","6","7","1","5","5","6","5","5","5","6","6","5","7","5","5","3","7","5","6","3","6","7","6","7","3","6","7","3","5","2","7","5","5","790355489568464897","刘","542","Male","[""好他"",""坏我"",""好我"",""坏他""]","[""强他"",""弱我"",""强我"",""弱他""]","","","","","","","","","","","","","","","","","","","","","","","","","","","","","","feedback_test","","","","","","","","",""
"590","","j","psychophysics","44","295929","0.0-8.0-1.0-1.0-0.0-0.17","5","4","5","3","3","4","3","5","4","5","4","0","1","1","0","0","2","1","0","4","5","5","2","3","4","4","5","4","5","6","8","7","9","8","8","6","8","9","6","6","5","6","7","6","5","6","6","7","1","5","5","6","5","5","5","6","6","5","7","5","5","3","7","5","6","3","6","7","6","7","3","6","7","3","5","2","7","5","5","790355489568464897","刘","542","Male","[""好他"",""坏我"",""好我"",""坏他""]","[""强他"",""弱我"",""强我"",""弱他""]","","","","","","","","nonmatch","","","","","","","","","","key","j","16.66382978723367","640","356","f","false","match","img/ellipse.png","强他","强他","prac_ALT2_ability","practice_ability","","","","","","","","",""
"null","<span style='color:red; font-size: 70px;'>错误! </span>","null","html-keyboard-response","45","296431","0.0-8.0-1.0-1.0-0.0-1.17","5","4","5","3","3","4","3","5","4","5","4","0","1","1","0","0","2","1","0","4","5","5","2","3","4","4","5","4","5","6","8","7","9","8","8","6","8","9","6","6","5","6","7","6","5","6","6","7","1","5","5","6","5","5","5","6","6","5","7","5","5","3","7","5","6","3","6","7","6","7","3","6","7","3","5","2","7","5","5","790355489568464897","刘","542","Male","[""好他"",""坏我"",""好我"",""坏他""]","[""强他"",""弱我"",""强我"",""弱他""]","","","","","","","","","","","","","","","","","","","","","","","","","","","","","","feedback_test","","","","","","","","",""
"961","","j","psychophysics","46","298393","0.0-8.0-1.0-1.0-0.0-0.18","5","4","5","3","3","4","3","5","4","5","4","0","1","1","0","0","2","1","0","4","5","5","2","3","4","4","5","4","5","6","8","7","9","8","8","6","8","9","6","6","5","6","7","6","5","6","6","7","1","5","5","6","5","5","5","6","6","5","7","5","5","3","7","5","6","3","6","7","6","7","3","6","7","3","5","2","7","5","5","790355489568464897","刘","542","Male","[""好他"",""坏我"",""好我"",""坏他""]","[""强他"",""弱我"",""强我"",""弱他""]","","","","","","","","nonmatch","","","","","","","","","","key","j","16.664957264957167","640","356","f","false","match","img/pentagon.png","强我","强我","prac_ALT2_ability","practice_ability","","","","","","","","",""
"null","<span style='color:red; font-size: 70px;'>错误! </span>","null","html-keyboard-response","47","298895","0.0-8.0-1.0-1.0-0.0-1.18","5","4","5","3","3","4","3","5","4","5","4","0","1","1","0","0","2","1","0","4","5","5","2","3","4","4","5","4","5","6","8","7","9","8","8","6","8","9","6","6","5","6","7","6","5","6","6","7","1","5","5","6","5","5","5","6","6","5","7","5","5","3","7","5","6","3","6","7","6","7","3","6","7","3","5","2","7","5","5","790355489568464897","刘","542","Male","[""好他"",""坏我"",""好我"",""坏他""]","[""强他"",""弱我"",""强我"",""弱他""]","","","","","","","","","","","","","","","","","","","","","","","","","","","","","","feedback_test","","","","","","","","",""
"1031","","f","psychophysics","48","300927","0.0-8.0-1.0-1.0-0.0-0.19","5","4","5","3","3","4","3","5","4","5","4","0","1","1","0","0","2","1","0","4","5","5","2","3","4","4","5","4","5","6","8","7","9","8","8","6","8","9","6","6","5","6","7","6","5","6","6","7","1","5","5","6","5","5","5","6","6","5","7","5","5","3","7","5","6","3","6","7","6","7","3","6","7","3","5","2","7","5","5","790355489568464897","刘","542","Male","[""好他"",""坏我"",""好我"",""坏他""]","[""强他"",""弱我"",""强我"",""弱他""]","","","","","","","","match","","","","","","","","","","key","f","16.665289256198346","640","356","f","true","match","img/square.png","弱我","弱我","prac_ALT2_ability","practice_ability","","","","","","","","",""
"null","<span style='color:GreenYellow; font-size: 70px;'>正确! </span>","null","html-keyboard-response","49","301428","0.0-8.0-1.0-1.0-0.0-1.19","5","4","5","3","3","4","3","5","4","5","4","0","1","1","0","0","2","1","0","4","5","5","2","3","4","4","5","4","5","6","8","7","9","8","8","6","8","9","6","6","5","6","7","6","5","6","6","7","1","5","5","6","5","5","5","6","6","5","7","5","5","3","7","5","6","3","6","7","6","7","3","6","7","3","5","2","7","5","5","790355489568464897","刘","542","Male","[""好他"",""坏我"",""好我"",""坏他""]","[""强他"",""弱我"",""强我"",""弱他""]","","","","","","","","","","","","","","","","","","","","","","","","","","","","","","feedback_test","","","","","","","","",""
"272","","f","psychophysics","50","302701","0.0-8.0-1.0-1.0-0.0-0.20","5","4","5","3","3","4","3","5","4","5","4","0","1","1","0","0","2","1","0","4","5","5","2","3","4","4","5","4","5","6","8","7","9","8","8","6","8","9","6","6","5","6","7","6","5","6","6","7","1","5","5","6","5","5","5","6","6","5","7","5","5","3","7","5","6","3","6","7","6","7","3","6","7","3","5","2","7","5","5","790355489568464897","刘","542","Male","[""好他"",""坏我"",""好我"",""坏他""]","[""强他"",""弱我"",""强我"",""弱他""]","","","","","","","","match","","","","","","","","","","key","f","16.666666666666668","640","356","j","false","nonmatch","img/square.png","强我","弱我","prac_ALT2_ability","practice_ability","","","","","","","","",""
"null","<span style='color:red; font-size: 70px;'>错误! </span>","null","html-keyboard-response","51","303204","0.0-8.0-1.0-1.0-0.0-1.20","5","4","5","3","3","4","3","5","4","5","4","0","1","1","0","0","2","1","0","4","5","5","2","3","4","4","5","4","5","6","8","7","9","8","8","6","8","9","6","6","5","6","7","6","5","6","6","7","1","5","5","6","5","5","5","6","6","5","7","5","5","3","7","5","6","3","6","7","6","7","3","6","7","3","5","2","7","5","5","790355489568464897","刘","542","Male","[""好他"",""坏我"",""好我"",""坏他""]","[""强他"",""弱我"",""强我"",""弱他""]","","","","","","","","","","","","","","","","","","","","","","","","","","","","","","feedback_test","","","","","","","","",""
"171","","j","psychophysics","52","304376","0.0-8.0-1.0-1.0-0.0-0.21","5","4","5","3","3","4","3","5","4","5","4","0","1","1","0","0","2","1","0","4","5","5","2","3","4","4","5","4","5","6","8","7","9","8","8","6","8","9","6","6","5","6","7","6","5","6","6","7","1","5","5","6","5","5","5","6","6","5","7","5","5","3","7","5","6","3","6","7","6","7","3","6","7","3","5","2","7","5","5","790355489568464897","刘","542","Male","[""好他"",""坏我"",""好我"",""坏他""]","[""强他"",""弱我"",""强我"",""弱他""]","","","","","","","","nonmatch","","","","","","","","","","key","j","16.66376811594186","640","356","j","true","nonmatch","img/ellipse.png","弱我","强他","prac_ALT2_ability","practice_ability","","","","","","","","",""
"null","<span style='color:yellow; font-size: 70px;'>过快! </span>","null","html-keyboard-response","53","304878","0.0-8.0-1.0-1.0-0.0-1.21","5","4","5","3","3","4","3","5","4","5","4","0","1","1","0","0","2","1","0","4","5","5","2","3","4","4","5","4","5","6","8","7","9","8","8","6","8","9","6","6","5","6","7","6","5","6","6","7","1","5","5","6","5","5","5","6","6","5","7","5","5","3","7","5","6","3","6","7","6","7","3","6","7","3","5","2","7","5","5","790355489568464897","刘","542","Male","[""好他"",""坏我"",""好我"",""坏他""]","[""强他"",""弱我"",""强我"",""弱他""]","","","","","","","","","","","","","","","","","","","","","","","","","","","","","","feedback_test","","","","","","","","",""
"null","","null","psychophysics","54","307080","0.0-8.0-1.0-1.0-0.0-0.22","5","4","5","3","3","4","3","5","4","5","4","0","1","1","0","0","2","1","0","4","5","5","2","3","4","4","5","4","5","6","8","7","9","8","8","6","8","9","6","6","5","6","7","6","5","6","6","7","1","5","5","6","5","5","5","6","6","5","7","5","5","3","7","5","6","3","6","7","6","7","3","6","7","3","5","2","7","5","5","790355489568464897","刘","542","Male","[""好他"",""坏我"",""好我"",""坏他""]","[""强他"",""弱我"",""强我"",""弱他""]","","","","","","","","null","","","","","","","","","","key","null","16.66488549618303","640","356","j","false","nonmatch","img/square.png","弱他","弱我","prac_ALT2_ability","practice_ability","","","","","","","","",""
"null","<span class='add_' style='color:yellow; font-size: 70px;'> 太慢! </span>","null","html-keyboard-response","55","307582","0.0-8.0-1.0-1.0-0.0-1.22","5","4","5","3","3","4","3","5","4","5","4","0","1","1","0","0","2","1","0","4","5","5","2","3","4","4","5","4","5","6","8","7","9","8","8","6","8","9","6","6","5","6","7","6","5","6","6","7","1","5","5","6","5","5","5","6","6","5","7","5","5","3","7","5","6","3","6","7","6","7","3","6","7","3","5","2","7","5","5","790355489568464897","刘","542","Male","[""好他"",""坏我"",""好我"",""坏他""]","[""强他"",""弱我"",""强我"",""弱他""]","","","","","","","","","","","","","","","","","","","","","","","","","","","","","","feedback_test","","","","","","","","",""
"939","","f","psychophysics","56","309522","0.0-8.0-1.0-1.0-0.0-0.23","5","4","5","3","3","4","3","5","4","5","4","0","1","1","0","0","2","1","0","4","5","5","2","3","4","4","5","4","5","6","8","7","9","8","8","6","8","9","6","6","5","6","7","6","5","6","6","7","1","5","5","6","5","5","5","6","6","5","7","5","5","3","7","5","6","3","6","7","6","7","3","6","7","3","5","2","7","5","5","790355489568464897","刘","542","Male","[""好他"",""坏我"",""好我"",""坏他""]","[""强他"",""弱我"",""强我"",""弱他""]","","","","","","","","match","","","","","","","","","","key","f","16.664655172414093","640","356","j","false","nonmatch","img/trapezoid.png","弱我","弱他","prac_ALT2_ability","practice_ability","","","","","","","","",""
"null","<span style='color:red; font-size: 70px;'>错误! </span>","null","html-keyboard-response","57","310023","0.0-8.0-1.0-1.0-0.0-1.23","5","4","5","3","3","4","3","5","4","5","4","0","1","1","0","0","2","1","0","4","5","5","2","3","4","4","5","4","5","6","8","7","9","8","8","6","8","9","6","6","5","6","7","6","5","6","6","7","1","5","5","6","5","5","5","6","6","5","7","5","5","3","7","5","6","3","6","7","6","7","3","6","7","3","5","2","7","5","5","790355489568464897","刘","542","Male","[""好他"",""坏我"",""好我"",""坏他""]","[""强他"",""弱我"",""强我"",""弱他""]","","","","","","","","","","","","","","","","","","","","","","","","","","","","","","feedback_test","","","","","","","","",""
"null","","null","psychophysics","58","312226","0.0-8.0-1.0-1.0-0.0-0.24","5","4","5","3","3","4","3","5","4","5","4","0","1","1","0","0","2","1","0","4","5","5","2","3","4","4","5","4","5","6","8","7","9","8","8","6","8","9","6","6","5","6","7","6","5","6","6","7","1","5","5","6","5","5","5","6","6","5","7","5","5","3","7","5","6","3","6","7","6","7","3","6","7","3","5","2","7","5","5","790355489568464897","刘","542","Male","[""好他"",""坏我"",""好我"",""坏他""]","[""强他"",""弱我"",""强我"",""弱他""]","","","","","","","","null","","","","","","","","","","key","null","16.665648854961923","640","356","f","false","match","img/square.png","弱我","弱我","prac_ALT2_ability","practice_ability","","","","","","","","",""
"null","<span class='add_' style='color:yellow; font-size: 70px;'> 太慢! </span>","null","html-keyboard-response","59","312727","0.0-8.0-1.0-1.0-0.0-1.24","5","4","5","3","3","4","3","5","4","5","4","0","1","1","0","0","2","1","0","4","5","5","2","3","4","4","5","4","5","6","8","7","9","8","8","6","8","9","6","6","5","6","7","6","5","6","6","7","1","5","5","6","5","5","5","6","6","5","7","5","5","3","7","5","6","3","6","7","6","7","3","6","7","3","5","2","7","5","5","790355489568464897","刘","542","Male","[""好他"",""坏我"",""好我"",""坏他""]","[""强他"",""弱我"",""强我"",""弱他""]","","","","","","","","","","","","","","","","","","","","","","","","","","","","","","feedback_test","","","","","","","","",""
"908","","j","psychophysics","60","314637","0.0-8.0-1.0-1.0-0.0-0.25","5","4","5","3","3","4","3","5","4","5","4","0","1","1","0","0","2","1","0","4","5","5","2","3","4","4","5","4","5","6","8","7","9","8","8","6","8","9","6","6","5","6","7","6","5","6","6","7","1","5","5","6","5","5","5","6","6","5","7","5","5","3","7","5","6","3","6","7","6","7","3","6","7","3","5","2","7","5","5","790355489568464897","刘","542","Male","[""好他"",""坏我"",""好我"",""坏他""]","[""强他"",""弱我"",""强我"",""弱他""]","","","","","","","","nonmatch","","","","","","","","","","key","j","16.665789473684416","640","356","f","false","match","img/pentagon.png","强我","强我","prac_ALT2_ability","practice_ability","","","","","","","","",""
"null","<span style='color:red; font-size: 70px;'>错误! </span>","null","html-keyboard-response","61","315137","0.0-8.0-1.0-1.0-0.0-1.25","5","4","5","3","3","4","3","5","4","5","4","0","1","1","0","0","2","1","0","4","5","5","2","3","4","4","5","4","5","6","8","7","9","8","8","6","8","9","6","6","5","6","7","6","5","6","6","7","1","5","5","6","5","5","5","6","6","5","7","5","5","3","7","5","6","3","6","7","6","7","3","6","7","3","5","2","7","5","5","790355489568464897","刘","542","Male","[""好他"",""坏我"",""好我"",""坏他""]","[""强他"",""弱我"",""强我"",""弱他""]","","","","","","","","","","","","","","","","","","","","","","","","","","","","","","feedback_test","","","","","","","","",""
"null","","null","psychophysics","62","317339","0.0-8.0-1.0-1.0-0.0-0.26","5","4","5","3","3","4","3","5","4","5","4","0","1","1","0","0","2","1","0","4","5","5","2","3","4","4","5","4","5","6","8","7","9","8","8","6","8","9","6","6","5","6","7","6","5","6","6","7","1","5","5","6","5","5","5","6","6","5","7","5","5","3","7","5","6","3","6","7","6","7","3","6","7","3","5","2","7","5","5","790355489568464897","刘","542","Male","[""好他"",""坏我"",""好我"",""坏他""]","[""强他"",""弱我"",""强我"",""弱他""]","","","","","","","","null","","","","","","","","","","key","null","16.66412213740458","640","356","f","false","match","img/square.png","弱我","弱我","prac_ALT2_ability","practice_ability","","","","","","","","",""
"null","<span class='add_' style='color:yellow; font-size: 70px;'> 太慢! </span>","null","html-keyboard-response","63","317842","0.0-8.0-1.0-1.0-0.0-1.26","5","4","5","3","3","4","3","5","4","5","4","0","1","1","0","0","2","1","0","4","5","5","2","3","4","4","5","4","5","6","8","7","9","8","8","6","8","9","6","6","5","6","7","6","5","6","6","7","1","5","5","6","5","5","5","6","6","5","7","5","5","3","7","5","6","3","6","7","6","7","3","6","7","3","5","2","7","5","5","790355489568464897","刘","542","Male","[""好他"",""坏我"",""好我"",""坏他""]","[""强他"",""弱我"",""强我"",""弱他""]","","","","","","","","","","","","","","","","","","","","","","","","","","","","","","feedback_test","","","","","","","","",""
"994","","f","psychophysics","64","319838","0.0-8.0-1.0-1.0-0.0-0.27","5","4","5","3","3","4","3","5","4","5","4","0","1","1","0","0","2","1","0","4","5","5","2","3","4","4","5","4","5","6","8","7","9","8","8","6","8","9","6","6","5","6","7","6","5","6","6","7","1","5","5","6","5","5","5","6","6","5","7","5","5","3","7","5","6","3","6","7","6","7","3","6","7","3","5","2","7","5","5","790355489568464897","刘","542","Male","[""好他"",""坏我"",""好我"",""坏他""]","[""强他"",""弱我"",""强我"",""弱他""]","","","","","","","","match","","","","","","","","","","key","f","16.66386554621849","640","356","f","true","match","img/trapezoid.png","弱他","弱他","prac_ALT2_ability","practice_ability","","","","","","","","",""
"null","<span style='color:GreenYellow; font-size: 70px;'>正确! </span>","null","html-keyboard-response","65","320339","0.0-8.0-1.0-1.0-0.0-1.27","5","4","5","3","3","4","3","5","4","5","4","0","1","1","0","0","2","1","0","4","5","5","2","3","4","4","5","4","5","6","8","7","9","8","8","6","8","9","6","6","5","6","7","6","5","6","6","7","1","5","5","6","5","5","5","6","6","5","7","5","5","3","7","5","6","3","6","7","6","7","3","6","7","3","5","2","7","5","5","790355489568464897","刘","542","Male","[""好他"",""坏我"",""好我"",""坏他""]","[""强他"",""弱我"",""强我"",""弱他""]","","","","","","","","","","","","","","","","","","","","","","","","","","","","","","feedback_test","","","","","","","","",""
"1057","","f","psychophysics","66","322397","0.0-8.0-1.0-1.0-0.0-0.28","5","4","5","3","3","4","3","5","4","5","4","0","1","1","0","0","2","1","0","4","5","5","2","3","4","4","5","4","5","6","8","7","9","8","8","6","8","9","6","6","5","6","7","6","5","6","6","7","1","5","5","6","5","5","5","6","6","5","7","5","5","3","7","5","6","3","6","7","6","7","3","6","7","3","5","2","7","5","5","790355489568464897","刘","542","Male","[""好他"",""坏我"",""好我"",""坏他""]","[""强他"",""弱我"",""强我"",""弱他""]","","","","","","","","match","","","","","","","","","","key","f","16.66475409836094","640","356","f","true","match","img/square.png","弱我","弱我","prac_ALT2_ability","practice_ability","","","","","","","","",""
"null","<span style='color:GreenYellow; font-size: 70px;'>正确! </span>","null","html-keyboard-response","67","322898","0.0-8.0-1.0-1.0-0.0-1.28","5","4","5","3","3","4","3","5","4","5","4","0","1","1","0","0","2","1","0","4","5","5","2","3","4","4","5","4","5","6","8","7","9","8","8","6","8","9","6","6","5","6","7","6","5","6","6","7","1","5","5","6","5","5","5","6","6","5","7","5","5","3","7","5","6","3","6","7","6","7","3","6","7","3","5","2","7","5","5","790355489568464897","刘","542","Male","[""好他"",""坏我"",""好我"",""坏他""]","[""强他"",""弱我"",""强我"",""弱他""]","","","","","","","","","","","","","","","","","","","","","","","","","","","","","","feedback_test","","","","","","","","",""
"841","","j","psychophysics","68","324740","0.0-8.0-1.0-1.0-0.0-0.29","5","4","5","3","3","4","3","5","4","5","4","0","1","1","0","0","2","1","0","4","5","5","2","3","4","4","5","4","5","6","8","7","9","8","8","6","8","9","6","6","5","6","7","6","5","6","6","7","1","5","5","6","5","5","5","6","6","5","7","5","5","3","7","5","6","3","6","7","6","7","3","6","7","3","5","2","7","5","5","790355489568464897","刘","542","Male","[""好他"",""坏我"",""好我"",""坏他""]","[""强他"",""弱我"",""强我"",""弱他""]","","","","","","","","nonmatch","","","","","","","","","","key","j","16.66545454545412","640","356","j","true","nonmatch","img/pentagon.png","弱他","强我","prac_ALT2_ability","practice_ability","","","","","","","","",""
"null","<span style='color:GreenYellow; font-size: 70px;'>正确! </span>","null","html-keyboard-response","69","325241","0.0-8.0-1.0-1.0-0.0-1.29","5","4","5","3","3","4","3","5","4","5","4","0","1","1","0","0","2","1","0","4","5","5","2","3","4","4","5","4","5","6","8","7","9","8","8","6","8","9","6","6","5","6","7","6","5","6","6","7","1","5","5","6","5","5","5","6","6","5","7","5","5","3","7","5","6","3","6","7","6","7","3","6","7","3","5","2","7","5","5","790355489568464897","刘","542","Male","[""好他"",""坏我"",""好我"",""坏他""]","[""强他"",""弱我"",""强我"",""弱他""]","","","","","","","","","","","","","","","","","","","","","","","","","","","","","","feedback_test","","","","","","","","",""
"758","","f","psychophysics","70","327000","0.0-8.0-1.0-1.0-0.0-0.30","5","4","5","3","3","4","3","5","4","5","4","0","1","1","0","0","2","1","0","4","5","5","2","3","4","4","5","4","5","6","8","7","9","8","8","6","8","9","6","6","5","6","7","6","5","6","6","7","1","5","5","6","5","5","5","6","6","5","7","5","5","3","7","5","6","3","6","7","6","7","3","6","7","3","5","2","7","5","5","790355489568464897","刘","542","Male","[""好他"",""坏我"",""好我"",""坏他""]","[""强他"",""弱我"",""强我"",""弱他""]","","","","","","","","match","","","","","","","","","","key","f","16.665714285713953","640","356","f","true","match","img/pentagon.png","强我","强我","prac_ALT2_ability","practice_ability","","","","","","","","",""
"null","<span style='color:GreenYellow; font-size: 70px;'>正确! </span>","null","html-keyboard-response","71","327502","0.0-8.0-1.0-1.0-0.0-1.30","5","4","5","3","3","4","3","5","4","5","4","0","1","1","0","0","2","1","0","4","5","5","2","3","4","4","5","4","5","6","8","7","9","8","8","6","8","9","6","6","5","6","7","6","5","6","6","7","1","5","5","6","5","5","5","6","6","5","7","5","5","3","7","5","6","3","6","7","6","7","3","6","7","3","5","2","7","5","5","790355489568464897","刘","542","Male","[""好他"",""坏我"",""好我"",""坏他""]","[""强他"",""弱我"",""强我"",""弱他""]","","","","","","","","","","","","","","","","","","","","","","","","","","","","","","feedback_test","","","","","","","","",""
"866","","j","psychophysics","72","329370","0.0-8.0-1.0-1.0-0.0-0.31","5","4","5","3","3","4","3","5","4","5","4","0","1","1","0","0","2","1","0","4","5","5","2","3","4","4","5","4","5","6","8","7","9","8","8","6","8","9","6","6","5","6","7","6","5","6","6","7","1","5","5","6","5","5","5","6","6","5","7","5","5","3","7","5","6","3","6","7","6","7","3","6","7","3","5","2","7","5","5","790355489568464897","刘","542","Male","[""好他"",""坏我"",""好我"",""坏他""]","[""强他"",""弱我"",""强我"",""弱他""]","","","","","","","","nonmatch","","","","","","","","","","key","j","16.66396396396407","640","356","j","true","nonmatch","img/square.png","强我","弱我","prac_ALT2_ability","practice_ability","","","","","","","","",""
"null","<span style='color:GreenYellow; font-size: 70px;'>正确! </span>","null","html-keyboard-response","73","329871","0.0-8.0-1.0-1.0-0.0-1.31","5","4","5","3","3","4","3","5","4","5","4","0","1","1","0","0","2","1","0","4","5","5","2","3","4","4","5","4","5","6","8","7","9","8","8","6","8","9","6","6","5","6","7","6","5","6","6","7","1","5","5","6","5","5","5","6","6","5","7","5","5","3","7","5","6","3","6","7","6","7","3","6","7","3","5","2","7","5","5","790355489568464897","刘","542","Male","[""好他"",""坏我"",""好我"",""坏他""]","[""强他"",""弱我"",""强我"",""弱他""]","","","","","","","","","","","","","","","","","","","","","","","","","","","","","","feedback_test","","","","","","","","",""
"724","","j","psychophysics","74","331597","0.0-8.0-1.0-1.0-0.0-0.32","5","4","5","3","3","4","3","5","4","5","4","0","1","1","0","0","2","1","0","4","5","5","2","3","4","4","5","4","5","6","8","7","9","8","8","6","8","9","6","6","5","6","7","6","5","6","6","7","1","5","5","6","5","5","5","6","6","5","7","5","5","3","7","5","6","3","6","7","6","7","3","6","7","3","5","2","7","5","5","790355489568464897","刘","542","Male","[""好他"",""坏我"",""好我"",""坏他""]","[""强他"",""弱我"",""强我"",""弱他""]","","","","","","","","nonmatch","","","","","","","","","","key","j","16.662745098039558","640","356","j","true","nonmatch","img/trapezoid.png","强我","弱他","prac_ALT2_ability","practice_ability","","","","","","","","",""
"null","<span style='color:GreenYellow; font-size: 70px;'>正确! </span>","null","html-keyboard-response","75","332098","0.0-8.0-1.0-1.0-0.0-1.32","5","4","5","3","3","4","3","5","4","5","4","0","1","1","0","0","2","1","0","4","5","5","2","3","4","4","5","4","5","6","8","7","9","8","8","6","8","9","6","6","5","6","7","6","5","6","6","7","1","5","5","6","5","5","5","6","6","5","7","5","5","3","7","5","6","3","6","7","6","7","3","6","7","3","5","2","7","5","5","790355489568464897","刘","542","Male","[""好他"",""坏我"",""好我"",""坏他""]","[""强他"",""弱我"",""强我"",""弱他""]","","","","","","","","","","","","","","","","","","","","","","","","","","","","","","feedback_test","","","","","","","","",""
"770","","f","psychophysics","76","333870","0.0-8.0-1.0-1.0-0.0-0.33","5","4","5","3","3","4","3","5","4","5","4","0","1","1","0","0","2","1","0","4","5","5","2","3","4","4","5","4","5","6","8","7","9","8","8","6","8","9","6","6","5","6","7","6","5","6","6","7","1","5","5","6","5","5","5","6","6","5","7","5","5","3","7","5","6","3","6","7","6","7","3","6","7","3","5","2","7","5","5","790355489568464897","刘","542","Male","[""好他"",""坏我"",""好我"",""坏他""]","[""强他"",""弱我"",""强我"",""弱他""]","","","","","","","","match","","","","","","","","","","key","f","16.663809523809636","640","356","j","false","nonmatch","img/square.png","强他","弱我","prac_ALT2_ability","practice_ability","","","","","","","","",""
"null","<span style='color:red; font-size: 70px;'>错误! </span>","null","html-keyboard-response","77","334372","0.0-8.0-1.0-1.0-0.0-1.33","5","4","5","3","3","4","3","5","4","5","4","0","1","1","0","0","2","1","0","4","5","5","2","3","4","4","5","4","5","6","8","7","9","8","8","6","8","9","6","6","5","6","7","6","5","6","6","7","1","5","5","6","5","5","5","6","6","5","7","5","5","3","7","5","6","3","6","7","6","7","3","6","7","3","5","2","7","5","5","790355489568464897","刘","542","Male","[""好他"",""坏我"",""好我"",""坏他""]","[""强他"",""弱我"",""强我"",""弱他""]","","","","","","","","","","","","","","","","","","","","","","","","","","","","","","feedback_test","","","","","","","","",""
"772","","f","psychophysics","78","336145","0.0-8.0-1.0-1.0-0.0-0.34","5","4","5","3","3","4","3","5","4","5","4","0","1","1","0","0","2","1","0","4","5","5","2","3","4","4","5","4","5","6","8","7","9","8","8","6","8","9","6","6","5","6","7","6","5","6","6","7","1","5","5","6","5","5","5","6","6","5","7","5","5","3","7","5","6","3","6","7","6","7","3","6","7","3","5","2","7","5","5","790355489568464897","刘","542","Male","[""好他"",""坏我"",""好我"",""坏他""]","[""强他"",""弱我"",""强我"",""弱他""]","","","","","","","","match","","","","","","","","","","key","f","16.665714285714508","640","356","j","false","nonmatch","img/trapezoid.png","弱我","弱他","prac_ALT2_ability","practice_ability","","","","","","","","",""
"null","<span style='color:red; font-size: 70px;'>错误! </span>","null","html-keyboard-response","79","336646","0.0-8.0-1.0-1.0-0.0-1.34","5","4","5","3","3","4","3","5","4","5","4","0","1","1","0","0","2","1","0","4","5","5","2","3","4","4","5","4","5","6","8","7","9","8","8","6","8","9","6","6","5","6","7","6","5","6","6","7","1","5","5","6","5","5","5","6","6","5","7","5","5","3","7","5","6","3","6","7","6","7","3","6","7","3","5","2","7","5","5","790355489568464897","刘","542","Male","[""好他"",""坏我"",""好我"",""坏他""]","[""强他"",""弱我"",""强我"",""弱他""]","","","","","","","","","","","","","","","","","","","","","","","","","","","","","","feedback_test","","","","","","","","",""
"749","","f","psychophysics","80","338397","0.0-8.0-1.0-1.0-0.0-0.35","5","4","5","3","3","4","3","5","4","5","4","0","1","1","0","0","2","1","0","4","5","5","2","3","4","4","5","4","5","6","8","7","9","8","8","6","8","9","6","6","5","6","7","6","5","6","6","7","1","5","5","6","5","5","5","6","6","5","7","5","5","3","7","5","6","3","6","7","6","7","3","6","7","3","5","2","7","5","5","790355489568464897","刘","542","Male","[""好他"",""坏我"",""好我"",""坏他""]","[""强他"",""弱我"",""强我"",""弱他""]","","","","","","","","match","","","","","","","","","","key","f","16.665384615384728","640","356","j","false","nonmatch","img/trapezoid.png","强他","弱他","prac_ALT2_ability","practice_ability","","","","","","","","",""
"null","<span style='color:red; font-size: 70px;'>错误! </span>","null","html-keyboard-response","81","338899","0.0-8.0-1.0-1.0-0.0-1.35","5","4","5","3","3","4","3","5","4","5","4","0","1","1","0","0","2","1","0","4","5","5","2","3","4","4","5","4","5","6","8","7","9","8","8","6","8","9","6","6","5","6","7","6","5","6","6","7","1","5","5","6","5","5","5","6","6","5","7","5","5","3","7","5","6","3","6","7","6","7","3","6","7","3","5","2","7","5","5","790355489568464897","刘","542","Male","[""好他"",""坏我"",""好我"",""坏他""]","[""强他"",""弱我"",""强我"",""弱他""]","","","","","","","","","","","","","","","","","","","","","","","","","","","","","","feedback_test","","","","","","","","",""
"1119","","f","psychophysics","82","341018","0.0-8.0-1.0-1.0-0.0-0.36","5","4","5","3","3","4","3","5","4","5","4","0","1","1","0","0","2","1","0","4","5","5","2","3","4","4","5","4","5","6","8","7","9","8","8","6","8","9","6","6","5","6","7","6","5","6","6","7","1","5","5","6","5","5","5","6","6","5","7","5","5","3","7","5","6","3","6","7","6","7","3","6","7","3","5","2","7","5","5","790355489568464897","刘","542","Male","[""好他"",""坏我"",""好我"",""坏他""]","[""强他"",""弱我"",""强我"",""弱他""]","","","","","","","","match","","","","","","","","","","key","f","16.664285714285807","640","356","f","true","match","img/ellipse.png","强他","强他","prac_ALT2_ability","practice_ability","","","","","","","","",""
"null","<span style='color:GreenYellow; font-size: 70px;'>正确! </span>","null","html-keyboard-response","83","341519","0.0-8.0-1.0-1.0-0.0-1.36","5","4","5","3","3","4","3","5","4","5","4","0","1","1","0","0","2","1","0","4","5","5","2","3","4","4","5","4","5","6","8","7","9","8","8","6","8","9","6","6","5","6","7","6","5","6","6","7","1","5","5","6","5","5","5","6","6","5","7","5","5","3","7","5","6","3","6","7","6","7","3","6","7","3","5","2","7","5","5","790355489568464897","刘","542","Male","[""好他"",""坏我"",""好我"",""坏他""]","[""强他"",""弱我"",""强我"",""弱他""]","","","","","","","","","","","","","","","","","","","","","","","","","","","","","","feedback_test","","","","","","","","",""
"1180","","j","psychophysics","84","343700","0.0-8.0-1.0-1.0-0.0-0.37","5","4","5","3","3","4","3","5","4","5","4","0","1","1","0","0","2","1","0","4","5","5","2","3","4","4","5","4","5","6","8","7","9","8","8","6","8","9","6","6","5","6","7","6","5","6","6","7","1","5","5","6","5","5","5","6","6","5","7","5","5","3","7","5","6","3","6","7","6","7","3","6","7","3","5","2","7","5","5","790355489568464897","刘","542","Male","[""好他"",""坏我"",""好我"",""坏他""]","[""强他"",""弱我"",""强我"",""弱他""]","","","","","","","","nonmatch","","","","","","","","","","key","j","16.664615384615562","640","356","j","true","nonmatch","img/pentagon.png","弱我","强我","prac_ALT2_ability","practice_ability","","","","","","","","",""
"null","<span style='color:GreenYellow; font-size: 70px;'>正确! </span>","null","html-keyboard-response","85","344202","0.0-8.0-1.0-1.0-0.0-1.37","5","4","5","3","3","4","3","5","4","5","4","0","1","1","0","0","2","1","0","4","5","5","2","3","4","4","5","4","5","6","8","7","9","8","8","6","8","9","6","6","5","6","7","6","5","6","6","7","1","5","5","6","5","5","5","6","6","5","7","5","5","3","7","5","6","3","6","7","6","7","3","6","7","3","5","2","7","5","5","790355489568464897","刘","542","Male","[""好他"",""坏我"",""好我"",""坏他""]","[""强他"",""弱我"",""强我"",""弱他""]","","","","","","","","","","","","","","","","","","","","","","","","","","","","","","feedback_test","","","","","","","","",""
"803","","f","psychophysics","86","346007","0.0-8.0-1.0-1.0-0.0-0.38","5","4","5","3","3","4","3","5","4","5","4","0","1","1","0","0","2","1","0","4","5","5","2","3","4","4","5","4","5","6","8","7","9","8","8","6","8","9","6","6","5","6","7","6","5","6","6","7","1","5","5","6","5","5","5","6","6","5","7","5","5","3","7","5","6","3","6","7","6","7","3","6","7","3","5","2","7","5","5","790355489568464897","刘","542","Male","[""好他"",""坏我"",""好我"",""坏他""]","[""强他"",""弱我"",""强我"",""弱他""]","","","","","","","","match","","","","","","","","","","key","f","16.66355140186916","640","356","f","true","match","img/ellipse.png","强他","强他","prac_ALT2_ability","practice_ability","","","","","","","","",""
"null","<span style='color:GreenYellow; font-size: 70px;'>正确! </span>","null","html-keyboard-response","87","346508","0.0-8.0-1.0-1.0-0.0-1.38","5","4","5","3","3","4","3","5","4","5","4","0","1","1","0","0","2","1","0","4","5","5","2","3","4","4","5","4","5","6","8","7","9","8","8","6","8","9","6","6","5","6","7","6","5","6","6","7","1","5","5","6","5","5","5","6","6","5","7","5","5","3","7","5","6","3","6","7","6","7","3","6","7","3","5","2","7","5","5","790355489568464897","刘","542","Male","[""好他"",""坏我"",""好我"",""坏他""]","[""强他"",""弱我"",""强我"",""弱他""]","","","","","","","","","","","","","","","","","","","","","","","","","","","","","","feedback_test","","","","","","","","",""
"null","","null","psychophysics","88","348711","0.0-8.0-1.0-1.0-0.0-0.39","5","4","5","3","3","4","3","5","4","5","4","0","1","1","0","0","2","1","0","4","5","5","2","3","4","4","5","4","5","6","8","7","9","8","8","6","8","9","6","6","5","6","7","6","5","6","6","7","1","5","5","6","5","5","5","6","6","5","7","5","5","3","7","5","6","3","6","7","6","7","3","6","7","3","5","2","7","5","5","790355489568464897","刘","542","Male","[""好他"",""坏我"",""好我"",""坏他""]","[""强他"",""弱我"",""强我"",""弱他""]","","","","","","","","null","","","","","","","","","","key","null","16.665648854961923","640","356","f","false","match","img/pentagon.png","强我","强我","prac_ALT2_ability","practice_ability","","","","","","","","",""
"null","<span class='add_' style='color:yellow; font-size: 70px;'> 太慢! </span>","null","html-keyboard-response","89","349212","0.0-8.0-1.0-1.0-0.0-1.39","5","4","5","3","3","4","3","5","4","5","4","0","1","1","0","0","2","1","0","4","5","5","2","3","4","4","5","4","5","6","8","7","9","8","8","6","8","9","6","6","5","6","7","6","5","6","6","7","1","5","5","6","5","5","5","6","6","5","7","5","5","3","7","5","6","3","6","7","6","7","3","6","7","3","5","2","7","5","5","790355489568464897","刘","542","Male","[""好他"",""坏我"",""好我"",""坏他""]","[""强他"",""弱我"",""强我"",""弱他""]","","","","","","","","","","","","","","","","","","","","","","","","","","","","","","feedback_test","","","","","","","","",""
"1186","","j","psychophysics","90","351400","0.0-8.0-1.0-1.0-0.0-0.40","5","4","5","3","3","4","3","5","4","5","4","0","1","1","0","0","2","1","0","4","5","5","2","3","4","4","5","4","5","6","8","7","9","8","8","6","8","9","6","6","5","6","7","6","5","6","6","7","1","5","5","6","5","5","5","6","6","5","7","5","5","3","7","5","6","3","6","7","6","7","3","6","7","3","5","2","7","5","5","790355489568464897","刘","542","Male","[""好他"",""坏我"",""好我"",""坏他""]","[""强他"",""弱我"",""强我"",""弱他""]","","","","","","","","nonmatch","","","","","","","","","","key","j","16.664615384615562","640","356","j","true","nonmatch","img/ellipse.png","强我","强他","prac_ALT2_ability","practice_ability","","","","","","","","",""
"null","<span style='color:GreenYellow; font-size: 70px;'>正确! </span>","null","html-keyboard-response","91","351903","0.0-8.0-1.0-1.0-0.0-1.40","5","4","5","3","3","4","3","5","4","5","4","0","1","1","0","0","2","1","0","4","5","5","2","3","4","4","5","4","5","6","8","7","9","8","8","6","8","9","6","6","5","6","7","6","5","6","6","7","1","5","5","6","5","5","5","6","6","5","7","5","5","3","7","5","6","3","6","7","6","7","3","6","7","3","5","2","7","5","5","790355489568464897","刘","542","Male","[""好他"",""坏我"",""好我"",""坏他""]","[""强他"",""弱我"",""强我"",""弱他""]","","","","","","","","","","","","","","","","","","","","","","","","","","","","","","feedback_test","","","","","","","","",""
"950","","f","psychophysics","92","353854","0.0-8.0-1.0-1.0-0.0-0.41","5","4","5","3","3","4","3","5","4","5","4","0","1","1","0","0","2","1","0","4","5","5","2","3","4","4","5","4","5","6","8","7","9","8","8","6","8","9","6","6","5","6","7","6","5","6","6","7","1","5","5","6","5","5","5","6","6","5","7","5","5","3","7","5","6","3","6","7","6","7","3","6","7","3","5","2","7","5","5","790355489568464897","刘","542","Male","[""好他"",""坏我"",""好我"",""坏他""]","[""强他"",""弱我"",""强我"",""弱他""]","","","","","","","","match","","","","","","","","","","key","f","16.664655172413593","640","356","j","false","nonmatch","img/square.png","弱他","弱我","prac_ALT2_ability","practice_ability","","","","","","","","",""
"null","<span style='color:red; font-size: 70px;'>错误! </span>","null","html-keyboard-response","93","354357","0.0-8.0-1.0-1.0-0.0-1.41","5","4","5","3","3","4","3","5","4","5","4","0","1","1","0","0","2","1","0","4","5","5","2","3","4","4","5","4","5","6","8","7","9","8","8","6","8","9","6","6","5","6","7","6","5","6","6","7","1","5","5","6","5","5","5","6","6","5","7","5","5","3","7","5","6","3","6","7","6","7","3","6","7","3","5","2","7","5","5","790355489568464897","刘","542","Male","[""好他"",""坏我"",""好我"",""坏他""]","[""强他"",""弱我"",""强我"",""弱他""]","","","","","","","","","","","","","","","","","","","","","","","","","","","","","","feedback_test","","","","","","","","",""
"632","","j","psychophysics","94","355990","0.0-8.0-1.0-1.0-0.0-0.42","5","4","5","3","3","4","3","5","4","5","4","0","1","1","0","0","2","1","0","4","5","5","2","3","4","4","5","4","5","6","8","7","9","8","8","6","8","9","6","6","5","6","7","6","5","6","6","7","1","5","5","6","5","5","5","6","6","5","7","5","5","3","7","5","6","3","6","7","6","7","3","6","7","3","5","2","7","5","5","790355489568464897","刘","542","Male","[""好他"",""坏我"",""好我"",""坏他""]","[""强他"",""弱我"",""强我"",""弱他""]","","","","","","","","nonmatch","","","","","","","","","","key","j","16.66597938144366","640","356","f","false","match","img/ellipse.png","强他","强他","prac_ALT2_ability","practice_ability","","","","","","","","",""
"null","<span style='color:red; font-size: 70px;'>错误! </span>","null","html-keyboard-response","95","356492","0.0-8.0-1.0-1.0-0.0-1.42","5","4","5","3","3","4","3","5","4","5","4","0","1","1","0","0","2","1","0","4","5","5","2","3","4","4","5","4","5","6","8","7","9","8","8","6","8","9","6","6","5","6","7","6","5","6","6","7","1","5","5","6","5","5","5","6","6","5","7","5","5","3","7","5","6","3","6","7","6","7","3","6","7","3","5","2","7","5","5","790355489568464897","刘","542","Male","[""好他"",""坏我"",""好我"",""坏他""]","[""强他"",""弱我"",""强我"",""弱他""]","","","","","","","","","","","","","","","","","","","","","","","","","","","","","","feedback_test","","","","","","","","",""
"294","","f","psychophysics","96","357787","0.0-8.0-1.0-1.0-0.0-0.43","5","4","5","3","3","4","3","5","4","5","4","0","1","1","0","0","2","1","0","4","5","5","2","3","4","4","5","4","5","6","8","7","9","8","8","6","8","9","6","6","5","6","7","6","5","6","6","7","1","5","5","6","5","5","5","6","6","5","7","5","5","3","7","5","6","3","6","7","6","7","3","6","7","3","5","2","7","5","5","790355489568464897","刘","542","Male","[""好他"",""坏我"",""好我"",""坏他""]","[""强他"",""弱我"",""强我"",""弱他""]","","","","","","","","match","","","","","","","","","","key","f","16.66753246753277","640","356","f","true","match","img/trapezoid.png","弱他","弱他","prac_ALT2_ability","practice_ability","","","","","","","","",""
"null","<span style='color:GreenYellow; font-size: 70px;'>正确! </span>","null","html-keyboard-response","97","358288","0.0-8.0-1.0-1.0-0.0-1.43","5","4","5","3","3","4","3","5","4","5","4","0","1","1","0","0","2","1","0","4","5","5","2","3","4","4","5","4","5","6","8","7","9","8","8","6","8","9","6","6","5","6","7","6","5","6","6","7","1","5","5","6","5","5","5","6","6","5","7","5","5","3","7","5","6","3","6","7","6","7","3","6","7","3","5","2","7","5","5","790355489568464897","刘","542","Male","[""好他"",""坏我"",""好我"",""坏他""]","[""强他"",""弱我"",""强我"",""弱他""]","","","","","","","","","","","","","","","","","","","","","","","","","","","","","","feedback_test","","","","","","","","",""
"523","","f","psychophysics","98","359812","0.0-8.0-1.0-1.0-0.0-0.44","5","4","5","3","3","4","3","5","4","5","4","0","1","1","0","0","2","1","0","4","5","5","2","3","4","4","5","4","5","6","8","7","9","8","8","6","8","9","6","6","5","6","7","6","5","6","6","7","1","5","5","6","5","5","5","6","6","5","7","5","5","3","7","5","6","3","6","7","6","7","3","6","7","3","5","2","7","5","5","790355489568464897","刘","542","Male","[""好他"",""坏我"",""好我"",""坏他""]","[""强他"",""弱我"",""强我"",""弱他""]","","","","","","","","match","","","","","","","","","","key","f","16.665168539325972","640","356","j","false","nonmatch","img/pentagon.png","强他","强我","prac_ALT2_ability","practice_ability","","","","","","","","",""
"null","<span style='color:red; font-size: 70px;'>错误! </span>","null","html-keyboard-response","99","360313","0.0-8.0-1.0-1.0-0.0-1.44","5","4","5","3","3","4","3","5","4","5","4","0","1","1","0","0","2","1","0","4","5","5","2","3","4","4","5","4","5","6","8","7","9","8","8","6","8","9","6","6","5","6","7","6","5","6","6","7","1","5","5","6","5","5","5","6","6","5","7","5","5","3","7","5","6","3","6","7","6","7","3","6","7","3","5","2","7","5","5","790355489568464897","刘","542","Male","[""好他"",""坏我"",""好我"",""坏他""]","[""强他"",""弱我"",""强我"",""弱他""]","","","","","","","","","","","","","","","","","","","","","","","","","","","","","","feedback_test","","","","","","","","",""
"63","","j","psychophysics","100","361377","0.0-8.0-1.0-1.0-0.0-0.45","5","4","5","3","3","4","3","5","4","5","4","0","1","1","0","0","2","1","0","4","5","5","2","3","4","4","5","4","5","6","8","7","9","8","8","6","8","9","6","6","5","6","7","6","5","6","6","7","1","5","5","6","5","5","5","6","6","5","7","5","5","3","7","5","6","3","6","7","6","7","3","6","7","3","5","2","7","5","5","790355489568464897","刘","542","Male","[""好他"",""坏我"",""好我"",""坏他""]","[""强他"",""弱我"",""强我"",""弱他""]","","","","","","","","nonmatch","","","","","","","","","","key","j","16.666129032258816","640","356","f","false","match","img/trapezoid.png","弱他","弱他","prac_ALT2_ability","practice_ability","","","","","","","","",""
"null","<span style='color:yellow; font-size: 70px;'>过快! </span>","null","html-keyboard-response","101","361878","0.0-8.0-1.0-1.0-0.0-1.45","5","4","5","3","3","4","3","5","4","5","4","0","1","1","0","0","2","1","0","4","5","5","2","3","4","4","5","4","5","6","8","7","9","8","8","6","8","9","6","6","5","6","7","6","5","6","6","7","1","5","5","6","5","5","5","6","6","5","7","5","5","3","7","5","6","3","6","7","6","7","3","6","7","3","5","2","7","5","5","790355489568464897","刘","542","Male","[""好他"",""坏我"",""好我"",""坏他""]","[""强他"",""弱我"",""强我"",""弱他""]","","","","","","","","","","","","","","","","","","","","","","","","","","","","","","feedback_test","","","","","","","","",""
"89","","f","psychophysics","102","362968","0.0-8.0-1.0-1.0-0.0-0.46","5","4","5","3","3","4","3","5","4","5","4","0","1","1","0","0","2","1","0","4","5","5","2","3","4","4","5","4","5","6","8","7","9","8","8","6","8","9","6","6","5","6","7","6","5","6","6","7","1","5","5","6","5","5","5","6","6","5","7","5","5","3","7","5","6","3","6","7","6","7","3","6","7","3","5","2","7","5","5","790355489568464897","刘","542","Male","[""好他"",""坏我"",""好我"",""坏他""]","[""强他"",""弱我"",""强我"",""弱他""]","","","","","","","","match","","","","","","","","","","key","f","16.665624999999636","640","356","j","false","nonmatch","img/ellipse.png","弱他","强他","prac_ALT2_ability","practice_ability","","","","","","","","",""
"null","<span style='color:yellow; font-size: 70px;'>过快! </span>","null","html-keyboard-response","103","363469","0.0-8.0-1.0-1.0-0.0-1.46","5","4","5","3","3","4","3","5","4","5","4","0","1","1","0","0","2","1","0","4","5","5","2","3","4","4","5","4","5","6","8","7","9","8","8","6","8","9","6","6","5","6","7","6","5","6","6","7","1","5","5","6","5","5","5","6","6","5","7","5","5","3","7","5","6","3","6","7","6","7","3","6","7","3","5","2","7","5","5","790355489568464897","刘","542","Male","[""好他"",""坏我"",""好我"",""坏他""]","[""强他"",""弱我"",""强我"",""弱他""]","","","","","","","","","","","","","","","","","","","","","","","","","","","","","","feedback_test","","","","","","","","",""
"805","","f","psychophysics","104","365275","0.0-8.0-1.0-1.0-0.0-0.47","5","4","5","3","3","4","3","5","4","5","4","0","1","1","0","0","2","1","0","4","5","5","2","3","4","4","5","4","5","6","8","7","9","8","8","6","8","9","6","6","5","6","7","6","5","6","6","7","1","5","5","6","5","5","5","6","6","5","7","5","5","3","7","5","6","3","6","7","6","7","3","6","7","3","5","2","7","5","5","790355489568464897","刘","542","Male","[""好他"",""坏我"",""好我"",""坏他""]","[""强他"",""弱我"",""强我"",""弱他""]","","","","","","","","match","","","","","","","","","","key","f","16.66355140186916","640","356","j","false","nonmatch","img/ellipse.png","弱我","强他","prac_ALT2_ability","practice_ability","","","","","","","","",""
"null","<span style='color:red; font-size: 70px;'>错误! </span>","null","html-keyboard-response","105","365776","0.0-8.0-1.0-1.0-0.0-1.47","5","4","5","3","3","4","3","5","4","5","4","0","1","1","0","0","2","1","0","4","5","5","2","3","4","4","5","4","5","6","8","7","9","8","8","6","8","9","6","6","5","6","7","6","5","6","6","7","1","5","5","6","5","5","5","6","6","5","7","5","5","3","7","5","6","3","6","7","6","7","3","6","7","3","5","2","7","5","5","790355489568464897","刘","542","Male","[""好他"",""坏我"",""好我"",""坏他""]","[""强他"",""弱我"",""强我"",""弱他""]","","","","","","","","","","","","","","","","","","","","","","","","","","","","","","feedback_test","","","","","","","","",""
"111041","<style>.context{color:white; font-size: 35px; line-height:40px}</style>                          <div><p class='context'>您正确回答了35% 的试次。</p><p class='context'>您的平均反应时为808毫秒。</p><p class='context'>恭喜您完成练习。按空格键继续。</p></div>"," ","html-keyboard-response","106","476820","0.0-8.0-1.0-1.0-1.0-0.0","5","4","5","3","3","4","3","5","4","5","4","0","1","1","0","0","2","1","0","4","5","5","2","3","4","4","5","4","5","6","8","7","9","8","8","6","8","9","6","6","5","6","7","6","5","6","6","7","1","5","5","6","5","5","5","6","6","5","7","5","5","3","7","5","6","3","6","7","6","7","3","6","7","3","5","2","7","5","5","790355489568464897","刘","542","Male","[""好他"",""坏我"",""好我"",""坏他""]","[""强他"",""弱我"",""强我"",""弱他""]","","","","","","","","","","","","","","","","","","","","","","","","","","","","","","","","","","","","","","",""
"64370","","","instructions","107","541193","0.0-8.0-1.0-1.0-1.0-1.0","5","4","5","3","3","4","3","5","4","5","4","0","1","1","0","0","2","1","0","4","5","5","2","3","4","4","5","4","5","6","8","7","9","8","8","6","8","9","6","6","5","6","7","6","5","6","6","7","1","5","5","6","5","5","5","6","6","5","7","5","5","3","7","5","6","3","6","7","6","7","3","6","7","3","5","2","7","5","5","790355489568464897","刘","542","Male","[""好他"",""坏我"",""好我"",""坏他""]","[""强他"",""弱我"",""强我"",""弱他""]","","","","","","","","","","","","","","","","","[{""page_index"":0,""viewing_time"":8933},{""page_index"":1,""viewing_time"":33609},{""page_index"":2,""viewing_time"":21828}]","","","","","","","","","","","","","","","","","","","","","",""
"865","","j","psychophysics","108","543060","0.0-8.0-1.0-1.1-0.1-0.48","5","4","5","3","3","4","3","5","4","5","4","0","1","1","0","0","2","1","0","4","5","5","2","3","4","4","5","4","5","6","8","7","9","8","8","6","8","9","6","6","5","6","7","6","5","6","6","7","1","5","5","6","5","5","5","6","6","5","7","5","5","3","7","5","6","3","6","7","6","7","3","6","7","3","5","2","7","5","5","790355489568464897","刘","542","Male","[""好他"",""坏我"",""好我"",""坏他""]","[""强他"",""弱我"",""强我"",""弱他""]","","","","","","","","nonmatch","","","","","","","","","","key","j","16.664864864864235","640","356","j","true","nonmatch","img/square.png","强他","弱我","prac_ALT2_ability","practice_ability","","","","","","","","",""
"null","<span style='color:GreenYellow; font-size: 70px;'>正确! </span>","null","html-keyboard-response","109","543561","0.0-8.0-1.0-1.1-0.1-1.48","5","4","5","3","3","4","3","5","4","5","4","0","1","1","0","0","2","1","0","4","5","5","2","3","4","4","5","4","5","6","8","7","9","8","8","6","8","9","6","6","5","6","7","6","5","6","6","7","1","5","5","6","5","5","5","6","6","5","7","5","5","3","7","5","6","3","6","7","6","7","3","6","7","3","5","2","7","5","5","790355489568464897","刘","542","Male","[""好他"",""坏我"",""好我"",""坏他""]","[""强他"",""弱我"",""强我"",""弱他""]","","","","","","","","","","","","","","","","","","","","","","","","","","","","","","feedback_test","","","","","","","","",""
"1158","","j","psychophysics","110","545721","0.0-8.0-1.0-1.1-0.1-0.49","5","4","5","3","3","4","3","5","4","5","4","0","1","1","0","0","2","1","0","4","5","5","2","3","4","4","5","4","5","6","8","7","9","8","8","6","8","9","6","6","5","6","7","6","5","6","6","7","1","5","5","6","5","5","5","6","6","5","7","5","5","3","7","5","6","3","6","7","6","7","3","6","7","3","5","2","7","5","5","790355489568464897","刘","542","Male","[""好他"",""坏我"",""好我"",""坏他""]","[""强他"",""弱我"",""强我"",""弱他""]","","","","","","","","nonmatch","","","","","","","","","","key","j","16.666406250000364","640","356","f","false","match","img/ellipse.png","强他","强他","prac_ALT2_ability","practice_ability","","","","","","","","",""
"null","<span style='color:red; font-size: 70px;'>错误! </span>","null","html-keyboard-response","111","546222","0.0-8.0-1.0-1.1-0.1-1.49","5","4","5","3","3","4","3","5","4","5","4","0","1","1","0","0","2","1","0","4","5","5","2","3","4","4","5","4","5","6","8","7","9","8","8","6","8","9","6","6","5","6","7","6","5","6","6","7","1","5","5","6","5","5","5","6","6","5","7","5","5","3","7","5","6","3","6","7","6","7","3","6","7","3","5","2","7","5","5","790355489568464897","刘","542","Male","[""好他"",""坏我"",""好我"",""坏他""]","[""强他"",""弱我"",""强我"",""弱他""]","","","","","","","","","","","","","","","","","","","","","","","","","","","","","","feedback_test","","","","","","","","",""
"1072","","f","psychophysics","112","548294","0.0-8.0-1.0-1.1-0.1-0.50","5","4","5","3","3","4","3","5","4","5","4","0","1","1","0","0","2","1","0","4","5","5","2","3","4","4","5","4","5","6","8","7","9","8","8","6","8","9","6","6","5","6","7","6","5","6","6","7","1","5","5","6","5","5","5","6","6","5","7","5","5","3","7","5","6","3","6","7","6","7","3","6","7","3","5","2","7","5","5","790355489568464897","刘","542","Male","[""好他"",""坏我"",""好我"",""坏他""]","[""强他"",""弱我"",""强我"",""弱他""]","","","","","","","","match","","","","","","","","","","key","f","16.663414634146154","640","356","f","true","match","img/square.png","弱我","弱我","prac_ALT2_ability","practice_ability","","","","","","","","",""
"null","<span style='color:GreenYellow; font-size: 70px;'>正确! </span>","null","html-keyboard-response","113","548795","0.0-8.0-1.0-1.1-0.1-1.50","5","4","5","3","3","4","3","5","4","5","4","0","1","1","0","0","2","1","0","4","5","5","2","3","4","4","5","4","5","6","8","7","9","8","8","6","8","9","6","6","5","6","7","6","5","6","6","7","1","5","5","6","5","5","5","6","6","5","7","5","5","3","7","5","6","3","6","7","6","7","3","6","7","3","5","2","7","5","5","790355489568464897","刘","542","Male","[""好他"",""坏我"",""好我"",""坏他""]","[""强他"",""弱我"",""强我"",""弱他""]","","","","","","","","","","","","","","","","","","","","","","","","","","","","","","feedback_test","","","","","","","","",""
"961","","j","psychophysics","114","550757","0.0-8.0-1.0-1.1-0.1-0.51","5","4","5","3","3","4","3","5","4","5","4","0","1","1","0","0","2","1","0","4","5","5","2","3","4","4","5","4","5","6","8","7","9","8","8","6","8","9","6","6","5","6","7","6","5","6","6","7","1","5","5","6","5","5","5","6","6","5","7","5","5","3","7","5","6","3","6","7","6","7","3","6","7","3","5","2","7","5","5","790355489568464897","刘","542","Male","[""好他"",""坏我"",""好我"",""坏他""]","[""强他"",""弱我"",""强我"",""弱他""]","","","","","","","","nonmatch","","","","","","","","","","key","j","16.66495726495667","640","356","f","false","match","img/square.png","弱我","弱我","prac_ALT2_ability","practice_ability","","","","","","","","",""
"null","<span style='color:red; font-size: 70px;'>错误! </span>","null","html-keyboard-response","115","551258","0.0-8.0-1.0-1.1-0.1-1.51","5","4","5","3","3","4","3","5","4","5","4","0","1","1","0","0","2","1","0","4","5","5","2","3","4","4","5","4","5","6","8","7","9","8","8","6","8","9","6","6","5","6","7","6","5","6","6","7","1","5","5","6","5","5","5","6","6","5","7","5","5","3","7","5","6","3","6","7","6","7","3","6","7","3","5","2","7","5","5","790355489568464897","刘","542","Male","[""好他"",""坏我"",""好我"",""坏他""]","[""强他"",""弱我"",""强我"",""弱他""]","","","","","","","","","","","","","","","","","","","","","","","","","","","","","","feedback_test","","","","","","","","",""
"748","","j","psychophysics","116","553008","0.0-8.0-1.0-1.1-0.1-0.52","5","4","5","3","3","4","3","5","4","5","4","0","1","1","0","0","2","1","0","4","5","5","2","3","4","4","5","4","5","6","8","7","9","8","8","6","8","9","6","6","5","6","7","6","5","6","6","7","1","5","5","6","5","5","5","6","6","5","7","5","5","3","7","5","6","3","6","7","6","7","3","6","7","3","5","2","7","5","5","790355489568464897","刘","542","Male","[""好他"",""坏我"",""好我"",""坏他""]","[""强他"",""弱我"",""强我"",""弱他""]","","","","","","","","nonmatch","","","","","","","","","","key","j","16.665384615384166","640","356","j","true","nonmatch","img/square.png","强我","弱我","prac_ALT2_ability","practice_ability","","","","","","","","",""
"null","<span style='color:GreenYellow; font-size: 70px;'>正确! </span>","null","html-keyboard-response","117","553508","0.0-8.0-1.0-1.1-0.1-1.52","5","4","5","3","3","4","3","5","4","5","4","0","1","1","0","0","2","1","0","4","5","5","2","3","4","4","5","4","5","6","8","7","9","8","8","6","8","9","6","6","5","6","7","6","5","6","6","7","1","5","5","6","5","5","5","6","6","5","7","5","5","3","7","5","6","3","6","7","6","7","3","6","7","3","5","2","7","5","5","790355489568464897","刘","542","Male","[""好他"",""坏我"",""好我"",""坏他""]","[""强他"",""弱我"",""强我"",""弱他""]","","","","","","","","","","","","","","","","","","","","","","","","","","","","","","feedback_test","","","","","","","","",""
"null","","null","psychophysics","118","555712","0.0-8.0-1.0-1.1-0.1-0.53","5","4","5","3","3","4","3","5","4","5","4","0","1","1","0","0","2","1","0","4","5","5","2","3","4","4","5","4","5","6","8","7","9","8","8","6","8","9","6","6","5","6","7","6","5","6","6","7","1","5","5","6","5","5","5","6","6","5","7","5","5","3","7","5","6","3","6","7","6","7","3","6","7","3","5","2","7","5","5","790355489568464897","刘","542","Male","[""好他"",""坏我"",""好我"",""坏他""]","[""强他"",""弱我"",""强我"",""弱他""]","","","","","","","","null","","","","","","","","","","key","null","16.66412213740458","640","356","j","false","nonmatch","img/ellipse.png","弱他","强他","prac_ALT2_ability","practice_ability","","","","","","","","",""
"null","<span class='add_' style='color:yellow; font-size: 70px;'> 太慢! </span>","null","html-keyboard-response","119","556213","0.0-8.0-1.0-1.1-0.1-1.53","5","4","5","3","3","4","3","5","4","5","4","0","1","1","0","0","2","1","0","4","5","5","2","3","4","4","5","4","5","6","8","7","9","8","8","6","8","9","6","6","5","6","7","6","5","6","6","7","1","5","5","6","5","5","5","6","6","5","7","5","5","3","7","5","6","3","6","7","6","7","3","6","7","3","5","2","7","5","5","790355489568464897","刘","542","Male","[""好他"",""坏我"",""好我"",""坏他""]","[""强他"",""弱我"",""强我"",""弱他""]","","","","","","","","","","","","","","","","","","","","","","","","","","","","","","feedback_test","","","","","","","","",""
"985","","j","psychophysics","120","558200","0.0-8.0-1.0-1.1-0.1-0.54","5","4","5","3","3","4","3","5","4","5","4","0","1","1","0","0","2","1","0","4","5","5","2","3","4","4","5","4","5","6","8","7","9","8","8","6","8","9","6","6","5","6","7","6","5","6","6","7","1","5","5","6","5","5","5","6","6","5","7","5","5","3","7","5","6","3","6","7","6","7","3","6","7","3","5","2","7","5","5","790355489568464897","刘","542","Male","[""好他"",""坏我"",""好我"",""坏他""]","[""强他"",""弱我"",""强我"",""弱他""]","","","","","","","","nonmatch","","","","","","","","","","key","j","16.663559322034292","640","356","j","true","nonmatch","img/pentagon.png","弱他","强我","prac_ALT2_ability","practice_ability","","","","","","","","",""
"null","<span style='color:GreenYellow; font-size: 70px;'>正确! </span>","null","html-keyboard-response","121","558700","0.0-8.0-1.0-1.1-0.1-1.54","5","4","5","3","3","4","3","5","4","5","4","0","1","1","0","0","2","1","0","4","5","5","2","3","4","4","5","4","5","6","8","7","9","8","8","6","8","9","6","6","5","6","7","6","5","6","6","7","1","5","5","6","5","5","5","6","6","5","7","5","5","3","7","5","6","3","6","7","6","7","3","6","7","3","5","2","7","5","5","790355489568464897","刘","542","Male","[""好他"",""坏我"",""好我"",""坏他""]","[""强他"",""弱我"",""强我"",""弱他""]","","","","","","","","","","","","","","","","","","","","","","","","","","","","","","feedback_test","","","","","","","","",""
"768","","f","psychophysics","122","560471","0.0-8.0-1.0-1.1-0.1-0.55","5","4","5","3","3","4","3","5","4","5","4","0","1","1","0","0","2","1","0","4","5","5","2","3","4","4","5","4","5","6","8","7","9","8","8","6","8","9","6","6","5","6","7","6","5","6","6","7","1","5","5","6","5","5","5","6","6","5","7","5","5","3","7","5","6","3","6","7","6","7","3","6","7","3","5","2","7","5","5","790355489568464897","刘","542","Male","[""好他"",""坏我"",""好我"",""坏他""]","[""强他"",""弱我"",""强我"",""弱他""]","","","","","","","","match","","","","","","","","","","key","f","16.666037735848835","640","356","f","true","match","img/pentagon.png","强我","强我","prac_ALT2_ability","practice_ability","","","","","","","","",""
"null","<span style='color:GreenYellow; font-size: 70px;'>正确! </span>","null","html-keyboard-response","123","560972","0.0-8.0-1.0-1.1-0.1-1.55","5","4","5","3","3","4","3","5","4","5","4","0","1","1","0","0","2","1","0","4","5","5","2","3","4","4","5","4","5","6","8","7","9","8","8","6","8","9","6","6","5","6","7","6","5","6","6","7","1","5","5","6","5","5","5","6","6","5","7","5","5","3","7","5","6","3","6","7","6","7","3","6","7","3","5","2","7","5","5","790355489568464897","刘","542","Male","[""好他"",""坏我"",""好我"",""坏他""]","[""强他"",""弱我"",""强我"",""弱他""]","","","","","","","","","","","","","","","","","","","","","","","","","","","","","","feedback_test","","","","","","","","",""
"739","","j","psychophysics","124","562713","0.0-8.0-1.0-1.1-0.1-0.56","5","4","5","3","3","4","3","5","4","5","4","0","1","1","0","0","2","1","0","4","5","5","2","3","4","4","5","4","5","6","8","7","9","8","8","6","8","9","6","6","5","6","7","6","5","6","6","7","1","5","5","6","5","5","5","6","6","5","7","5","5","3","7","5","6","3","6","7","6","7","3","6","7","3","5","2","7","5","5","790355489568464897","刘","542","Male","[""好他"",""坏我"",""好我"",""坏他""]","[""强他"",""弱我"",""强我"",""弱他""]","","","","","","","","nonmatch","","","","","","","","","","key","j","16.663106796115827","640","356","j","true","nonmatch","img/pentagon.png","强他","强我","prac_ALT2_ability","practice_ability","","","","","","","","",""
"null","<span style='color:GreenYellow; font-size: 70px;'>正确! </span>","null","html-keyboard-response","125","563215","0.0-8.0-1.0-1.1-0.1-1.56","5","4","5","3","3","4","3","5","4","5","4","0","1","1","0","0","2","1","0","4","5","5","2","3","4","4","5","4","5","6","8","7","9","8","8","6","8","9","6","6","5","6","7","6","5","6","6","7","1","5","5","6","5","5","5","6","6","5","7","5","5","3","7","5","6","3","6","7","6","7","3","6","7","3","5","2","7","5","5","790355489568464897","刘","542","Male","[""好他"",""坏我"",""好我"",""坏他""]","[""强他"",""弱我"",""强我"",""弱他""]","","","","","","","","","","","","","","","","","","","","","","","","","","","","","","feedback_test","","","","","","","","",""
"718","","f","psychophysics","126","564935","0.0-8.0-1.0-1.1-0.1-0.57","5","4","5","3","3","4","3","5","4","5","4","0","1","1","0","0","2","1","0","4","5","5","2","3","4","4","5","4","5","6","8","7","9","8","8","6","8","9","6","6","5","6","7","6","5","6","6","7","1","5","5","6","5","5","5","6","6","5","7","5","5","3","7","5","6","3","6","7","6","7","3","6","7","3","5","2","7","5","5","790355489568464897","刘","542","Male","[""好他"",""坏我"",""好我"",""坏他""]","[""强他"",""弱我"",""强我"",""弱他""]","","","","","","","","match","","","","","","","","","","key","f","16.665686274510033","640","356","f","true","match","img/trapezoid.png","弱他","弱他","prac_ALT2_ability","practice_ability","","","","","","","","",""
"null","<span style='color:GreenYellow; font-size: 70px;'>正确! </span>","null","html-keyboard-response","127","565436","0.0-8.0-1.0-1.1-0.1-1.57","5","4","5","3","3","4","3","5","4","5","4","0","1","1","0","0","2","1","0","4","5","5","2","3","4","4","5","4","5","6","8","7","9","8","8","6","8","9","6","6","5","6","7","6","5","6","6","7","1","5","5","6","5","5","5","6","6","5","7","5","5","3","7","5","6","3","6","7","6","7","3","6","7","3","5","2","7","5","5","790355489568464897","刘","542","Male","[""好他"",""坏我"",""好我"",""坏他""]","[""强他"",""弱我"",""强我"",""弱他""]","","","","","","","","","","","","","","","","","","","","","","","","","","","","","","feedback_test","","","","","","","","",""
"724","","f","psychophysics","128","567162","0.0-8.0-1.0-1.1-0.1-0.58","5","4","5","3","3","4","3","5","4","5","4","0","1","1","0","0","2","1","0","4","5","5","2","3","4","4","5","4","5","6","8","7","9","8","8","6","8","9","6","6","5","6","7","6","5","6","6","7","1","5","5","6","5","5","5","6","6","5","7","5","5","3","7","5","6","3","6","7","6","7","3","6","7","3","5","2","7","5","5","790355489568464897","刘","542","Male","[""好他"",""坏我"",""好我"",""坏他""]","[""强他"",""弱我"",""强我"",""弱他""]","","","","","","","","match","","","","","","","","","","key","f","16.66372549019562","640","356","f","true","match","img/ellipse.png","强他","强他","prac_ALT2_ability","practice_ability","","","","","","","","",""
"null","<span style='color:GreenYellow; font-size: 70px;'>正确! </span>","null","html-keyboard-response","129","567662","0.0-8.0-1.0-1.1-0.1-1.58","5","4","5","3","3","4","3","5","4","5","4","0","1","1","0","0","2","1","0","4","5","5","2","3","4","4","5","4","5","6","8","7","9","8","8","6","8","9","6","6","5","6","7","6","5","6","6","7","1","5","5","6","5","5","5","6","6","5","7","5","5","3","7","5","6","3","6","7","6","7","3","6","7","3","5","2","7","5","5","790355489568464897","刘","542","Male","[""好他"",""坏我"",""好我"",""坏他""]","[""强他"",""弱我"",""强我"",""弱他""]","","","","","","","","","","","","","","","","","","","","","","","","","","","","","","feedback_test","","","","","","","","",""
"869","","f","psychophysics","130","569533","0.0-8.0-1.0-1.1-0.1-0.59","5","4","5","3","3","4","3","5","4","5","4","0","1","1","0","0","2","1","0","4","5","5","2","3","4","4","5","4","5","6","8","7","9","8","8","6","8","9","6","6","5","6","7","6","5","6","6","7","1","5","5","6","5","5","5","6","6","5","7","5","5","3","7","5","6","3","6","7","6","7","3","6","7","3","5","2","7","5","5","790355489568464897","刘","542","Male","[""好他"",""坏我"",""好我"",""坏他""]","[""强他"",""弱我"",""强我"",""弱他""]","","","","","","","","match","","","","","","","","","","key","f","16.665765765765975","640","356","f","true","match","img/pentagon.png","强我","强我","prac_ALT2_ability","practice_ability","","","","","","","","",""
"null","<span style='color:GreenYellow; font-size: 70px;'>正确! </span>","null","html-keyboard-response","131","570035","0.0-8.0-1.0-1.1-0.1-1.59","5","4","5","3","3","4","3","5","4","5","4","0","1","1","0","0","2","1","0","4","5","5","2","3","4","4","5","4","5","6","8","7","9","8","8","6","8","9","6","6","5","6","7","6","5","6","6","7","1","5","5","6","5","5","5","6","6","5","7","5","5","3","7","5","6","3","6","7","6","7","3","6","7","3","5","2","7","5","5","790355489568464897","刘","542","Male","[""好他"",""坏我"",""好我"",""坏他""]","[""强他"",""弱我"",""强我"",""弱他""]","","","","","","","","","","","","","","","","","","","","","","","","","","","","","","feedback_test","","","","","","","","",""
"748","","j","psychophysics","132","571784","0.0-8.0-1.0-1.1-0.1-0.60","5","4","5","3","3","4","3","5","4","5","4","0","1","1","0","0","2","1","0","4","5","5","2","3","4","4","5","4","5","6","8","7","9","8","8","6","8","9","6","6","5","6","7","6","5","6","6","7","1","5","5","6","5","5","5","6","6","5","7","5","5","3","7","5","6","3","6","7","6","7","3","6","7","3","5","2","7","5","5","790355489568464897","刘","542","Male","[""好他"",""坏我"",""好我"",""坏他""]","[""强他"",""弱我"",""强我"",""弱他""]","","","","","","","","nonmatch","","","","","","","","","","key","j","16.66407766990314","640","356","j","true","nonmatch","img/square.png","弱他","弱我","prac_ALT2_ability","practice_ability","","","","","","","","",""
"null","<span style='color:GreenYellow; font-size: 70px;'>正确! </span>","null","html-keyboard-response","133","572285","0.0-8.0-1.0-1.1-0.1-1.60","5","4","5","3","3","4","3","5","4","5","4","0","1","1","0","0","2","1","0","4","5","5","2","3","4","4","5","4","5","6","8","7","9","8","8","6","8","9","6","6","5","6","7","6","5","6","6","7","1","5","5","6","5","5","5","6","6","5","7","5","5","3","7","5","6","3","6","7","6","7","3","6","7","3","5","2","7","5","5","790355489568464897","刘","542","Male","[""好他"",""坏我"",""好我"",""坏他""]","[""强他"",""弱我"",""强我"",""弱他""]","","","","","","","","","","","","","","","","","","","","","","","","","","","","","","feedback_test","","","","","","","","",""
"639","","f","psychophysics","134","573925","0.0-8.0-1.0-1.1-0.1-0.61","5","4","5","3","3","4","3","5","4","5","4","0","1","1","0","0","2","1","0","4","5","5","2","3","4","4","5","4","5","6","8","7","9","8","8","6","8","9","6","6","5","6","7","6","5","6","6","7","1","5","5","6","5","5","5","6","6","5","7","5","5","3","7","5","6","3","6","7","6","7","3","6","7","3","5","2","7","5","5","790355489568464897","刘","542","Male","[""好他"",""坏我"",""好我"",""坏他""]","[""强他"",""弱我"",""强我"",""弱他""]","","","","","","","","match","","","","","","","","","","key","f","16.664948453608247","640","356","f","true","match","img/ellipse.png","强他","强他","prac_ALT2_ability","practice_ability","","","","","","","","",""
"null","<span style='color:GreenYellow; font-size: 70px;'>正确! </span>","null","html-keyboard-response","135","574427","0.0-8.0-1.0-1.1-0.1-1.61","5","4","5","3","3","4","3","5","4","5","4","0","1","1","0","0","2","1","0","4","5","5","2","3","4","4","5","4","5","6","8","7","9","8","8","6","8","9","6","6","5","6","7","6","5","6","6","7","1","5","5","6","5","5","5","6","6","5","7","5","5","3","7","5","6","3","6","7","6","7","3","6","7","3","5","2","7","5","5","790355489568464897","刘","542","Male","[""好他"",""坏我"",""好我"",""坏他""]","[""强他"",""弱我"",""强我"",""弱他""]","","","","","","","","","","","","","","","","","","","","","","","","","","","","","","feedback_test","","","","","","","","",""
"941","","f","psychophysics","136","576369","0.0-8.0-1.0-1.1-0.1-0.62","5","4","5","3","3","4","3","5","4","5","4","0","1","1","0","0","2","1","0","4","5","5","2","3","4","4","5","4","5","6","8","7","9","8","8","6","8","9","6","6","5","6","7","6","5","6","6","7","1","5","5","6","5","5","5","6","6","5","7","5","5","3","7","5","6","3","6","7","6","7","3","6","7","3","5","2","7","5","5","790355489568464897","刘","542","Male","[""好他"",""坏我"",""好我"",""坏他""]","[""强他"",""弱我"",""强我"",""弱他""]","","","","","","","","match","","","","","","","","","","key","f","16.664655172413593","640","356","f","true","match","img/square.png","弱我","弱我","prac_ALT2_ability","practice_ability","","","","","","","","",""
"null","<span style='color:GreenYellow; font-size: 70px;'>正确! </span>","null","html-keyboard-response","137","576875","0.0-8.0-1.0-1.1-0.1-1.62","5","4","5","3","3","4","3","5","4","5","4","0","1","1","0","0","2","1","0","4","5","5","2","3","4","4","5","4","5","6","8","7","9","8","8","6","8","9","6","6","5","6","7","6","5","6","6","7","1","5","5","6","5","5","5","6","6","5","7","5","5","3","7","5","6","3","6","7","6","7","3","6","7","3","5","2","7","5","5","790355489568464897","刘","542","Male","[""好他"",""坏我"",""好我"",""坏他""]","[""强他"",""弱我"",""强我"",""弱他""]","","","","","","","","","","","","","","","","","","","","","","","","","","","","","","feedback_test","","","","","","","","",""
"764","","f","psychophysics","138","578640","0.0-8.0-1.0-1.1-0.1-0.63","5","4","5","3","3","4","3","5","4","5","4","0","1","1","0","0","2","1","0","4","5","5","2","3","4","4","5","4","5","6","8","7","9","8","8","6","8","9","6","6","5","6","7","6","5","6","6","7","1","5","5","6","5","5","5","6","6","5","7","5","5","3","7","5","6","3","6","7","6","7","3","6","7","3","5","2","7","5","5","790355489568464897","刘","542","Male","[""好他"",""坏我"",""好我"",""坏他""]","[""强他"",""弱我"",""强我"",""弱他""]","","","","","","","","match","","","","","","","","","","key","f","16.664761904762347","640","356","j","false","nonmatch","img/trapezoid.png","强我","弱他","prac_ALT2_ability","practice_ability","","","","","","","","",""
