"rt","stimulus","response","trial_type","trial_index","time_elapsed","internal_node_id","swb_1","swb_2","swb_3","swb_4","swb_5","LOT_1","LOT_2","LOT_3","LOT_4","LOT_5","LOT_6","IPC_1","IPC_2","IPC_3","IPC_4","IPC_5","IPC_6","IPC_7","IPC_8","MorIden_1","MorIden_2","MorIden_3","MorIden_4","MorIden_5","MorIden_6","MorIden_7","MorIden_8","MorIden_9","MorIden_10","moralSeImag_1","moralSeImag_2","moralSeImag_3","moralSeImag_4","moralSeImag_5","moralSeImag_6","moralSeImag_7","moralSeImag_8","moralSeImag_9","sde_1","sde_2","sde_3","sde_4","sde_5","sde_6","sde_7","sde_8","sde_9","sde_10","trap2","sde_11","sde_12","sde_13","sde_14","sde_15","sde_16","sde_17","sde_18","sde_19","sde_20","IM_1","IM_2","IM_3","IM_4","IM_5","IM_6","IM_7","IM_8","IM_9","IM_10","IM_11","IM_12","IM_13","IM_14","IM_15","IM_16","IM_17","IM_18","IM_19","IM_20","subj_idx","friend_name","ParticipantID","Sex","Word","Word2","value","success","timeout","failed_images","failed_audio","failed_video","user_agent","responses","item_order","radio_event_ids","radio_event_times","key_event_times","mouse_event_times","straightlining","zigzagging","honeypot","task_id","screen_id","time_stamp","response_type","key_press","avg_frame_time","center_x","center_y","person","word","valence","domain","math","correct_response","correct","status","view_history","identity","duration","Image","condition","question_order","trap2_item"
"14691","
   <p><div style='color:white; font-size: 25px'>您好，欢迎参加本次实验。</div></p>
   <p><div style='color:white; font-size: 25px'>为充分保障您的权利，请确保您已经知晓并同意《参与实验同意书》以及《数据公开知情同意书》。</div></p>
   <p><div style='color:white; font-size: 25px'>如果您未见过上述内容，请咨询实验员。</div></p>
   <p style='color:white; font-size: 25px'>如果您选择继续实验，则表示您已经清楚两份知情同意书的内容并同意。</p>
   <p><div style = ""color: pink;font-size:30px;"">请确保您记得day0的实验编号，您将在本次实验输入该编号，若您忘记，请咨询实验员后作答。</div></p>
   <p><div style = ""color:lightblue;font-size:25px;"">请您尽可能认真地作答，我们将依据您在各问卷和按键任务中的作答质量发放报酬。</div></p>
   <p> <div style = ""color: green""><按空格键至下页></div> </p>
   "," ","html-keyboard-response","0","14694","0.0-0.0","6","6","6","5","5","4","2","4","4","5","4","1","0","0","1","1","1","1","2","5","4","5","5","4","3","4","4","4","3","6","5","5","6","4","4","5","5","5","3","6","5","5","6","5","5","7","5","6","1","4","6","4","1","5","3","4","4","7","5","3","6","3","1","3","4","6","5","7","7","3","4","7","1","3","4","3","3","4","3","778036466176757761","刘","467","Female","[""坏我"",""坏她"",""好她"",""好我""]","[""弱我"",""弱她"",""强她"",""强我""]","","","","","","","","","","","","","","","","","","","","","","","","","","","","","","","","","","","","","","",""
"","","","call-function","1","14697","0.0-1.0-0.0","6","6","6","5","5","4","2","4","4","5","4","1","0","0","1","1","1","1","2","5","4","5","5","4","3","4","4","4","3","6","5","5","6","4","4","5","5","5","3","6","5","5","6","5","5","7","5","6","1","4","6","4","1","5","3","4","4","7","5","3","6","3","1","3","4","6","5","7","7","3","4","7","1","3","4","3","3","4","3","778036466176757761","刘","467","Female","[""坏我"",""坏她"",""好她"",""好我""]","[""弱我"",""弱她"",""强她"",""强我""]","","","","","","","","","","","","","","","","","","","","","","","","","","","","","","","","","","","","","","",""
"21659","","[{""name"":""Sex"",""value"":""1""},{""name"":""friend_name"",""value"":""刘""},{""name"":""ParticipantID"",""value"":""467""}]","survey-html-form","2","36365","0.0-1.0-1.0","6","6","6","5","5","4","2","4","4","5","4","1","0","0","1","1","1","1","2","5","4","5","5","4","3","4","4","4","3","6","5","5","6","4","4","5","5","5","3","6","5","5","6","5","5","7","5","6","1","4","6","4","1","5","3","4","4","7","5","3","6","3","1","3","4","6","5","7","7","3","4","7","1","3","4","3","3","4","3","778036466176757761","刘","467","Female","[""坏我"",""坏她"",""好她"",""好我""]","[""弱我"",""弱她"",""强她"",""强我""]","","","","","","","","","","","","","","","","","","","","","","","","","","","","","","","","","","","","","","",""
"","","","preload","3","36844","0.0-2.0","6","6","6","5","5","4","2","4","4","5","4","1","0","0","1","1","1","1","2","5","4","5","5","4","3","4","4","4","3","6","5","5","6","4","4","5","5","5","3","6","5","5","6","5","5","7","5","6","1","4","6","4","1","5","3","4","4","7","5","3","6","3","1","3","4","6","5","7","7","3","4","7","1","3","4","3","3","4","3","778036466176757761","刘","467","Female","[""坏我"",""坏她"",""好她"",""好我""]","[""弱我"",""弱她"",""强她"",""强我""]","","true","false","[]","[]","[]","","","","","","","","","","","","","","","","","","","","","","","","","","","","","","","","",""
"","","","fullscreen","4","42821","0.0-3.0","6","6","6","5","5","4","2","4","4","5","4","1","0","0","1","1","1","1","2","5","4","5","5","4","3","4","4","4","3","6","5","5","6","4","4","5","5","5","3","6","5","5","6","5","5","7","5","6","1","4","6","4","1","5","3","4","4","7","5","3","6","3","1","3","4","6","5","7","7","3","4","7","1","3","4","3","3","4","3","778036466176757761","刘","467","Female","[""坏我"",""坏她"",""好她"",""好我""]","[""弱我"",""弱她"",""强她"",""强我""]","","true","","","","","{}","","","","","","","","","","","","","","","","","","","","","","","","","","","","","","","",""
"19521.19999998808","","{""Q01"":""6"",""Q02"":""6"",""Q03"":""6"",""Q04"":""5"",""Q05"":""5""}","survey-template","5","62345","0.0-4.0","6","6","6","5","5","4","2","4","4","5","4","1","0","0","1","1","1","1","2","5","4","5","5","4","3","4","4","4","3","6","5","5","6","4","4","5","5","5","3","6","5","5","6","5","5","7","5","6","1","4","6","4","1","5","3","4","4","7","5","3","6","3","1","3","4","6","5","7","7","3","4","7","1","3","4","3","3","4","3","778036466176757761","刘","467","Female","[""坏我"",""坏她"",""好她"",""好我""]","[""弱我"",""弱她"",""强她"",""强我""]","","","","","","","","{""Q01"":""6"",""Q02"":""6"",""Q03"":""6"",""Q04"":""5"",""Q05"":""5""}","[0,1,2,3,4]","[""Q01"",""Q02"",""Q03"",""Q04"",""Q05""]","[7943.399999976158,10849.899999976158,11952.299999982119,14970.5,18558.09999999404]","[]","[7943.399999976158,10849.899999976158,11952.299999982119,14970.5,18558.09999999404,19519.899999976158]","0.6","0.25","0","","","","","","","","","","","","","","","","","","","","","","",""
"24658.80000001192","","{""Q01"":""4"",""Q02"":""2"",""Q03"":""4"",""Q04"":""4"",""Q05"":""5"",""Q06"":""4""}","survey-template","6","87008","0.0-5.0","6","6","6","5","5","4","2","4","4","5","4","1","0","0","1","1","1","1","2","5","4","5","5","4","3","4","4","4","3","6","5","5","6","4","4","5","5","5","3","6","5","5","6","5","5","7","5","6","1","4","6","4","1","5","3","4","4","7","5","3","6","3","1","3","4","6","5","7","7","3","4","7","1","3","4","3","3","4","3","778036466176757761","刘","467","Female","[""坏我"",""坏她"",""好她"",""好我""]","[""弱我"",""弱她"",""强她"",""强我""]","","","","","","","","{""Q01"":""4"",""Q02"":""2"",""Q03"":""4"",""Q04"":""4"",""Q05"":""5"",""Q06"":""4""}","[0,1,2,3,4,5]","[""Q01"",""Q02"",""Q03"",""Q04"",""Q05"",""Q06""]","[5150,9670,11660,14530.5,17866.80000001192,23200.20000001788]","[]","[4040.100000023842,5150,9670,11660,14530.5,17866.80000001192,23200.20000001788,24657.70000001788]","0.6666666666666666","0.2","0","","","","","","","","","","","","","","","","","","","","","","",""
"30770","","{""Q01"":""1"",""Q02"":""0"",""Q03"":""0"",""Q04"":""1"",""Q05"":""1"",""Q06"":""1"",""Q07"":""1"",""Q08"":""2""}","survey-template","7","117783","0.0-6.0","6","6","6","5","5","4","2","4","4","5","4","1","0","0","1","1","1","1","2","5","4","5","5","4","3","4","4","4","3","6","5","5","6","4","4","5","5","5","3","6","5","5","6","5","5","7","5","6","1","4","6","4","1","5","3","4","4","7","5","3","6","3","1","3","4","6","5","7","7","3","4","7","1","3","4","3","3","4","3","778036466176757761","刘","467","Female","[""坏我"",""坏她"",""好她"",""好我""]","[""弱我"",""弱她"",""强她"",""强我""]","","","","","","","","{""Q01"":""1"",""Q02"":""0"",""Q03"":""0"",""Q04"":""1"",""Q05"":""1"",""Q06"":""1"",""Q07"":""1"",""Q08"":""2""}","[0,1,2,3,4,5,6,7]","[""Q01"",""Q02"",""Q03"",""Q04"",""Q05"",""Q06"",""Q07"",""Q08"",""Q08""]","[4404.0999999940395,9456.5,14967.5,18910.5,21602.59999999404,24399.09999999404,26773.5,28319.30000001192,29968.80000001192]","[]","[4404.0999999940395,9456.5,14967.5,18910.5,21602.59999999404,24399.09999999404,26773.5,28319.30000001192,29968.80000001192,30768.40000000596]","0.625","0.42857142857142855","0","","","","","","","","","","","","","","","","","","","","","","",""
"8218","
    <p><div style='color:white;font-size:35px; line-height:20px;'>词汇评估任务</div></p><br>
    <p><div style='color:white;font-size:25px; line-height:20px;'>请再次回忆该亲密的朋友，你们至少2年前就认识了，并且最近2年经常见面。</div></p>
    <p><div style='color:white;font-size:25px; line-height:20px;'>在本实验中，您将会看到一些形容词。</div></p>
    <p><div style='color:yellow;font-size:25px; line-height:20px;'>您的任务是判断这些形容词是否符合对您自己或您的朋友的描述。</div></p><p style='font-size:35px'>符合按<span style=""color:lightgreen""> j 键</span>，不符合按<span style=""color:red""> f 键</span></p>","0","html-button-response","8","126005","0.0-7.0-0.0","6","6","6","5","5","4","2","4","4","5","4","1","0","0","1","1","1","1","2","5","4","5","5","4","3","4","4","4","3","6","5","5","6","4","4","5","5","5","3","6","5","5","6","5","5","7","5","6","1","4","6","4","1","5","3","4","4","7","5","3","6","3","1","3","4","6","5","7","7","3","4","7","1","3","4","3","3","4","3","778036466176757761","刘","467","Female","[""坏我"",""坏她"",""好她"",""好我""]","[""弱我"",""弱她"",""强她"",""强我""]","","","","","","","","","","","","","","","","","SRET_EW","EW_instructions","Tue Jan 16 2024 04:40:17 GMT-0800 (北美太平洋标准时间)","","","","","","","","","","","","","","","","","","","",""
"null","","null","psychophysics","9","129012","0.0-7.0-1.0-0.0","6","6","6","5","5","4","2","4","4","5","4","1","0","0","1","1","1","1","2","5","4","5","5","4","3","4","4","4","3","6","5","5","6","4","4","5","5","5","3","6","5","5","6","5","5","7","5","6","1","4","6","4","1","5","3","4","4","7","5","3","6","3","1","3","4","6","5","7","7","3","4","7","1","3","4","3","3","4","3","778036466176757761","刘","467","Female","[""坏我"",""坏她"",""好她"",""好我""]","[""弱我"",""弱她"",""强她"",""强我""]","","","","","","","","","","","","","","","","","SRET_EW","EW_practice","","key","null","16.758659217877028","960","536","朋友","徇私","Negative","morality","","","","","","","","","","",""
"1182","","j","psychophysics","10","131205","0.0-7.0-1.0-0.1","6","6","6","5","5","4","2","4","4","5","4","1","0","0","1","1","1","1","2","5","4","5","5","4","3","4","4","4","3","6","5","5","6","4","4","5","5","5","3","6","5","5","6","5","5","7","5","6","1","4","6","4","1","5","3","4","4","7","5","3","6","3","1","3","4","6","5","7","7","3","4","7","1","3","4","3","3","4","3","778036466176757761","刘","467","Female","[""坏我"",""坏她"",""好她"",""好我""]","[""弱我"",""弱她"",""强她"",""强我""]","","","","","","","","yes","","","","","","","","","SRET_EW","EW_practice","","key","j","16.666412213740593","960","536","朋友","忠实","Positive","morality","","","","","","","","","","",""
"906","","f","psychophysics","11","133117","0.0-7.0-1.0-0.2","6","6","6","5","5","4","2","4","4","5","4","1","0","0","1","1","1","1","2","5","4","5","5","4","3","4","4","4","3","6","5","5","6","4","4","5","5","5","3","6","5","5","6","5","5","7","5","6","1","4","6","4","1","5","3","4","4","7","5","3","6","3","1","3","4","6","5","7","7","3","4","7","1","3","4","3","3","4","3","778036466176757761","刘","467","Female","[""坏我"",""坏她"",""好她"",""好我""]","[""弱我"",""弱她"",""强她"",""强我""]","","","","","","","","no","","","","","","","","","SRET_EW","EW_practice","","key","f","16.667256637168347","960","536","自己","刻板","Negative","ability","","","","","","","","","","",""
"1206","","j","psychophysics","12","135329","0.0-7.0-1.0-0.3","6","6","6","5","5","4","2","4","4","5","4","1","0","0","1","1","1","1","2","5","4","5","5","4","3","4","4","4","3","6","5","5","6","4","4","5","5","5","3","6","5","5","6","5","5","7","5","6","1","4","6","4","1","5","3","4","4","7","5","3","6","3","1","3","4","6","5","7","7","3","4","7","1","3","4","3","3","4","3","778036466176757761","刘","467","Female","[""坏我"",""坏她"",""好她"",""好我""]","[""弱我"",""弱她"",""强她"",""强我""]","","","","","","","","yes","","","","","","","","","SRET_EW","EW_practice","","key","j","16.665909090909047","960","536","自己","严谨","Positive","ability","","","","","","","","","","",""
"20759","
    <p><div style='color:white;font-size:35px; line-height:20px;'>请您再次阅读实验要求</div></p><br>
    <p><div style='color:white;font-size:25px; line-height:20px;'>请回忆某一个亲密的朋友，你们至少2年前就认识了，并且最近2年经常见面。</div></p>
    <p><div style='color:white;font-size:25px; line-height:20px;'>在本实验中，您将会看到一些形容词。</div></p>
    <p><div style='color:yellow;font-size:25px; line-height:20px;'>您的任务是判断这些形容词是否符合对您自己或您的朋友的描述。</div></p>
    <p><div class='footer' style='font-size:25px; line-height:20px;'>如果对本实验还有不清楚之处，请立即向实验员咨询。</p><p style='font-size:25px; line-height:20px;'>如果您明白了规则：</p><p style='font-size:22px; line-height:20px;'>请按 继续 进入正式实验</p>
    </div>
    <p style='font-size:35px'>符合按<span style=""color:lightgreen""> j 键</span>，不符合按<span style=""color:red""> f 键</span></p>","0","html-button-response","13","156093","0.0-7.0-2.0","6","6","6","5","5","4","2","4","4","5","4","1","0","0","1","1","1","1","2","5","4","5","5","4","3","4","4","4","3","6","5","5","6","4","4","5","5","5","3","6","5","5","6","5","5","7","5","6","1","4","6","4","1","5","3","4","4","7","5","3","6","3","1","3","4","6","5","7","7","3","4","7","1","3","4","3","3","4","3","778036466176757761","刘","467","Female","[""坏我"",""坏她"",""好她"",""好我""]","[""弱我"",""弱她"",""强她"",""强我""]","","","","","","","","","","","","","","","","","SRET_EW","prac_instructions","Tue Jan 16 2024 04:40:17 GMT-0800 (北美太平洋标准时间)","","","","","","","","","","","","","","","","","","","",""
"975","","f","psychophysics","14","158070","0.0-7.0-3.0-0.0","6","6","6","5","5","4","2","4","4","5","4","1","0","0","1","1","1","1","2","5","4","5","5","4","3","4","4","4","3","6","5","5","6","4","4","5","5","5","3","6","5","5","6","5","5","7","5","6","1","4","6","4","1","5","3","4","4","7","5","3","6","3","1","3","4","6","5","7","7","3","4","7","1","3","4","3","3","4","3","778036466176757761","刘","467","Female","[""坏我"",""坏她"",""好她"",""好我""]","[""弱我"",""弱她"",""强她"",""强我""]","","","","","","","","no","","","","","","","","","SRET","EW_formal","","key","f","16.66218487394948","960","536","朋友","迷糊","Negative","ability","","","","","","","","","","",""
"944","","j","psychophysics","15","160019","0.0-7.0-3.0-0.1","6","6","6","5","5","4","2","4","4","5","4","1","0","0","1","1","1","1","2","5","4","5","5","4","3","4","4","4","3","6","5","5","6","4","4","5","5","5","3","6","5","5","6","5","5","7","5","6","1","4","6","4","1","5","3","4","4","7","5","3","6","3","1","3","4","6","5","7","7","3","4","7","1","3","4","3","3","4","3","778036466176757761","刘","467","Female","[""坏我"",""坏她"",""好她"",""好我""]","[""弱我"",""弱她"",""强她"",""强我""]","","","","","","","","yes","","","","","","","","","SRET","EW_formal","","key","j","16.666379310344727","960","536","朋友","务实","Positive","ability","","","","","","","","","","",""
"978","","j","psychophysics","16","162009","0.0-7.0-3.0-0.2","6","6","6","5","5","4","2","4","4","5","4","1","0","0","1","1","1","1","2","5","4","5","5","4","3","4","4","4","3","6","5","5","6","4","4","5","5","5","3","6","5","5","6","5","5","7","5","6","1","4","6","4","1","5","3","4","4","7","5","3","6","3","1","3","4","6","5","7","7","3","4","7","1","3","4","3","3","4","3","778036466176757761","刘","467","Female","[""坏我"",""坏她"",""好她"",""好我""]","[""弱我"",""弱她"",""强她"",""强我""]","","","","","","","","yes","","","","","","","","","SRET","EW_formal","","key","j","16.667796610169393","960","536","自己","坚贞","Positive","morality","","","","","","","","","","",""
"964","","f","psychophysics","17","163977","0.0-7.0-3.0-0.3","6","6","6","5","5","4","2","4","4","5","4","1","0","0","1","1","1","1","2","5","4","5","5","4","3","4","4","4","3","6","5","5","6","4","4","5","5","5","3","6","5","5","6","5","5","7","5","6","1","4","6","4","1","5","3","4","4","7","5","3","6","3","1","3","4","6","5","7","7","3","4","7","1","3","4","3","3","4","3","778036466176757761","刘","467","Female","[""坏我"",""坏她"",""好她"",""好我""]","[""弱我"",""弱她"",""强她"",""强我""]","","","","","","","","no","","","","","","","","","SRET","EW_formal","","key","f","16.666666666666668","960","536","自己","说谎","Negative","morality","","","","","","","","","","",""
"1078","","j","psychophysics","18","166060","0.0-7.0-3.0-0.4","6","6","6","5","5","4","2","4","4","5","4","1","0","0","1","1","1","1","2","5","4","5","5","4","3","4","4","4","3","6","5","5","6","4","4","5","5","5","3","6","5","5","6","5","5","7","5","6","1","4","6","4","1","5","3","4","4","7","5","3","6","3","1","3","4","6","5","7","7","3","4","7","1","3","4","3","3","4","3","778036466176757761","刘","467","Female","[""坏我"",""坏她"",""好她"",""好我""]","[""弱我"",""弱她"",""强她"",""强我""]","","","","","","","","yes","","","","","","","","","SRET","EW_formal","","key","j","16.667741935484013","960","536","自己","廉正","Positive","morality","","","","","","","","","","",""
"1390","","j","psychophysics","19","168454","0.0-7.0-3.0-0.5","6","6","6","5","5","4","2","4","4","5","4","1","0","0","1","1","1","1","2","5","4","5","5","4","3","4","4","4","3","6","5","5","6","4","4","5","5","5","3","6","5","5","6","5","5","7","5","6","1","4","6","4","1","5","3","4","4","7","5","3","6","3","1","3","4","6","5","7","7","3","4","7","1","3","4","3","3","4","3","778036466176757761","刘","467","Female","[""坏我"",""坏她"",""好她"",""好我""]","[""弱我"",""弱她"",""强她"",""强我""]","","","","","","","","yes","","","","","","","","","SRET","EW_formal","","key","j","16.667132867132825","960","536","自己","奉献","Positive","morality","","","","","","","","","","",""
"1036","","f","psychophysics","20","170496","0.0-7.0-3.0-0.6","6","6","6","5","5","4","2","4","4","5","4","1","0","0","1","1","1","1","2","5","4","5","5","4","3","4","4","4","3","6","5","5","6","4","4","5","5","5","3","6","5","5","6","5","5","7","5","6","1","4","6","4","1","5","3","4","4","7","5","3","6","3","1","3","4","6","5","7","7","3","4","7","1","3","4","3","3","4","3","778036466176757761","刘","467","Female","[""坏我"",""坏她"",""好她"",""好我""]","[""弱我"",""弱她"",""强她"",""强我""]","","","","","","","","no","","","","","","","","","SRET","EW_formal","","key","f","16.666942148760427","960","536","朋友","短浅","Negative","ability","","","","","","","","","","",""
"1141","","j","psychophysics","21","172647","0.0-7.0-3.0-0.7","6","6","6","5","5","4","2","4","4","5","4","1","0","0","1","1","1","1","2","5","4","5","5","4","3","4","4","4","3","6","5","5","6","4","4","5","5","5","3","6","5","5","6","5","5","7","5","6","1","4","6","4","1","5","3","4","4","7","5","3","6","3","1","3","4","6","5","7","7","3","4","7","1","3","4","3","3","4","3","778036466176757761","刘","467","Female","[""坏我"",""坏她"",""好她"",""好我""]","[""弱我"",""弱她"",""强她"",""强我""]","","","","","","","","yes","","","","","","","","","SRET","EW_formal","","key","j","16.667187499999955","960","536","朋友","谦逊","Positive","morality","","","","","","","","","","",""
"740","","f","psychophysics","22","174397","0.0-7.0-3.0-0.8","6","6","6","5","5","4","2","4","4","5","4","1","0","0","1","1","1","1","2","5","4","5","5","4","3","4","4","4","3","6","5","5","6","4","4","5","5","5","3","6","5","5","6","5","5","7","5","6","1","4","6","4","1","5","3","4","4","7","5","3","6","3","1","3","4","6","5","7","7","3","4","7","1","3","4","3","3","4","3","778036466176757761","刘","467","Female","[""坏我"",""坏她"",""好她"",""好我""]","[""弱我"",""弱她"",""强她"",""强我""]","","","","","","","","no","","","","","","","","","SRET","EW_formal","","key","f","16.66826923076923","960","536","朋友","混账","Negative","morality","","","","","","","","","","",""
"1492","","f","psychophysics","23","176914","0.0-7.0-3.0-0.9","6","6","6","5","5","4","2","4","4","5","4","1","0","0","1","1","1","1","2","5","4","5","5","4","3","4","4","4","3","6","5","5","6","4","4","5","5","5","3","6","5","5","6","5","5","7","5","6","1","4","6","4","1","5","3","4","4","7","5","3","6","3","1","3","4","6","5","7","7","3","4","7","1","3","4","3","3","4","3","778036466176757761","刘","467","Female","[""坏我"",""坏她"",""好她"",""好我""]","[""弱我"",""弱她"",""强她"",""强我""]","","","","","","","","no","","","","","","","","","SRET","EW_formal","","key","f","16.66599999999996","960","536","自己","窝囊","Negative","ability","","","","","","","","","","",""
"null","","null","psychophysics","24","179925","0.0-7.0-3.0-0.10","6","6","6","5","5","4","2","4","4","5","4","1","0","0","1","1","1","1","2","5","4","5","5","4","3","4","4","4","3","6","5","5","6","4","4","5","5","5","3","6","5","5","6","5","5","7","5","6","1","4","6","4","1","5","3","4","4","7","5","3","6","3","1","3","4","6","5","7","7","3","4","7","1","3","4","3","3","4","3","778036466176757761","刘","467","Female","[""坏我"",""坏她"",""好她"",""好我""]","[""弱我"",""弱她"",""强她"",""强我""]","","","","","","","","","","","","","","","","","SRET","EW_formal","","key","null","16.666666666666668","960","536","自己","敏捷","Positive","ability","","","","","","","","","","",""
"1074","","j","psychophysics","25","182003","0.0-7.0-3.0-0.11","6","6","6","5","5","4","2","4","4","5","4","1","0","0","1","1","1","1","2","5","4","5","5","4","3","4","4","4","3","6","5","5","6","4","4","5","5","5","3","6","5","5","6","5","5","7","5","6","1","4","6","4","1","5","3","4","4","7","5","3","6","3","1","3","4","6","5","7","7","3","4","7","1","3","4","3","3","4","3","778036466176757761","刘","467","Female","[""坏我"",""坏她"",""好她"",""好我""]","[""弱我"",""弱她"",""强她"",""强我""]","","","","","","","","yes","","","","","","","","","SRET","EW_formal","","key","j","16.666129032258112","960","536","朋友","全才","Positive","ability","","","","","","","","","","",""
"946","","j","psychophysics","26","183959","0.0-7.0-3.0-0.12","6","6","6","5","5","4","2","4","4","5","4","1","0","0","1","1","1","1","2","5","4","5","5","4","3","4","4","4","3","6","5","5","6","4","4","5","5","5","3","6","5","5","6","5","5","7","5","6","1","4","6","4","1","5","3","4","4","7","5","3","6","3","1","3","4","6","5","7","7","3","4","7","1","3","4","3","3","4","3","778036466176757761","刘","467","Female","[""坏我"",""坏她"",""好她"",""好我""]","[""弱我"",""弱她"",""强她"",""强我""]","","","","","","","","yes","","","","","","","","","SRET","EW_formal","","key","j","16.66896551724118","960","536","自己","宽容","Positive","morality","","","","","","","","","","",""
"902","","j","psychophysics","27","185864","0.0-7.0-3.0-0.13","6","6","6","5","5","4","2","4","4","5","4","1","0","0","1","1","1","1","2","5","4","5","5","4","3","4","4","4","3","6","5","5","6","4","4","5","5","5","3","6","5","5","6","5","5","7","5","6","1","4","6","4","1","5","3","4","4","7","5","3","6","3","1","3","4","6","5","7","7","3","4","7","1","3","4","3","3","4","3","778036466176757761","刘","467","Female","[""坏我"",""坏她"",""好她"",""好我""]","[""弱我"",""弱她"",""强她"",""强我""]","","","","","","","","yes","","","","","","","","","SRET","EW_formal","","key","j","16.664035087719146","960","536","朋友","果断","Positive","ability","","","","","","","","","","",""
"null","","null","psychophysics","28","188866","0.0-7.0-3.0-0.14","6","6","6","5","5","4","2","4","4","5","4","1","0","0","1","1","1","1","2","5","4","5","5","4","3","4","4","4","3","6","5","5","6","4","4","5","5","5","3","6","5","5","6","5","5","7","5","6","1","4","6","4","1","5","3","4","4","7","5","3","6","3","1","3","4","6","5","7","7","3","4","7","1","3","4","3","3","4","3","778036466176757761","刘","467","Female","[""坏我"",""坏她"",""好她"",""好我""]","[""弱我"",""弱她"",""强她"",""强我""]","","","","","","","","","","","","","","","","","SRET","EW_formal","","key","null","16.667039106145218","960","536","自己","愚痴","Negative","ability","","","","","","","","","","",""
"882","","f","psychophysics","29","190752","0.0-7.0-3.0-0.15","6","6","6","5","5","4","2","4","4","5","4","1","0","0","1","1","1","1","2","5","4","5","5","4","3","4","4","4","3","6","5","5","6","4","4","5","5","5","3","6","5","5","6","5","5","7","5","6","1","4","6","4","1","5","3","4","4","7","5","3","6","3","1","3","4","6","5","7","7","3","4","7","1","3","4","3","3","4","3","778036466176757761","刘","467","Female","[""坏我"",""坏她"",""好她"",""好我""]","[""弱我"",""弱她"",""强她"",""强我""]","","","","","","","","no","","","","","","","","","SRET","EW_formal","","key","f","16.66607142857148","960","536","自己","狡诈","Negative","morality","","","","","","","","","","",""
"947","","f","psychophysics","30","192703","0.0-7.0-3.0-0.16","6","6","6","5","5","4","2","4","4","5","4","1","0","0","1","1","1","1","2","5","4","5","5","4","3","4","4","4","3","6","5","5","6","4","4","5","5","5","3","6","5","5","6","5","5","7","5","6","1","4","6","4","1","5","3","4","4","7","5","3","6","3","1","3","4","6","5","7","7","3","4","7","1","3","4","3","3","4","3","778036466176757761","刘","467","Female","[""坏我"",""坏她"",""好她"",""好我""]","[""弱我"",""弱她"",""强她"",""强我""]","","","","","","","","no","","","","","","","","","SRET","EW_formal","","key","f","16.667241379310546","960","536","自己","拙笨","Negative","ability","","","","","","","","","","",""
"1053","","f","psychophysics","31","194760","0.0-7.0-3.0-0.17","6","6","6","5","5","4","2","4","4","5","4","1","0","0","1","1","1","1","2","5","4","5","5","4","3","4","4","4","3","6","5","5","6","4","4","5","5","5","3","6","5","5","6","5","5","7","5","6","1","4","6","4","1","5","3","4","4","7","5","3","6","3","1","3","4","6","5","7","7","3","4","7","1","3","4","3","3","4","3","778036466176757761","刘","467","Female","[""坏我"",""坏她"",""好她"",""好我""]","[""弱我"",""弱她"",""强她"",""强我""]","","","","","","","","no","","","","","","","","","SRET","EW_formal","","key","f","16.668032786885245","960","536","朋友","高明","Positive","ability","","","","","","","","","","",""
"655","","f","psychophysics","32","196423","0.0-7.0-3.0-0.18","6","6","6","5","5","4","2","4","4","5","4","1","0","0","1","1","1","1","2","5","4","5","5","4","3","4","4","4","3","6","5","5","6","4","4","5","5","5","3","6","5","5","6","5","5","7","5","6","1","4","6","4","1","5","3","4","4","7","5","3","6","3","1","3","4","6","5","7","7","3","4","7","1","3","4","3","3","4","3","778036466176757761","刘","467","Female","[""坏我"",""坏她"",""好她"",""好我""]","[""弱我"",""弱她"",""强她"",""强我""]","","","","","","","","no","","","","","","","","","SRET","EW_formal","","key","f","16.666666666666668","960","536","朋友","刻薄","Negative","morality","","","","","","","","","","",""
"924","","j","psychophysics","33","198351","0.0-7.0-3.0-0.19","6","6","6","5","5","4","2","4","4","5","4","1","0","0","1","1","1","1","2","5","4","5","5","4","3","4","4","4","3","6","5","5","6","4","4","5","5","5","3","6","5","5","6","5","5","7","5","6","1","4","6","4","1","5","3","4","4","7","5","3","6","3","1","3","4","6","5","7","7","3","4","7","1","3","4","3","3","4","3","778036466176757761","刘","467","Female","[""坏我"",""坏她"",""好她"",""好我""]","[""弱我"",""弱她"",""强她"",""强我""]","","","","","","","","yes","","","","","","","","","SRET","EW_formal","","key","j","16.66608695652179","960","536","自己","君子","Positive","morality","","","","","","","","","","",""
"1366","","j","psychophysics","34","200722","0.0-7.0-3.0-0.20","6","6","6","5","5","4","2","4","4","5","4","1","0","0","1","1","1","1","2","5","4","5","5","4","3","4","4","4","3","6","5","5","6","4","4","5","5","5","3","6","5","5","6","5","5","7","5","6","1","4","6","4","1","5","3","4","4","7","5","3","6","3","1","3","4","6","5","7","7","3","4","7","1","3","4","3","3","4","3","778036466176757761","刘","467","Female","[""坏我"",""坏她"",""好她"",""好我""]","[""弱我"",""弱她"",""强她"",""强我""]","","","","","","","","yes","","","","","","","","","SRET","EW_formal","","key","j","16.66808510638306","960","536","朋友","业余","Negative","ability","","","","","","","","","","",""
"961","","j","psychophysics","35","202687","0.0-7.0-3.0-0.21","6","6","6","5","5","4","2","4","4","5","4","1","0","0","1","1","1","1","2","5","4","5","5","4","3","4","4","4","3","6","5","5","6","4","4","5","5","5","3","6","5","5","6","5","5","7","5","6","1","4","6","4","1","5","3","4","4","7","5","3","6","3","1","3","4","6","5","7","7","3","4","7","1","3","4","3","3","4","3","778036466176757761","刘","467","Female","[""坏我"",""坏她"",""好她"",""好我""]","[""弱我"",""弱她"",""强她"",""强我""]","","","","","","","","yes","","","","","","","","","SRET","EW_formal","","key","j","16.665811965811915","960","536","自己","侠义","Positive","morality","","","","","","","","","","",""
"1343","","f","psychophysics","36","205035","0.0-7.0-3.0-0.22","6","6","6","5","5","4","2","4","4","5","4","1","0","0","1","1","1","1","2","5","4","5","5","4","3","4","4","4","3","6","5","5","6","4","4","5","5","5","3","6","5","5","6","5","5","7","5","6","1","4","6","4","1","5","3","4","4","7","5","3","6","3","1","3","4","6","5","7","7","3","4","7","1","3","4","3","3","4","3","778036466176757761","刘","467","Female","[""坏我"",""坏她"",""好她"",""好我""]","[""弱我"",""弱她"",""强她"",""强我""]","","","","","","","","no","","","","","","","","","SRET","EW_formal","","key","f","16.66571428571437","960","536","自己","不仁","Negative","morality","","","","","","","","","","",""
"1073","","f","psychophysics","37","207112","0.0-7.0-3.0-0.23","6","6","6","5","5","4","2","4","4","5","4","1","0","0","1","1","1","1","2","5","4","5","5","4","3","4","4","4","3","6","5","5","6","4","4","5","5","5","3","6","5","5","6","5","5","7","5","6","1","4","6","4","1","5","3","4","4","7","5","3","6","3","1","3","4","6","5","7","7","3","4","7","1","3","4","3","3","4","3","778036466176757761","刘","467","Female","[""坏我"",""坏她"",""好她"",""好我""]","[""弱我"",""弱她"",""强她"",""强我""]","","","","","","","","no","","","","","","","","","SRET","EW_formal","","key","f","16.667479674796795","960","536","自己","畏难","Negative","ability","","","","","","","","","","",""
"1296","","f","psychophysics","38","209417","0.0-7.0-3.0-0.24","6","6","6","5","5","4","2","4","4","5","4","1","0","0","1","1","1","1","2","5","4","5","5","4","3","4","4","4","3","6","5","5","6","4","4","5","5","5","3","6","5","5","6","5","5","7","5","6","1","4","6","4","1","5","3","4","4","7","5","3","6","3","1","3","4","6","5","7","7","3","4","7","1","3","4","3","3","4","3","778036466176757761","刘","467","Female","[""坏我"",""坏她"",""好她"",""好我""]","[""弱我"",""弱她"",""强她"",""强我""]","","","","","","","","no","","","","","","","","","SRET","EW_formal","","key","f","16.66739130434787","960","536","自己","博识","Positive","ability","","","","","","","","","","",""
"1115","","f","psychophysics","39","211536","0.0-7.0-3.0-0.25","6","6","6","5","5","4","2","4","4","5","4","1","0","0","1","1","1","1","2","5","4","5","5","4","3","4","4","4","3","6","5","5","6","4","4","5","5","5","3","6","5","5","6","5","5","7","5","6","1","4","6","4","1","5","3","4","4","7","5","3","6","3","1","3","4","6","5","7","7","3","4","7","1","3","4","3","3","4","3","778036466176757761","刘","467","Female","[""坏我"",""坏她"",""好她"",""好我""]","[""弱我"",""弱她"",""强她"",""强我""]","","","","","","","","no","","","","","","","","","SRET","EW_formal","","key","f","16.667460317460364","960","536","朋友","阴毒","Negative","morality","","","","","","","","","","",""
"775","","f","psychophysics","40","213314","0.0-7.0-3.0-0.26","6","6","6","5","5","4","2","4","4","5","4","1","0","0","1","1","1","1","2","5","4","5","5","4","3","4","4","4","3","6","5","5","6","4","4","5","5","5","3","6","5","5","6","5","5","7","5","6","1","4","6","4","1","5","3","4","4","7","5","3","6","3","1","3","4","6","5","7","7","3","4","7","1","3","4","3","3","4","3","778036466176757761","刘","467","Female","[""坏我"",""坏她"",""好她"",""好我""]","[""弱我"",""弱她"",""强她"",""强我""]","","","","","","","","no","","","","","","","","","SRET","EW_formal","","key","f","16.6676190476191","960","536","朋友","奸诈","Negative","morality","","","","","","","","","","",""
"1232","","f","psychophysics","41","215551","0.0-7.0-3.0-0.27","6","6","6","5","5","4","2","4","4","5","4","1","0","0","1","1","1","1","2","5","4","5","5","4","3","4","4","4","3","6","5","5","6","4","4","5","5","5","3","6","5","5","6","5","5","7","5","6","1","4","6","4","1","5","3","4","4","7","5","3","6","3","1","3","4","6","5","7","7","3","4","7","1","3","4","3","3","4","3","778036466176757761","刘","467","Female","[""坏我"",""坏她"",""好她"",""好我""]","[""弱我"",""弱她"",""强她"",""强我""]","","","","","","","","no","","","","","","","","","SRET","EW_formal","","key","f","16.667164179104436","960","536","自己","小人","Negative","morality","","","","","","","","","","",""
"739","","f","psychophysics","42","217300","0.0-7.0-3.0-0.28","6","6","6","5","5","4","2","4","4","5","4","1","0","0","1","1","1","1","2","5","4","5","5","4","3","4","4","4","3","6","5","5","6","4","4","5","5","5","3","6","5","5","6","5","5","7","5","6","1","4","6","4","1","5","3","4","4","7","5","3","6","3","1","3","4","6","5","7","7","3","4","7","1","3","4","3","3","4","3","778036466176757761","刘","467","Female","[""坏我"",""坏她"",""好她"",""好我""]","[""弱我"",""弱她"",""强她"",""强我""]","","","","","","","","no","","","","","","","","","SRET","EW_formal","","key","f","16.667307692307638","960","536","自己","歹毒","Negative","morality","","","","","","","","","","",""
"918","","j","psychophysics","43","219229","0.0-7.0-3.0-0.29","6","6","6","5","5","4","2","4","4","5","4","1","0","0","1","1","1","1","2","5","4","5","5","4","3","4","4","4","3","6","5","5","6","4","4","5","5","5","3","6","5","5","6","5","5","7","5","6","1","4","6","4","1","5","3","4","4","7","5","3","6","3","1","3","4","6","5","7","7","3","4","7","1","3","4","3","3","4","3","778036466176757761","刘","467","Female","[""坏我"",""坏她"",""好她"",""好我""]","[""弱我"",""弱她"",""强她"",""强我""]","","","","","","","","yes","","","","","","","","","SRET","EW_formal","","key","j","16.668421052631682","960","536","朋友","忠良","Positive","morality","","","","","","","","","","",""
"927","","j","psychophysics","44","221162","0.0-7.0-3.0-0.30","6","6","6","5","5","4","2","4","4","5","4","1","0","0","1","1","1","1","2","5","4","5","5","4","3","4","4","4","3","6","5","5","6","4","4","5","5","5","3","6","5","5","6","5","5","7","5","6","1","4","6","4","1","5","3","4","4","7","5","3","6","3","1","3","4","6","5","7","7","3","4","7","1","3","4","3","3","4","3","778036466176757761","刘","467","Female","[""坏我"",""坏她"",""好她"",""好我""]","[""弱我"",""弱她"",""强她"",""强我""]","","","","","","","","yes","","","","","","","","","SRET","EW_formal","","key","j","16.66695652173923","960","536","朋友","努力","Positive","ability","","","","","","","","","","",""
"1240","","f","psychophysics","45","223407","0.0-7.0-3.0-0.31","6","6","6","5","5","4","2","4","4","5","4","1","0","0","1","1","1","1","2","5","4","5","5","4","3","4","4","4","3","6","5","5","6","4","4","5","5","5","3","6","5","5","6","5","5","7","5","6","1","4","6","4","1","5","3","4","4","7","5","3","6","3","1","3","4","6","5","7","7","3","4","7","1","3","4","3","3","4","3","778036466176757761","刘","467","Female","[""坏我"",""坏她"",""好她"",""好我""]","[""弱我"",""弱她"",""强她"",""强我""]","","","","","","","","no","","","","","","","","","SRET","EW_formal","","key","f","16.667164179104436","960","536","朋友","清廉","Positive","morality","","","","","","","","","","",""
"1099","","j","psychophysics","46","225517","0.0-7.0-3.0-0.32","6","6","6","5","5","4","2","4","4","5","4","1","0","0","1","1","1","1","2","5","4","5","5","4","3","4","4","4","3","6","5","5","6","4","4","5","5","5","3","6","5","5","6","5","5","7","5","6","1","4","6","4","1","5","3","4","4","7","5","3","6","3","1","3","4","6","5","7","7","3","4","7","1","3","4","3","3","4","3","778036466176757761","刘","467","Female","[""坏我"",""坏她"",""好她"",""好我""]","[""弱我"",""弱她"",""强她"",""强我""]","","","","","","","","yes","","","","","","","","","SRET","EW_formal","","key","j","16.666666666666668","960","536","自己","周到","Positive","ability","","","","","","","","","","",""
"999","","f","psychophysics","47","227521","0.0-7.0-3.0-0.33","6","6","6","5","5","4","2","4","4","5","4","1","0","0","1","1","1","1","2","5","4","5","5","4","3","4","4","4","3","6","5","5","6","4","4","5","5","5","3","6","5","5","6","5","5","7","5","6","1","4","6","4","1","5","3","4","4","7","5","3","6","3","1","3","4","6","5","7","7","3","4","7","1","3","4","3","3","4","3","778036466176757761","刘","467","Female","[""坏我"",""坏她"",""好她"",""好我""]","[""弱我"",""弱她"",""强她"",""强我""]","","","","","","","","no","","","","","","","","","SRET","EW_formal","","key","f","16.667226890756254","960","536","朋友","独断","Negative","ability","","","","","","","","","","",""
"899","","f","psychophysics","48","229424","0.0-7.0-3.0-0.34","6","6","6","5","5","4","2","4","4","5","4","1","0","0","1","1","1","1","2","5","4","5","5","4","3","4","4","4","3","6","5","5","6","4","4","5","5","5","3","6","5","5","6","5","5","7","5","6","1","4","6","4","1","5","3","4","4","7","5","3","6","3","1","3","4","6","5","7","7","3","4","7","1","3","4","3","3","4","3","778036466176757761","刘","467","Female","[""坏我"",""坏她"",""好她"",""好我""]","[""弱我"",""弱她"",""强她"",""强我""]","","","","","","","","no","","","","","","","","","SRET","EW_formal","","key","f","16.666371681415825","960","536","朋友","无知","Negative","ability","","","","","","","","","","",""
"956","","j","psychophysics","49","231392","0.0-7.0-3.0-0.35","6","6","6","5","5","4","2","4","4","5","4","1","0","0","1","1","1","1","2","5","4","5","5","4","3","4","4","4","3","6","5","5","6","4","4","5","5","5","3","6","5","5","6","5","5","7","5","6","1","4","6","4","1","5","3","4","4","7","5","3","6","3","1","3","4","6","5","7","7","3","4","7","1","3","4","3","3","4","3","778036466176757761","刘","467","Female","[""坏我"",""坏她"",""好她"",""好我""]","[""弱我"",""弱她"",""强她"",""强我""]","","","","","","","","yes","","","","","","","","","SRET","EW_formal","","key","j","16.667521367521417","960","536","朋友","细心","Positive","ability","","","","","","","","","","",""
"1054","","f","psychophysics","50","233457","0.0-7.0-3.0-0.36","6","6","6","5","5","4","2","4","4","5","4","1","0","0","1","1","1","1","2","5","4","5","5","4","3","4","4","4","3","6","5","5","6","4","4","5","5","5","3","6","5","5","6","5","5","7","5","6","1","4","6","4","1","5","3","4","4","7","5","3","6","3","1","3","4","6","5","7","7","3","4","7","1","3","4","3","3","4","3","778036466176757761","刘","467","Female","[""坏我"",""坏她"",""好她"",""好我""]","[""弱我"",""弱她"",""强她"",""强我""]","","","","","","","","no","","","","","","","","","SRET","EW_formal","","key","f","16.666666666666668","960","536","朋友","逞能","Negative","ability","","","","","","","","","","",""
"1441","","j","psychophysics","51","235903","0.0-7.0-3.0-0.37","6","6","6","5","5","4","2","4","4","5","4","1","0","0","1","1","1","1","2","5","4","5","5","4","3","4","4","4","3","6","5","5","6","4","4","5","5","5","3","6","5","5","6","5","5","7","5","6","1","4","6","4","1","5","3","4","4","7","5","3","6","3","1","3","4","6","5","7","7","3","4","7","1","3","4","3","3","4","3","778036466176757761","刘","467","Female","[""坏我"",""坏她"",""好她"",""好我""]","[""弱我"",""弱她"",""强她"",""强我""]","","","","","","","","yes","","","","","","","","","SRET","EW_formal","","key","j","16.665753424657414","960","536","自己","正气","Positive","morality","","","","","","","","","","",""
"693","","f","psychophysics","52","237600","0.0-7.0-3.0-0.38","6","6","6","5","5","4","2","4","4","5","4","1","0","0","1","1","1","1","2","5","4","5","5","4","3","4","4","4","3","6","5","5","6","4","4","5","5","5","3","6","5","5","6","5","5","7","5","6","1","4","6","4","1","5","3","4","4","7","5","3","6","3","1","3","4","6","5","7","7","3","4","7","1","3","4","3","3","4","3","778036466176757761","刘","467","Female","[""坏我"",""坏她"",""好她"",""好我""]","[""弱我"",""弱她"",""强她"",""强我""]","","","","","","","","no","","","","","","","","","SRET","EW_formal","","key","f","16.668316831683168","960","536","自己","虚伪","Negative","morality","","","","","","","","","","",""
"1445","","f","psychophysics","53","240055","0.0-7.0-3.0-0.39","6","6","6","5","5","4","2","4","4","5","4","1","0","0","1","1","1","1","2","5","4","5","5","4","3","4","4","4","3","6","5","5","6","4","4","5","5","5","3","6","5","5","6","5","5","7","5","6","1","4","6","4","1","5","3","4","4","7","5","3","6","3","1","3","4","6","5","7","7","3","4","7","1","3","4","3","3","4","3","778036466176757761","刘","467","Female","[""坏我"",""坏她"",""好她"",""好我""]","[""弱我"",""弱她"",""强她"",""强我""]","","","","","","","","no","","","","","","","","","SRET","EW_formal","","key","f","16.66712328767139","960","536","自己","仁厚","Positive","morality","","","","","","","","","","",""
"1333","","j","psychophysics","54","242392","0.0-7.0-3.0-0.40","6","6","6","5","5","4","2","4","4","5","4","1","0","0","1","1","1","1","2","5","4","5","5","4","3","4","4","4","3","6","5","5","6","4","4","5","5","5","3","6","5","5","6","5","5","7","5","6","1","4","6","4","1","5","3","4","4","7","5","3","6","3","1","3","4","6","5","7","7","3","4","7","1","3","4","3","3","4","3","778036466176757761","刘","467","Female","[""坏我"",""坏她"",""好她"",""好我""]","[""弱我"",""弱她"",""强她"",""强我""]","","","","","","","","yes","","","","","","","","","SRET","EW_formal","","key","j","16.666187050359753","960","536","朋友","高尚","Positive","morality","","","","","","","","","","",""
"1342","","f","psychophysics","55","244739","0.0-7.0-3.0-0.41","6","6","6","5","5","4","2","4","4","5","4","1","0","0","1","1","1","1","2","5","4","5","5","4","3","4","4","4","3","6","5","5","6","4","4","5","5","5","3","6","5","5","6","5","5","7","5","6","1","4","6","4","1","5","3","4","4","7","5","3","6","3","1","3","4","6","5","7","7","3","4","7","1","3","4","3","3","4","3","778036466176757761","刘","467","Female","[""坏我"",""坏她"",""好她"",""好我""]","[""弱我"",""弱她"",""强她"",""强我""]","","","","","","","","no","","","","","","","","","SRET","EW_formal","","key","f","16.908695652173872","960","536","朋友","骁勇","Positive","ability","","","","","","","","","","",""
"1008","","f","psychophysics","56","246752","0.0-7.0-3.0-0.42","6","6","6","5","5","4","2","4","4","5","4","1","0","0","1","1","1","1","2","5","4","5","5","4","3","4","4","4","3","6","5","5","6","4","4","5","5","5","3","6","5","5","6","5","5","7","5","6","1","4","6","4","1","5","3","4","4","7","5","3","6","3","1","3","4","6","5","7","7","3","4","7","1","3","4","3","3","4","3","778036466176757761","刘","467","Female","[""坏我"",""坏她"",""好她"",""好我""]","[""弱我"",""弱她"",""强她"",""强我""]","","","","","","","","no","","","","","","","","","SRET","EW_formal","","key","f","16.66750000000005","960","536","自己","淫乱","Negative","morality","","","","","","","","","","",""
"1408","","f","psychophysics","57","249164","0.0-7.0-3.0-0.43","6","6","6","5","5","4","2","4","4","5","4","1","0","0","1","1","1","1","2","5","4","5","5","4","3","4","4","4","3","6","5","5","6","4","4","5","5","5","3","6","5","5","6","5","5","7","5","6","1","4","6","4","1","5","3","4","4","7","5","3","6","3","1","3","4","6","5","7","7","3","4","7","1","3","4","3","3","4","3","778036466176757761","刘","467","Female","[""坏我"",""坏她"",""好她"",""好我""]","[""弱我"",""弱她"",""强她"",""强我""]","","","","","","","","no","","","","","","","","","SRET","EW_formal","","key","f","16.666666666666668","960","536","朋友","差生","Negative","ability","","","","","","","","","","",""
"1354","","f","psychophysics","58","251522","0.0-7.0-3.0-0.44","6","6","6","5","5","4","2","4","4","5","4","1","0","0","1","1","1","1","2","5","4","5","5","4","3","4","4","4","3","6","5","5","6","4","4","5","5","5","3","6","5","5","6","5","5","7","5","6","1","4","6","4","1","5","3","4","4","7","5","3","6","3","1","3","4","6","5","7","7","3","4","7","1","3","4","3","3","4","3","778036466176757761","刘","467","Female","[""坏我"",""坏她"",""好她"",""好我""]","[""弱我"",""弱她"",""强她"",""强我""]","","","","","","","","no","","","","","","","","","SRET","EW_formal","","key","f","16.664285714285715","960","536","自己","聪明","Positive","ability","","","","","","","","","","",""
"910","","j","psychophysics","59","253435","0.0-7.0-3.0-0.45","6","6","6","5","5","4","2","4","4","5","4","1","0","0","1","1","1","1","2","5","4","5","5","4","3","4","4","4","3","6","5","5","6","4","4","5","5","5","3","6","5","5","6","5","5","7","5","6","1","4","6","4","1","5","3","4","4","7","5","3","6","3","1","3","4","6","5","7","7","3","4","7","1","3","4","3","3","4","3","778036466176757761","刘","467","Female","[""坏我"",""坏她"",""好她"",""好我""]","[""弱我"",""弱她"",""强她"",""强我""]","","","","","","","","yes","","","","","","","","","SRET","EW_formal","","key","j","16.668421052631427","960","536","自己","诚信","Positive","morality","","","","","","","","","","",""
"966","","j","psychophysics","60","255406","0.0-7.0-3.0-0.46","6","6","6","5","5","4","2","4","4","5","4","1","0","0","1","1","1","1","2","5","4","5","5","4","3","4","4","4","3","6","5","5","6","4","4","5","5","5","3","6","5","5","6","5","5","7","5","6","1","4","6","4","1","5","3","4","4","7","5","3","6","3","1","3","4","6","5","7","7","3","4","7","1","3","4","3","3","4","3","778036466176757761","刘","467","Female","[""坏我"",""坏她"",""好她"",""好我""]","[""弱我"",""弱她"",""强她"",""强我""]","","","","","","","","yes","","","","","","","","","SRET","EW_formal","","key","j","16.66837606837617","960","536","朋友","善心","Positive","morality","","","","","","","","","","",""
"1589","","j","psychophysics","61","258001","0.0-7.0-3.0-0.47","6","6","6","5","5","4","2","4","4","5","4","1","0","0","1","1","1","1","2","5","4","5","5","4","3","4","4","4","3","6","5","5","6","4","4","5","5","5","3","6","5","5","6","5","5","7","5","6","1","4","6","4","1","5","3","4","4","7","5","3","6","3","1","3","4","6","5","7","7","3","4","7","1","3","4","3","3","4","3","778036466176757761","刘","467","Female","[""坏我"",""坏她"",""好她"",""好我""]","[""弱我"",""弱她"",""强她"",""强我""]","","","","","","","","yes","","","","","","","","","SRET","EW_formal","","key","j","16.66645161290315","960","536","自己","沉着","Positive","ability","","","","","","","","","","",""
"1245","","j","psychophysics","62","260250","0.0-7.0-3.0-0.48","6","6","6","5","5","4","2","4","4","5","4","1","0","0","1","1","1","1","2","5","4","5","5","4","3","4","4","4","3","6","5","5","6","4","4","5","5","5","3","6","5","5","6","5","5","7","5","6","1","4","6","4","1","5","3","4","4","7","5","3","6","3","1","3","4","6","5","7","7","3","4","7","1","3","4","3","3","4","3","778036466176757761","刘","467","Female","[""坏我"",""坏她"",""好她"",""好我""]","[""弱我"",""弱她"",""强她"",""强我""]","","","","","","","","yes","","","","","","","","","SRET","EW_formal","","key","j","16.666417910447674","960","536","自己","勤奋","Positive","ability","","","","","","","","","","",""
"875","","f","psychophysics","63","262128","0.0-7.0-3.0-0.49","6","6","6","5","5","4","2","4","4","5","4","1","0","0","1","1","1","1","2","5","4","5","5","4","3","4","4","4","3","6","5","5","6","4","4","5","5","5","3","6","5","5","6","5","5","7","5","6","1","4","6","4","1","5","3","4","4","7","5","3","6","3","1","3","4","6","5","7","7","3","4","7","1","3","4","3","3","4","3","778036466176757761","刘","467","Female","[""坏我"",""坏她"",""好她"",""好我""]","[""弱我"",""弱她"",""强她"",""强我""]","","","","","","","","no","","","","","","","","","SRET","EW_formal","","key","f","16.66607142857122","960","536","自己","庸碌","Negative","ability","","","","","","","","","","",""
"834","","f","psychophysics","64","263965","0.0-7.0-3.0-0.50","6","6","6","5","5","4","2","4","4","5","4","1","0","0","1","1","1","1","2","5","4","5","5","4","3","4","4","4","3","6","5","5","6","4","4","5","5","5","3","6","5","5","6","5","5","7","5","6","1","4","6","4","1","5","3","4","4","7","5","3","6","3","1","3","4","6","5","7","7","3","4","7","1","3","4","3","3","4","3","778036466176757761","刘","467","Female","[""坏我"",""坏她"",""好她"",""好我""]","[""弱我"",""弱她"",""强她"",""强我""]","","","","","","","","no","","","","","","","","","SRET","EW_formal","","key","f","16.666055045871346","960","536","朋友","孝顺","Positive","morality","","","","","","","","","","",""
"1061","","f","psychophysics","65","266032","0.0-7.0-3.0-0.51","6","6","6","5","5","4","2","4","4","5","4","1","0","0","1","1","1","1","2","5","4","5","5","4","3","4","4","4","3","6","5","5","6","4","4","5","5","5","3","6","5","5","6","5","5","7","5","6","1","4","6","4","1","5","3","4","4","7","5","3","6","3","1","3","4","6","5","7","7","3","4","7","1","3","4","3","3","4","3","778036466176757761","刘","467","Female","[""坏我"",""坏她"",""好她"",""好我""]","[""弱我"",""弱她"",""强她"",""强我""]","","","","","","","","no","","","","","","","","","SRET","EW_formal","","key","f","16.666666666666668","960","536","自己","草率","Negative","ability","","","","","","","","","","",""
"851","","f","psychophysics","66","267887","0.0-7.0-3.0-0.52","6","6","6","5","5","4","2","4","4","5","4","1","0","0","1","1","1","1","2","5","4","5","5","4","3","4","4","4","3","6","5","5","6","4","4","5","5","5","3","6","5","5","6","5","5","7","5","6","1","4","6","4","1","5","3","4","4","7","5","3","6","3","1","3","4","6","5","7","7","3","4","7","1","3","4","3","3","4","3","778036466176757761","刘","467","Female","[""坏我"",""坏她"",""好她"",""好我""]","[""弱我"",""弱她"",""强她"",""强我""]","","","","","","","","no","","","","","","","","","SRET","EW_formal","","key","f","16.66636363636353","960","536","朋友","短视","Negative","ability","","","","","","","","","","",""
"1465","","f","psychophysics","67","270356","0.0-7.0-3.0-0.53","6","6","6","5","5","4","2","4","4","5","4","1","0","0","1","1","1","1","2","5","4","5","5","4","3","4","4","4","3","6","5","5","6","4","4","5","5","5","3","6","5","5","6","5","5","7","5","6","1","4","6","4","1","5","3","4","4","7","5","3","6","3","1","3","4","6","5","7","7","3","4","7","1","3","4","3","3","4","3","778036466176757761","刘","467","Female","[""坏我"",""坏她"",""好她"",""好我""]","[""弱我"",""弱她"",""强她"",""强我""]","","","","","","","","no","","","","","","","","","SRET","EW_formal","","key","f","16.665986394557983","960","536","朋友","中用","Positive","ability","","","","","","","","","","",""
"1348","","j","psychophysics","68","272732","0.0-7.0-3.0-0.54","6","6","6","5","5","4","2","4","4","5","4","1","0","0","1","1","1","1","2","5","4","5","5","4","3","4","4","4","3","6","5","5","6","4","4","5","5","5","3","6","5","5","6","5","5","7","5","6","1","4","6","4","1","5","3","4","4","7","5","3","6","3","1","3","4","6","5","7","7","3","4","7","1","3","4","3","3","4","3","778036466176757761","刘","467","Female","[""坏我"",""坏她"",""好她"",""好我""]","[""弱我"",""弱她"",""强她"",""强我""]","","","","","","","","yes","","","","","","","","","SRET","EW_formal","","key","j","16.66549295774648","960","536","自己","娴熟","Positive","ability","","","","","","","","","","",""
"1132","","f","psychophysics","69","274881","0.0-7.0-3.0-0.55","6","6","6","5","5","4","2","4","4","5","4","1","0","0","1","1","1","1","2","5","4","5","5","4","3","4","4","4","3","6","5","5","6","4","4","5","5","5","3","6","5","5","6","5","5","7","5","6","1","4","6","4","1","5","3","4","4","7","5","3","6","3","1","3","4","6","5","7","7","3","4","7","1","3","4","3","3","4","3","778036466176757761","刘","467","Female","[""坏我"",""坏她"",""好她"",""好我""]","[""弱我"",""弱她"",""强她"",""强我""]","","","","","","","","no","","","","","","","","","SRET","EW_formal","","key","f","16.665624999999636","960","536","朋友","偏私","Negative","morality","","","","","","","","","","",""
"860","","f","psychophysics","70","276753","0.0-7.0-3.0-0.56","6","6","6","5","5","4","2","4","4","5","4","1","0","0","1","1","1","1","2","5","4","5","5","4","3","4","4","4","3","6","5","5","6","4","4","5","5","5","3","6","5","5","6","5","5","7","5","6","1","4","6","4","1","5","3","4","4","7","5","3","6","3","1","3","4","6","5","7","7","3","4","7","1","3","4","3","3","4","3","778036466176757761","刘","467","Female","[""坏我"",""坏她"",""好她"",""好我""]","[""弱我"",""弱她"",""强她"",""强我""]","","","","","","","","no","","","","","","","","","SRET","EW_formal","","key","f","16.665765765765975","960","536","朋友","不端","Negative","morality","","","","","","","","","","",""
"756","","j","psychophysics","71","278513","0.0-7.0-3.0-0.57","6","6","6","5","5","4","2","4","4","5","4","1","0","0","1","1","1","1","2","5","4","5","5","4","3","4","4","4","3","6","5","5","6","4","4","5","5","5","3","6","5","5","6","5","5","7","5","6","1","4","6","4","1","5","3","4","4","7","5","3","6","3","1","3","4","6","5","7","7","3","4","7","1","3","4","3","3","4","3","778036466176757761","刘","467","Female","[""坏我"",""坏她"",""好她"",""好我""]","[""弱我"",""弱她"",""强她"",""强我""]","","","","","","","","yes","","","","","","","","","SRET","EW_formal","","key","j","16.664761904761793","960","536","自己","忠义","Positive","morality","","","","","","","","","","",""
"753","","f","psychophysics","72","280270","0.0-7.0-3.0-0.58","6","6","6","5","5","4","2","4","4","5","4","1","0","0","1","1","1","1","2","5","4","5","5","4","3","4","4","4","3","6","5","5","6","4","4","5","5","5","3","6","5","5","6","5","5","7","5","6","1","4","6","4","1","5","3","4","4","7","5","3","6","3","1","3","4","6","5","7","7","3","4","7","1","3","4","3","3","4","3","778036466176757761","刘","467","Female","[""坏我"",""坏她"",""好她"",""好我""]","[""弱我"",""弱她"",""强她"",""强我""]","","","","","","","","no","","","","","","","","","SRET","EW_formal","","key","f","16.666346153846042","960","536","自己","下流","Negative","morality","","","","","","","","","","",""
"1025","","f","psychophysics","73","282298","0.0-7.0-3.0-0.59","6","6","6","5","5","4","2","4","4","5","4","1","0","0","1","1","1","1","2","5","4","5","5","4","3","4","4","4","3","6","5","5","6","4","4","5","5","5","3","6","5","5","6","5","5","7","5","6","1","4","6","4","1","5","3","4","4","7","5","3","6","3","1","3","4","6","5","7","7","3","4","7","1","3","4","3","3","4","3","778036466176757761","刘","467","Female","[""坏我"",""坏她"",""好她"",""好我""]","[""弱我"",""弱她"",""强她"",""强我""]","","","","","","","","no","","","","","","","","","SRET","EW_formal","","key","f","16.666115702479626","960","536","自己","无敌","Positive","ability","","","","","","","","","","",""
"1285","","f","psychophysics","74","284587","0.0-7.0-3.0-0.60","6","6","6","5","5","4","2","4","4","5","4","1","0","0","1","1","1","1","2","5","4","5","5","4","3","4","4","4","3","6","5","5","6","4","4","5","5","5","3","6","5","5","6","5","5","7","5","6","1","4","6","4","1","5","3","4","4","7","5","3","6","3","1","3","4","6","5","7","7","3","4","7","1","3","4","3","3","4","3","778036466176757761","刘","467","Female","[""坏我"",""坏她"",""好她"",""好我""]","[""弱我"",""弱她"",""强她"",""强我""]","","","","","","","","no","","","","","","","","","SRET","EW_formal","","key","f","16.66691176470597","960","536","朋友","淡泊","Positive","morality","","","","","","","","","","",""
"750","","f","psychophysics","75","286342","0.0-7.0-3.0-0.61","6","6","6","5","5","4","2","4","4","5","4","1","0","0","1","1","1","1","2","5","4","5","5","4","3","4","4","4","3","6","5","5","6","4","4","5","5","5","3","6","5","5","6","5","5","7","5","6","1","4","6","4","1","5","3","4","4","7","5","3","6","3","1","3","4","6","5","7","7","3","4","7","1","3","4","3","3","4","3","778036466176757761","刘","467","Female","[""坏我"",""坏她"",""好她"",""好我""]","[""弱我"",""弱她"",""强她"",""强我""]","","","","","","","","no","","","","","","","","","SRET","EW_formal","","key","f","16.66826923076923","960","536","朋友","粗心","Negative","ability","","","","","","","","","","",""
"1524","","f","psychophysics","76","288871","0.0-7.0-3.0-0.62","6","6","6","5","5","4","2","4","4","5","4","1","0","0","1","1","1","1","2","5","4","5","5","4","3","4","4","4","3","6","5","5","6","4","4","5","5","5","3","6","5","5","6","5","5","7","5","6","1","4","6","4","1","5","3","4","4","7","5","3","6","3","1","3","4","6","5","7","7","3","4","7","1","3","4","3","3","4","3","778036466176757761","刘","467","Female","[""坏我"",""坏她"",""好她"",""好我""]","[""弱我"",""弱她"",""强她"",""强我""]","","","","","","","","no","","","","","","","","","SRET","EW_formal","","key","f","16.665562913907284","960","536","自己","扎实","Positive","ability","","","","","","","","","","",""
"1596","","f","psychophysics","77","291479","0.0-7.0-3.0-0.63","6","6","6","5","5","4","2","4","4","5","4","1","0","0","1","1","1","1","2","5","4","5","5","4","3","4","4","4","3","6","5","5","6","4","4","5","5","5","3","6","5","5","6","5","5","7","5","6","1","4","6","4","1","5","3","4","4","7","5","3","6","3","1","3","4","6","5","7","7","3","4","7","1","3","4","3","3","4","3","778036466176757761","刘","467","Female","[""坏我"",""坏她"",""好她"",""好我""]","[""弱我"",""弱她"",""强她"",""强我""]","","","","","","","","no","","","","","","","","","SRET","EW_formal","","key","f","16.667307692307542","960","536","自己","迟钝","Negative","ability","","","","","","","","","","",""
"811","","f","psychophysics","78","293294","0.0-7.0-3.0-0.64","6","6","6","5","5","4","2","4","4","5","4","1","0","0","1","1","1","1","2","5","4","5","5","4","3","4","4","4","3","6","5","5","6","4","4","5","5","5","3","6","5","5","6","5","5","7","5","6","1","4","6","4","1","5","3","4","4","7","5","3","6","3","1","3","4","6","5","7","7","3","4","7","1","3","4","3","3","4","3","778036466176757761","刘","467","Female","[""坏我"",""坏她"",""好她"",""好我""]","[""弱我"",""弱她"",""强她"",""强我""]","","","","","","","","no","","","","","","","","","SRET","EW_formal","","key","f","16.664814814814708","960","536","朋友","废物","Negative","ability","","","","","","","","","","",""
"722","","f","psychophysics","79","295020","0.0-7.0-3.0-0.65","6","6","6","5","5","4","2","4","4","5","4","1","0","0","1","1","1","1","2","5","4","5","5","4","3","4","4","4","3","6","5","5","6","4","4","5","5","5","3","6","5","5","6","5","5","7","5","6","1","4","6","4","1","5","3","4","4","7","5","3","6","3","1","3","4","6","5","7","7","3","4","7","1","3","4","3","3","4","3","778036466176757761","刘","467","Female","[""坏我"",""坏她"",""好她"",""好我""]","[""弱我"",""弱她"",""强她"",""强我""]","","","","","","","","no","","","","","","","","","SRET","EW_formal","","key","f","16.667647058823302","960","536","朋友","蛇蝎","Negative","morality","","","","","","","","","","",""
"901","","j","psychophysics","80","296929","0.0-7.0-3.0-0.66","6","6","6","5","5","4","2","4","4","5","4","1","0","0","1","1","1","1","2","5","4","5","5","4","3","4","4","4","3","6","5","5","6","4","4","5","5","5","3","6","5","5","6","5","5","7","5","6","1","4","6","4","1","5","3","4","4","7","5","3","6","3","1","3","4","6","5","7","7","3","4","7","1","3","4","3","3","4","3","778036466176757761","刘","467","Female","[""坏我"",""坏她"",""好她"",""好我""]","[""弱我"",""弱她"",""强她"",""强我""]","","","","","","","","yes","","","","","","","","","SRET","EW_formal","","key","j","16.666666666666668","960","536","朋友","能干","Positive","ability","","","","","","","","","","",""
"713","","f","psychophysics","81","298646","0.0-7.0-3.0-0.67","6","6","6","5","5","4","2","4","4","5","4","1","0","0","1","1","1","1","2","5","4","5","5","4","3","4","4","4","3","6","5","5","6","4","4","5","5","5","3","6","5","5","6","5","5","7","5","6","1","4","6","4","1","5","3","4","4","7","5","3","6","3","1","3","4","6","5","7","7","3","4","7","1","3","4","3","3","4","3","778036466176757761","刘","467","Female","[""坏我"",""坏她"",""好她"",""好我""]","[""弱我"",""弱她"",""强她"",""强我""]","","","","","","","","no","","","","","","","","","SRET","EW_formal","","key","f","16.665686274510033","960","536","自己","拖拉","Negative","ability","","","","","","","","","","",""
"879","","f","psychophysics","82","300529","0.0-7.0-3.0-0.68","6","6","6","5","5","4","2","4","4","5","4","1","0","0","1","1","1","1","2","5","4","5","5","4","3","4","4","4","3","6","5","5","6","4","4","5","5","5","3","6","5","5","6","5","5","7","5","6","1","4","6","4","1","5","3","4","4","7","5","3","6","3","1","3","4","6","5","7","7","3","4","7","1","3","4","3","3","4","3","778036466176757761","刘","467","Female","[""坏我"",""坏她"",""好她"",""好我""]","[""弱我"",""弱她"",""强她"",""强我""]","","","","","","","","no","","","","","","","","","SRET","EW_formal","","key","f","16.663392857142753","960","536","自己","失信","Negative","morality","","","","","","","","","","",""
"714","","f","psychophysics","83","302248","0.0-7.0-3.0-0.69","6","6","6","5","5","4","2","4","4","5","4","1","0","0","1","1","1","1","2","5","4","5","5","4","3","4","4","4","3","6","5","5","6","4","4","5","5","5","3","6","5","5","6","5","5","7","5","6","1","4","6","4","1","5","3","4","4","7","5","3","6","3","1","3","4","6","5","7","7","3","4","7","1","3","4","3","3","4","3","778036466176757761","刘","467","Female","[""坏我"",""坏她"",""好她"",""好我""]","[""弱我"",""弱她"",""强她"",""强我""]","","","","","","","","no","","","","","","","","","SRET","EW_formal","","key","f","16.666666666666668","960","536","朋友","缺德","Negative","morality","","","","","","","","","","",""
"629","","f","psychophysics","84","303880","0.0-7.0-3.0-0.70","6","6","6","5","5","4","2","4","4","5","4","1","0","0","1","1","1","1","2","5","4","5","5","4","3","4","4","4","3","6","5","5","6","4","4","5","5","5","3","6","5","5","6","5","5","7","5","6","1","4","6","4","1","5","3","4","4","7","5","3","6","3","1","3","4","6","5","7","7","3","4","7","1","3","4","3","3","4","3","778036466176757761","刘","467","Female","[""坏我"",""坏她"",""好她"",""好我""]","[""弱我"",""弱她"",""强她"",""强我""]","","","","","","","","no","","","","","","","","","SRET","EW_formal","","key","f","16.668041237113282","960","536","朋友","无耻","Negative","morality","","","","","","","","","","",""
"649","","f","psychophysics","85","305532","0.0-7.0-3.0-0.71","6","6","6","5","5","4","2","4","4","5","4","1","0","0","1","1","1","1","2","5","4","5","5","4","3","4","4","4","3","6","5","5","6","4","4","5","5","5","3","6","5","5","6","5","5","7","5","6","1","4","6","4","1","5","3","4","4","7","5","3","6","3","1","3","4","6","5","7","7","3","4","7","1","3","4","3","3","4","3","778036466176757761","刘","467","Female","[""坏我"",""坏她"",""好她"",""好我""]","[""弱我"",""弱她"",""强她"",""强我""]","","","","","","","","no","","","","","","","","","SRET","EW_formal","","key","f","16.668367346938776","960","536","自己","迂拙","Negative","ability","","","","","","","","","","",""
"861","","f","psychophysics","86","307396","0.0-7.0-3.0-0.72","6","6","6","5","5","4","2","4","4","5","4","1","0","0","1","1","1","1","2","5","4","5","5","4","3","4","4","4","3","6","5","5","6","4","4","5","5","5","3","6","5","5","6","5","5","7","5","6","1","4","6","4","1","5","3","4","4","7","5","3","6","3","1","3","4","6","5","7","7","3","4","7","1","3","4","3","3","4","3","778036466176757761","刘","467","Female","[""坏我"",""坏她"",""好她"",""好我""]","[""弱我"",""弱她"",""强她"",""强我""]","","","","","","","","no","","","","","","","","","SRET","EW_formal","","key","f","16.66576576576545","960","536","朋友","无能","Negative","ability","","","","","","","","","","",""
"812","","j","psychophysics","87","309211","0.0-7.0-3.0-0.73","6","6","6","5","5","4","2","4","4","5","4","1","0","0","1","1","1","1","2","5","4","5","5","4","3","4","4","4","3","6","5","5","6","4","4","5","5","5","3","6","5","5","6","5","5","7","5","6","1","4","6","4","1","5","3","4","4","7","5","3","6","3","1","3","4","6","5","7","7","3","4","7","1","3","4","3","3","4","3","778036466176757761","刘","467","Female","[""坏我"",""坏她"",""好她"",""好我""]","[""弱我"",""弱她"",""强她"",""强我""]","","","","","","","","yes","","","","","","","","","SRET","EW_formal","","key","j","16.666666666666668","960","536","朋友","守法","Positive","morality","","","","","","","","","","",""
"1052","","j","psychophysics","88","311267","0.0-7.0-3.0-0.74","6","6","6","5","5","4","2","4","4","5","4","1","0","0","1","1","1","1","2","5","4","5","5","4","3","4","4","4","3","6","5","5","6","4","4","5","5","5","3","6","5","5","6","5","5","7","5","6","1","4","6","4","1","5","3","4","4","7","5","3","6","3","1","3","4","6","5","7","7","3","4","7","1","3","4","3","3","4","3","778036466176757761","刘","467","Female","[""坏我"",""坏她"",""好她"",""好我""]","[""弱我"",""弱她"",""强她"",""强我""]","","","","","","","","yes","","","","","","","","","SRET","EW_formal","","key","j","16.664754098360465","960","536","自己","懂行","Positive","ability","","","","","","","","","","",""
"712","","f","psychophysics","89","312983","0.0-7.0-3.0-0.75","6","6","6","5","5","4","2","4","4","5","4","1","0","0","1","1","1","1","2","5","4","5","5","4","3","4","4","4","3","6","5","5","6","4","4","5","5","5","3","6","5","5","6","5","5","7","5","6","1","4","6","4","1","5","3","4","4","7","5","3","6","3","1","3","4","6","5","7","7","3","4","7","1","3","4","3","3","4","3","778036466176757761","刘","467","Female","[""坏我"",""坏她"",""好她"",""好我""]","[""弱我"",""弱她"",""强她"",""强我""]","","","","","","","","no","","","","","","","","","SRET","EW_formal","","key","f","17","960","536","朋友","贪腐","Negative","morality","","","","","","","","","","",""
"815","","f","psychophysics","90","314801","0.0-7.0-3.0-0.76","6","6","6","5","5","4","2","4","4","5","4","1","0","0","1","1","1","1","2","5","4","5","5","4","3","4","4","4","3","6","5","5","6","4","4","5","5","5","3","6","5","5","6","5","5","7","5","6","1","4","6","4","1","5","3","4","4","7","5","3","6","3","1","3","4","6","5","7","7","3","4","7","1","3","4","3","3","4","3","778036466176757761","刘","467","Female","[""坏我"",""坏她"",""好她"",""好我""]","[""弱我"",""弱她"",""强她"",""强我""]","","","","","","","","no","","","","","","","","","SRET","EW_formal","","key","f","16.667592592592914","960","536","自己","低劣","Negative","morality","","","","","","","","","","",""
"808","","j","psychophysics","91","316613","0.0-7.0-3.0-0.77","6","6","6","5","5","4","2","4","4","5","4","1","0","0","1","1","1","1","2","5","4","5","5","4","3","4","4","4","3","6","5","5","6","4","4","5","5","5","3","6","5","5","6","5","5","7","5","6","1","4","6","4","1","5","3","4","4","7","5","3","6","3","1","3","4","6","5","7","7","3","4","7","1","3","4","3","3","4","3","778036466176757761","刘","467","Female","[""坏我"",""坏她"",""好她"",""好我""]","[""弱我"",""弱她"",""强她"",""强我""]","","","","","","","","yes","","","","","","","","","SRET","EW_formal","","key","j","16.667592592592914","960","536","朋友","勤恳","Positive","morality","","","","","","","","","","",""
"1119","","f","psychophysics","92","318736","0.0-7.0-3.0-0.78","6","6","6","5","5","4","2","4","4","5","4","1","0","0","1","1","1","1","2","5","4","5","5","4","3","4","4","4","3","6","5","5","6","4","4","5","5","5","3","6","5","5","6","5","5","7","5","6","1","4","6","4","1","5","3","4","4","7","5","3","6","3","1","3","4","6","5","7","7","3","4","7","1","3","4","3","3","4","3","778036466176757761","刘","467","Female","[""坏我"",""坏她"",""好她"",""好我""]","[""弱我"",""弱她"",""强她"",""强我""]","","","","","","","","no","","","","","","","","","SRET","EW_formal","","key","f","16.665079365079272","960","536","自己","势利","Negative","morality","","","","","","","","","","",""
"832","","j","psychophysics","93","320579","0.0-7.0-3.0-0.79","6","6","6","5","5","4","2","4","4","5","4","1","0","0","1","1","1","1","2","5","4","5","5","4","3","4","4","4","3","6","5","5","6","4","4","5","5","5","3","6","5","5","6","5","5","7","5","6","1","4","6","4","1","5","3","4","4","7","5","3","6","3","1","3","4","6","5","7","7","3","4","7","1","3","4","3","3","4","3","778036466176757761","刘","467","Female","[""坏我"",""坏她"",""好她"",""好我""]","[""弱我"",""弱她"",""强她"",""强我""]","","","","","","","","yes","","","","","","","","","SRET","EW_formal","","key","j","16.66545454545465","960","536","自己","礼貌","Positive","morality","","","","","","","","","","",""
"969","","j","psychophysics","94","322552","0.0-7.0-3.0-0.80","6","6","6","5","5","4","2","4","4","5","4","1","0","0","1","1","1","1","2","5","4","5","5","4","3","4","4","4","3","6","5","5","6","4","4","5","5","5","3","6","5","5","6","5","5","7","5","6","1","4","6","4","1","5","3","4","4","7","5","3","6","3","1","3","4","6","5","7","7","3","4","7","1","3","4","3","3","4","3","778036466176757761","刘","467","Female","[""坏我"",""坏她"",""好她"",""好我""]","[""弱我"",""弱她"",""强她"",""强我""]","","","","","","","","yes","","","","","","","","","SRET","EW_formal","","key","j","16.665811965812164","960","536","朋友","有力","Positive","ability","","","","","","","","","","",""
"866","","j","psychophysics","95","324431","0.0-7.0-3.0-0.81","6","6","6","5","5","4","2","4","4","5","4","1","0","0","1","1","1","1","2","5","4","5","5","4","3","4","4","4","3","6","5","5","6","4","4","5","5","5","3","6","5","5","6","5","5","7","5","6","1","4","6","4","1","5","3","4","4","7","5","3","6","3","1","3","4","6","5","7","7","3","4","7","1","3","4","3","3","4","3","778036466176757761","刘","467","Female","[""坏我"",""坏她"",""好她"",""好我""]","[""弱我"",""弱她"",""强她"",""强我""]","","","","","","","","yes","","","","","","","","","SRET","EW_formal","","key","j","16.668749999999687","960","536","朋友","顶事","Positive","ability","","","","","","","","","","",""
"817","","f","psychophysics","96","326252","0.0-7.0-3.0-0.82","6","6","6","5","5","4","2","4","4","5","4","1","0","0","1","1","1","1","2","5","4","5","5","4","3","4","4","4","3","6","5","5","6","4","4","5","5","5","3","6","5","5","6","5","5","7","5","6","1","4","6","4","1","5","3","4","4","7","5","3","6","3","1","3","4","6","5","7","7","3","4","7","1","3","4","3","3","4","3","778036466176757761","刘","467","Female","[""坏我"",""坏她"",""好她"",""好我""]","[""弱我"",""弱她"",""强她"",""强我""]","","","","","","","","no","","","","","","","","","SRET","EW_formal","","key","f","16.666666666666668","960","536","自己","外行","Negative","ability","","","","","","","","","","",""
"1254","","j","psychophysics","97","328517","0.0-7.0-3.0-0.83","6","6","6","5","5","4","2","4","4","5","4","1","0","0","1","1","1","1","2","5","4","5","5","4","3","4","4","4","3","6","5","5","6","4","4","5","5","5","3","6","5","5","6","5","5","7","5","6","1","4","6","4","1","5","3","4","4","7","5","3","6","3","1","3","4","6","5","7","7","3","4","7","1","3","4","3","3","4","3","778036466176757761","刘","467","Female","[""坏我"",""坏她"",""好她"",""好我""]","[""弱我"",""弱她"",""强她"",""强我""]","","","","","","","","yes","","","","","","","","","SRET","EW_formal","","key","j","16.666666666666668","960","536","朋友","爱国","Positive","morality","","","","","","","","","","",""
"1046","","f","psychophysics","98","330567","0.0-7.0-3.0-0.84","6","6","6","5","5","4","2","4","4","5","4","1","0","0","1","1","1","1","2","5","4","5","5","4","3","4","4","4","3","6","5","5","6","4","4","5","5","5","3","6","5","5","6","5","5","7","5","6","1","4","6","4","1","5","3","4","4","7","5","3","6","3","1","3","4","6","5","7","7","3","4","7","1","3","4","3","3","4","3","778036466176757761","刘","467","Female","[""坏我"",""坏她"",""好她"",""好我""]","[""弱我"",""弱她"",""强她"",""强我""]","","","","","","","","no","","","","","","","","","SRET","EW_formal","","key","f","16.667213114753814","960","536","朋友","低俗","Negative","morality","","","","","","","","","","",""
"1508","","j","psychophysics","99","333079","0.0-7.0-3.0-0.85","6","6","6","5","5","4","2","4","4","5","4","1","0","0","1","1","1","1","2","5","4","5","5","4","3","4","4","4","3","6","5","5","6","4","4","5","5","5","3","6","5","5","6","5","5","7","5","6","1","4","6","4","1","5","3","4","4","7","5","3","6","3","1","3","4","6","5","7","7","3","4","7","1","3","4","3","3","4","3","778036466176757761","刘","467","Female","[""坏我"",""坏她"",""好她"",""好我""]","[""弱我"",""弱她"",""强她"",""强我""]","","","","","","","","yes","","","","","","","","","SRET","EW_formal","","key","j","16.665333333333255","960","536","自己","主见","Positive","ability","","","","","","","","","","",""
"1263","","j","psychophysics","100","335346","0.0-7.0-3.0-0.86","6","6","6","5","5","4","2","4","4","5","4","1","0","0","1","1","1","1","2","5","4","5","5","4","3","4","4","4","3","6","5","5","6","4","4","5","5","5","3","6","5","5","6","5","5","7","5","6","1","4","6","4","1","5","3","4","4","7","5","3","6","3","1","3","4","6","5","7","7","3","4","7","1","3","4","3","3","4","3","778036466176757761","刘","467","Female","[""坏我"",""坏她"",""好她"",""好我""]","[""弱我"",""弱她"",""强她"",""强我""]","","","","","","","","yes","","","","","","","","","SRET","EW_formal","","key","j","16.667407407407236","960","536","自己","缓慢","Negative","ability","","","","","","","","","","",""
"1064","","j","psychophysics","101","337413","0.0-7.0-3.0-0.87","6","6","6","5","5","4","2","4","4","5","4","1","0","0","1","1","1","1","2","5","4","5","5","4","3","4","4","4","3","6","5","5","6","4","4","5","5","5","3","6","5","5","6","5","5","7","5","6","1","4","6","4","1","5","3","4","4","7","5","3","6","3","1","3","4","6","5","7","7","3","4","7","1","3","4","3","3","4","3","778036466176757761","刘","467","Female","[""坏我"",""坏她"",""好她"",""好我""]","[""弱我"",""弱她"",""强她"",""强我""]","","","","","","","","yes","","","","","","","","","SRET","EW_formal","","key","j","16.666666666666668","960","536","朋友","素养","Positive","morality","","","","","","","","","","",""
"8793","
    <p><div style='color:white;font-size:35px; line-height:20px;'>计算任务</div></p><br>
    <p><div style='color:red;font-size:25px; line-height:20px;'>接下来，您将看到一些四则运算题，<b>请从键盘选择 0-9 进行反应。</b></div></p>
    <p><div style='color:red;font-size:25px; line-height:20px;'>请尽可能快地进行计算，计算的速度和正确率将影响报酬的发放。</div></p>
    <p><div class='footer' style='color:white;font-size:25px; line-height:20px;'>如果对本实验还有不清楚之处，请立即向实验员咨询。</p><p style='color:white;font-size:25px; line-height:20px;'>如果您明白了规则：</p><p style='color:white;font-size:22px; line-height:20px;'>请按 继续 进入练习</p>
    </div>
    ","0","html-button-response","102","346211","0.0-7.0-4.0","6","6","6","5","5","4","2","4","4","5","4","1","0","0","1","1","1","1","2","5","4","5","5","4","3","4","4","4","3","6","5","5","6","4","4","5","5","5","3","6","5","5","6","5","5","7","5","6","1","4","6","4","1","5","3","4","4","7","5","3","6","3","1","3","4","6","5","7","7","3","4","7","1","3","4","3","3","4","3","778036466176757761","刘","467","Female","[""坏我"",""坏她"",""好她"",""好我""]","[""弱我"",""弱她"",""强她"",""强我""]","","","","","","","","","","","","","","","","","SRET_math","math_instructions","Tue Jan 16 2024 04:40:17 GMT-0800 (北美太平洋标准时间)","","","","","","","","","","","","","","","","","","","",""
"2449","","5","psychophysics","103","348663","0.0-7.0-5.0-0.0","6","6","6","5","5","4","2","4","4","5","4","1","0","0","1","1","1","1","2","5","4","5","5","4","3","4","4","4","3","6","5","5","6","4","4","5","5","5","3","6","5","5","6","5","5","7","5","6","1","4","6","4","1","5","3","4","4","7","5","3","6","3","1","3","4","6","5","7","7","3","4","7","1","3","4","3","3","4","3","778036466176757761","刘","467","Female","[""坏我"",""坏她"",""好她"",""好我""]","[""弱我"",""弱她"",""强她"",""强我""]","","","","","","","","5","","","","","","","","","SRET","SRET_math_calculate","","key","5","16.665986394557983","960","536","","","","","4+1= ?","5","1","","","","","","","",""
"2883","","3","psychophysics","104","351550","0.0-7.0-5.0-0.1","6","6","6","5","5","4","2","4","4","5","4","1","0","0","1","1","1","1","2","5","4","5","5","4","3","4","4","4","3","6","5","5","6","4","4","5","5","5","3","6","5","5","6","5","5","7","5","6","1","4","6","4","1","5","3","4","4","7","5","3","6","3","1","3","4","6","5","7","7","3","4","7","1","3","4","3","3","4","3","778036466176757761","刘","467","Female","[""坏我"",""坏她"",""好她"",""好我""]","[""弱我"",""弱她"",""强她"",""强我""]","","","","","","","","3","","","","","","","","","SRET","SRET_math_calculate","","key","3","16.665697674418606","960","536","","","","","9/3= ?","3","1","","","","","","","",""
"2509","","7","psychophysics","105","354068","0.0-7.0-5.0-0.2","6","6","6","5","5","4","2","4","4","5","4","1","0","0","1","1","1","1","2","5","4","5","5","4","3","4","4","4","3","6","5","5","6","4","4","5","5","5","3","6","5","5","6","5","5","7","5","6","1","4","6","4","1","5","3","4","4","7","5","3","6","3","1","3","4","6","5","7","7","3","4","7","1","3","4","3","3","4","3","778036466176757761","刘","467","Female","[""坏我"",""坏她"",""好她"",""好我""]","[""弱我"",""弱她"",""强她"",""强我""]","","","","","","","","7","","","","","","","","","SRET","SRET_math_calculate","","key","7","16.665333333333255","960","536","","","","","2+5= ?","7","1","","","","","","","",""
"2621","","4","psychophysics","106","356701","0.0-7.0-5.0-0.3","6","6","6","5","5","4","2","4","4","5","4","1","0","0","1","1","1","1","2","5","4","5","5","4","3","4","4","4","3","6","5","5","6","4","4","5","5","5","3","6","5","5","6","5","5","7","5","6","1","4","6","4","1","5","3","4","4","7","5","3","6","3","1","3","4","6","5","7","7","3","4","7","1","3","4","3","3","4","3","778036466176757761","刘","467","Female","[""坏我"",""坏她"",""好她"",""好我""]","[""弱我"",""弱她"",""强她"",""强我""]","","","","","","","","4","","","","","","","","","SRET","SRET_math_calculate","","key","4","16.666878980891795","960","536","","","","","8-4= ?","4","1","","","","","","","",""
"3392","","9","psychophysics","107","360106","0.0-7.0-5.0-0.4","6","6","6","5","5","4","2","4","4","5","4","1","0","0","1","1","1","1","2","5","4","5","5","4","3","4","4","4","3","6","5","5","6","4","4","5","5","5","3","6","5","5","6","5","5","7","5","6","1","4","6","4","1","5","3","4","4","7","5","3","6","3","1","3","4","6","5","7","7","3","4","7","1","3","4","3","3","4","3","778036466176757761","刘","467","Female","[""坏我"",""坏她"",""好她"",""好我""]","[""弱我"",""弱她"",""强她"",""强我""]","","","","","","","","9","","","","","","","","","SRET","SRET_math_calculate","","key","9","16.66650246305413","960","536","","","","","81/9= ?","9","1","","","","","","","",""
"4184","","9","psychophysics","108","364302","0.0-7.0-5.0-0.5","6","6","6","5","5","4","2","4","4","5","4","1","0","0","1","1","1","1","2","5","4","5","5","4","3","4","4","4","3","6","5","5","6","4","4","5","5","5","3","6","5","5","6","5","5","7","5","6","1","4","6","4","1","5","3","4","4","7","5","3","6","3","1","3","4","6","5","7","7","3","4","7","1","3","4","3","3","4","3","778036466176757761","刘","467","Female","[""坏我"",""坏她"",""好她"",""好我""]","[""弱我"",""弱她"",""强她"",""强我""]","","","","","","","","9","","","","","","","","","SRET","SRET_math_calculate","","key","9","16.666533864541787","960","536","","","","","32-23= ?","9","1","","","","","","","",""
"2143","","9","psychophysics","109","366450","0.0-7.0-5.0-0.6","6","6","6","5","5","4","2","4","4","5","4","1","0","0","1","1","1","1","2","5","4","5","5","4","3","4","4","4","3","6","5","5","6","4","4","5","5","5","3","6","5","5","6","5","5","7","5","6","1","4","6","4","1","5","3","4","4","7","5","3","6","3","1","3","4","6","5","7","7","3","4","7","1","3","4","3","3","4","3","778036466176757761","刘","467","Female","[""坏我"",""坏她"",""好她"",""好我""]","[""弱我"",""弱她"",""强她"",""强我""]","","","","","","","","9","","","","","","","","","SRET","SRET_math_calculate","","key","9","16.66796875","960","536","","","","","4+5= ?","9","1","","","","","","","",""
"2971","","9","psychophysics","110","369432","0.0-7.0-5.0-0.7","6","6","6","5","5","4","2","4","4","5","4","1","0","0","1","1","1","1","2","5","4","5","5","4","3","4","4","4","3","6","5","5","6","4","4","5","5","5","3","6","5","5","6","5","5","7","5","6","1","4","6","4","1","5","3","4","4","7","5","3","6","3","1","3","4","6","5","7","7","3","4","7","1","3","4","3","3","4","3","778036466176757761","刘","467","Female","[""坏我"",""坏她"",""好她"",""好我""]","[""弱我"",""弱她"",""强她"",""强我""]","","","","","","","","9","","","","","","","","","SRET","SRET_math_calculate","","key","9","16.665730337078653","960","536","","","","","6+3= ?","9","1","","","","","","","",""
"1871","","9","psychophysics","111","371310","0.0-7.0-5.0-0.8","6","6","6","5","5","4","2","4","4","5","4","1","0","0","1","1","1","1","2","5","4","5","5","4","3","4","4","4","3","6","5","5","6","4","4","5","5","5","3","6","5","5","6","5","5","7","5","6","1","4","6","4","1","5","3","4","4","7","5","3","6","3","1","3","4","6","5","7","7","3","4","7","1","3","4","3","3","4","3","778036466176757761","刘","467","Female","[""坏我"",""坏她"",""好她"",""好我""]","[""弱我"",""弱她"",""强她"",""强我""]","","","","","","","","9","","","","","","","","","SRET","SRET_math_calculate","","key","9","16.66875000000021","960","536","","","","","8+1= ?","9","1","","","","","","","",""
"3387","","3","psychophysics","112","374704","0.0-7.0-5.0-0.9","6","6","6","5","5","4","2","4","4","5","4","1","0","0","1","1","1","1","2","5","4","5","5","4","3","4","4","4","3","6","5","5","6","4","4","5","5","5","3","6","5","5","6","5","5","7","5","6","1","4","6","4","1","5","3","4","4","7","5","3","6","3","1","3","4","6","5","7","7","3","4","7","1","3","4","3","3","4","3","778036466176757761","刘","467","Female","[""坏我"",""坏她"",""好她"",""好我""]","[""弱我"",""弱她"",""强她"",""强我""]","","","","","","","","3","","","","","","","","","SRET","SRET_math_calculate","","key","3","16.667326732673498","960","536","","","","","12/4= ?","3","1","","","","","","","",""
"2642","","8","psychophysics","113","377357","0.0-7.0-5.0-0.10","6","6","6","5","5","4","2","4","4","5","4","1","0","0","1","1","1","1","2","5","4","5","5","4","3","4","4","4","3","6","5","5","6","4","4","5","5","5","3","6","5","5","6","5","5","7","5","6","1","4","6","4","1","5","3","4","4","7","5","3","6","3","1","3","4","6","5","7","7","3","4","7","1","3","4","3","3","4","3","778036466176757761","刘","467","Female","[""坏我"",""坏她"",""好她"",""好我""]","[""弱我"",""弱她"",""强她"",""强我""]","","","","","","","","8","","","","","","","","","SRET","SRET_math_calculate","","key","8","16.665408805031372","960","536","","","","","2+6= ?","8","1","","","","","","","",""
"2437","","6","psychophysics","114","379800","0.0-7.0-5.0-0.11","6","6","6","5","5","4","2","4","4","5","4","1","0","0","1","1","1","1","2","5","4","5","5","4","3","4","4","4","3","6","5","5","6","4","4","5","5","5","3","6","5","5","6","5","5","7","5","6","1","4","6","4","1","5","3","4","4","7","5","3","6","3","1","3","4","6","5","7","7","3","4","7","1","3","4","3","3","4","3","778036466176757761","刘","467","Female","[""坏我"",""坏她"",""好她"",""好我""]","[""弱我"",""弱她"",""强她"",""强我""]","","","","","","","","6","","","","","","","","","SRET","SRET_math_calculate","","key","6","16.666896551724218","960","536","","","","","2+4= ?","6","1","","","","","","","",""
"3554","","8","psychophysics","115","383358","0.0-7.0-5.0-0.12","6","6","6","5","5","4","2","4","4","5","4","1","0","0","1","1","1","1","2","5","4","5","5","4","3","4","4","4","3","6","5","5","6","4","4","5","5","5","3","6","5","5","6","5","5","7","5","6","1","4","6","4","1","5","3","4","4","7","5","3","6","3","1","3","4","6","5","7","7","3","4","7","1","3","4","3","3","4","3","778036466176757761","刘","467","Female","[""坏我"",""坏她"",""好她"",""好我""]","[""弱我"",""弱她"",""强她"",""强我""]","","","","","","","","8","","","","","","","","","SRET","SRET_math_calculate","","key","8","16.666666666666668","960","536","","","","","56/7= ?","8","1","","","","","","","",""
"2421","","2","psychophysics","116","385785","0.0-7.0-5.0-0.13","6","6","6","5","5","4","2","4","4","5","4","1","0","0","1","1","1","1","2","5","4","5","5","4","3","4","4","4","3","6","5","5","6","4","4","5","5","5","3","6","5","5","6","5","5","7","5","6","1","4","6","4","1","5","3","4","4","7","5","3","6","3","1","3","4","6","5","7","7","3","4","7","1","3","4","3","3","4","3","778036466176757761","刘","467","Female","[""坏我"",""坏她"",""好她"",""好我""]","[""弱我"",""弱她"",""强她"",""强我""]","","","","","","","","2","","","","","","","","","SRET","SRET_math_calculate","","key","2","16.665277777777696","960","536","","","","","10-9= ?","1","0","","","","","","","",""
"4393","","7","psychophysics","117","390201","0.0-7.0-5.0-0.14","6","6","6","5","5","4","2","4","4","5","4","1","0","0","1","1","1","1","2","5","4","5","5","4","3","4","4","4","3","6","5","5","6","4","4","5","5","5","3","6","5","5","6","5","5","7","5","6","1","4","6","4","1","5","3","4","4","7","5","3","6","3","1","3","4","6","5","7","7","3","4","7","1","3","4","3","3","4","3","778036466176757761","刘","467","Female","[""坏我"",""坏她"",""好她"",""好我""]","[""弱我"",""弱她"",""强她"",""强我""]","","","","","","","","7","","","","","","","","","SRET","SRET_math_calculate","","key","7","16.667803030303208","960","536","","","","","11-4= ?","7","1","","","","","","","",""
"2762","","1","psychophysics","118","392975","0.0-7.0-5.0-0.15","6","6","6","5","5","4","2","4","4","5","4","1","0","0","1","1","1","1","2","5","4","5","5","4","3","4","4","4","3","6","5","5","6","4","4","5","5","5","3","6","5","5","6","5","5","7","5","6","1","4","6","4","1","5","3","4","4","7","5","3","6","3","1","3","4","6","5","7","7","3","4","7","1","3","4","3","3","4","3","778036466176757761","刘","467","Female","[""坏我"",""坏她"",""好她"",""好我""]","[""弱我"",""弱她"",""强她"",""强我""]","","","","","","","","1","","","","","","","","","SRET","SRET_math_calculate","","key","1","16.66566265060241","960","536","","","","","9-8= ?","1","1","","","","","","","",""
"5571","","3","psychophysics","119","398553","0.0-7.0-5.0-0.16","6","6","6","5","5","4","2","4","4","5","4","1","0","0","1","1","1","1","2","5","4","5","5","4","3","4","4","4","3","6","5","5","6","4","4","5","5","5","3","6","5","5","6","5","5","7","5","6","1","4","6","4","1","5","3","4","4","7","5","3","6","3","1","3","4","6","5","7","7","3","4","7","1","3","4","3","3","4","3","778036466176757761","刘","467","Female","[""坏我"",""坏她"",""好她"",""好我""]","[""弱我"",""弱她"",""强她"",""强我""]","","","","","","","","3","","","","","","","","","SRET","SRET_math_calculate","","key","3","16.666666666666668","960","536","","","","","11-8= ?","3","1","","","","","","","",""
"4130","","4","psychophysics","120","402694","0.0-7.0-5.0-0.17","6","6","6","5","5","4","2","4","4","5","4","1","0","0","1","1","1","1","2","5","4","5","5","4","3","4","4","4","3","6","5","5","6","4","4","5","5","5","3","6","5","5","6","5","5","7","5","6","1","4","6","4","1","5","3","4","4","7","5","3","6","3","1","3","4","6","5","7","7","3","4","7","1","3","4","3","3","4","3","778036466176757761","刘","467","Female","[""坏我"",""坏她"",""好她"",""好我""]","[""弱我"",""弱她"",""强她"",""强我""]","","","","","","","","4","","","","","","","","","SRET","SRET_math_calculate","","key","4","16.66532258064516","960","536","","","","","13-9= ?","4","1","","","","","","","",""
"3042","","0","psychophysics","121","405741","0.0-7.0-5.0-0.18","6","6","6","5","5","4","2","4","4","5","4","1","0","0","1","1","1","1","2","5","4","5","5","4","3","4","4","4","3","6","5","5","6","4","4","5","5","5","3","6","5","5","6","5","5","7","5","6","1","4","6","4","1","5","3","4","4","7","5","3","6","3","1","3","4","6","5","7","7","3","4","7","1","3","4","3","3","4","3","778036466176757761","刘","467","Female","[""坏我"",""坏她"",""好她"",""好我""]","[""弱我"",""弱她"",""强她"",""强我""]","","","","","","","","0","","","","","","","","","SRET","SRET_math_calculate","","key","0","16.66593406593413","960","536","","","","","6*0= ?","0","1","","","","","","","",""
"2317","","8","psychophysics","122","408063","0.0-7.0-5.0-0.19","6","6","6","5","5","4","2","4","4","5","4","1","0","0","1","1","1","1","2","5","4","5","5","4","3","4","4","4","3","6","5","5","6","4","4","5","5","5","3","6","5","5","6","5","5","7","5","6","1","4","6","4","1","5","3","4","4","7","5","3","6","3","1","3","4","6","5","7","7","3","4","7","1","3","4","3","3","4","3","778036466176757761","刘","467","Female","[""坏我"",""坏她"",""好她"",""好我""]","[""弱我"",""弱她"",""强她"",""强我""]","","","","","","","","8","","","","","","","","","SRET","SRET_math_calculate","","key","8","16.665942028985253","960","536","","","","","4+4= ?","8","1","","","","","","","",""
"5170","","8","psychophysics","123","413246","0.0-7.0-5.0-0.20","6","6","6","5","5","4","2","4","4","5","4","1","0","0","1","1","1","1","2","5","4","5","5","4","3","4","4","4","3","6","5","5","6","4","4","5","5","5","3","6","5","5","6","5","5","7","5","6","1","4","6","4","1","5","3","4","4","7","5","3","6","3","1","3","4","6","5","7","7","3","4","7","1","3","4","3","3","4","3","778036466176757761","刘","467","Female","[""坏我"",""坏她"",""好她"",""好我""]","[""弱我"",""弱她"",""强她"",""强我""]","","","","","","","","8","","","","","","","","","SRET","SRET_math_calculate","","key","8","16.66580645161279","960","536","","","","","50-42= ?","8","1","","","","","","","",""
"2903","","7","psychophysics","124","416161","0.0-7.0-5.0-0.21","6","6","6","5","5","4","2","4","4","5","4","1","0","0","1","1","1","1","2","5","4","5","5","4","3","4","4","4","3","6","5","5","6","4","4","5","5","5","3","6","5","5","6","5","5","7","5","6","1","4","6","4","1","5","3","4","4","7","5","3","6","3","1","3","4","6","5","7","7","3","4","7","1","3","4","3","3","4","3","778036466176757761","刘","467","Female","[""坏我"",""坏她"",""好她"",""好我""]","[""弱我"",""弱她"",""强她"",""强我""]","","","","","","","","7","","","","","","","","","SRET","SRET_math_calculate","","key","7","16.665517241379245","960","536","","","","","21/3= ? ","7","1","","","","","","","",""
"3573","","6","psychophysics","125","419737","0.0-7.0-5.0-0.22","6","6","6","5","5","4","2","4","4","5","4","1","0","0","1","1","1","1","2","5","4","5","5","4","3","4","4","4","3","6","5","5","6","4","4","5","5","5","3","6","5","5","6","5","5","7","5","6","1","4","6","4","1","5","3","4","4","7","5","3","6","3","1","3","4","6","5","7","7","3","4","7","1","3","4","3","3","4","3","778036466176757761","刘","467","Female","[""坏我"",""坏她"",""好她"",""好我""]","[""弱我"",""弱她"",""强她"",""强我""]","","","","","","","","6","","","","","","","","","SRET","SRET_math_calculate","","key","6","16.666822429906595","960","536","","","","","11-5= ?","6","1","","","","","","","",""
"3109","","7","psychophysics","126","422851","0.0-7.0-5.0-0.23","6","6","6","5","5","4","2","4","4","5","4","1","0","0","1","1","1","1","2","5","4","5","5","4","3","4","4","4","3","6","5","5","6","4","4","5","5","5","3","6","5","5","6","5","5","7","5","6","1","4","6","4","1","5","3","4","4","7","5","3","6","3","1","3","4","6","5","7","7","3","4","7","1","3","4","3","3","4","3","778036466176757761","刘","467","Female","[""坏我"",""坏她"",""好她"",""好我""]","[""弱我"",""弱她"",""强她"",""强我""]","","","","","","","","7","","","","","","","","","SRET","SRET_math_calculate","","key","7","16.667027027027153","960","536","","","","","49/7 = ?","7","1","","","","","","","",""
"2500","","8","psychophysics","127","425362","0.0-7.0-5.0-0.24","6","6","6","5","5","4","2","4","4","5","4","1","0","0","1","1","1","1","2","5","4","5","5","4","3","4","4","4","3","6","5","5","6","4","4","5","5","5","3","6","5","5","6","5","5","7","5","6","1","4","6","4","1","5","3","4","4","7","5","3","6","3","1","3","4","6","5","7","7","3","4","7","1","3","4","3","3","4","3","778036466176757761","刘","467","Female","[""坏我"",""坏她"",""好她"",""好我""]","[""弱我"",""弱她"",""强她"",""强我""]","","","","","","","","8","","","","","","","","","SRET","SRET_math_calculate","","key","8","16.666000000000157","960","536","","","","","1*8= ?","8","1","","","","","","","",""
"2219","","1","psychophysics","128","427595","0.0-7.0-5.0-0.25","6","6","6","5","5","4","2","4","4","5","4","1","0","0","1","1","1","1","2","5","4","5","5","4","3","4","4","4","3","6","5","5","6","4","4","5","5","5","3","6","5","5","6","5","5","7","5","6","1","4","6","4","1","5","3","4","4","7","5","3","6","3","1","3","4","6","5","7","7","3","4","7","1","3","4","3","3","4","3","778036466176757761","刘","467","Female","[""坏我"",""坏她"",""好她"",""好我""]","[""弱我"",""弱她"",""强她"",""强我""]","","","","","","","","1","","","","","","","","","SRET","SRET_math_calculate","","key","1","16.666917293232732","960","536","","","","","4/4= ?","1","1","","","","","","","",""
"2719","","7","psychophysics","129","430325","0.0-7.0-5.0-0.26","6","6","6","5","5","4","2","4","4","5","4","1","0","0","1","1","1","1","2","5","4","5","5","4","3","4","4","4","3","6","5","5","6","4","4","5","5","5","3","6","5","5","6","5","5","7","5","6","1","4","6","4","1","5","3","4","4","7","5","3","6","3","1","3","4","6","5","7","7","3","4","7","1","3","4","3","3","4","3","778036466176757761","刘","467","Female","[""坏我"",""坏她"",""好她"",""好我""]","[""弱我"",""弱她"",""强她"",""强我""]","","","","","","","","7","","","","","","","","","SRET","SRET_math_calculate","","key","7","16.666871165644242","960","536","","","","","3+4= ?","7","1","","","","","","","",""
"3591","","5","psychophysics","130","433922","0.0-7.0-5.0-0.27","6","6","6","5","5","4","2","4","4","5","4","1","0","0","1","1","1","1","2","5","4","5","5","4","3","4","4","4","3","6","5","5","6","4","4","5","5","5","3","6","5","5","6","5","5","7","5","6","1","4","6","4","1","5","3","4","4","7","5","3","6","3","1","3","4","6","5","7","7","3","4","7","1","3","4","3","3","4","3","778036466176757761","刘","467","Female","[""坏我"",""坏她"",""好她"",""好我""]","[""弱我"",""弱她"",""强她"",""强我""]","","","","","","","","5","","","","","","","","","SRET","SRET_math_calculate","","key","5","16.66651162790692","960","536","","","","","16-11= ?","5","1","","","","","","","",""
"3394","","2","psychophysics","131","437321","0.0-7.0-5.0-0.28","6","6","6","5","5","4","2","4","4","5","4","1","0","0","1","1","1","1","2","5","4","5","5","4","3","4","4","4","3","6","5","5","6","4","4","5","5","5","3","6","5","5","6","5","5","7","5","6","1","4","6","4","1","5","3","4","4","7","5","3","6","3","1","3","4","6","5","7","7","3","4","7","1","3","4","3","3","4","3","778036466176757761","刘","467","Female","[""坏我"",""坏她"",""好她"",""好我""]","[""弱我"",""弱她"",""强她"",""强我""]","","","","","","","","2","","","","","","","","","SRET","SRET_math_calculate","","key","2","16.665517241379483","960","536","","","","","29-27= ?","2","1","","","","","","","",""
"2797","","8","psychophysics","132","440123","0.0-7.0-5.0-0.29","6","6","6","5","5","4","2","4","4","5","4","1","0","0","1","1","1","1","2","5","4","5","5","4","3","4","4","4","3","6","5","5","6","4","4","5","5","5","3","6","5","5","6","5","5","7","5","6","1","4","6","4","1","5","3","4","4","7","5","3","6","3","1","3","4","6","5","7","7","3","4","7","1","3","4","3","3","4","3","778036466176757761","刘","467","Female","[""坏我"",""坏她"",""好她"",""好我""]","[""弱我"",""弱她"",""强她"",""强我""]","","","","","","","","8","","","","","","","","","SRET","SRET_math_calculate","","key","8","16.665868263473122","960","536","","","","","2*4= ?","8","1","","","","","","","",""
"2162","","1","psychophysics","133","442291","0.0-7.0-5.0-0.30","6","6","6","5","5","4","2","4","4","5","4","1","0","0","1","1","1","1","2","5","4","5","5","4","3","4","4","4","3","6","5","5","6","4","4","5","5","5","3","6","5","5","6","5","5","7","5","6","1","4","6","4","1","5","3","4","4","7","5","3","6","3","1","3","4","6","5","7","7","3","4","7","1","3","4","3","3","4","3","778036466176757761","刘","467","Female","[""坏我"",""坏她"",""好她"",""好我""]","[""弱我"",""弱她"",""强她"",""强我""]","","","","","","","","1","","","","","","","","","SRET","SRET_math_calculate","","key","1","16.6658914728684","960","536","","","","","12/12= ?","1","1","","","","","","","",""
"2576","","9","psychophysics","134","444874","0.0-7.0-5.0-0.31","6","6","6","5","5","4","2","4","4","5","4","1","0","0","1","1","1","1","2","5","4","5","5","4","3","4","4","4","3","6","5","5","6","4","4","5","5","5","3","6","5","5","6","5","5","7","5","6","1","4","6","4","1","5","3","4","4","7","5","3","6","3","1","3","4","6","5","7","7","3","4","7","1","3","4","3","3","4","3","778036466176757761","刘","467","Female","[""坏我"",""坏她"",""好她"",""好我""]","[""弱我"",""弱她"",""强她"",""强我""]","","","","","","","","9","","","","","","","","","SRET","SRET_math_calculate","","key","9","16.667532467532393","960","536","","","","","3+6= ?","9","1","","","","","","","",""
"5052","","8","psychophysics","135","449930","0.0-7.0-5.0-0.32","6","6","6","5","5","4","2","4","4","5","4","1","0","0","1","1","1","1","2","5","4","5","5","4","3","4","4","4","3","6","5","5","6","4","4","5","5","5","3","6","5","5","6","5","5","7","5","6","1","4","6","4","1","5","3","4","4","7","5","3","6","3","1","3","4","6","5","7","7","3","4","7","1","3","4","3","3","4","3","778036466176757761","刘","467","Female","[""坏我"",""坏她"",""好她"",""好我""]","[""弱我"",""弱她"",""强她"",""强我""]","","","","","","","","8","","","","","","","","","SRET","SRET_math_calculate","","key","8","16.666225165562953","960","536","","","","","13-5= ?","8","1","","","","","","","",""
"2346","","9","psychophysics","136","452289","0.0-7.0-5.0-0.33","6","6","6","5","5","4","2","4","4","5","4","1","0","0","1","1","1","1","2","5","4","5","5","4","3","4","4","4","3","6","5","5","6","4","4","5","5","5","3","6","5","5","6","5","5","7","5","6","1","4","6","4","1","5","3","4","4","7","5","3","6","3","1","3","4","6","5","7","7","3","4","7","1","3","4","3","3","4","3","778036466176757761","刘","467","Female","[""坏我"",""坏她"",""好她"",""好我""]","[""弱我"",""弱她"",""强她"",""强我""]","","","","","","","","9","","","","","","","","","SRET","SRET_math_calculate","","key","9","16.667375886525072","960","536","","","","","1+8= ?","9","1","","","","","","","",""
"2476","","8","psychophysics","137","454771","0.0-7.0-5.0-0.34","6","6","6","5","5","4","2","4","4","5","4","1","0","0","1","1","1","1","2","5","4","5","5","4","3","4","4","4","3","6","5","5","6","4","4","5","5","5","3","6","5","5","6","5","5","7","5","6","1","4","6","4","1","5","3","4","4","7","5","3","6","3","1","3","4","6","5","7","7","3","4","7","1","3","4","3","3","4","3","778036466176757761","刘","467","Female","[""坏我"",""坏她"",""好她"",""好我""]","[""弱我"",""弱她"",""强她"",""强我""]","","","","","","","","8","","","","","","","","","SRET","SRET_math_calculate","","key","8","16.66689189189197","960","536","","","","","3+5= ?","8","1","","","","","","","",""
"2893","","3","psychophysics","138","457670","0.0-7.0-5.0-0.35","6","6","6","5","5","4","2","4","4","5","4","1","0","0","1","1","1","1","2","5","4","5","5","4","3","4","4","4","3","6","5","5","6","4","4","5","5","5","3","6","5","5","6","5","5","7","5","6","1","4","6","4","1","5","3","4","4","7","5","3","6","3","1","3","4","6","5","7","7","3","4","7","1","3","4","3","3","4","3","778036466176757761","刘","467","Female","[""坏我"",""坏她"",""好她"",""好我""]","[""弱我"",""弱她"",""强她"",""强我""]","","","","","","","","3","","","","","","","","","SRET","SRET_math_calculate","","key","3","16.664739884393065","960","536","","","","","21/7=  ?","3","1","","","","","","","",""
"2412","","8","psychophysics","139","460086","0.0-7.0-5.0-0.36","6","6","6","5","5","4","2","4","4","5","4","1","0","0","1","1","1","1","2","5","4","5","5","4","3","4","4","4","3","6","5","5","6","4","4","5","5","5","3","6","5","5","6","5","5","7","5","6","1","4","6","4","1","5","3","4","4","7","5","3","6","3","1","3","4","6","5","7","7","3","4","7","1","3","4","3","3","4","3","778036466176757761","刘","467","Female","[""坏我"",""坏她"",""好她"",""好我""]","[""弱我"",""弱她"",""强她"",""强我""]","","","","","","","","8","","","","","","","","","SRET","SRET_math_calculate","","key","8","16.665277777777696","960","536","","","","","4*2= ?","8","1","","","","","","","",""
"2096","","7","psychophysics","140","462188","0.0-7.0-5.0-0.37","6","6","6","5","5","4","2","4","4","5","4","1","0","0","1","1","1","1","2","5","4","5","5","4","3","4","4","4","3","6","5","5","6","4","4","5","5","5","3","6","5","5","6","5","5","7","5","6","1","4","6","4","1","5","3","4","4","7","5","3","6","3","1","3","4","6","5","7","7","3","4","7","1","3","4","3","3","4","3","778036466176757761","刘","467","Female","[""坏我"",""坏她"",""好她"",""好我""]","[""弱我"",""弱她"",""强她"",""强我""]","","","","","","","","7","","","","","","","","","SRET","SRET_math_calculate","","key","7","16.66719999999972","960","536","","","","","1+6= ?","7","1","","","","","","","",""
"2384","","9","psychophysics","141","464577","0.0-7.0-5.0-0.38","6","6","6","5","5","4","2","4","4","5","4","1","0","0","1","1","1","1","2","5","4","5","5","4","3","4","4","4","3","6","5","5","6","4","4","5","5","5","3","6","5","5","6","5","5","7","5","6","1","4","6","4","1","5","3","4","4","7","5","3","6","3","1","3","4","6","5","7","7","3","4","7","1","3","4","3","3","4","3","778036466176757761","刘","467","Female","[""坏我"",""坏她"",""好她"",""好我""]","[""弱我"",""弱她"",""强她"",""强我""]","","","","","","","","9","","","","","","","","","SRET","SRET_math_calculate","","key","9","16.668309859155094","960","536","","","","","2+7= ?","9","1","","","","","","","",""
"2725","","6","psychophysics","142","467336","0.0-7.0-5.0-0.39","6","6","6","5","5","4","2","4","4","5","4","1","0","0","1","1","1","1","2","5","4","5","5","4","3","4","4","4","3","6","5","5","6","4","4","5","5","5","3","6","5","5","6","5","5","7","5","6","1","4","6","4","1","5","3","4","4","7","5","3","6","3","1","3","4","6","5","7","7","3","4","7","1","3","4","3","3","4","3","778036466176757761","刘","467","Female","[""坏我"",""坏她"",""好她"",""好我""]","[""弱我"",""弱她"",""强她"",""强我""]","","","","","","","","6","","","","","","","","","SRET","SRET_math_calculate","","key","6","16.666666666666668","960","536","","","","","9-3= ?","6","1","","","","","","","",""
