"rt","stimulus","response","trial_type","trial_index","time_elapsed","internal_node_id","swb_1","swb_2","swb_3","swb_4","swb_5","LOT_1","LOT_2","LOT_3","LOT_4","LOT_5","LOT_6","IPC_1","IPC_2","IPC_3","IPC_4","IPC_5","IPC_6","IPC_7","IPC_8","MorIden_1","MorIden_2","MorIden_3","MorIden_4","MorIden_5","MorIden_6","MorIden_7","MorIden_8","MorIden_9","MorIden_10","moralSeImag_1","moralSeImag_2","moralSeImag_3","moralSeImag_4","moralSeImag_5","moralSeImag_6","moralSeImag_7","moralSeImag_8","moralSeImag_9","sde_1","sde_2","sde_3","sde_4","sde_5","sde_6","sde_7","sde_8","sde_9","sde_10","trap2","sde_11","sde_12","sde_13","sde_14","sde_15","sde_16","sde_17","sde_18","sde_19","sde_20","IM_1","IM_2","IM_3","IM_4","IM_5","IM_6","IM_7","IM_8","IM_9","IM_10","IM_11","IM_12","IM_13","IM_14","IM_15","IM_16","IM_17","IM_18","IM_19","IM_20","subj_idx","friend_name","ParticipantID","Sex","Word","Word2","value","success","timeout","failed_images","failed_audio","failed_video","user_agent","responses","item_order","radio_event_ids","radio_event_times","key_event_times","mouse_event_times","straightlining","zigzagging","honeypot","task_id","screen_id","time_stamp","response_type","key_press","avg_frame_time","center_x","center_y","person","word","valence","domain","math","correct_response","correct","status","view_history","identity","duration","Image","condition","question_order","trap2_item"
"4582","
   <p><div style='color:white; font-size: 25px'>您好，欢迎参加本次实验。</div></p>
   <p><div style='color:white; font-size: 25px'>为充分保障您的权利，请确保您已经知晓并同意《参与实验同意书》以及《数据公开知情同意书》。</div></p>
   <p><div style='color:white; font-size: 25px'>如果您未见过上述内容，请咨询实验员。</div></p>
   <p style='color:white; font-size: 25px'>如果您选择继续实验，则表示您已经清楚两份知情同意书的内容并同意。</p>
   <p><div style = ""color: pink;font-size:30px;"">请确保您记得day0的实验编号，您将在本次实验输入该编号，若您忘记，请咨询实验员后作答。</div></p>
   <p><div style = ""color:lightblue;font-size:25px;"">请您尽可能认真地作答，我们将依据您在各问卷和按键任务中的作答质量发放报酬。</div></p>
   <p> <div style = ""color: green""><按空格键至下页></div> </p>
   "," ","html-keyboard-response","0","4584","0.0-0.0","6","6","6","7","7","2","2","3","4","5","4","1","-1","0","0","0","-1","0","1","4","4","5","5","3","4","5","5","4","4","6","7","3","7","2","4","6","4","7","3","5","5","3","6","5","6","3","5","6","1","6","2","3","5","3","2","5","3","6","6","2","6","2","7","3","6","3","6","7","6","3","4","7","6","1","6","7","3","1","5","759925175528722434","林","399","Female","[""好她"",""坏我"",""坏她"",""好我""]","[""强她"",""弱我"",""弱她"",""强我""]","","","","","","","","","","","","","","","","","","","","","","","","","","","","","","","","","","","","","","",""
"","","","call-function","1","4586","0.0-1.0-0.0","6","6","6","7","7","2","2","3","4","5","4","1","-1","0","0","0","-1","0","1","4","4","5","5","3","4","5","5","4","4","6","7","3","7","2","4","6","4","7","3","5","5","3","6","5","6","3","5","6","1","6","2","3","5","3","2","5","3","6","6","2","6","2","7","3","6","3","6","7","6","3","4","7","6","1","6","7","3","1","5","759925175528722434","林","399","Female","[""好她"",""坏我"",""坏她"",""好我""]","[""强她"",""弱我"",""弱她"",""强我""]","","","","","","","","","","","","","","","","","","","","","","","","","","","","","","","","","","","","","","",""
"20830","","[{""name"":""Sex"",""value"":""1""},{""name"":""friend_name"",""value"":""林""},{""name"":""ParticipantID"",""value"":""399""}]","survey-html-form","2","25416","0.0-1.0-1.0","6","6","6","7","7","2","2","3","4","5","4","1","-1","0","0","0","-1","0","1","4","4","5","5","3","4","5","5","4","4","6","7","3","7","2","4","6","4","7","3","5","5","3","6","5","6","3","5","6","1","6","2","3","5","3","2","5","3","6","6","2","6","2","7","3","6","3","6","7","6","3","4","7","6","1","6","7","3","1","5","759925175528722434","林","399","Female","[""好她"",""坏我"",""坏她"",""好我""]","[""强她"",""弱我"",""弱她"",""强我""]","","","","","","","","","","","","","","","","","","","","","","","","","","","","","","","","","","","","","","",""
"","","","preload","3","25808","0.0-2.0","6","6","6","7","7","2","2","3","4","5","4","1","-1","0","0","0","-1","0","1","4","4","5","5","3","4","5","5","4","4","6","7","3","7","2","4","6","4","7","3","5","5","3","6","5","6","3","5","6","1","6","2","3","5","3","2","5","3","6","6","2","6","2","7","3","6","3","6","7","6","3","4","7","6","1","6","7","3","1","5","759925175528722434","林","399","Female","[""好她"",""坏我"",""坏她"",""好我""]","[""强她"",""弱我"",""弱她"",""强我""]","","true","false","[]","[]","[]","","","","","","","","","","","","","","","","","","","","","","","","","","","","","","","","",""
"","","","fullscreen","4","38449","0.0-3.0","6","6","6","7","7","2","2","3","4","5","4","1","-1","0","0","0","-1","0","1","4","4","5","5","3","4","5","5","4","4","6","7","3","7","2","4","6","4","7","3","5","5","3","6","5","6","3","5","6","1","6","2","3","5","3","2","5","3","6","6","2","6","2","7","3","6","3","6","7","6","3","4","7","6","1","6","7","3","1","5","759925175528722434","林","399","Female","[""好她"",""坏我"",""坏她"",""好我""]","[""强她"",""弱我"",""弱她"",""强我""]","","true","","","","","{}","","","","","","","","","","","","","","","","","","","","","","","","","","","","","","","",""
"14914.299999952316","","{""Q01"":""6"",""Q02"":""6"",""Q03"":""6"",""Q04"":""7"",""Q05"":""7""}","survey-template","5","53367","0.0-4.0","6","6","6","7","7","2","2","3","4","5","4","1","-1","0","0","0","-1","0","1","4","4","5","5","3","4","5","5","4","4","6","7","3","7","2","4","6","4","7","3","5","5","3","6","5","6","3","5","6","1","6","2","3","5","3","2","5","3","6","6","2","6","2","7","3","6","3","6","7","6","3","4","7","6","1","6","7","3","1","5","759925175528722434","林","399","Female","[""好她"",""坏我"",""坏她"",""好我""]","[""强她"",""弱我"",""弱她"",""强我""]","","","","","","","","{""Q01"":""6"",""Q02"":""6"",""Q03"":""6"",""Q04"":""7"",""Q05"":""7""}","[0,1,2,3,4]","[""Q01"",""Q02"",""Q03"",""Q04"",""Q04"",""Q05"",""Q05""]","[4122,5364.899999856949,6387.899999856949,7692.899999856949,8722.199999809265,11399.699999809265,13562.399999856949]","[]","[4122,5364.899999856949,6387.899999856949,7692.899999856949,8722.199999809265,11399.699999809265,13562.399999856949,14912.899999856949]","0.6","0.25","0","","","","","","","","","","","","","","","","","","","","","","",""
"27607","","{""Q01"":""2"",""Q02"":""2"",""Q03"":""3"",""Q04"":""4"",""Q05"":""5"",""Q06"":""4""}","survey-template","6","80981","0.0-5.0","6","6","6","7","7","2","2","3","4","5","4","1","-1","0","0","0","-1","0","1","4","4","5","5","3","4","5","5","4","4","6","7","3","7","2","4","6","4","7","3","5","5","3","6","5","6","3","5","6","1","6","2","3","5","3","2","5","3","6","6","2","6","2","7","3","6","3","6","7","6","3","4","7","6","1","6","7","3","1","5","759925175528722434","林","399","Female","[""好她"",""坏我"",""坏她"",""好我""]","[""强她"",""弱我"",""弱她"",""强我""]","","","","","","","","{""Q01"":""2"",""Q02"":""2"",""Q03"":""3"",""Q04"":""4"",""Q05"":""5"",""Q06"":""4""}","[0,1,2,3,4,5]","[""Q01"",""Q02"",""Q03"",""Q04"",""Q05"",""Q06""]","[4723.299999952316,12018.899999856949,14903.5,18088.200000047684,21169.599999904633,26214.599999904633]","[]","[4723.299999952316,12018.899999856949,14903.5,18088.200000047684,21169.599999904633,24231,26214.599999904633,27606.200000047684]","0.3333333333333333","0.6","0","","","","","","","","","","","","","","","","","","","","","","",""
"37248.10000014305","","{""Q01"":""1"",""Q02"":""-1"",""Q03"":""0"",""Q04"":""0"",""Q05"":""0"",""Q06"":""-1"",""Q07"":""0"",""Q08"":""1""}","survey-template","7","118234","0.0-6.0","6","6","6","7","7","2","2","3","4","5","4","1","-1","0","0","0","-1","0","1","4","4","5","5","3","4","5","5","4","4","6","7","3","7","2","4","6","4","7","3","5","5","3","6","5","6","3","5","6","1","6","2","3","5","3","2","5","3","6","6","2","6","2","7","3","6","3","6","7","6","3","4","7","6","1","6","7","3","1","5","759925175528722434","林","399","Female","[""好她"",""坏我"",""坏她"",""好我""]","[""强她"",""弱我"",""弱她"",""强我""]","","","","","","","","{""Q01"":""1"",""Q02"":""-1"",""Q03"":""0"",""Q04"":""0"",""Q05"":""0"",""Q06"":""-1"",""Q07"":""0"",""Q08"":""1""}","[0,1,2,3,4,5,6,7]","[""Q01"",""Q02"",""Q03"",""Q04"",""Q04"",""Q05"",""Q06"",""Q07"",""Q08""]","[2930,12770.5,15964.5,19600.799999952316,22038.200000047684,24727.10000014305,29482.5,33681,35450.200000047684]","[]","[2930,7958.600000143051,12770.5,15964.5,19600.799999952316,22038.200000047684,24727.10000014305,29482.5,33681,35450.200000047684,37245.5]","0.5","0.5714285714285714","0","","","","","","","","","","","","","","","","","","","","","","",""
"22183","
    <p><div style='color:white;font-size:35px; line-height:20px;'>词汇评估任务</div></p><br>
    <p><div style='color:white;font-size:25px; line-height:20px;'>请再次回忆该亲密的朋友，你们至少2年前就认识了，并且最近2年经常见面。</div></p>
    <p><div style='color:white;font-size:25px; line-height:20px;'>在本实验中，您将会看到一些形容词。</div></p>
    <p><div style='color:yellow;font-size:25px; line-height:20px;'>您的任务是判断这些形容词是否符合对您自己或您的朋友的描述。</div></p><p style='font-size:35px'>符合按<span style=""color:lightgreen""> j 键</span>，不符合按<span style=""color:red""> f 键</span></p>","0","html-button-response","8","140422","0.0-7.0-0.0","6","6","6","7","7","2","2","3","4","5","4","1","-1","0","0","0","-1","0","1","4","4","5","5","3","4","5","5","4","4","6","7","3","7","2","4","6","4","7","3","5","5","3","6","5","6","3","5","6","1","6","2","3","5","3","2","5","3","6","6","2","6","2","7","3","6","3","6","7","6","3","4","7","6","1","6","7","3","1","5","759925175528722434","林","399","Female","[""好她"",""坏我"",""坏她"",""好我""]","[""强她"",""弱我"",""弱她"",""强我""]","","","","","","","","","","","","","","","","","SRET_EW","EW_instructions","Tue Jan 16 2024 21:53:48 GMT+0800 (香港标准时间)","","","","","","","","","","","","","","","","","","","",""
"1890","","f","psychophysics","9","143314","0.0-7.0-1.0-0.0","6","6","6","7","7","2","2","3","4","5","4","1","-1","0","0","0","-1","0","1","4","4","5","5","3","4","5","5","4","4","6","7","3","7","2","4","6","4","7","3","5","5","3","6","5","6","3","5","6","1","6","2","3","5","3","2","5","3","6","6","2","6","2","7","3","6","3","6","7","6","3","4","7","6","1","6","7","3","1","5","759925175528722434","林","399","Female","[""好她"",""坏我"",""坏她"",""好我""]","[""强她"",""弱我"",""弱她"",""强我""]","","","","","","","","no","","","","","","","","","SRET_EW","EW_practice","","key","f","16.660115606936316","768","428","朋友","徇私","Negative","morality","","","","","","","","","","",""
"545","","j","psychophysics","10","144862","0.0-7.0-1.0-0.1","6","6","6","7","7","2","2","3","4","5","4","1","-1","0","0","0","-1","0","1","4","4","5","5","3","4","5","5","4","4","6","7","3","7","2","4","6","4","7","3","5","5","3","6","5","6","3","5","6","1","6","2","3","5","3","2","5","3","6","6","2","6","2","7","3","6","3","6","7","6","3","4","7","6","1","6","7","3","1","5","759925175528722434","林","399","Female","[""好她"",""坏我"",""坏她"",""好我""]","[""强她"",""弱我"",""弱她"",""强我""]","","","","","","","","yes","","","","","","","","","SRET_EW","EW_practice","","key","j","16.667391304347763","768","428","朋友","忠实","Positive","morality","","","","","","","","","","",""
"534","","j","psychophysics","11","146426","0.0-7.0-1.0-0.2","6","6","6","7","7","2","2","3","4","5","4","1","-1","0","0","0","-1","0","1","4","4","5","5","3","4","5","5","4","4","6","7","3","7","2","4","6","4","7","3","5","5","3","6","5","6","3","5","6","1","6","2","3","5","3","2","5","3","6","6","2","6","2","7","3","6","3","6","7","6","3","4","7","6","1","6","7","3","1","5","759925175528722434","林","399","Female","[""好她"",""坏我"",""坏她"",""好我""]","[""强她"",""弱我"",""弱她"",""强我""]","","","","","","","","yes","","","","","","","","","SRET_EW","EW_practice","","key","j","16.668817204300886","768","428","自己","严谨","Positive","ability","","","","","","","","","","",""
"999","","f","psychophysics","12","148426","0.0-7.0-1.0-0.3","6","6","6","7","7","2","2","3","4","5","4","1","-1","0","0","0","-1","0","1","4","4","5","5","3","4","5","5","4","4","6","7","3","7","2","4","6","4","7","3","5","5","3","6","5","6","3","5","6","1","6","2","3","5","3","2","5","3","6","6","2","6","2","7","3","6","3","6","7","6","3","4","7","6","1","6","7","3","1","5","759925175528722434","林","399","Female","[""好她"",""坏我"",""坏她"",""好我""]","[""强她"",""弱我"",""弱她"",""强我""]","","","","","","","","no","","","","","","","","","SRET_EW","EW_practice","","key","f","16.666386554621994","768","428","自己","刻板","Negative","ability","","","","","","","","","","",""
"5957","
    <p><div style='color:white;font-size:35px; line-height:20px;'>请您再次阅读实验要求</div></p><br>
    <p><div style='color:white;font-size:25px; line-height:20px;'>请回忆某一个亲密的朋友，你们至少2年前就认识了，并且最近2年经常见面。</div></p>
    <p><div style='color:white;font-size:25px; line-height:20px;'>在本实验中，您将会看到一些形容词。</div></p>
    <p><div style='color:yellow;font-size:25px; line-height:20px;'>您的任务是判断这些形容词是否符合对您自己或您的朋友的描述。</div></p>
    <p><div class='footer' style='font-size:25px; line-height:20px;'>如果对本实验还有不清楚之处，请立即向实验员咨询。</p><p style='font-size:25px; line-height:20px;'>如果您明白了规则：</p><p style='font-size:22px; line-height:20px;'>请按 继续 进入正式实验</p>
    </div>
    <p style='font-size:35px'>符合按<span style=""color:lightgreen""> j 键</span>，不符合按<span style=""color:red""> f 键</span></p>","0","html-button-response","13","154384","0.0-7.0-2.0","6","6","6","7","7","2","2","3","4","5","4","1","-1","0","0","0","-1","0","1","4","4","5","5","3","4","5","5","4","4","6","7","3","7","2","4","6","4","7","3","5","5","3","6","5","6","3","5","6","1","6","2","3","5","3","2","5","3","6","6","2","6","2","7","3","6","3","6","7","6","3","4","7","6","1","6","7","3","1","5","759925175528722434","林","399","Female","[""好她"",""坏我"",""坏她"",""好我""]","[""强她"",""弱我"",""弱她"",""强我""]","","","","","","","","","","","","","","","","","SRET_EW","prac_instructions","Tue Jan 16 2024 21:53:48 GMT+0800 (香港标准时间)","","","","","","","","","","","","","","","","","","","",""
"563","","j","psychophysics","14","155950","0.0-7.0-3.0-0.0","6","6","6","7","7","2","2","3","4","5","4","1","-1","0","0","0","-1","0","1","4","4","5","5","3","4","5","5","4","4","6","7","3","7","2","4","6","4","7","3","5","5","3","6","5","6","3","5","6","1","6","2","3","5","3","2","5","3","6","6","2","6","2","7","3","6","3","6","7","6","3","4","7","6","1","6","7","3","1","5","759925175528722434","林","399","Female","[""好她"",""坏我"",""坏她"",""好我""]","[""强她"",""弱我"",""弱她"",""强我""]","","","","","","","","yes","","","","","","","","","SRET","EW_formal","","key","j","16.716129032258127","768","428","自己","坚贞","Positive","morality","","","","","","","","","","",""
"656","","j","psychophysics","15","157611","0.0-7.0-3.0-0.1","6","6","6","7","7","2","2","3","4","5","4","1","-1","0","0","0","-1","0","1","4","4","5","5","3","4","5","5","4","4","6","7","3","7","2","4","6","4","7","3","5","5","3","6","5","6","3","5","6","1","6","2","3","5","3","2","5","3","6","6","2","6","2","7","3","6","3","6","7","6","3","4","7","6","1","6","7","3","1","5","759925175528722434","林","399","Female","[""好她"",""坏我"",""坏她"",""好我""]","[""强她"",""弱我"",""弱她"",""强我""]","","","","","","","","yes","","","","","","","","","SRET","EW_formal","","key","j","16.666666666666668","768","428","朋友","迷糊","Negative","ability","","","","","","","","","","",""
"754","","j","psychophysics","16","159367","0.0-7.0-3.0-0.2","6","6","6","7","7","2","2","3","4","5","4","1","-1","0","0","0","-1","0","1","4","4","5","5","3","4","5","5","4","4","6","7","3","7","2","4","6","4","7","3","5","5","3","6","5","6","3","5","6","1","6","2","3","5","3","2","5","3","6","6","2","6","2","7","3","6","3","6","7","6","3","4","7","6","1","6","7","3","1","5","759925175528722434","林","399","Female","[""好她"",""坏我"",""坏她"",""好我""]","[""强她"",""弱我"",""弱她"",""强我""]","","","","","","","","yes","","","","","","","","","SRET","EW_formal","","key","j","16.635238095238208","768","428","朋友","务实","Positive","ability","","","","","","","","","","",""
"926","","f","psychophysics","17","161296","0.0-7.0-3.0-0.3","6","6","6","7","7","2","2","3","4","5","4","1","-1","0","0","0","-1","0","1","4","4","5","5","3","4","5","5","4","4","6","7","3","7","2","4","6","4","7","3","5","5","3","6","5","6","3","5","6","1","6","2","3","5","3","2","5","3","6","6","2","6","2","7","3","6","3","6","7","6","3","4","7","6","1","6","7","3","1","5","759925175528722434","林","399","Female","[""好她"",""坏我"",""坏她"",""好我""]","[""强她"",""弱我"",""弱她"",""强我""]","","","","","","","","no","","","","","","","","","SRET","EW_formal","","key","f","16.66754385964892","768","428","自己","说谎","Negative","morality","","","","","","","","","","",""
"902","","j","psychophysics","18","163199","0.0-7.0-3.0-0.4","6","6","6","7","7","2","2","3","4","5","4","1","-1","0","0","0","-1","0","1","4","4","5","5","3","4","5","5","4","4","6","7","3","7","2","4","6","4","7","3","5","5","3","6","5","6","3","5","6","1","6","2","3","5","3","2","5","3","6","6","2","6","2","7","3","6","3","6","7","6","3","4","7","6","1","6","7","3","1","5","759925175528722434","林","399","Female","[""好她"",""坏我"",""坏她"",""好我""]","[""强她"",""弱我"",""弱她"",""强我""]","","","","","","","","yes","","","","","","","","","SRET","EW_formal","","key","j","16.66725663716809","768","428","朋友","中用","Positive","ability","","","","","","","","","","",""
"772","","f","psychophysics","19","164973","0.0-7.0-3.0-0.5","6","6","6","7","7","2","2","3","4","5","4","1","-1","0","0","0","-1","0","1","4","4","5","5","3","4","5","5","4","4","6","7","3","7","2","4","6","4","7","3","5","5","3","6","5","6","3","5","6","1","6","2","3","5","3","2","5","3","6","6","2","6","2","7","3","6","3","6","7","6","3","4","7","6","1","6","7","3","1","5","759925175528722434","林","399","Female","[""好她"",""坏我"",""坏她"",""好我""]","[""强她"",""弱我"",""弱她"",""强我""]","","","","","","","","no","","","","","","","","","SRET","EW_formal","","key","f","16.667924528302052","768","428","朋友","逞能","Negative","ability","","","","","","","","","","",""
"592","","f","psychophysics","20","166566","0.0-7.0-3.0-0.6","6","6","6","7","7","2","2","3","4","5","4","1","-1","0","0","0","-1","0","1","4","4","5","5","3","4","5","5","4","4","6","7","3","7","2","4","6","4","7","3","5","5","3","6","5","6","3","5","6","1","6","2","3","5","3","2","5","3","6","6","2","6","2","7","3","6","3","6","7","6","3","4","7","6","1","6","7","3","1","5","759925175528722434","林","399","Female","[""好她"",""坏我"",""坏她"",""好我""]","[""强她"",""弱我"",""弱她"",""强我""]","","","","","","","","no","","","","","","","","","SRET","EW_formal","","key","f","16.668085106383163","768","428","朋友","愚痴","Negative","ability","","","","","","","","","","",""
"740","","j","psychophysics","21","168309","0.0-7.0-3.0-0.7","6","6","6","7","7","2","2","3","4","5","4","1","-1","0","0","0","-1","0","1","4","4","5","5","3","4","5","5","4","4","6","7","3","7","2","4","6","4","7","3","5","5","3","6","5","6","3","5","6","1","6","2","3","5","3","2","5","3","6","6","2","6","2","7","3","6","3","6","7","6","3","4","7","6","1","6","7","3","1","5","759925175528722434","林","399","Female","[""好她"",""坏我"",""坏她"",""好我""]","[""强她"",""弱我"",""弱她"",""强我""]","","","","","","","","yes","","","","","","","","","SRET","EW_formal","","key","j","16.66826923076923","768","428","自己","热心","Positive","morality","","","","","","","","","","",""
"585","","j","psychophysics","22","169897","0.0-7.0-3.0-0.8","6","6","6","7","7","2","2","3","4","5","4","1","-1","0","0","0","-1","0","1","4","4","5","5","3","4","5","5","4","4","6","7","3","7","2","4","6","4","7","3","5","5","3","6","5","6","3","5","6","1","6","2","3","5","3","2","5","3","6","6","2","6","2","7","3","6","3","6","7","6","3","4","7","6","1","6","7","3","1","5","759925175528722434","林","399","Female","[""好她"",""坏我"",""坏她"",""好我""]","[""强她"",""弱我"",""弱她"",""强我""]","","","","","","","","yes","","","","","","","","","SRET","EW_formal","","key","j","16.668085106382854","768","428","自己","毅力","Positive","ability","","","","","","","","","","",""
"753","","f","psychophysics","23","171651","0.0-7.0-3.0-0.9","6","6","6","7","7","2","2","3","4","5","4","1","-1","0","0","0","-1","0","1","4","4","5","5","3","4","5","5","4","4","6","7","3","7","2","4","6","4","7","3","5","5","3","6","5","6","3","5","6","1","6","2","3","5","3","2","5","3","6","6","2","6","2","7","3","6","3","6","7","6","3","4","7","6","1","6","7","3","1","5","759925175528722434","林","399","Female","[""好她"",""坏我"",""坏她"",""好我""]","[""强她"",""弱我"",""弱她"",""强我""]","","","","","","","","no","","","","","","","","","SRET","EW_formal","","key","f","16.63428571428577","768","428","自己","刻薄","Negative","morality","","","","","","","","","","",""
"886","","f","psychophysics","24","173539","0.0-7.0-3.0-0.10","6","6","6","7","7","2","2","3","4","5","4","1","-1","0","0","0","-1","0","1","4","4","5","5","3","4","5","5","4","4","6","7","3","7","2","4","6","4","7","3","5","5","3","6","5","6","3","5","6","1","6","2","3","5","3","2","5","3","6","6","2","6","2","7","3","6","3","6","7","6","3","4","7","6","1","6","7","3","1","5","759925175528722434","林","399","Female","[""好她"",""坏我"",""坏她"",""好我""]","[""强她"",""弱我"",""弱她"",""强我""]","","","","","","","","no","","","","","","","","","SRET","EW_formal","","key","f","16.66874999999995","768","428","自己","愚钝","Negative","ability","","","","","","","","","","",""
"838","","j","psychophysics","25","175379","0.0-7.0-3.0-0.11","6","6","6","7","7","2","2","3","4","5","4","1","-1","0","0","0","-1","0","1","4","4","5","5","3","4","5","5","4","4","6","7","3","7","2","4","6","4","7","3","5","5","3","6","5","6","3","5","6","1","6","2","3","5","3","2","5","3","6","6","2","6","2","7","3","6","3","6","7","6","3","4","7","6","1","6","7","3","1","5","759925175528722434","林","399","Female","[""好她"",""坏我"",""坏她"",""好我""]","[""强她"",""弱我"",""弱她"",""强我""]","","","","","","","","yes","","","","","","","","","SRET","EW_formal","","key","j","16.667889908256775","768","428","自己","忠诚","Positive","morality","","","","","","","","","","",""
"913","","j","psychophysics","26","177293","0.0-7.0-3.0-0.12","6","6","6","7","7","2","2","3","4","5","4","1","-1","0","0","0","-1","0","1","4","4","5","5","3","4","5","5","4","4","6","7","3","7","2","4","6","4","7","3","5","5","3","6","5","6","3","5","6","1","6","2","3","5","3","2","5","3","6","6","2","6","2","7","3","6","3","6","7","6","3","4","7","6","1","6","7","3","1","5","759925175528722434","林","399","Female","[""好她"",""坏我"",""坏她"",""好我""]","[""强她"",""弱我"",""弱她"",""强我""]","","","","","","","","yes","","","","","","","","","SRET","EW_formal","","key","j","16.667543859649175","768","428","自己","依靠","Negative","ability","","","","","","","","","","",""
"1085","","f","psychophysics","27","179381","0.0-7.0-3.0-0.13","6","6","6","7","7","2","2","3","4","5","4","1","-1","0","0","0","-1","0","1","4","4","5","5","3","4","5","5","4","4","6","7","3","7","2","4","6","4","7","3","5","5","3","6","5","6","3","5","6","1","6","2","3","5","3","2","5","3","6","6","2","6","2","7","3","6","3","6","7","6","3","4","7","6","1","6","7","3","1","5","759925175528722434","林","399","Female","[""好她"",""坏我"",""坏她"",""好我""]","[""强她"",""弱我"",""弱她"",""强我""]","","","","","","","","no","","","","","","","","","SRET","EW_formal","","key","f","16.666129032258112","768","428","自己","敏捷","Positive","ability","","","","","","","","","","",""
"997","","f","psychophysics","28","181389","0.0-7.0-3.0-0.14","6","6","6","7","7","2","2","3","4","5","4","1","-1","0","0","0","-1","0","1","4","4","5","5","3","4","5","5","4","4","6","7","3","7","2","4","6","4","7","3","5","5","3","6","5","6","3","5","6","1","6","2","3","5","3","2","5","3","6","6","2","6","2","7","3","6","3","6","7","6","3","4","7","6","1","6","7","3","1","5","759925175528722434","林","399","Female","[""好她"",""坏我"",""坏她"",""好我""]","[""强她"",""弱我"",""弱她"",""强我""]","","","","","","","","no","","","","","","","","","SRET","EW_formal","","key","f","16.666666666666668","768","428","朋友","自私","Negative","morality","","","","","","","","","","",""
"742","","j","psychophysics","29","183133","0.0-7.0-3.0-0.15","6","6","6","7","7","2","2","3","4","5","4","1","-1","0","0","0","-1","0","1","4","4","5","5","3","4","5","5","4","4","6","7","3","7","2","4","6","4","7","3","5","5","3","6","5","6","3","5","6","1","6","2","3","5","3","2","5","3","6","6","2","6","2","7","3","6","3","6","7","6","3","4","7","6","1","6","7","3","1","5","759925175528722434","林","399","Female","[""好她"",""坏我"",""坏她"",""好我""]","[""强她"",""弱我"",""弱她"",""强我""]","","","","","","","","yes","","","","","","","","","SRET","EW_formal","","key","j","16.66699029126225","768","428","朋友","诚信","Positive","morality","","","","","","","","","","",""
"559","","j","psychophysics","30","184693","0.0-7.0-3.0-0.16","6","6","6","7","7","2","2","3","4","5","4","1","-1","0","0","0","-1","0","1","4","4","5","5","3","4","5","5","4","4","6","7","3","7","2","4","6","4","7","3","5","5","3","6","5","6","3","5","6","1","6","2","3","5","3","2","5","3","6","6","2","6","2","7","3","6","3","6","7","6","3","4","7","6","1","6","7","3","1","5","759925175528722434","林","399","Female","[""好她"",""坏我"",""坏她"",""好我""]","[""强她"",""弱我"",""弱她"",""强我""]","","","","","","","","yes","","","","","","","","","SRET","EW_formal","","key","j","16.668817204300886","768","428","朋友","善良","Positive","morality","","","","","","","","","","",""
"626","","j","psychophysics","31","186321","0.0-7.0-3.0-0.17","6","6","6","7","7","2","2","3","4","5","4","1","-1","0","0","0","-1","0","1","4","4","5","5","3","4","5","5","4","4","6","7","3","7","2","4","6","4","7","3","5","5","3","6","5","6","3","5","6","1","6","2","3","5","3","2","5","3","6","6","2","6","2","7","3","6","3","6","7","6","3","4","7","6","1","6","7","3","1","5","759925175528722434","林","399","Female","[""好她"",""坏我"",""坏她"",""好我""]","[""强她"",""弱我"",""弱她"",""强我""]","","","","","","","","yes","","","","","","","","","SRET","EW_formal","","key","j","16.608247422680414","768","428","自己","文明","Positive","morality","","","","","","","","","","",""
"722","","f","psychophysics","32","188044","0.0-7.0-3.0-0.18","6","6","6","7","7","2","2","3","4","5","4","1","-1","0","0","0","-1","0","1","4","4","5","5","3","4","5","5","4","4","6","7","3","7","2","4","6","4","7","3","5","5","3","6","5","6","3","5","6","1","6","2","3","5","3","2","5","3","6","6","2","6","2","7","3","6","3","6","7","6","3","4","7","6","1","6","7","3","1","5","759925175528722434","林","399","Female","[""好她"",""坏我"",""坏她"",""好我""]","[""强她"",""弱我"",""弱她"",""强我""]","","","","","","","","no","","","","","","","","","SRET","EW_formal","","key","f","16.665686274509746","768","428","朋友","迟钝","Negative","ability","","","","","","","","","","",""
"943","","f","psychophysics","33","189989","0.0-7.0-3.0-0.19","6","6","6","7","7","2","2","3","4","5","4","1","-1","0","0","0","-1","0","1","4","4","5","5","3","4","5","5","4","4","6","7","3","7","2","4","6","4","7","3","5","5","3","6","5","6","3","5","6","1","6","2","3","5","3","2","5","3","6","6","2","6","2","7","3","6","3","6","7","6","3","4","7","6","1","6","7","3","1","5","759925175528722434","林","399","Female","[""好她"",""坏我"",""坏她"",""好我""]","[""强她"",""弱我"",""弱她"",""强我""]","","","","","","","","no","","","","","","","","","SRET","EW_formal","","key","f","16.667241379310294","768","428","自己","淡泊","Positive","morality","","","","","","","","","","",""
"864","","j","psychophysics","34","191855","0.0-7.0-3.0-0.20","6","6","6","7","7","2","2","3","4","5","4","1","-1","0","0","0","-1","0","1","4","4","5","5","3","4","5","5","4","4","6","7","3","7","2","4","6","4","7","3","5","5","3","6","5","6","3","5","6","1","6","2","3","5","3","2","5","3","6","6","2","6","2","7","3","6","3","6","7","6","3","4","7","6","1","6","7","3","1","5","759925175528722434","林","399","Female","[""好她"",""坏我"",""坏她"",""好我""]","[""强她"",""弱我"",""弱她"",""强我""]","","","","","","","","yes","","","","","","","","","SRET","EW_formal","","key","j","16.66756756756762","768","428","朋友","高洁","Positive","morality","","","","","","","","","","",""
"665","","j","psychophysics","35","193522","0.0-7.0-3.0-0.21","6","6","6","7","7","2","2","3","4","5","4","1","-1","0","0","0","-1","0","1","4","4","5","5","3","4","5","5","4","4","6","7","3","7","2","4","6","4","7","3","5","5","3","6","5","6","3","5","6","1","6","2","3","5","3","2","5","3","6","6","2","6","2","7","3","6","3","6","7","6","3","4","7","6","1","6","7","3","1","5","759925175528722434","林","399","Female","[""好她"",""坏我"",""坏她"",""好我""]","[""强她"",""弱我"",""弱她"",""强我""]","","","","","","","","yes","","","","","","","","","SRET","EW_formal","","key","j","16.66565656565651","768","428","朋友","宽容","Positive","morality","","","","","","","","","","",""
"874","","j","psychophysics","36","195398","0.0-7.0-3.0-0.22","6","6","6","7","7","2","2","3","4","5","4","1","-1","0","0","0","-1","0","1","4","4","5","5","3","4","5","5","4","4","6","7","3","7","2","4","6","4","7","3","5","5","3","6","5","6","3","5","6","1","6","2","3","5","3","2","5","3","6","6","2","6","2","7","3","6","3","6","7","6","3","4","7","6","1","6","7","3","1","5","759925175528722434","林","399","Female","[""好她"",""坏我"",""坏她"",""好我""]","[""强她"",""弱我"",""弱她"",""强我""]","","","","","","","","yes","","","","","","","","","SRET","EW_formal","","key","j","16.666666666666668","768","428","朋友","学霸","Positive","ability","","","","","","","","","","",""
"961","","f","psychophysics","37","197360","0.0-7.0-3.0-0.23","6","6","6","7","7","2","2","3","4","5","4","1","-1","0","0","0","-1","0","1","4","4","5","5","3","4","5","5","4","4","6","7","3","7","2","4","6","4","7","3","5","5","3","6","5","6","3","5","6","1","6","2","3","5","3","2","5","3","6","6","2","6","2","7","3","6","3","6","7","6","3","4","7","6","1","6","7","3","1","5","759925175528722434","林","399","Female","[""好她"",""坏我"",""坏她"",""好我""]","[""强她"",""弱我"",""弱她"",""强我""]","","","","","","","","no","","","","","","","","","SRET","EW_formal","","key","f","16.622222222222373","768","428","自己","专注","Positive","ability","","","","","","","","","","",""
"846","","f","psychophysics","38","199207","0.0-7.0-3.0-0.24","6","6","6","7","7","2","2","3","4","5","4","1","-1","0","0","0","-1","0","1","4","4","5","5","3","4","5","5","4","4","6","7","3","7","2","4","6","4","7","3","5","5","3","6","5","6","3","5","6","1","6","2","3","5","3","2","5","3","6","6","2","6","2","7","3","6","3","6","7","6","3","4","7","6","1","6","7","3","1","5","759925175528722434","林","399","Female","[""好她"",""坏我"",""坏她"",""好我""]","[""强她"",""弱我"",""弱她"",""强我""]","","","","","","","","no","","","","","","","","","SRET","EW_formal","","key","f","16.667272727272675","768","428","朋友","贪腐","Negative","morality","","","","","","","","","","",""
"700","","j","psychophysics","39","200908","0.0-7.0-3.0-0.25","6","6","6","7","7","2","2","3","4","5","4","1","-1","0","0","0","-1","0","1","4","4","5","5","3","4","5","5","4","4","6","7","3","7","2","4","6","4","7","3","5","5","3","6","5","6","3","5","6","1","6","2","3","5","3","2","5","3","6","6","2","6","2","7","3","6","3","6","7","6","3","4","7","6","1","6","7","3","1","5","759925175528722434","林","399","Female","[""好她"",""坏我"",""坏她"",""好我""]","[""强她"",""弱我"",""弱她"",""强我""]","","","","","","","","yes","","","","","","","","","SRET","EW_formal","","key","j","16.66732673267321","768","428","自己","侠义","Positive","morality","","","","","","","","","","",""
"890","","f","psychophysics","40","202800","0.0-7.0-3.0-0.26","6","6","6","7","7","2","2","3","4","5","4","1","-1","0","0","0","-1","0","1","4","4","5","5","3","4","5","5","4","4","6","7","3","7","2","4","6","4","7","3","5","5","3","6","5","6","3","5","6","1","6","2","3","5","3","2","5","3","6","6","2","6","2","7","3","6","3","6","7","6","3","4","7","6","1","6","7","3","1","5","759925175528722434","林","399","Female","[""好她"",""坏我"",""坏她"",""好我""]","[""强她"",""弱我"",""弱她"",""强我""]","","","","","","","","no","","","","","","","","","SRET","EW_formal","","key","f","16.66696428571413","768","428","自己","业余","Negative","ability","","","","","","","","","","",""
"1038","","j","psychophysics","41","204840","0.0-7.0-3.0-0.27","6","6","6","7","7","2","2","3","4","5","4","1","-1","0","0","0","-1","0","1","4","4","5","5","3","4","5","5","4","4","6","7","3","7","2","4","6","4","7","3","5","5","3","6","5","6","3","5","6","1","6","2","3","5","3","2","5","3","6","6","2","6","2","7","3","6","3","6","7","6","3","4","7","6","1","6","7","3","1","5","759925175528722434","林","399","Female","[""好她"",""坏我"",""坏她"",""好我""]","[""强她"",""弱我"",""弱她"",""强我""]","","","","","","","","yes","","","","","","","","","SRET","EW_formal","","key","j","16.666393442623093","768","428","朋友","犹豫","Negative","ability","","","","","","","","","","",""
"1175","","j","psychophysics","42","207016","0.0-7.0-3.0-0.28","6","6","6","7","7","2","2","3","4","5","4","1","-1","0","0","0","-1","0","1","4","4","5","5","3","4","5","5","4","4","6","7","3","7","2","4","6","4","7","3","5","5","3","6","5","6","3","5","6","1","6","2","3","5","3","2","5","3","6","6","2","6","2","7","3","6","3","6","7","6","3","4","7","6","1","6","7","3","1","5","759925175528722434","林","399","Female","[""好她"",""坏我"",""坏她"",""好我""]","[""强她"",""弱我"",""弱她"",""强我""]","","","","","","","","yes","","","","","","","","","SRET","EW_formal","","key","j","16.66744186046516","768","428","自己","坚持","Positive","ability","","","","","","","","","","",""
"752","","f","psychophysics","43","208774","0.0-7.0-3.0-0.29","6","6","6","7","7","2","2","3","4","5","4","1","-1","0","0","0","-1","0","1","4","4","5","5","3","4","5","5","4","4","6","7","3","7","2","4","6","4","7","3","5","5","3","6","5","6","3","5","6","1","6","2","3","5","3","2","5","3","6","6","2","6","2","7","3","6","3","6","7","6","3","4","7","6","1","6","7","3","1","5","759925175528722434","林","399","Female","[""好她"",""坏我"",""坏她"",""好我""]","[""强她"",""弱我"",""弱她"",""强我""]","","","","","","","","no","","","","","","","","","SRET","EW_formal","","key","f","16.61619047619059","768","428","朋友","卑鄙","Negative","morality","","","","","","","","","","",""
"649","","f","psychophysics","44","210424","0.0-7.0-3.0-0.30","6","6","6","7","7","2","2","3","4","5","4","1","-1","0","0","0","-1","0","1","4","4","5","5","3","4","5","5","4","4","6","7","3","7","2","4","6","4","7","3","5","5","3","6","5","6","3","5","6","1","6","2","3","5","3","2","5","3","6","6","2","6","2","7","3","6","3","6","7","6","3","4","7","6","1","6","7","3","1","5","759925175528722434","林","399","Female","[""好她"",""坏我"",""坏她"",""好我""]","[""强她"",""弱我"",""弱她"",""强我""]","","","","","","","","no","","","","","","","","","SRET","EW_formal","","key","f","16.667346938775452","768","428","朋友","诡诈","Negative","morality","","","","","","","","","","",""
"643","","f","psychophysics","45","212069","0.0-7.0-3.0-0.31","6","6","6","7","7","2","2","3","4","5","4","1","-1","0","0","0","-1","0","1","4","4","5","5","3","4","5","5","4","4","6","7","3","7","2","4","6","4","7","3","5","5","3","6","5","6","3","5","6","1","6","2","3","5","3","2","5","3","6","6","2","6","2","7","3","6","3","6","7","6","3","4","7","6","1","6","7","3","1","5","759925175528722434","林","399","Female","[""好她"",""坏我"",""坏她"",""好我""]","[""强她"",""弱我"",""弱她"",""强我""]","","","","","","","","no","","","","","","","","","SRET","EW_formal","","key","f","16.666326530612125","768","428","朋友","拖拉","Negative","ability","","","","","","","","","","",""
"611","","f","psychophysics","46","213681","0.0-7.0-3.0-0.32","6","6","6","7","7","2","2","3","4","5","4","1","-1","0","0","0","-1","0","1","4","4","5","5","3","4","5","5","4","4","6","7","3","7","2","4","6","4","7","3","5","5","3","6","5","6","3","5","6","1","6","2","3","5","3","2","5","3","6","6","2","6","2","7","3","6","3","6","7","6","3","4","7","6","1","6","7","3","1","5","759925175528722434","林","399","Female","[""好她"",""坏我"",""坏她"",""好我""]","[""强她"",""弱我"",""弱她"",""强我""]","","","","","","","","no","","","","","","","","","SRET","EW_formal","","key","f","16.66842105263158","768","428","朋友","腐败","Negative","morality","","","","","","","","","","",""
"1171","","j","psychophysics","47","215883","0.0-7.0-3.0-0.33","6","6","6","7","7","2","2","3","4","5","4","1","-1","0","0","0","-1","0","1","4","4","5","5","3","4","5","5","4","4","6","7","3","7","2","4","6","4","7","3","5","5","3","6","5","6","3","5","6","1","6","2","3","5","3","2","5","3","6","6","2","6","2","7","3","6","3","6","7","6","3","4","7","6","1","6","7","3","1","5","759925175528722434","林","399","Female","[""好她"",""坏我"",""坏她"",""好我""]","[""强她"",""弱我"",""弱她"",""强我""]","","","","","","","","yes","","","","","","","","","SRET","EW_formal","","key","j","16.66717557251904","768","428","自己","厚道","Positive","morality","","","","","","","","","","",""
"738","","f","psychophysics","48","217622","0.0-7.0-3.0-0.34","6","6","6","7","7","2","2","3","4","5","4","1","-1","0","0","0","-1","0","1","4","4","5","5","3","4","5","5","4","4","6","7","3","7","2","4","6","4","7","3","5","5","3","6","5","6","3","5","6","1","6","2","3","5","3","2","5","3","6","6","2","6","2","7","3","6","3","6","7","6","3","4","7","6","1","6","7","3","1","5","759925175528722434","林","399","Female","[""好她"",""坏我"",""坏她"",""好我""]","[""强她"",""弱我"",""弱她"",""强我""]","","","","","","","","no","","","","","","","","","SRET","EW_formal","","key","f","16.66826923076923","768","428","自己","全才","Positive","ability","","","","","","","","","","",""
"718","","j","psychophysics","49","219342","0.0-7.0-3.0-0.35","6","6","6","7","7","2","2","3","4","5","4","1","-1","0","0","0","-1","0","1","4","4","5","5","3","4","5","5","4","4","6","7","3","7","2","4","6","4","7","3","5","5","3","6","5","6","3","5","6","1","6","2","3","5","3","2","5","3","6","6","2","6","2","7","3","6","3","6","7","6","3","4","7","6","1","6","7","3","1","5","759925175528722434","林","399","Female","[""好她"",""坏我"",""坏她"",""好我""]","[""强她"",""弱我"",""弱她"",""强我""]","","","","","","","","yes","","","","","","","","","SRET","EW_formal","","key","j","16.667647058823587","768","428","朋友","谦逊","Positive","morality","","","","","","","","","","",""
"760","","f","psychophysics","50","221104","0.0-7.0-3.0-0.36","6","6","6","7","7","2","2","3","4","5","4","1","-1","0","0","0","-1","0","1","4","4","5","5","3","4","5","5","4","4","6","7","3","7","2","4","6","4","7","3","5","5","3","6","5","6","3","5","6","1","6","2","3","5","3","2","5","3","6","6","2","6","2","7","3","6","3","6","7","6","3","4","7","6","1","6","7","3","1","5","759925175528722434","林","399","Female","[""好她"",""坏我"",""坏她"",""好我""]","[""强她"",""弱我"",""弱她"",""强我""]","","","","","","","","no","","","","","","","","","SRET","EW_formal","","key","f","16.6676190476191","768","428","自己","不良","Negative","morality","","","","","","","","","","",""
"688","","f","psychophysics","51","222793","0.0-7.0-3.0-0.37","6","6","6","7","7","2","2","3","4","5","4","1","-1","0","0","0","-1","0","1","4","4","5","5","3","4","5","5","4","4","6","7","3","7","2","4","6","4","7","3","5","5","3","6","5","6","3","5","6","1","6","2","3","5","3","2","5","3","6","6","2","6","2","7","3","6","3","6","7","6","3","4","7","6","1","6","7","3","1","5","759925175528722434","林","399","Female","[""好她"",""坏我"",""坏她"",""好我""]","[""强她"",""弱我"",""弱她"",""强我""]","","","","","","","","no","","","","","","","","","SRET","EW_formal","","key","f","16.66899999999994","768","428","自己","差生","Negative","ability","","","","","","","","","","",""
"825","","f","psychophysics","52","224619","0.0-7.0-3.0-0.38","6","6","6","7","7","2","2","3","4","5","4","1","-1","0","0","0","-1","0","1","4","4","5","5","3","4","5","5","4","4","6","7","3","7","2","4","6","4","7","3","5","5","3","6","5","6","3","5","6","1","6","2","3","5","3","2","5","3","6","6","2","6","2","7","3","6","3","6","7","6","3","4","7","6","1","6","7","3","1","5","759925175528722434","林","399","Female","[""好她"",""坏我"",""坏她"",""好我""]","[""强她"",""弱我"",""弱她"",""强我""]","","","","","","","","no","","","","","","","","","SRET","EW_formal","","key","f","16.668807339449756","768","428","朋友","迂拙","Negative","ability","","","","","","","","","","",""
"739","","f","psychophysics","53","226359","0.0-7.0-3.0-0.39","6","6","6","7","7","2","2","3","4","5","4","1","-1","0","0","0","-1","0","1","4","4","5","5","3","4","5","5","4","4","6","7","3","7","2","4","6","4","7","3","5","5","3","6","5","6","3","5","6","1","6","2","3","5","3","2","5","3","6","6","2","6","2","7","3","6","3","6","7","6","3","4","7","6","1","6","7","3","1","5","759925175528722434","林","399","Female","[""好她"",""坏我"",""坏她"",""好我""]","[""强她"",""弱我"",""弱她"",""强我""]","","","","","","","","no","","","","","","","","","SRET","EW_formal","","key","f","16.66990291262136","768","428","朋友","无为","Negative","ability","","","","","","","","","","",""
"729","","f","psychophysics","54","228090","0.0-7.0-3.0-0.40","6","6","6","7","7","2","2","3","4","5","4","1","-1","0","0","0","-1","0","1","4","4","5","5","3","4","5","5","4","4","6","7","3","7","2","4","6","4","7","3","5","5","3","6","5","6","3","5","6","1","6","2","3","5","3","2","5","3","6","6","2","6","2","7","3","6","3","6","7","6","3","4","7","6","1","6","7","3","1","5","759925175528722434","林","399","Female","[""好她"",""坏我"",""坏她"",""好我""]","[""强她"",""弱我"",""弱她"",""强我""]","","","","","","","","no","","","","","","","","","SRET","EW_formal","","key","f","16.666990291261968","768","428","自己","龌龊","Negative","morality","","","","","","","","","","",""
"986","","f","psychophysics","55","230076","0.0-7.0-3.0-0.41","6","6","6","7","7","2","2","3","4","5","4","1","-1","0","0","0","-1","0","1","4","4","5","5","3","4","5","5","4","4","6","7","3","7","2","4","6","4","7","3","5","5","3","6","5","6","3","5","6","1","6","2","3","5","3","2","5","3","6","6","2","6","2","7","3","6","3","6","7","6","3","4","7","6","1","6","7","3","1","5","759925175528722434","林","399","Female","[""好她"",""坏我"",""坏她"",""好我""]","[""强她"",""弱我"",""弱她"",""强我""]","","","","","","","","no","","","","","","","","","SRET","EW_formal","","key","f","16.66440677966097","768","428","朋友","庸碌","Negative","ability","","","","","","","","","","",""
"716","","j","psychophysics","56","231794","0.0-7.0-3.0-0.42","6","6","6","7","7","2","2","3","4","5","4","1","-1","0","0","0","-1","0","1","4","4","5","5","3","4","5","5","4","4","6","7","3","7","2","4","6","4","7","3","5","5","3","6","5","6","3","5","6","1","6","2","3","5","3","2","5","3","6","6","2","6","2","7","3","6","3","6","7","6","3","4","7","6","1","6","7","3","1","5","759925175528722434","林","399","Female","[""好她"",""坏我"",""坏她"",""好我""]","[""强她"",""弱我"",""弱她"",""强我""]","","","","","","","","yes","","","","","","","","","SRET","EW_formal","","key","j","16.669607843137427","768","428","自己","守法","Positive","morality","","","","","","","","","","",""
"626","","j","psychophysics","57","233422","0.0-7.0-3.0-0.43","6","6","6","7","7","2","2","3","4","5","4","1","-1","0","0","0","-1","0","1","4","4","5","5","3","4","5","5","4","4","6","7","3","7","2","4","6","4","7","3","5","5","3","6","5","6","3","5","6","1","6","2","3","5","3","2","5","3","6","6","2","6","2","7","3","6","3","6","7","6","3","4","7","6","1","6","7","3","1","5","759925175528722434","林","399","Female","[""好她"",""坏我"",""坏她"",""好我""]","[""强她"",""弱我"",""弱她"",""强我""]","","","","","","","","yes","","","","","","","","","SRET","EW_formal","","key","j","16.668041237113282","768","428","朋友","仗义","Positive","morality","","","","","","","","","","",""
"817","","f","psychophysics","58","235241","0.0-7.0-3.0-0.44","6","6","6","7","7","2","2","3","4","5","4","1","-1","0","0","0","-1","0","1","4","4","5","5","3","4","5","5","4","4","6","7","3","7","2","4","6","4","7","3","5","5","3","6","5","6","3","5","6","1","6","2","3","5","3","2","5","3","6","6","2","6","2","7","3","6","3","6","7","6","3","4","7","6","1","6","7","3","1","5","759925175528722434","林","399","Female","[""好她"",""坏我"",""坏她"",""好我""]","[""强她"",""弱我"",""弱她"",""强我""]","","","","","","","","no","","","","","","","","","SRET","EW_formal","","key","f","16.665740740740688","768","428","自己","缺德","Negative","morality","","","","","","","","","","",""
"784","","f","psychophysics","59","237026","0.0-7.0-3.0-0.45","6","6","6","7","7","2","2","3","4","5","4","1","-1","0","0","0","-1","0","1","4","4","5","5","3","4","5","5","4","4","6","7","3","7","2","4","6","4","7","3","5","5","3","6","5","6","3","5","6","1","6","2","3","5","3","2","5","3","6","6","2","6","2","7","3","6","3","6","7","6","3","4","7","6","1","6","7","3","1","5","759925175528722434","林","399","Female","[""好她"",""坏我"",""坏她"",""好我""]","[""强她"",""弱我"",""弱她"",""强我""]","","","","","","","","no","","","","","","","","","SRET","EW_formal","","key","f","16.66792452830178","768","428","自己","无能","Negative","ability","","","","","","","","","","",""
"742","","j","psychophysics","60","238770","0.0-7.0-3.0-0.46","6","6","6","7","7","2","2","3","4","5","4","1","-1","0","0","0","-1","0","1","4","4","5","5","3","4","5","5","4","4","6","7","3","7","2","4","6","4","7","3","5","5","3","6","5","6","3","5","6","1","6","2","3","5","3","2","5","3","6","6","2","6","2","7","3","6","3","6","7","6","3","4","7","6","1","6","7","3","1","5","759925175528722434","林","399","Female","[""好她"",""坏我"",""坏她"",""好我""]","[""强她"",""弱我"",""弱她"",""强我""]","","","","","","","","yes","","","","","","","","","SRET","EW_formal","","key","j","16.669230769230825","768","428","朋友","高尚","Positive","morality","","","","","","","","","","",""
"679","","j","psychophysics","61","240452","0.0-7.0-3.0-0.47","6","6","6","7","7","2","2","3","4","5","4","1","-1","0","0","0","-1","0","1","4","4","5","5","3","4","5","5","4","4","6","7","3","7","2","4","6","4","7","3","5","5","3","6","5","6","3","5","6","1","6","2","3","5","3","2","5","3","6","6","2","6","2","7","3","6","3","6","7","6","3","4","7","6","1","6","7","3","1","5","759925175528722434","林","399","Female","[""好她"",""坏我"",""坏她"",""好我""]","[""强她"",""弱我"",""弱她"",""强我""]","","","","","","","","yes","","","","","","","","","SRET","EW_formal","","key","j","16.666666666666668","768","428","朋友","廉正","Positive","morality","","","","","","","","","","",""
"618","","f","psychophysics","62","242073","0.0-7.0-3.0-0.48","6","6","6","7","7","2","2","3","4","5","4","1","-1","0","0","0","-1","0","1","4","4","5","5","3","4","5","5","4","4","6","7","3","7","2","4","6","4","7","3","5","5","3","6","5","6","3","5","6","1","6","2","3","5","3","2","5","3","6","6","2","6","2","7","3","6","3","6","7","6","3","4","7","6","1","6","7","3","1","5","759925175528722434","林","399","Female","[""好她"",""坏我"",""坏她"",""好我""]","[""强她"",""弱我"",""弱她"",""强我""]","","","","","","","","no","","","","","","","","","SRET","EW_formal","","key","f","16.66701030927847","768","428","朋友","浅薄","Negative","ability","","","","","","","","","","",""
"700","","j","psychophysics","63","243774","0.0-7.0-3.0-0.49","6","6","6","7","7","2","2","3","4","5","4","1","-1","0","0","0","-1","0","1","4","4","5","5","3","4","5","5","4","4","6","7","3","7","2","4","6","4","7","3","5","5","3","6","5","6","3","5","6","1","6","2","3","5","3","2","5","3","6","6","2","6","2","7","3","6","3","6","7","6","3","4","7","6","1","6","7","3","1","5","759925175528722434","林","399","Female","[""好她"",""坏我"",""坏她"",""好我""]","[""强她"",""弱我"",""弱她"",""强我""]","","","","","","","","yes","","","","","","","","","SRET","EW_formal","","key","j","16.66732673267321","768","428","自己","独立","Positive","ability","","","","","","","","","","",""
"862","","f","psychophysics","64","245639","0.0-7.0-3.0-0.50","6","6","6","7","7","2","2","3","4","5","4","1","-1","0","0","0","-1","0","1","4","4","5","5","3","4","5","5","4","4","6","7","3","7","2","4","6","4","7","3","5","5","3","6","5","6","3","5","6","1","6","2","3","5","3","2","5","3","6","6","2","6","2","7","3","6","3","6","7","6","3","4","7","6","1","6","7","3","1","5","759925175528722434","林","399","Female","[""好她"",""坏我"",""坏她"",""好我""]","[""强她"",""弱我"",""弱她"",""强我""]","","","","","","","","no","","","","","","","","","SRET","EW_formal","","key","f","16.666666666666668","768","428","自己","才尽","Negative","ability","","","","","","","","","","",""
"639","","f","psychophysics","65","247280","0.0-7.0-3.0-0.51","6","6","6","7","7","2","2","3","4","5","4","1","-1","0","0","0","-1","0","1","4","4","5","5","3","4","5","5","4","4","6","7","3","7","2","4","6","4","7","3","5","5","3","6","5","6","3","5","6","1","6","2","3","5","3","2","5","3","6","6","2","6","2","7","3","6","3","6","7","6","3","4","7","6","1","6","7","3","1","5","759925175528722434","林","399","Female","[""好她"",""坏我"",""坏她"",""好我""]","[""强她"",""弱我"",""弱她"",""强我""]","","","","","","","","no","","","","","","","","","SRET","EW_formal","","key","f","16.669072164948695","768","428","朋友","奸险","Negative","morality","","","","","","","","","","",""
"590","","f","psychophysics","66","248873","0.0-7.0-3.0-0.52","6","6","6","7","7","2","2","3","4","5","4","1","-1","0","0","0","-1","0","1","4","4","5","5","3","4","5","5","4","4","6","7","3","7","2","4","6","4","7","3","5","5","3","6","5","6","3","5","6","1","6","2","3","5","3","2","5","3","6","6","2","6","2","7","3","6","3","6","7","6","3","4","7","6","1","6","7","3","1","5","759925175528722434","林","399","Female","[""好她"",""坏我"",""坏她"",""好我""]","[""强她"",""弱我"",""弱她"",""强我""]","","","","","","","","no","","","","","","","","","SRET","EW_formal","","key","f","16.66842105263158","768","428","朋友","无赖","Negative","morality","","","","","","","","","","",""
"700","","f","psychophysics","67","250574","0.0-7.0-3.0-0.53","6","6","6","7","7","2","2","3","4","5","4","1","-1","0","0","0","-1","0","1","4","4","5","5","3","4","5","5","4","4","6","7","3","7","2","4","6","4","7","3","5","5","3","6","5","6","3","5","6","1","6","2","3","5","3","2","5","3","6","6","2","6","2","7","3","6","3","6","7","6","3","4","7","6","1","6","7","3","1","5","759925175528722434","林","399","Female","[""好她"",""坏我"",""坏她"",""好我""]","[""强她"",""弱我"",""弱她"",""强我""]","","","","","","","","no","","","","","","","","","SRET","EW_formal","","key","f","16.66534653465358","768","428","自己","狡诈","Negative","morality","","","","","","","","","","",""
"636","","f","psychophysics","68","252211","0.0-7.0-3.0-0.54","6","6","6","7","7","2","2","3","4","5","4","1","-1","0","0","0","-1","0","1","4","4","5","5","3","4","5","5","4","4","6","7","3","7","2","4","6","4","7","3","5","5","3","6","5","6","3","5","6","1","6","2","3","5","3","2","5","3","6","6","2","6","2","7","3","6","3","6","7","6","3","4","7","6","1","6","7","3","1","5","759925175528722434","林","399","Female","[""好她"",""坏我"",""坏她"",""好我""]","[""强她"",""弱我"",""弱她"",""强我""]","","","","","","","","no","","","","","","","","","SRET","EW_formal","","key","f","16.66701030927847","768","428","自己","下流","Negative","morality","","","","","","","","","","",""
"573","","j","psychophysics","69","253805","0.0-7.0-3.0-0.55","6","6","6","7","7","2","2","3","4","5","4","1","-1","0","0","0","-1","0","1","4","4","5","5","3","4","5","5","4","4","6","7","3","7","2","4","6","4","7","3","5","5","3","6","5","6","3","5","6","1","6","2","3","5","3","2","5","3","6","6","2","6","2","7","3","6","3","6","7","6","3","4","7","6","1","6","7","3","1","5","759925175528722434","林","399","Female","[""好她"",""坏我"",""坏她"",""好我""]","[""强她"",""弱我"",""弱她"",""强我""]","","","","","","","","yes","","","","","","","","","SRET","EW_formal","","key","j","16.667368421052878","768","428","自己","细心","Positive","ability","","","","","","","","","","",""
"572","","j","psychophysics","70","255379","0.0-7.0-3.0-0.56","6","6","6","7","7","2","2","3","4","5","4","1","-1","0","0","0","-1","0","1","4","4","5","5","3","4","5","5","4","4","6","7","3","7","2","4","6","4","7","3","5","5","3","6","5","6","3","5","6","1","6","2","3","5","3","2","5","3","6","6","2","6","2","7","3","6","3","6","7","6","3","4","7","6","1","6","7","3","1","5","759925175528722434","林","399","Female","[""好她"",""坏我"",""坏她"",""好我""]","[""强她"",""弱我"",""弱她"",""强我""]","","","","","","","","yes","","","","","","","","","SRET","EW_formal","","key","j","16.666666666666668","768","428","朋友","努力","Positive","ability","","","","","","","","","","",""
"742","","j","psychophysics","71","257122","0.0-7.0-3.0-0.57","6","6","6","7","7","2","2","3","4","5","4","1","-1","0","0","0","-1","0","1","4","4","5","5","3","4","5","5","4","4","6","7","3","7","2","4","6","4","7","3","5","5","3","6","5","6","3","5","6","1","6","2","3","5","3","2","5","3","6","6","2","6","2","7","3","6","3","6","7","6","3","4","7","6","1","6","7","3","1","5","759925175528722434","林","399","Female","[""好她"",""坏我"",""坏她"",""好我""]","[""强她"",""弱我"",""弱她"",""强我""]","","","","","","","","yes","","","","","","","","","SRET","EW_formal","","key","j","16.658653846153847","768","428","自己","干练","Positive","ability","","","","","","","","","","",""
"658","","f","psychophysics","72","258783","0.0-7.0-3.0-0.58","6","6","6","7","7","2","2","3","4","5","4","1","-1","0","0","0","-1","0","1","4","4","5","5","3","4","5","5","4","4","6","7","3","7","2","4","6","4","7","3","5","5","3","6","5","6","3","5","6","1","6","2","3","5","3","2","5","3","6","6","2","6","2","7","3","6","3","6","7","6","3","4","7","6","1","6","7","3","1","5","759925175528722434","林","399","Female","[""好她"",""坏我"",""坏她"",""好我""]","[""强她"",""弱我"",""弱她"",""强我""]","","","","","","","","no","","","","","","","","","SRET","EW_formal","","key","f","16.664285714285775","768","428","自己","虚假","Negative","morality","","","","","","","","","","",""
"809","","j","psychophysics","73","260594","0.0-7.0-3.0-0.59","6","6","6","7","7","2","2","3","4","5","4","1","-1","0","0","0","-1","0","1","4","4","5","5","3","4","5","5","4","4","6","7","3","7","2","4","6","4","7","3","5","5","3","6","5","6","3","5","6","1","6","2","3","5","3","2","5","3","6","6","2","6","2","7","3","6","3","6","7","6","3","4","7","6","1","6","7","3","1","5","759925175528722434","林","399","Female","[""好她"",""坏我"",""坏她"",""好我""]","[""强她"",""弱我"",""弱她"",""强我""]","","","","","","","","yes","","","","","","","","","SRET","EW_formal","","key","j","16.667592592592648","768","428","朋友","精干","Positive","ability","","","","","","","","","","",""
"664","","f","psychophysics","74","262258","0.0-7.0-3.0-0.60","6","6","6","7","7","2","2","3","4","5","4","1","-1","0","0","0","-1","0","1","4","4","5","5","3","4","5","5","4","4","6","7","3","7","2","4","6","4","7","3","5","5","3","6","5","6","3","5","6","1","6","2","3","5","3","2","5","3","6","6","2","6","2","7","3","6","3","6","7","6","3","4","7","6","1","6","7","3","1","5","759925175528722434","林","399","Female","[""好她"",""坏我"",""坏她"",""好我""]","[""强她"",""弱我"",""弱她"",""强我""]","","","","","","","","no","","","","","","","","","SRET","EW_formal","","key","f","16.666666666666668","768","428","自己","马虎","Negative","ability","","","","","","","","","","",""
"1146","","f","psychophysics","75","264405","0.0-7.0-3.0-0.61","6","6","6","7","7","2","2","3","4","5","4","1","-1","0","0","0","-1","0","1","4","4","5","5","3","4","5","5","4","4","6","7","3","7","2","4","6","4","7","3","5","5","3","6","5","6","3","5","6","1","6","2","3","5","3","2","5","3","6","6","2","6","2","7","3","6","3","6","7","6","3","4","7","6","1","6","7","3","1","5","759925175528722434","林","399","Female","[""好她"",""坏我"",""坏她"",""好我""]","[""强她"",""弱我"",""弱她"",""强我""]","","","","","","","","no","","","","","","","","","SRET","EW_formal","","key","f","16.655468750000182","768","428","自己","畏难","Negative","ability","","","","","","","","","","",""
"874","","f","psychophysics","76","266281","0.0-7.0-3.0-0.62","6","6","6","7","7","2","2","3","4","5","4","1","-1","0","0","0","-1","0","1","4","4","5","5","3","4","5","5","4","4","6","7","3","7","2","4","6","4","7","3","5","5","3","6","5","6","3","5","6","1","6","2","3","5","3","2","5","3","6","6","2","6","2","7","3","6","3","6","7","6","3","4","7","6","1","6","7","3","1","5","759925175528722434","林","399","Female","[""好她"",""坏我"",""坏她"",""好我""]","[""强她"",""弱我"",""弱她"",""强我""]","","","","","","","","no","","","","","","","","","SRET","EW_formal","","key","f","16.66936936936979","768","428","自己","罪恶","Negative","morality","","","","","","","","","","",""
"1035","","j","psychophysics","77","268317","0.0-7.0-3.0-0.63","6","6","6","7","7","2","2","3","4","5","4","1","-1","0","0","0","-1","0","1","4","4","5","5","3","4","5","5","4","4","6","7","3","7","2","4","6","4","7","3","5","5","3","6","5","6","3","5","6","1","6","2","3","5","3","2","5","3","6","6","2","6","2","7","3","6","3","6","7","6","3","4","7","6","1","6","7","3","1","5","759925175528722434","林","399","Female","[""好她"",""坏我"",""坏她"",""好我""]","[""强她"",""弱我"",""弱她"",""强我""]","","","","","","","","yes","","","","","","","","","SRET","EW_formal","","key","j","16.667768595041228","768","428","自己","守时","Positive","morality","","","","","","","","","","",""
"684","","j","psychophysics","78","270003","0.0-7.0-3.0-0.64","6","6","6","7","7","2","2","3","4","5","4","1","-1","0","0","0","-1","0","1","4","4","5","5","3","4","5","5","4","4","6","7","3","7","2","4","6","4","7","3","5","5","3","6","5","6","3","5","6","1","6","2","3","5","3","2","5","3","6","6","2","6","2","7","3","6","3","6","7","6","3","4","7","6","1","6","7","3","1","5","759925175528722434","林","399","Female","[""好她"",""坏我"",""坏她"",""好我""]","[""强她"",""弱我"",""弱她"",""强我""]","","","","","","","","yes","","","","","","","","","SRET","EW_formal","","key","j","16.66633663366383","768","428","自己","刻苦","Positive","ability","","","","","","","","","","",""
"852","","f","psychophysics","79","271857","0.0-7.0-3.0-0.65","6","6","6","7","7","2","2","3","4","5","4","1","-1","0","0","0","-1","0","1","4","4","5","5","3","4","5","5","4","4","6","7","3","7","2","4","6","4","7","3","5","5","3","6","5","6","3","5","6","1","6","2","3","5","3","2","5","3","6","6","2","6","2","7","3","6","3","6","7","6","3","4","7","6","1","6","7","3","1","5","759925175528722434","林","399","Female","[""好她"",""坏我"",""坏她"",""好我""]","[""强她"",""弱我"",""弱她"",""强我""]","","","","","","","","no","","","","","","","","","SRET","EW_formal","","key","f","16.66545454545465","768","428","自己","盲目","Negative","ability","","","","","","","","","","",""
"723","","j","psychophysics","80","273582","0.0-7.0-3.0-0.66","6","6","6","7","7","2","2","3","4","5","4","1","-1","0","0","0","-1","0","1","4","4","5","5","3","4","5","5","4","4","6","7","3","7","2","4","6","4","7","3","5","5","3","6","5","6","3","5","6","1","6","2","3","5","3","2","5","3","6","6","2","6","2","7","3","6","3","6","7","6","3","4","7","6","1","6","7","3","1","5","759925175528722434","林","399","Female","[""好她"",""坏我"",""坏她"",""好我""]","[""强她"",""弱我"",""弱她"",""强我""]","","","","","","","","yes","","","","","","","","","SRET","EW_formal","","key","j","16.66960784313714","768","428","自己","坦荡","Positive","morality","","","","","","","","","","",""
"869","","f","psychophysics","81","275453","0.0-7.0-3.0-0.67","6","6","6","7","7","2","2","3","4","5","4","1","-1","0","0","0","-1","0","1","4","4","5","5","3","4","5","5","4","4","6","7","3","7","2","4","6","4","7","3","5","5","3","6","5","6","3","5","6","1","6","2","3","5","3","2","5","3","6","6","2","6","2","7","3","6","3","6","7","6","3","4","7","6","1","6","7","3","1","5","759925175528722434","林","399","Female","[""好她"",""坏我"",""坏她"",""好我""]","[""强她"",""弱我"",""弱她"",""强我""]","","","","","","","","no","","","","","","","","","SRET","EW_formal","","key","f","16.66696428571387","768","428","朋友","伪善","Negative","morality","","","","","","","","","","",""
"784","","j","psychophysics","82","277242","0.0-7.0-3.0-0.68","6","6","6","7","7","2","2","3","4","5","4","1","-1","0","0","0","-1","0","1","4","4","5","5","3","4","5","5","4","4","6","7","3","7","2","4","6","4","7","3","5","5","3","6","5","6","3","5","6","1","6","2","3","5","3","2","5","3","6","6","2","6","2","7","3","6","3","6","7","6","3","4","7","6","1","6","7","3","1","5","759925175528722434","林","399","Female","[""好她"",""坏我"",""坏她"",""好我""]","[""强她"",""弱我"",""弱她"",""强我""]","","","","","","","","yes","","","","","","","","","SRET","EW_formal","","key","j","16.668867924527973","768","428","朋友","利落","Positive","ability","","","","","","","","","","",""
"1051","","f","psychophysics","83","279294","0.0-7.0-3.0-0.69","6","6","6","7","7","2","2","3","4","5","4","1","-1","0","0","0","-1","0","1","4","4","5","5","3","4","5","5","4","4","6","7","3","7","2","4","6","4","7","3","5","5","3","6","5","6","3","5","6","1","6","2","3","5","3","2","5","3","6","6","2","6","2","7","3","6","3","6","7","6","3","4","7","6","1","6","7","3","1","5","759925175528722434","林","399","Female","[""好她"",""坏我"",""坏她"",""好我""]","[""强她"",""弱我"",""弱她"",""强我""]","","","","","","","","no","","","","","","","","","SRET","EW_formal","","key","f","16.66885245901668","768","428","自己","愚蠢","Negative","ability","","","","","","","","","","",""
"878","","f","psychophysics","84","281174","0.0-7.0-3.0-0.70","6","6","6","7","7","2","2","3","4","5","4","1","-1","0","0","0","-1","0","1","4","4","5","5","3","4","5","5","4","4","6","7","3","7","2","4","6","4","7","3","5","5","3","6","5","6","3","5","6","1","6","2","3","5","3","2","5","3","6","6","2","6","2","7","3","6","3","6","7","6","3","4","7","6","1","6","7","3","1","5","759925175528722434","林","399","Female","[""好她"",""坏我"",""坏她"",""好我""]","[""强她"",""弱我"",""弱她"",""强我""]","","","","","","","","no","","","","","","","","","SRET","EW_formal","","key","f","16.66607142857174","768","428","朋友","顶事","Positive","ability","","","","","","","","","","",""
"702","","j","psychophysics","85","282877","0.0-7.0-3.0-0.71","6","6","6","7","7","2","2","3","4","5","4","1","-1","0","0","0","-1","0","1","4","4","5","5","3","4","5","5","4","4","6","7","3","7","2","4","6","4","7","3","5","5","3","6","5","6","3","5","6","1","6","2","3","5","3","2","5","3","6","6","2","6","2","7","3","6","3","6","7","6","3","4","7","6","1","6","7","3","1","5","759925175528722434","林","399","Female","[""好她"",""坏我"",""坏她"",""好我""]","[""强她"",""弱我"",""弱她"",""强我""]","","","","","","","","yes","","","","","","","","","SRET","EW_formal","","key","j","16.667326732673498","768","428","朋友","刚正","Positive","morality","","","","","","","","","","",""
"554","","j","psychophysics","86","284434","0.0-7.0-3.0-0.72","6","6","6","7","7","2","2","3","4","5","4","1","-1","0","0","0","-1","0","1","4","4","5","5","3","4","5","5","4","4","6","7","3","7","2","4","6","4","7","3","5","5","3","6","5","6","3","5","6","1","6","2","3","5","3","2","5","3","6","6","2","6","2","7","3","6","3","6","7","6","3","4","7","6","1","6","7","3","1","5","759925175528722434","林","399","Female","[""好她"",""坏我"",""坏她"",""好我""]","[""强她"",""弱我"",""弱她"",""强我""]","","","","","","","","yes","","","","","","","","","SRET","EW_formal","","key","j","16.669565217391686","768","428","自己","礼貌","Positive","morality","","","","","","","","","","",""
"588","","j","psychophysics","87","286024","0.0-7.0-3.0-0.73","6","6","6","7","7","2","2","3","4","5","4","1","-1","0","0","0","-1","0","1","4","4","5","5","3","4","5","5","4","4","6","7","3","7","2","4","6","4","7","3","5","5","3","6","5","6","3","5","6","1","6","2","3","5","3","2","5","3","6","6","2","6","2","7","3","6","3","6","7","6","3","4","7","6","1","6","7","3","1","5","759925175528722434","林","399","Female","[""好她"",""坏我"",""坏她"",""好我""]","[""强她"",""弱我"",""弱她"",""强我""]","","","","","","","","yes","","","","","","","","","SRET","EW_formal","","key","j","16.66842105263158","768","428","朋友","有力","Positive","ability","","","","","","","","","","",""
"561","","j","psychophysics","88","287603","0.0-7.0-3.0-0.74","6","6","6","7","7","2","2","3","4","5","4","1","-1","0","0","0","-1","0","1","4","4","5","5","3","4","5","5","4","4","6","7","3","7","2","4","6","4","7","3","5","5","3","6","5","6","3","5","6","1","6","2","3","5","3","2","5","3","6","6","2","6","2","7","3","6","3","6","7","6","3","4","7","6","1","6","7","3","1","5","759925175528722434","林","399","Female","[""好她"",""坏我"",""坏她"",""好我""]","[""强她"",""弱我"",""弱她"",""强我""]","","","","","","","","yes","","","","","","","","","SRET","EW_formal","","key","j","16.665957446808264","768","428","朋友","勤奋","Positive","ability","","","","","","","","","","",""
"711","","f","psychophysics","89","289317","0.0-7.0-3.0-0.75","6","6","6","7","7","2","2","3","4","5","4","1","-1","0","0","0","-1","0","1","4","4","5","5","3","4","5","5","4","4","6","7","3","7","2","4","6","4","7","3","5","5","3","6","5","6","3","5","6","1","6","2","3","5","3","2","5","3","6","6","2","6","2","7","3","6","3","6","7","6","3","4","7","6","1","6","7","3","1","5","759925175528722434","林","399","Female","[""好她"",""坏我"",""坏她"",""好我""]","[""强她"",""弱我"",""弱她"",""强我""]","","","","","","","","no","","","","","","","","","SRET","EW_formal","","key","f","16.667326732673498","768","428","朋友","无助","Negative","ability","","","","","","","","","","",""
"613","","f","psychophysics","90","290932","0.0-7.0-3.0-0.76","6","6","6","7","7","2","2","3","4","5","4","1","-1","0","0","0","-1","0","1","4","4","5","5","3","4","5","5","4","4","6","7","3","7","2","4","6","4","7","3","5","5","3","6","5","6","3","5","6","1","6","2","3","5","3","2","5","3","6","6","2","6","2","7","3","6","3","6","7","6","3","4","7","6","1","6","7","3","1","5","759925175528722434","林","399","Female","[""好她"",""坏我"",""坏她"",""好我""]","[""强她"",""弱我"",""弱她"",""强我""]","","","","","","","","no","","","","","","","","","SRET","EW_formal","","key","f","16.667708333333696","768","428","自己","不孝","Negative","morality","","","","","","","","","","",""
"702","","j","psychophysics","91","292635","0.0-7.0-3.0-0.77","6","6","6","7","7","2","2","3","4","5","4","1","-1","0","0","0","-1","0","1","4","4","5","5","3","4","5","5","4","4","6","7","3","7","2","4","6","4","7","3","5","5","3","6","5","6","3","5","6","1","6","2","3","5","3","2","5","3","6","6","2","6","2","7","3","6","3","6","7","6","3","4","7","6","1","6","7","3","1","5","759925175528722434","林","399","Female","[""好她"",""坏我"",""坏她"",""好我""]","[""强她"",""弱我"",""弱她"",""强我""]","","","","","","","","yes","","","","","","","","","SRET","EW_formal","","key","j","16.628712871287128","768","428","自己","沉着","Positive","ability","","","","","","","","","","",""
"837","","f","psychophysics","92","294476","0.0-7.0-3.0-0.78","6","6","6","7","7","2","2","3","4","5","4","1","-1","0","0","0","-1","0","1","4","4","5","5","3","4","5","5","4","4","6","7","3","7","2","4","6","4","7","3","5","5","3","6","5","6","3","5","6","1","6","2","3","5","3","2","5","3","6","6","2","6","2","7","3","6","3","6","7","6","3","4","7","6","1","6","7","3","1","5","759925175528722434","林","399","Female","[""好她"",""坏我"",""坏她"",""好我""]","[""强她"",""弱我"",""弱她"",""强我""]","","","","","","","","no","","","","","","","","","SRET","EW_formal","","key","f","16.66636363636353","768","428","朋友","无耻","Negative","morality","","","","","","","","","","",""
"1136","","j","psychophysics","93","296615","0.0-7.0-3.0-0.79","6","6","6","7","7","2","2","3","4","5","4","1","-1","0","0","0","-1","0","1","4","4","5","5","3","4","5","5","4","4","6","7","3","7","2","4","6","4","7","3","5","5","3","6","5","6","3","5","6","1","6","2","3","5","3","2","5","3","6","6","2","6","2","7","3","6","3","6","7","6","3","4","7","6","1","6","7","3","1","5","759925175528722434","林","399","Female","[""好她"",""坏我"",""坏她"",""好我""]","[""强她"",""弱我"",""弱她"",""强我""]","","","","","","","","yes","","","","","","","","","SRET","EW_formal","","key","j","16.66771653543298","768","428","朋友","娴熟","Positive","ability","","","","","","","","","","",""
"749","","j","psychophysics","94","298366","0.0-7.0-3.0-0.80","6","6","6","7","7","2","2","3","4","5","4","1","-1","0","0","0","-1","0","1","4","4","5","5","3","4","5","5","4","4","6","7","3","7","2","4","6","4","7","3","5","5","3","6","5","6","3","5","6","1","6","2","3","5","3","2","5","3","6","6","2","6","2","7","3","6","3","6","7","6","3","4","7","6","1","6","7","3","1","5","759925175528722434","林","399","Female","[""好她"",""坏我"",""坏她"",""好我""]","[""强她"",""弱我"",""弱她"",""强我""]","","","","","","","","yes","","","","","","","","","SRET","EW_formal","","key","j","16.667307692307915","768","428","朋友","肯干","Positive","ability","","","","","","","","","","",""
"564","","j","psychophysics","95","299931","0.0-7.0-3.0-0.81","6","6","6","7","7","2","2","3","4","5","4","1","-1","0","0","0","-1","0","1","4","4","5","5","3","4","5","5","4","4","6","7","3","7","2","4","6","4","7","3","5","5","3","6","5","6","3","5","6","1","6","2","3","5","3","2","5","3","6","6","2","6","2","7","3","6","3","6","7","6","3","4","7","6","1","6","7","3","1","5","759925175528722434","林","399","Female","[""好她"",""坏我"",""坏她"",""好我""]","[""强她"",""弱我"",""弱她"",""强我""]","","","","","","","","yes","","","","","","","","","SRET","EW_formal","","key","j","16.666666666666668","768","428","朋友","仁爱","Positive","morality","","","","","","","","","","",""
"637","","f","psychophysics","96","301570","0.0-7.0-3.0-0.82","6","6","6","7","7","2","2","3","4","5","4","1","-1","0","0","0","-1","0","1","4","4","5","5","3","4","5","5","4","4","6","7","3","7","2","4","6","4","7","3","5","5","3","6","5","6","3","5","6","1","6","2","3","5","3","2","5","3","6","6","2","6","2","7","3","6","3","6","7","6","3","4","7","6","1","6","7","3","1","5","759925175528722434","林","399","Female","[""好她"",""坏我"",""坏她"",""好我""]","[""强她"",""弱我"",""弱她"",""强我""]","","","","","","","","no","","","","","","","","","SRET","EW_formal","","key","f","16.667346938775747","768","428","自己","拜金","Negative","morality","","","","","","","","","","",""
"785","","f","psychophysics","97","303358","0.0-7.0-3.0-0.83","6","6","6","7","7","2","2","3","4","5","4","1","-1","0","0","0","-1","0","1","4","4","5","5","3","4","5","5","4","4","6","7","3","7","2","4","6","4","7","3","5","5","3","6","5","6","3","5","6","1","6","2","3","5","3","2","5","3","6","6","2","6","2","7","3","6","3","6","7","6","3","4","7","6","1","6","7","3","1","5","759925175528722434","林","399","Female","[""好她"",""坏我"",""坏她"",""好我""]","[""强她"",""弱我"",""弱她"",""强我""]","","","","","","","","no","","","","","","","","","SRET","EW_formal","","key","f","16.669811320754718","768","428","朋友","恶劣","Negative","morality","","","","","","","","","","",""
"924","","j","psychophysics","98","305284","0.0-7.0-3.0-0.84","6","6","6","7","7","2","2","3","4","5","4","1","-1","0","0","0","-1","0","1","4","4","5","5","3","4","5","5","4","4","6","7","3","7","2","4","6","4","7","3","5","5","3","6","5","6","3","5","6","1","6","2","3","5","3","2","5","3","6","6","2","6","2","7","3","6","3","6","7","6","3","4","7","6","1","6","7","3","1","5","759925175528722434","林","399","Female","[""好她"",""坏我"",""坏她"",""好我""]","[""强她"",""弱我"",""弱她"",""强我""]","","","","","","","","yes","","","","","","","","","SRET","EW_formal","","key","j","16.6640350877194","768","428","自己","缓慢","Negative","ability","","","","","","","","","","",""
"696","","j","psychophysics","99","306982","0.0-7.0-3.0-0.85","6","6","6","7","7","2","2","3","4","5","4","1","-1","0","0","0","-1","0","1","4","4","5","5","3","4","5","5","4","4","6","7","3","7","2","4","6","4","7","3","5","5","3","6","5","6","3","5","6","1","6","2","3","5","3","2","5","3","6","6","2","6","2","7","3","6","3","6","7","6","3","4","7","6","1","6","7","3","1","5","759925175528722434","林","399","Female","[""好她"",""坏我"",""坏她"",""好我""]","[""强她"",""弱我"",""弱她"",""强我""]","","","","","","","","yes","","","","","","","","","SRET","EW_formal","","key","j","16.666336633663253","768","428","朋友","素养","Positive","morality","","","","","","","","","","",""
"1143","","f","psychophysics","100","309127","0.0-7.0-3.0-0.86","6","6","6","7","7","2","2","3","4","5","4","1","-1","0","0","0","-1","0","1","4","4","5","5","3","4","5","5","4","4","6","7","3","7","2","4","6","4","7","3","5","5","3","6","5","6","3","5","6","1","6","2","3","5","3","2","5","3","6","6","2","6","2","7","3","6","3","6","7","6","3","4","7","6","1","6","7","3","1","5","759925175528722434","林","399","Female","[""好她"",""坏我"",""坏她"",""好我""]","[""强她"",""弱我"",""弱她"",""强我""]","","","","","","","","no","","","","","","","","","SRET","EW_formal","","key","f","16.667187499999727","768","428","自己","主见","Positive","ability","","","","","","","","","","",""
"814","","f","psychophysics","101","310944","0.0-7.0-3.0-0.87","6","6","6","7","7","2","2","3","4","5","4","1","-1","0","0","0","-1","0","1","4","4","5","5","3","4","5","5","4","4","6","7","3","7","2","4","6","4","7","3","5","5","3","6","5","6","3","5","6","1","6","2","3","5","3","2","5","3","6","6","2","6","2","7","3","6","3","6","7","6","3","4","7","6","1","6","7","3","1","5","759925175528722434","林","399","Female","[""好她"",""坏我"",""坏她"",""好我""]","[""强她"",""弱我"",""弱她"",""强我""]","","","","","","","","no","","","","","","","","","SRET","EW_formal","","key","f","16.668518518518628","768","428","朋友","低俗","Negative","morality","","","","","","","","","","",""
"8772","
    <p><div style='color:white;font-size:35px; line-height:20px;'>计算任务</div></p><br>
    <p><div style='color:red;font-size:25px; line-height:20px;'>接下来，您将看到一些四则运算题，<b>请从键盘选择 0-9 进行反应。</b></div></p>
    <p><div style='color:red;font-size:25px; line-height:20px;'>请尽可能快地进行计算，计算的速度和正确率将影响报酬的发放。</div></p>
    <p><div class='footer' style='color:white;font-size:25px; line-height:20px;'>如果对本实验还有不清楚之处，请立即向实验员咨询。</p><p style='color:white;font-size:25px; line-height:20px;'>如果您明白了规则：</p><p style='color:white;font-size:22px; line-height:20px;'>请按 继续 进入练习</p>
    </div>
    ","0","html-button-response","102","319718","0.0-7.0-4.0","6","6","6","7","7","2","2","3","4","5","4","1","-1","0","0","0","-1","0","1","4","4","5","5","3","4","5","5","4","4","6","7","3","7","2","4","6","4","7","3","5","5","3","6","5","6","3","5","6","1","6","2","3","5","3","2","5","3","6","6","2","6","2","7","3","6","3","6","7","6","3","4","7","6","1","6","7","3","1","5","759925175528722434","林","399","Female","[""好她"",""坏我"",""坏她"",""好我""]","[""强她"",""弱我"",""弱她"",""强我""]","","","","","","","","","","","","","","","","","SRET_math","math_instructions","Tue Jan 16 2024 21:53:48 GMT+0800 (香港标准时间)","","","","","","","","","","","","","","","","","","","",""
"1966","","6","psychophysics","103","321689","0.0-7.0-5.0-0.0","6","6","6","7","7","2","2","3","4","5","4","1","-1","0","0","0","-1","0","1","4","4","5","5","3","4","5","5","4","4","6","7","3","7","2","4","6","4","7","3","5","5","3","6","5","6","3","5","6","1","6","2","3","5","3","2","5","3","6","6","2","6","2","7","3","6","3","6","7","6","3","4","7","6","1","6","7","3","1","5","759925175528722434","林","399","Female","[""好她"",""坏我"",""坏她"",""好我""]","[""强她"",""弱我"",""弱她"",""强我""]","","","","","","","","6","","","","","","","","","SRET","SRET_math_calculate","","key","6","16.74322033898315","768","428","","","","","5+1= ?","6","1","","","","","","","",""
"1832","","0","psychophysics","104","323522","0.0-7.0-5.0-0.1","6","6","6","7","7","2","2","3","4","5","4","1","-1","0","0","0","-1","0","1","4","4","5","5","3","4","5","5","4","4","6","7","3","7","2","4","6","4","7","3","5","5","3","6","5","6","3","5","6","1","6","2","3","5","3","2","5","3","6","6","2","6","2","7","3","6","3","6","7","6","3","4","7","6","1","6","7","3","1","5","759925175528722434","林","399","Female","[""好她"",""坏我"",""坏她"",""好我""]","[""强她"",""弱我"",""弱她"",""强我""]","","","","","","","","0","","","","","","","","","SRET","SRET_math_calculate","","key","0","16.666972477063794","768","428","","","","","32-32= ?","0","1","","","","","","","",""
"1879","","0","psychophysics","105","325403","0.0-7.0-5.0-0.2","6","6","6","7","7","2","2","3","4","5","4","1","-1","0","0","0","-1","0","1","4","4","5","5","3","4","5","5","4","4","6","7","3","7","2","4","6","4","7","3","5","5","3","6","5","6","3","5","6","1","6","2","3","5","3","2","5","3","6","6","2","6","2","7","3","6","3","6","7","6","3","4","7","6","1","6","7","3","1","5","759925175528722434","林","399","Female","[""好她"",""坏我"",""坏她"",""好我""]","[""强她"",""弱我"",""弱她"",""强我""]","","","","","","","","0","","","","","","","","","SRET","SRET_math_calculate","","key","0","16.668749999999687","768","428","","","","","6*0= ?","0","1","","","","","","","",""
"2559","","7","psychophysics","106","327965","0.0-7.0-5.0-0.3","6","6","6","7","7","2","2","3","4","5","4","1","-1","0","0","0","-1","0","1","4","4","5","5","3","4","5","5","4","4","6","7","3","7","2","4","6","4","7","3","5","5","3","6","5","6","3","5","6","1","6","2","3","5","3","2","5","3","6","6","2","6","2","7","3","6","3","6","7","6","3","4","7","6","1","6","7","3","1","5","759925175528722434","林","399","Female","[""好她"",""坏我"",""坏她"",""好我""]","[""强她"",""弱我"",""弱她"",""强我""]","","","","","","","","7","","","","","","","","","SRET","SRET_math_calculate","","key","7","16.66644736842136","768","428","","","","","13-9= ?","4","0","","","","","","","",""
"2193","","1","psychophysics","107","330160","0.0-7.0-5.0-0.4","6","6","6","7","7","2","2","3","4","5","4","1","-1","0","0","0","-1","0","1","4","4","5","5","3","4","5","5","4","4","6","7","3","7","2","4","6","4","7","3","5","5","3","6","5","6","3","5","6","1","6","2","3","5","3","2","5","3","6","6","2","6","2","7","3","6","3","6","7","6","3","4","7","6","1","6","7","3","1","5","759925175528722434","林","399","Female","[""好她"",""坏我"",""坏她"",""好我""]","[""强她"",""弱我"",""弱她"",""强我""]","","","","","","","","1","","","","","","","","","SRET","SRET_math_calculate","","key","1","16.66793893129771","768","428","","","","","10-9= ?","1","1","","","","","","","",""
"2029","","8","psychophysics","108","332190","0.0-7.0-5.0-0.5","6","6","6","7","7","2","2","3","4","5","4","1","-1","0","0","0","-1","0","1","4","4","5","5","3","4","5","5","4","4","6","7","3","7","2","4","6","4","7","3","5","5","3","6","5","6","3","5","6","1","6","2","3","5","3","2","5","3","6","6","2","6","2","7","3","6","3","6","7","6","3","4","7","6","1","6","7","3","1","5","759925175528722434","林","399","Female","[""好她"",""坏我"",""坏她"",""好我""]","[""强她"",""弱我"",""弱她"",""强我""]","","","","","","","","8","","","","","","","","","SRET","SRET_math_calculate","","key","8","16.667768595041707","768","428","","","","","5+3= ?","8","1","","","","","","","",""
"2336","","2","psychophysics","109","334527","0.0-7.0-5.0-0.6","6","6","6","7","7","2","2","3","4","5","4","1","-1","0","0","0","-1","0","1","4","4","5","5","3","4","5","5","4","4","6","7","3","7","2","4","6","4","7","3","5","5","3","6","5","6","3","5","6","1","6","2","3","5","3","2","5","3","6","6","2","6","2","7","3","6","3","6","7","6","3","4","7","6","1","6","7","3","1","5","759925175528722434","林","399","Female","[""好她"",""坏我"",""坏她"",""好我""]","[""强她"",""弱我"",""弱她"",""强我""]","","","","","","","","2","","","","","","","","","SRET","SRET_math_calculate","","key","2","16.666187050359962","768","428","","","","","12/12= ?","1","0","","","","","","","",""
"8","","1","psychophysics","110","334537","0.0-7.0-5.0-0.7","6","6","6","7","7","2","2","3","4","5","4","1","-1","0","0","0","-1","0","1","4","4","5","5","3","4","5","5","4","4","6","7","3","7","2","4","6","4","7","3","5","5","3","6","5","6","3","5","6","1","6","2","3","5","3","2","5","3","6","6","2","6","2","7","3","6","3","6","7","6","3","4","7","6","1","6","7","3","1","5","759925175528722434","林","399","Female","[""好她"",""坏我"",""坏她"",""好我""]","[""强她"",""弱我"",""弱她"",""强我""]","","","","","","","","1","","","","","","","","","SRET","SRET_math_calculate","","key","1","NaN","768","428","","","","","19-17= ?","2","0","","","","","","","",""
"2506","","7","psychophysics","111","337045","0.0-7.0-5.0-0.8","6","6","6","7","7","2","2","3","4","5","4","1","-1","0","0","0","-1","0","1","4","4","5","5","3","4","5","5","4","4","6","7","3","7","2","4","6","4","7","3","5","5","3","6","5","6","3","5","6","1","6","2","3","5","3","2","5","3","6","6","2","6","2","7","3","6","3","6","7","6","3","4","7","6","1","6","7","3","1","5","759925175528722434","林","399","Female","[""好她"",""坏我"",""坏她"",""好我""]","[""强她"",""弱我"",""弱她"",""强我""]","","","","","","","","7","","","","","","","","","SRET","SRET_math_calculate","","key","7","16.666442953020056","768","428","","","","","13-6= ?","7","1","","","","","","","",""
"2034","","5","psychophysics","112","339081","0.0-7.0-5.0-0.9","6","6","6","7","7","2","2","3","4","5","4","1","-1","0","0","0","-1","0","1","4","4","5","5","3","4","5","5","4","4","6","7","3","7","2","4","6","4","7","3","5","5","3","6","5","6","3","5","6","1","6","2","3","5","3","2","5","3","6","6","2","6","2","7","3","6","3","6","7","6","3","4","7","6","1","6","7","3","1","5","759925175528722434","林","399","Female","[""好她"",""坏我"",""坏她"",""好我""]","[""强她"",""弱我"",""弱她"",""强我""]","","","","","","","","5","","","","","","","","","SRET","SRET_math_calculate","","key","5","16.667768595041228","768","428","","","","","8-3= ? ","5","1","","","","","","","",""
"1917","","9","psychophysics","113","340999","0.0-7.0-5.0-0.10","6","6","6","7","7","2","2","3","4","5","4","1","-1","0","0","0","-1","0","1","4","4","5","5","3","4","5","5","4","4","6","7","3","7","2","4","6","4","7","3","5","5","3","6","5","6","3","5","6","1","6","2","3","5","3","2","5","3","6","6","2","6","2","7","3","6","3","6","7","6","3","4","7","6","1","6","7","3","1","5","759925175528722434","林","399","Female","[""好她"",""坏我"",""坏她"",""好我""]","[""强她"",""弱我"",""弱她"",""强我""]","","","","","","","","9","","","","","","","","","SRET","SRET_math_calculate","","key","9","16.650000000000308","768","428","","","","","1*9= ?","9","1","","","","","","","",""
"1915","","6","psychophysics","114","342916","0.0-7.0-5.0-0.11","6","6","6","7","7","2","2","3","4","5","4","1","-1","0","0","0","-1","0","1","4","4","5","5","3","4","5","5","4","4","6","7","3","7","2","4","6","4","7","3","5","5","3","6","5","6","3","5","6","1","6","2","3","5","3","2","5","3","6","6","2","6","2","7","3","6","3","6","7","6","3","4","7","6","1","6","7","3","1","5","759925175528722434","林","399","Female","[""好她"",""坏我"",""坏她"",""好我""]","[""强她"",""弱我"",""弱她"",""强我""]","","","","","","","","6","","","","","","","","","SRET","SRET_math_calculate","","key","6","16.666666666666668","768","428","","","","","8-2= ?","6","1","","","","","","","",""
"2751","","2","psychophysics","115","345669","0.0-7.0-5.0-0.12","6","6","6","7","7","2","2","3","4","5","4","1","-1","0","0","0","-1","0","1","4","4","5","5","3","4","5","5","4","4","6","7","3","7","2","4","6","4","7","3","5","5","3","6","5","6","3","5","6","1","6","2","3","5","3","2","5","3","6","6","2","6","2","7","3","6","3","6","7","6","3","4","7","6","1","6","7","3","1","5","759925175528722434","林","399","Female","[""好她"",""坏我"",""坏她"",""好我""]","[""强她"",""弱我"",""弱她"",""强我""]","","","","","","","","2","","","","","","","","","SRET","SRET_math_calculate","","key","2","16.63048780487819","768","428","","","","","9-7= ?","2","1","","","","","","","",""
"1876","","9","psychophysics","116","347548","0.0-7.0-5.0-0.13","6","6","6","7","7","2","2","3","4","5","4","1","-1","0","0","0","-1","0","1","4","4","5","5","3","4","5","5","4","4","6","7","3","7","2","4","6","4","7","3","5","5","3","6","5","6","3","5","6","1","6","2","3","5","3","2","5","3","6","6","2","6","2","7","3","6","3","6","7","6","3","4","7","6","1","6","7","3","1","5","759925175528722434","林","399","Female","[""好她"",""坏我"",""坏她"",""好我""]","[""强她"",""弱我"",""弱她"",""强我""]","","","","","","","","9","","","","","","","","","SRET","SRET_math_calculate","","key","9","16.66785714285756","768","428","","","","","5+4= ?","9","1","","","","","","","",""
"1927","","0","psychophysics","117","349479","0.0-7.0-5.0-0.14","6","6","6","7","7","2","2","3","4","5","4","1","-1","0","0","0","-1","0","1","4","4","5","5","3","4","5","5","4","4","6","7","3","7","2","4","6","4","7","3","5","5","3","6","5","6","3","5","6","1","6","2","3","5","3","2","5","3","6","6","2","6","2","7","3","6","3","6","7","6","3","4","7","6","1","6","7","3","1","5","759925175528722434","林","399","Female","[""好她"",""坏我"",""坏她"",""好我""]","[""强她"",""弱我"",""弱她"",""强我""]","","","","","","","","0","","","","","","","","","SRET","SRET_math_calculate","","key","0","16.625217391304044","768","428","","","","","32-23= ?","9","0","","","","","","","",""
"2105","","9","psychophysics","118","351585","0.0-7.0-5.0-0.15","6","6","6","7","7","2","2","3","4","5","4","1","-1","0","0","0","-1","0","1","4","4","5","5","3","4","5","5","4","4","6","7","3","7","2","4","6","4","7","3","5","5","3","6","5","6","3","5","6","1","6","2","3","5","3","2","5","3","6","6","2","6","2","7","3","6","3","6","7","6","3","4","7","6","1","6","7","3","1","5","759925175528722434","林","399","Female","[""好她"",""坏我"",""坏她"",""好我""]","[""强她"",""弱我"",""弱她"",""强我""]","","","","","","","","9","","","","","","","","","SRET","SRET_math_calculate","","key","9","16.668","768","428","","","","","2+7= ?","9","1","","","","","","","",""
"2063","","2","psychophysics","119","353651","0.0-7.0-5.0-0.16","6","6","6","7","7","2","2","3","4","5","4","1","-1","0","0","0","-1","0","1","4","4","5","5","3","4","5","5","4","4","6","7","3","7","2","4","6","4","7","3","5","5","3","6","5","6","3","5","6","1","6","2","3","5","3","2","5","3","6","6","2","6","2","7","3","6","3","6","7","6","3","4","7","6","1","6","7","3","1","5","759925175528722434","林","399","Female","[""好她"",""坏我"",""坏她"",""好我""]","[""强她"",""弱我"",""弱她"",""强我""]","","","","","","","","2","","","","","","","","","SRET","SRET_math_calculate","","key","2","16.667479674797033","768","428","","","","","12/6= ?","2","1","","","","","","","",""
"1971","","2","psychophysics","120","355627","0.0-7.0-5.0-0.17","6","6","6","7","7","2","2","3","4","5","4","1","-1","0","0","0","-1","0","1","4","4","5","5","3","4","5","5","4","4","6","7","3","7","2","4","6","4","7","3","5","5","3","6","5","6","3","5","6","1","6","2","3","5","3","2","5","3","6","6","2","6","2","7","3","6","3","6","7","6","3","4","7","6","1","6","7","3","1","5","759925175528722434","林","399","Female","[""好她"",""坏我"",""坏她"",""好我""]","[""强她"",""弱我"",""弱她"",""强我""]","","","","","","","","2","","","","","","","","","SRET","SRET_math_calculate","","key","2","16.667796610169887","768","428","","","","","5-3= ?","2","1","","","","","","","",""
"2046","","9","psychophysics","121","357675","0.0-7.0-5.0-0.18","6","6","6","7","7","2","2","3","4","5","4","1","-1","0","0","0","-1","0","1","4","4","5","5","3","4","5","5","4","4","6","7","3","7","2","4","6","4","7","3","5","5","3","6","5","6","3","5","6","1","6","2","3","5","3","2","5","3","6","6","2","6","2","7","3","6","3","6","7","6","3","4","7","6","1","6","7","3","1","5","759925175528722434","林","399","Female","[""好她"",""坏我"",""坏她"",""好我""]","[""强她"",""弱我"",""弱她"",""强我""]","","","","","","","","9","","","","","","","","","SRET","SRET_math_calculate","","key","9","16.66721311475429","768","428","","","","","1+8= ?","9","1","","","","","","","",""
"1955","","8","psychophysics","122","359631","0.0-7.0-5.0-0.19","6","6","6","7","7","2","2","3","4","5","4","1","-1","0","0","0","-1","0","1","4","4","5","5","3","4","5","5","4","4","6","7","3","7","2","4","6","4","7","3","5","5","3","6","5","6","3","5","6","1","6","2","3","5","3","2","5","3","6","6","2","6","2","7","3","6","3","6","7","6","3","4","7","6","1","6","7","3","1","5","759925175528722434","林","399","Female","[""好她"",""坏我"",""坏她"",""好我""]","[""强她"",""弱我"",""弱她"",""强我""]","","","","","","","","8","","","","","","","","","SRET","SRET_math_calculate","","key","8","16.667241379310546","768","428","","","","","4+4= ?","8","1","","","","","","","",""
"1932","","3","psychophysics","123","361565","0.0-7.0-5.0-0.20","6","6","6","7","7","2","2","3","4","5","4","1","-1","0","0","0","-1","0","1","4","4","5","5","3","4","5","5","4","4","6","7","3","7","2","4","6","4","7","3","5","5","3","6","5","6","3","5","6","1","6","2","3","5","3","2","5","3","6","6","2","6","2","7","3","6","3","6","7","6","3","4","7","6","1","6","7","3","1","5","759925175528722434","林","399","Female","[""好她"",""坏我"",""坏她"",""好我""]","[""强她"",""弱我"",""弱她"",""强我""]","","","","","","","","3","","","","","","","","","SRET","SRET_math_calculate","","key","3","16.66695652173923","768","428","","","","","1+2= ?","3","1","","","","","","","",""
"1893","","2","psychophysics","124","363460","0.0-7.0-5.0-0.21","6","6","6","7","7","2","2","3","4","5","4","1","-1","0","0","0","-1","0","1","4","4","5","5","3","4","5","5","4","4","6","7","3","7","2","4","6","4","7","3","5","5","3","6","5","6","3","5","6","1","6","2","3","5","3","2","5","3","6","6","2","6","2","7","3","6","3","6","7","6","3","4","7","6","1","6","7","3","1","5","759925175528722434","林","399","Female","[""好她"",""坏我"",""坏她"",""好我""]","[""强她"",""弱我"",""弱她"",""强我""]","","","","","","","","2","","","","","","","","","SRET","SRET_math_calculate","","key","2","16.648672566371577","768","428","","","","","8-6= ?","2","1","","","","","","","",""
"1715","","2","psychophysics","125","365176","0.0-7.0-5.0-0.22","6","6","6","7","7","2","2","3","4","5","4","1","-1","0","0","0","-1","0","1","4","4","5","5","3","4","5","5","4","4","6","7","3","7","2","4","6","4","7","3","5","5","3","6","5","6","3","5","6","1","6","2","3","5","3","2","5","3","6","6","2","6","2","7","3","6","3","6","7","6","3","4","7","6","1","6","7","3","1","5","759925175528722434","林","399","Female","[""好她"",""坏我"",""坏她"",""好我""]","[""强她"",""弱我"",""弱她"",""强我""]","","","","","","","","2","","","","","","","","","SRET","SRET_math_calculate","","key","2","16.667647058823302","768","428","","","","","1+1= ?","2","1","","","","","","","",""
"1894","","2","psychophysics","126","367072","0.0-7.0-5.0-0.23","6","6","6","7","7","2","2","3","4","5","4","1","-1","0","0","0","-1","0","1","4","4","5","5","3","4","5","5","4","4","6","7","3","7","2","4","6","4","7","3","5","5","3","6","5","6","3","5","6","1","6","2","3","5","3","2","5","3","6","6","2","6","2","7","3","6","3","6","7","6","3","4","7","6","1","6","7","3","1","5","759925175528722434","林","399","Female","[""好她"",""坏我"",""坏她"",""好我""]","[""强她"",""弱我"",""弱她"",""强我""]","","","","","","","","2","","","","","","","","","SRET","SRET_math_calculate","","key","2","16.66725663716783","768","428","","","","","29-27= ?","2","1","","","","","","","",""
"2123","","2","psychophysics","127","369197","0.0-7.0-5.0-0.24","6","6","6","7","7","2","2","3","4","5","4","1","-1","0","0","0","-1","0","1","4","4","5","5","3","4","5","5","4","4","6","7","3","7","2","4","6","4","7","3","5","5","3","6","5","6","3","5","6","1","6","2","3","5","3","2","5","3","6","6","2","6","2","7","3","6","3","6","7","6","3","4","7","6","1","6","7","3","1","5","759925175528722434","林","399","Female","[""好她"",""坏我"",""坏她"",""好我""]","[""强她"",""弱我"",""弱她"",""强我""]","","","","","","","","2","","","","","","","","","SRET","SRET_math_calculate","","key","2","16.667460317460133","768","428","","","","","18/9= ?","2","1","","","","","","","",""
"2080","","7","psychophysics","128","371279","0.0-7.0-5.0-0.25","6","6","6","7","7","2","2","3","4","5","4","1","-1","0","0","0","-1","0","1","4","4","5","5","3","4","5","5","4","4","6","7","3","7","2","4","6","4","7","3","5","5","3","6","5","6","3","5","6","1","6","2","3","5","3","2","5","3","6","6","2","6","2","7","3","6","3","6","7","6","3","4","7","6","1","6","7","3","1","5","759925175528722434","林","399","Female","[""好她"",""坏我"",""坏她"",""好我""]","[""强她"",""弱我"",""弱她"",""强我""]","","","","","","","","7","","","","","","","","","SRET","SRET_math_calculate","","key","7","16.66774193548378","768","428","","","","","1+6= ?","7","1","","","","","","","",""
"2353","","8","psychophysics","129","373634","0.0-7.0-5.0-0.26","6","6","6","7","7","2","2","3","4","5","4","1","-1","0","0","0","-1","0","1","4","4","5","5","3","4","5","5","4","4","6","7","3","7","2","4","6","4","7","3","5","5","3","6","5","6","3","5","6","1","6","2","3","5","3","2","5","3","6","6","2","6","2","7","3","6","3","6","7","6","3","4","7","6","1","6","7","3","1","5","759925175528722434","林","399","Female","[""好她"",""坏我"",""坏她"",""好我""]","[""强她"",""弱我"",""弱她"",""强我""]","","","","","","","","8","","","","","","","","","SRET","SRET_math_calculate","","key","8","16.667142857143023","768","428","","","","","56/7= ?","8","1","","","","","","","",""
"2038","","0","psychophysics","130","375673","0.0-7.0-5.0-0.27","6","6","6","7","7","2","2","3","4","5","4","1","-1","0","0","0","-1","0","1","4","4","5","5","3","4","5","5","4","4","6","7","3","7","2","4","6","4","7","3","5","5","3","6","5","6","3","5","6","1","6","2","3","5","3","2","5","3","6","6","2","6","2","7","3","6","3","6","7","6","3","4","7","6","1","6","7","3","1","5","759925175528722434","林","399","Female","[""好她"",""坏我"",""坏她"",""好我""]","[""强她"",""弱我"",""弱她"",""强我""]","","","","","","","","0","","","","","","","","","SRET","SRET_math_calculate","","key","0","16.670491803278594","768","428","","","","","22-22= ?","0","1","","","","","","","",""
"1993","","8","psychophysics","131","377668","0.0-7.0-5.0-0.28","6","6","6","7","7","2","2","3","4","5","4","1","-1","0","0","0","-1","0","1","4","4","5","5","3","4","5","5","4","4","6","7","3","7","2","4","6","4","7","3","5","5","3","6","5","6","3","5","6","1","6","2","3","5","3","2","5","3","6","6","2","6","2","7","3","6","3","6","7","6","3","4","7","6","1","6","7","3","1","5","759925175528722434","林","399","Female","[""好她"",""坏我"",""坏她"",""好我""]","[""强她"",""弱我"",""弱她"",""强我""]","","","","","","","","8","","","","","","","","","SRET","SRET_math_calculate","","key","8","16.666101694915056","768","428","","","","","8*1= ?","8","1","","","","","","","",""
"1615","","8","psychophysics","132","379284","0.0-7.0-5.0-0.29","6","6","6","7","7","2","2","3","4","5","4","1","-1","0","0","0","-1","0","1","4","4","5","5","3","4","5","5","4","4","6","7","3","7","2","4","6","4","7","3","5","5","3","6","5","6","3","5","6","1","6","2","3","5","3","2","5","3","6","6","2","6","2","7","3","6","3","6","7","6","3","4","7","6","1","6","7","3","1","5","759925175528722434","林","399","Female","[""好她"",""坏我"",""坏她"",""好我""]","[""强她"",""弱我"",""弱她"",""强我""]","","","","","","","","8","","","","","","","","","SRET","SRET_math_calculate","","key","8","16.666666666666668","768","428","","","","","1+7= ?","8","1","","","","","","","",""
"1904","","5","psychophysics","133","381190","0.0-7.0-5.0-0.30","6","6","6","7","7","2","2","3","4","5","4","1","-1","0","0","0","-1","0","1","4","4","5","5","3","4","5","5","4","4","6","7","3","7","2","4","6","4","7","3","5","5","3","6","5","6","3","5","6","1","6","2","3","5","3","2","5","3","6","6","2","6","2","7","3","6","3","6","7","6","3","4","7","6","1","6","7","3","1","5","759925175528722434","林","399","Female","[""好她"",""坏我"",""坏她"",""好我""]","[""强她"",""弱我"",""弱她"",""强我""]","","","","","","","","5","","","","","","","","","SRET","SRET_math_calculate","","key","5","16.666666666666668","768","428","","","","","2+3= ?","5","1","","","","","","","",""
"2132","","5","psychophysics","134","383324","0.0-7.0-5.0-0.31","6","6","6","7","7","2","2","3","4","5","4","1","-1","0","0","0","-1","0","1","4","4","5","5","3","4","5","5","4","4","6","7","3","7","2","4","6","4","7","3","5","5","3","6","5","6","3","5","6","1","6","2","3","5","3","2","5","3","6","6","2","6","2","7","3","6","3","6","7","6","3","4","7","6","1","6","7","3","1","5","759925175528722434","林","399","Female","[""好她"",""坏我"",""坏她"",""好我""]","[""强她"",""弱我"",""弱她"",""强我""]","","","","","","","","5","","","","","","","","","SRET","SRET_math_calculate","","key","5","16.6685039370076","768","428","","","","","12-7= ?","5","1","","","","","","","",""
"2158","","3","psychophysics","135","385484","0.0-7.0-5.0-0.32","6","6","6","7","7","2","2","3","4","5","4","1","-1","0","0","0","-1","0","1","4","4","5","5","3","4","5","5","4","4","6","7","3","7","2","4","6","4","7","3","5","5","3","6","5","6","3","5","6","1","6","2","3","5","3","2","5","3","6","6","2","6","2","7","3","6","3","6","7","6","3","4","7","6","1","6","7","3","1","5","759925175528722434","林","399","Female","[""好她"",""坏我"",""坏她"",""好我""]","[""强她"",""弱我"",""弱她"",""强我""]","","","","","","","","3","","","","","","","","","SRET","SRET_math_calculate","","key","3","16.666406250000364","768","428","","","","","8-5= ?","3","1","","","","","","","",""
"2097","","8","psychophysics","136","387582","0.0-7.0-5.0-0.33","6","6","6","7","7","2","2","3","4","5","4","1","-1","0","0","0","-1","0","1","4","4","5","5","3","4","5","5","4","4","6","7","3","7","2","4","6","4","7","3","5","5","3","6","5","6","3","5","6","1","6","2","3","5","3","2","5","3","6","6","2","6","2","7","3","6","3","6","7","6","3","4","7","6","1","6","7","3","1","5","759925175528722434","林","399","Female","[""好她"",""坏我"",""坏她"",""好我""]","[""强她"",""弱我"",""弱她"",""强我""]","","","","","","","","8","","","","","","","","","SRET","SRET_math_calculate","","key","8","16.668","768","428","","","","","50-42= ?","8","1","","","","","","","",""
"2193","","6","psychophysics","137","389777","0.0-7.0-5.0-0.34","6","6","6","7","7","2","2","3","4","5","4","1","-1","0","0","0","-1","0","1","4","4","5","5","3","4","5","5","4","4","6","7","3","7","2","4","6","4","7","3","5","5","3","6","5","6","3","5","6","1","6","2","3","5","3","2","5","3","6","6","2","6","2","7","3","6","3","6","7","6","3","4","7","6","1","6","7","3","1","5","759925175528722434","林","399","Female","[""好她"",""坏我"",""坏她"",""好我""]","[""强她"",""弱我"",""弱她"",""强我""]","","","","","","","","6","","","","","","","","","SRET","SRET_math_calculate","","key","6","16.66793893129771","768","428","","","","","3*2= ?","6","1","","","","","","","",""
"2387","","1","psychophysics","138","392166","0.0-7.0-5.0-0.35","6","6","6","7","7","2","2","3","4","5","4","1","-1","0","0","0","-1","0","1","4","4","5","5","3","4","5","5","4","4","6","7","3","7","2","4","6","4","7","3","5","5","3","6","5","6","3","5","6","1","6","2","3","5","3","2","5","3","6","6","2","6","2","7","3","6","3","6","7","6","3","4","7","6","1","6","7","3","1","5","759925175528722434","林","399","Female","[""好她"",""坏我"",""坏她"",""好我""]","[""强她"",""弱我"",""弱她"",""强我""]","","","","","","","","1","","","","","","","","","SRET","SRET_math_calculate","","key","1","16.666901408450787","768","428","","","","","30-29= ?","1","1","","","","","","","",""
"1816","","8","psychophysics","139","393984","0.0-7.0-5.0-0.36","6","6","6","7","7","2","2","3","4","5","4","1","-1","0","0","0","-1","0","1","4","4","5","5","3","4","5","5","4","4","6","7","3","7","2","4","6","4","7","3","5","5","3","6","5","6","3","5","6","1","6","2","3","5","3","2","5","3","6","6","2","6","2","7","3","6","3","6","7","6","3","4","7","6","1","6","7","3","1","5","759925175528722434","林","399","Female","[""好她"",""坏我"",""坏她"",""好我""]","[""强她"",""弱我"",""弱她"",""强我""]","","","","","","","","8","","","","","","","","","SRET","SRET_math_calculate","","key","8","16.669444444444874","768","428","","","","","9-1= ?","8","1","","","","","","","",""
"2526","","5","psychophysics","140","396512","0.0-7.0-5.0-0.37","6","6","6","7","7","2","2","3","4","5","4","1","-1","0","0","0","-1","0","1","4","4","5","5","3","4","5","5","4","4","6","7","3","7","2","4","6","4","7","3","5","5","3","6","5","6","3","5","6","1","6","2","3","5","3","2","5","3","6","6","2","6","2","7","3","6","3","6","7","6","3","4","7","6","1","6","7","3","1","5","759925175528722434","林","399","Female","[""好她"",""坏我"",""坏她"",""好我""]","[""强她"",""弱我"",""弱她"",""强我""]","","","","","","","","5","","","","","","","","","SRET","SRET_math_calculate","","key","5","16.667549668874095","768","428","","","","","5/1= ?","5","1","","","","","","","",""
"2448","","6","psychophysics","141","398962","0.0-7.0-5.0-0.38","6","6","6","7","7","2","2","3","4","5","4","1","-1","0","0","0","-1","0","1","4","4","5","5","3","4","5","5","4","4","6","7","3","7","2","4","6","4","7","3","5","5","3","6","5","6","3","5","6","1","6","2","3","5","3","2","5","3","6","6","2","6","2","7","3","6","3","6","7","6","3","4","7","6","1","6","7","3","1","5","759925175528722434","林","399","Female","[""好她"",""坏我"",""坏她"",""好我""]","[""强她"",""弱我"",""弱她"",""强我""]","","","","","","","","6","","","","","","","","","SRET","SRET_math_calculate","","key","6","16.664383561643834","768","428","","","","","11-5= ?","6","1","","","","","","","",""
"2009","","4","psychophysics","142","400973","0.0-7.0-5.0-0.39","6","6","6","7","7","2","2","3","4","5","4","1","-1","0","0","0","-1","0","1","4","4","5","5","3","4","5","5","4","4","6","7","3","7","2","4","6","4","7","3","5","5","3","6","5","6","3","5","6","1","6","2","3","5","3","2","5","3","6","6","2","6","2","7","3","6","3","6","7","6","3","4","7","6","1","6","7","3","1","5","759925175528722434","林","399","Female","[""好她"",""坏我"",""坏她"",""好我""]","[""强她"",""弱我"",""弱她"",""强我""]","","","","","","","","4","","","","","","","","","SRET","SRET_math_calculate","","key","4","16.66750000000029","768","428","","","","","4*1= ?","4","1","","","","","","","",""
