"rt","stimulus","response","trial_type","trial_index","time_elapsed","internal_node_id","swb_1","swb_2","swb_3","swb_4","swb_5","LOT_1","LOT_2","LOT_3","LOT_4","LOT_5","LOT_6","IPC_1","IPC_2","IPC_3","IPC_4","IPC_5","IPC_6","IPC_7","IPC_8","MorIden_1","MorIden_2","MorIden_3","MorIden_4","MorIden_5","MorIden_6","MorIden_7","MorIden_8","MorIden_9","MorIden_10","moralSeImag_1","moralSeImag_2","moralSeImag_3","moralSeImag_4","moralSeImag_5","moralSeImag_6","moralSeImag_7","moralSeImag_8","moralSeImag_9","sde_1","sde_2","sde_3","sde_4","sde_5","sde_6","sde_7","sde_8","sde_9","sde_10","trap2","sde_11","sde_12","sde_13","sde_14","sde_15","sde_16","sde_17","sde_18","sde_19","sde_20","IM_1","IM_2","IM_3","IM_4","IM_5","IM_6","IM_7","IM_8","IM_9","IM_10","IM_11","IM_12","IM_13","IM_14","IM_15","IM_16","IM_17","IM_18","IM_19","IM_20","subj_idx","friend_name","ParticipantID","Sex","Word","Word2","value","success","timeout","failed_images","failed_audio","failed_video","user_agent","responses","item_order","radio_event_ids","radio_event_times","key_event_times","mouse_event_times","straightlining","zigzagging","honeypot","task_id","screen_id","time_stamp","response_type","key_press","avg_frame_time","center_x","center_y","person","word","valence","domain","math","correct_response","correct","status","identity","view_history","duration","Image","condition","question_order","trap2_item"
"1182","
   <p><div style='color:white; font-size: 25px'>您好，欢迎参加本次实验。</div></p>
   <p><div style='color:white; font-size: 25px'>为充分保障您的权利，请确保您已经知晓并同意《参与实验同意书》以及《数据公开知情同意书》。</div></p>
   <p><div style='color:white; font-size: 25px'>如果您未见过上述内容，请咨询实验员。</div></p>
   <p style='color:white; font-size: 25px'>如果您选择继续实验，则表示您已经清楚两份知情同意书的内容并同意。</p>
   <p><div style = ""color: pink;font-size:30px;"">请确保您记得day0的实验编号，您将在本次实验输入该编号，若您忘记，请咨询实验员后作答。</div></p>
   <p><div style = ""color:lightblue;font-size:25px;"">请您尽可能认真地作答，我们将依据您在各问卷和按键任务中的作答质量发放报酬。</div></p>
   <p> <div style = ""color: green""><按空格键至下页></div> </p>
   "," ","html-keyboard-response","0","1190","0.0-0.0","6","6","6","3","2","5","4","5","5","5","5","0","-1","1","0","1","2","1","1","5","5","5","5","4","4","5","5","4","4","4","4","4","6","6","6","6","6","7","7","7","6","7","7","7","7","3","7","7","1","3","2","5","7","5","6","7","2","7","7","2","5","2","3","3","7","7","7","7","7","7","6","2","6","2","6","1","7","3","7","682985829311709184","刘","131","Female","[""坏我"",""坏她"",""好她"",""好我""]","[""弱我"",""弱她"",""强她"",""强我""]","","","","","","","","","","","","","","","","","","","","","","","","","","","","","","","","","","","","","","",""
"","","","call-function","1","1193","0.0-1.0-0.0","6","6","6","3","2","5","4","5","5","5","5","0","-1","1","0","1","2","1","1","5","5","5","5","4","4","5","5","4","4","4","4","4","6","6","6","6","6","7","7","7","6","7","7","7","7","3","7","7","1","3","2","5","7","5","6","7","2","7","7","2","5","2","3","3","7","7","7","7","7","7","6","2","6","2","6","1","7","3","7","682985829311709184","刘","131","Female","[""坏我"",""坏她"",""好她"",""好我""]","[""弱我"",""弱她"",""强她"",""强我""]","","","","","","","","","","","","","","","","","","","","","","","","","","","","","","","","","","","","","","",""
"10211","","[{""name"":""Sex"",""value"":""1""},{""name"":""friend_name"",""value"":""刘""},{""name"":""ParticipantID"",""value"":""131""}]","survey-html-form","2","11406","0.0-1.0-1.0","6","6","6","3","2","5","4","5","5","5","5","0","-1","1","0","1","2","1","1","5","5","5","5","4","4","5","5","4","4","4","4","4","6","6","6","6","6","7","7","7","6","7","7","7","7","3","7","7","1","3","2","5","7","5","6","7","2","7","7","2","5","2","3","3","7","7","7","7","7","7","6","2","6","2","6","1","7","3","7","682985829311709184","刘","131","Female","[""坏我"",""坏她"",""好她"",""好我""]","[""弱我"",""弱她"",""强她"",""强我""]","","","","","","","","","","","","","","","","","","","","","","","","","","","","","","","","","","","","","","",""
"","","","preload","3","11762","0.0-2.0","6","6","6","3","2","5","4","5","5","5","5","0","-1","1","0","1","2","1","1","5","5","5","5","4","4","5","5","4","4","4","4","4","6","6","6","6","6","7","7","7","6","7","7","7","7","3","7","7","1","3","2","5","7","5","6","7","2","7","7","2","5","2","3","3","7","7","7","7","7","7","6","2","6","2","6","1","7","3","7","682985829311709184","刘","131","Female","[""坏我"",""坏她"",""好她"",""好我""]","[""弱我"",""弱她"",""强她"",""强我""]","","true","false","[]","[]","[]","","","","","","","","","","","","","","","","","","","","","","","","","","","","","","","","",""
"","","","fullscreen","4","13387","0.0-3.0","6","6","6","3","2","5","4","5","5","5","5","0","-1","1","0","1","2","1","1","5","5","5","5","4","4","5","5","4","4","4","4","4","6","6","6","6","6","7","7","7","6","7","7","7","7","3","7","7","1","3","2","5","7","5","6","7","2","7","7","2","5","2","3","3","7","7","7","7","7","7","6","2","6","2","6","1","7","3","7","682985829311709184","刘","131","Female","[""坏我"",""坏她"",""好她"",""好我""]","[""弱我"",""弱她"",""强她"",""强我""]","","true","","","","","{}","","","","","","","","","","","","","","","","","","","","","","","","","","","","","","","",""
"17395.899999999907","","{""Q01"":""6"",""Q02"":""6"",""Q03"":""6"",""Q04"":""3"",""Q05"":""2""}","survey-template","5","30793","0.0-4.0","6","6","6","3","2","5","4","5","5","5","5","0","-1","1","0","1","2","1","1","5","5","5","5","4","4","5","5","4","4","4","4","4","6","6","6","6","6","7","7","7","6","7","7","7","7","3","7","7","1","3","2","5","7","5","6","7","2","7","7","2","5","2","3","3","7","7","7","7","7","7","6","2","6","2","6","1","7","3","7","682985829311709184","刘","131","Female","[""坏我"",""坏她"",""好她"",""好我""]","[""弱我"",""弱她"",""强她"",""强我""]","","","","","","","","{""Q01"":""6"",""Q02"":""6"",""Q03"":""6"",""Q04"":""3"",""Q05"":""2""}","[0,1,2,3,4]","[""Q01"",""Q02"",""Q03"",""Q04"",""Q05"",""Q05""]","[1713.6000000000931,3246.2000000001863,4377.899999999907,6960,11635.5,16491.899999999907]","[]","[1713.6000000000931,3246.2000000001863,4377.899999999907,6960,11635.5,16491.899999999907,17394.100000000093]","0.6","0.25","0","","","","","","","","","","","","","","","","","","","","","","",""
"33670","","{""Q01"":""5"",""Q02"":""4"",""Q03"":""5"",""Q04"":""5"",""Q05"":""5"",""Q06"":""5""}","survey-template","6","64471","0.0-5.0","6","6","6","3","2","5","4","5","5","5","5","0","-1","1","0","1","2","1","1","5","5","5","5","4","4","5","5","4","4","4","4","4","6","6","6","6","6","7","7","7","6","7","7","7","7","3","7","7","1","3","2","5","7","5","6","7","2","7","7","2","5","2","3","3","7","7","7","7","7","7","6","2","6","2","6","1","7","3","7","682985829311709184","刘","131","Female","[""坏我"",""坏她"",""好她"",""好我""]","[""弱我"",""弱她"",""强她"",""强我""]","","","","","","","","{""Q01"":""5"",""Q02"":""4"",""Q03"":""5"",""Q04"":""5"",""Q05"":""5"",""Q06"":""5""}","[0,1,2,3,4,5]","[""Q01"",""Q02"",""Q04"",""Q03"",""Q06"",""Q05"",""Q04"",""Q04""]","[3611.2000000001863,7946.4000000003725,12800.30000000028,13864.100000000093,18916.400000000373,23075,25310.200000000186,28165]","[]","[3611.2000000001863,7946.4000000003725,10224.100000000093,12800.30000000028,13864.100000000093,16164.600000000093,18916.400000000373,23075,24614.600000000093,25310.200000000186,28165,33668.80000000028]","0.5","0.4","0","","","","","","","","","","","","","","","","","","","","","","",""
"40583.59999999963","","{""Q01"":""0"",""Q02"":""-1"",""Q03"":""1"",""Q04"":""0"",""Q05"":""1"",""Q06"":""2"",""Q07"":""1"",""Q08"":""1""}","survey-template","7","105060","0.0-6.0","6","6","6","3","2","5","4","5","5","5","5","0","-1","1","0","1","2","1","1","5","5","5","5","4","4","5","5","4","4","4","4","4","6","6","6","6","6","7","7","7","6","7","7","7","7","3","7","7","1","3","2","5","7","5","6","7","2","7","7","2","5","2","3","3","7","7","7","7","7","7","6","2","6","2","6","1","7","3","7","682985829311709184","刘","131","Female","[""坏我"",""坏她"",""好她"",""好我""]","[""弱我"",""弱她"",""强她"",""强我""]","","","","","","","","{""Q01"":""0"",""Q02"":""-1"",""Q03"":""1"",""Q04"":""0"",""Q05"":""1"",""Q06"":""2"",""Q07"":""1"",""Q08"":""1""}","[0,1,2,3,4,5,6,7]","[""Q01"",""Q02"",""Q03"",""Q04"",""Q05"",""Q05"",""Q06"",""Q07"",""Q08""]","[5290.199999999721,10751,15146.899999999907,21961.099999999627,24761.399999999907,28919.299999999814,31411.299999999814,35075.299999999814,39624.89999999991]","[]","[5290.199999999721,10751,15146.899999999907,21961.099999999627,24761.399999999907,28919.299999999814,31411.299999999814,35075.299999999814,39624.89999999991,40580.799999999814]","0.5","0.7142857142857143","0","","","","","","","","","","","","","","","","","","","","","","",""
"8464","
    <p><div style='color:white;font-size:35px; line-height:20px;'>词汇评估任务</div></p><br>
    <p><div style='color:white;font-size:25px; line-height:20px;'>请再次回忆该亲密的朋友，你们至少2年前就认识了，并且最近2年经常见面。</div></p>
    <p><div style='color:white;font-size:25px; line-height:20px;'>在本实验中，您将会看到一些形容词。</div></p>
    <p><div style='color:yellow;font-size:25px; line-height:20px;'>您的任务是判断这些形容词是否符合对您自己或您的朋友的描述。</div></p><p style='font-size:35px'>符合按<span style=""color:lightgreen""> j 键</span>，不符合按<span style=""color:red""> f 键</span></p>","0","html-button-response","8","113532","0.0-7.0-0.0","6","6","6","3","2","5","4","5","5","5","5","0","-1","1","0","1","2","1","1","5","5","5","5","4","4","5","5","4","4","4","4","4","6","6","6","6","6","7","7","7","6","7","7","7","7","3","7","7","1","3","2","5","7","5","6","7","2","7","7","2","5","2","3","3","7","7","7","7","7","7","6","2","6","2","6","1","7","3","7","682985829311709184","刘","131","Female","[""坏我"",""坏她"",""好她"",""好我""]","[""弱我"",""弱她"",""强她"",""强我""]","","","","","","","","","","","","","","","","","SRET_EW","EW_instructions","Tue Jan 16 2024 20:53:40 GMT+0800 (中国标准时间)","","","","","","","","","","","","","","","","","","","",""
"null","","null","psychophysics","9","116538","0.0-7.0-1.0-0.0","6","6","6","3","2","5","4","5","5","5","5","0","-1","1","0","1","2","1","1","5","5","5","5","4","4","5","5","4","4","4","4","4","6","6","6","6","6","7","7","7","6","7","7","7","7","3","7","7","1","3","2","5","7","5","6","7","2","7","7","2","5","2","3","3","7","7","7","7","7","7","6","2","6","2","6","1","7","3","7","682985829311709184","刘","131","Female","[""坏我"",""坏她"",""好她"",""好我""]","[""弱我"",""弱她"",""强她"",""强我""]","","","","","","","","","","","","","","","","","SRET_EW","EW_practice","","key","null","16.7581005586592","640","356","朋友","徇私","Negative","morality","","","","","","","","","","",""
"2015","","j","psychophysics","10","119557","0.0-7.0-1.0-0.1","6","6","6","3","2","5","4","5","5","5","5","0","-1","1","0","1","2","1","1","5","5","5","5","4","4","5","5","4","4","4","4","4","6","6","6","6","6","7","7","7","6","7","7","7","7","3","7","7","1","3","2","5","7","5","6","7","2","7","7","2","5","2","3","3","7","7","7","7","7","7","6","2","6","2","6","1","7","3","7","682985829311709184","刘","131","Female","[""坏我"",""坏她"",""好她"",""好我""]","[""弱我"",""弱她"",""强她"",""强我""]","","","","","","","","yes","","","","","","","","","SRET_EW","EW_practice","","key","j","16.667222222222172","640","356","朋友","忠实","Positive","morality","","","","","","","","","","",""
"902","","f","psychophysics","11","121463","0.0-7.0-1.0-0.2","6","6","6","3","2","5","4","5","5","5","5","0","-1","1","0","1","2","1","1","5","5","5","5","4","4","5","5","4","4","4","4","4","6","6","6","6","6","7","7","7","6","7","7","7","7","3","7","7","1","3","2","5","7","5","6","7","2","7","7","2","5","2","3","3","7","7","7","7","7","7","6","2","6","2","6","1","7","3","7","682985829311709184","刘","131","Female","[""坏我"",""坏她"",""好她"",""好我""]","[""弱我"",""弱她"",""强她"",""强我""]","","","","","","","","no","","","","","","","","","SRET_EW","EW_practice","","key","f","16.666371681415956","640","356","自己","严谨","Positive","ability","","","","","","","","","","",""
"860","","f","psychophysics","12","123339","0.0-7.0-1.0-0.3","6","6","6","3","2","5","4","5","5","5","5","0","-1","1","0","1","2","1","1","5","5","5","5","4","4","5","5","4","4","4","4","4","6","6","6","6","6","7","7","7","6","7","7","7","7","3","7","7","1","3","2","5","7","5","6","7","2","7","7","2","5","2","3","3","7","7","7","7","7","7","6","2","6","2","6","1","7","3","7","682985829311709184","刘","131","Female","[""坏我"",""坏她"",""好她"",""好我""]","[""弱我"",""弱她"",""强她"",""强我""]","","","","","","","","no","","","","","","","","","SRET_EW","EW_practice","","key","f","16.665178571428573","640","356","自己","刻板","Negative","ability","","","","","","","","","","",""
"28980","
    <p><div style='color:white;font-size:35px; line-height:20px;'>请您再次阅读实验要求</div></p><br>
    <p><div style='color:white;font-size:25px; line-height:20px;'>请回忆某一个亲密的朋友，你们至少2年前就认识了，并且最近2年经常见面。</div></p>
    <p><div style='color:white;font-size:25px; line-height:20px;'>在本实验中，您将会看到一些形容词。</div></p>
    <p><div style='color:yellow;font-size:25px; line-height:20px;'>您的任务是判断这些形容词是否符合对您自己或您的朋友的描述。</div></p>
    <p><div class='footer' style='font-size:25px; line-height:20px;'>如果对本实验还有不清楚之处，请立即向实验员咨询。</p><p style='font-size:25px; line-height:20px;'>如果您明白了规则：</p><p style='font-size:22px; line-height:20px;'>请按 继续 进入正式实验</p>
    </div>
    <p style='font-size:35px'>符合按<span style=""color:lightgreen""> j 键</span>，不符合按<span style=""color:red""> f 键</span></p>","0","html-button-response","13","152321","0.0-7.0-2.0","6","6","6","3","2","5","4","5","5","5","5","0","-1","1","0","1","2","1","1","5","5","5","5","4","4","5","5","4","4","4","4","4","6","6","6","6","6","7","7","7","6","7","7","7","7","3","7","7","1","3","2","5","7","5","6","7","2","7","7","2","5","2","3","3","7","7","7","7","7","7","6","2","6","2","6","1","7","3","7","682985829311709184","刘","131","Female","[""坏我"",""坏她"",""好她"",""好我""]","[""弱我"",""弱她"",""强她"",""强我""]","","","","","","","","","","","","","","","","","SRET_EW","prac_instructions","Tue Jan 16 2024 20:53:40 GMT+0800 (中国标准时间)","","","","","","","","","","","","","","","","","","","",""
"1214","","j","psychophysics","14","154540","0.0-7.0-3.0-0.0","6","6","6","3","2","5","4","5","5","5","5","0","-1","1","0","1","2","1","1","5","5","5","5","4","4","5","5","4","4","4","4","4","6","6","6","6","6","7","7","7","6","7","7","7","7","3","7","7","1","3","2","5","7","5","6","7","2","7","7","2","5","2","3","3","7","7","7","7","7","7","6","2","6","2","6","1","7","3","7","682985829311709184","刘","131","Female","[""坏我"",""坏她"",""好她"",""好我""]","[""弱我"",""弱她"",""强她"",""强我""]","","","","","","","","yes","","","","","","","","","SRET","EW_formal","","key","j","16.665413533834588","640","356","朋友","迷糊","Negative","ability","","","","","","","","","","",""
"1136","","j","psychophysics","15","156681","0.0-7.0-3.0-0.1","6","6","6","3","2","5","4","5","5","5","5","0","-1","1","0","1","2","1","1","5","5","5","5","4","4","5","5","4","4","4","4","4","6","6","6","6","6","7","7","7","6","7","7","7","7","3","7","7","1","3","2","5","7","5","6","7","2","7","7","2","5","2","3","3","7","7","7","7","7","7","6","2","6","2","6","1","7","3","7","682985829311709184","刘","131","Female","[""坏我"",""坏她"",""好她"",""好我""]","[""弱我"",""弱她"",""强她"",""强我""]","","","","","","","","yes","","","","","","","","","SRET","EW_formal","","key","j","16.666141732283283","640","356","自己","坚贞","Positive","morality","","","","","","","","","","",""
"569","","j","psychophysics","16","158257","0.0-7.0-3.0-0.2","6","6","6","3","2","5","4","5","5","5","5","0","-1","1","0","1","2","1","1","5","5","5","5","4","4","5","5","4","4","4","4","4","6","6","6","6","6","7","7","7","6","7","7","7","7","3","7","7","1","3","2","5","7","5","6","7","2","7","7","2","5","2","3","3","7","7","7","7","7","7","6","2","6","2","6","1","7","3","7","682985829311709184","刘","131","Female","[""坏我"",""坏她"",""好她"",""好我""]","[""弱我"",""弱她"",""强她"",""强我""]","","","","","","","","yes","","","","","","","","","SRET","EW_formal","","key","j","16.668085106383163","640","356","朋友","务实","Positive","ability","","","","","","","","","","",""
"601","","f","psychophysics","17","159861","0.0-7.0-3.0-0.3","6","6","6","3","2","5","4","5","5","5","5","0","-1","1","0","1","2","1","1","5","5","5","5","4","4","5","5","4","4","4","4","4","6","6","6","6","6","7","7","7","6","7","7","7","7","3","7","7","1","3","2","5","7","5","6","7","2","7","7","2","5","2","3","3","7","7","7","7","7","7","6","2","6","2","6","1","7","3","7","682985829311709184","刘","131","Female","[""坏我"",""坏她"",""好她"",""好我""]","[""弱我"",""弱她"",""强她"",""强我""]","","","","","","","","no","","","","","","","","","SRET","EW_formal","","key","f","16.667368421052878","640","356","自己","说谎","Negative","morality","","","","","","","","","","",""
"1212","","f","psychophysics","18","162076","0.0-7.0-3.0-0.4","6","6","6","3","2","5","4","5","5","5","5","0","-1","1","0","1","2","1","1","5","5","5","5","4","4","5","5","4","4","4","4","4","6","6","6","6","6","7","7","7","6","7","7","7","7","3","7","7","1","3","2","5","7","5","6","7","2","7","7","2","5","2","3","3","7","7","7","7","7","7","6","2","6","2","6","1","7","3","7","682985829311709184","刘","131","Female","[""坏我"",""坏她"",""好她"",""好我""]","[""弱我"",""弱她"",""强她"",""强我""]","","","","","","","","no","","","","","","","","","SRET","EW_formal","","key","f","16.669696969697146","640","356","朋友","独断","Negative","ability","","","","","","","","","","",""
"625","","j","psychophysics","19","163706","0.0-7.0-3.0-0.5","6","6","6","3","2","5","4","5","5","5","5","0","-1","1","0","1","2","1","1","5","5","5","5","4","4","5","5","4","4","4","4","4","6","6","6","6","6","7","7","7","6","7","7","7","7","3","7","7","1","3","2","5","7","5","6","7","2","7","7","2","5","2","3","3","7","7","7","7","7","7","6","2","6","2","6","1","7","3","7","682985829311709184","刘","131","Female","[""坏我"",""坏她"",""好她"",""好我""]","[""弱我"",""弱她"",""强她"",""强我""]","","","","","","","","yes","","","","","","","","","SRET","EW_formal","","key","j","16.66701030927847","640","356","朋友","聪明","Positive","ability","","","","","","","","","","",""
"584","","j","psychophysics","20","165295","0.0-7.0-3.0-0.6","6","6","6","3","2","5","4","5","5","5","5","0","-1","1","0","1","2","1","1","5","5","5","5","4","4","5","5","4","4","4","4","4","6","6","6","6","6","7","7","7","6","7","7","7","7","3","7","7","1","3","2","5","7","5","6","7","2","7","7","2","5","2","3","3","7","7","7","7","7","7","6","2","6","2","6","1","7","3","7","682985829311709184","刘","131","Female","[""坏我"",""坏她"",""好她"",""好我""]","[""弱我"",""弱她"",""强她"",""强我""]","","","","","","","","yes","","","","","","","","","SRET","EW_formal","","key","j","16.668085106383163","640","356","自己","利落","Positive","ability","","","","","","","","","","",""
"762","","f","psychophysics","21","167065","0.0-7.0-3.0-0.7","6","6","6","3","2","5","4","5","5","5","5","0","-1","1","0","1","2","1","1","5","5","5","5","4","4","5","5","4","4","4","4","4","6","6","6","6","6","7","7","7","6","7","7","7","7","3","7","7","1","3","2","5","7","5","6","7","2","7","7","2","5","2","3","3","7","7","7","7","7","7","6","2","6","2","6","1","7","3","7","682985829311709184","刘","131","Female","[""坏我"",""坏她"",""好她"",""好我""]","[""弱我"",""弱她"",""强她"",""强我""]","","","","","","","","no","","","","","","","","","SRET","EW_formal","","key","f","16.668571428571262","640","356","朋友","伪善","Negative","morality","","","","","","","","","","",""
"664","","f","psychophysics","22","168741","0.0-7.0-3.0-0.8","6","6","6","3","2","5","4","5","5","5","5","0","-1","1","0","1","2","1","1","5","5","5","5","4","4","5","5","4","4","4","4","4","6","6","6","6","6","7","7","7","6","7","7","7","7","3","7","7","1","3","2","5","7","5","6","7","2","7","7","2","5","2","3","3","7","7","7","7","7","7","6","2","6","2","6","1","7","3","7","682985829311709184","刘","131","Female","[""坏我"",""坏她"",""好她"",""好我""]","[""弱我"",""弱她"",""强她"",""强我""]","","","","","","","","no","","","","","","","","","SRET","EW_formal","","key","f","16.667000000000115","640","356","自己","愚蠢","Negative","ability","","","","","","","","","","",""
"810","","j","psychophysics","23","170556","0.0-7.0-3.0-0.9","6","6","6","3","2","5","4","5","5","5","5","0","-1","1","0","1","2","1","1","5","5","5","5","4","4","5","5","4","4","4","4","4","6","6","6","6","6","7","7","7","6","7","7","7","7","3","7","7","1","3","2","5","7","5","6","7","2","7","7","2","5","2","3","3","7","7","7","7","7","7","6","2","6","2","6","1","7","3","7","682985829311709184","刘","131","Female","[""坏我"",""坏她"",""好她"",""好我""]","[""弱我"",""弱她"",""强她"",""强我""]","","","","","","","","yes","","","","","","","","","SRET","EW_formal","","key","j","16.666666666666668","640","356","自己","勤奋","Positive","ability","","","","","","","","","","",""
"551","","j","psychophysics","24","172110","0.0-7.0-3.0-0.10","6","6","6","3","2","5","4","5","5","5","5","0","-1","1","0","1","2","1","1","5","5","5","5","4","4","5","5","4","4","4","4","4","6","6","6","6","6","7","7","7","6","7","7","7","7","3","7","7","1","3","2","5","7","5","6","7","2","7","7","2","5","2","3","3","7","7","7","7","7","7","6","2","6","2","6","1","7","3","7","682985829311709184","刘","131","Female","[""坏我"",""坏她"",""好她"",""好我""]","[""弱我"",""弱她"",""强她"",""强我""]","","","","","","","","yes","","","","","","","","","SRET","EW_formal","","key","j","16.671739130434656","640","356","自己","勤恳","Positive","morality","","","","","","","","","","",""
"734","","j","psychophysics","25","173847","0.0-7.0-3.0-0.11","6","6","6","3","2","5","4","5","5","5","5","0","-1","1","0","1","2","1","1","5","5","5","5","4","4","5","5","4","4","4","4","4","6","6","6","6","6","7","7","7","6","7","7","7","7","3","7","7","1","3","2","5","7","5","6","7","2","7","7","2","5","2","3","3","7","7","7","7","7","7","6","2","6","2","6","1","7","3","7","682985829311709184","刘","131","Female","[""坏我"",""坏她"",""好她"",""好我""]","[""弱我"",""弱她"",""强她"",""强我""]","","","","","","","","yes","","","","","","","","","SRET","EW_formal","","key","j","16.666990291261968","640","356","朋友","高洁","Positive","morality","","","","","","","","","","",""
"660","","j","psychophysics","26","175521","0.0-7.0-3.0-0.12","6","6","6","3","2","5","4","5","5","5","5","0","-1","1","0","1","2","1","1","5","5","5","5","4","4","5","5","4","4","4","4","4","6","6","6","6","6","7","7","7","6","7","7","7","7","3","7","7","1","3","2","5","7","5","6","7","2","7","7","2","5","2","3","3","7","7","7","7","7","7","6","2","6","2","6","1","7","3","7","682985829311709184","刘","131","Female","[""坏我"",""坏她"",""好她"",""好我""]","[""弱我"",""弱她"",""强她"",""强我""]","","","","","","","","yes","","","","","","","","","SRET","EW_formal","","key","j","16.666000000000057","640","356","朋友","侠义","Positive","morality","","","","","","","","","","",""
"633","","j","psychophysics","27","177156","0.0-7.0-3.0-0.13","6","6","6","3","2","5","4","5","5","5","5","0","-1","1","0","1","2","1","1","5","5","5","5","4","4","5","5","4","4","4","4","4","6","6","6","6","6","7","7","7","6","7","7","7","7","3","7","7","1","3","2","5","7","5","6","7","2","7","7","2","5","2","3","3","7","7","7","7","7","7","6","2","6","2","6","1","7","3","7","682985829311709184","刘","131","Female","[""坏我"",""坏她"",""好她"",""好我""]","[""弱我"",""弱她"",""强她"",""强我""]","","","","","","","","yes","","","","","","","","","SRET","EW_formal","","key","j","16.66804123711358","640","356","朋友","努力","Positive","ability","","","","","","","","","","",""
"626","","j","psychophysics","28","178785","0.0-7.0-3.0-0.14","6","6","6","3","2","5","4","5","5","5","5","0","-1","1","0","1","2","1","1","5","5","5","5","4","4","5","5","4","4","4","4","4","6","6","6","6","6","7","7","7","6","7","7","7","7","3","7","7","1","3","2","5","7","5","6","7","2","7","7","2","5","2","3","3","7","7","7","7","7","7","6","2","6","2","6","1","7","3","7","682985829311709184","刘","131","Female","[""坏我"",""坏她"",""好她"",""好我""]","[""弱我"",""弱她"",""强她"",""强我""]","","","","","","","","yes","","","","","","","","","SRET","EW_formal","","key","j","16.66701030927817","640","356","自己","守时","Positive","morality","","","","","","","","","","",""
"571","","j","psychophysics","29","180361","0.0-7.0-3.0-0.15","6","6","6","3","2","5","4","5","5","5","5","0","-1","1","0","1","2","1","1","5","5","5","5","4","4","5","5","4","4","4","4","4","6","6","6","6","6","7","7","7","6","7","7","7","7","3","7","7","1","3","2","5","7","5","6","7","2","7","7","2","5","2","3","3","7","7","7","7","7","7","6","2","6","2","6","1","7","3","7","682985829311709184","刘","131","Female","[""坏我"",""坏她"",""好她"",""好我""]","[""弱我"",""弱她"",""强她"",""强我""]","","","","","","","","yes","","","","","","","","","SRET","EW_formal","","key","j","16.673118279569955","640","356","朋友","厚道","Positive","morality","","","","","","","","","","",""
"582","","f","psychophysics","30","181946","0.0-7.0-3.0-0.16","6","6","6","3","2","5","4","5","5","5","5","0","-1","1","0","1","2","1","1","5","5","5","5","4","4","5","5","4","4","4","4","4","6","6","6","6","6","7","7","7","6","7","7","7","7","3","7","7","1","3","2","5","7","5","6","7","2","7","7","2","5","2","3","3","7","7","7","7","7","7","6","2","6","2","6","1","7","3","7","682985829311709184","刘","131","Female","[""坏我"",""坏她"",""好她"",""好我""]","[""弱我"",""弱她"",""强她"",""强我""]","","","","","","","","no","","","","","","","","","SRET","EW_formal","","key","f","16.665957446808264","640","356","朋友","愚痴","Negative","ability","","","","","","","","","","",""
"809","","j","psychophysics","31","183769","0.0-7.0-3.0-0.17","6","6","6","3","2","5","4","5","5","5","5","0","-1","1","0","1","2","1","1","5","5","5","5","4","4","5","5","4","4","4","4","4","6","6","6","6","6","7","7","7","6","7","7","7","7","3","7","7","1","3","2","5","7","5","6","7","2","7","7","2","5","2","3","3","7","7","7","7","7","7","6","2","6","2","6","1","7","3","7","682985829311709184","刘","131","Female","[""坏我"",""坏她"",""好她"",""好我""]","[""弱我"",""弱她"",""强她"",""强我""]","","","","","","","","yes","","","","","","","","","SRET","EW_formal","","key","j","16.666972477064327","640","356","自己","懂行","Positive","ability","","","","","","","","","","",""
"596","","f","psychophysics","32","185370","0.0-7.0-3.0-0.18","6","6","6","3","2","5","4","5","5","5","5","0","-1","1","0","1","2","1","1","5","5","5","5","4","4","5","5","4","4","4","4","4","6","6","6","6","6","7","7","7","6","7","7","7","7","3","7","7","1","3","2","5","7","5","6","7","2","7","7","2","5","2","3","3","7","7","7","7","7","7","6","2","6","2","6","1","7","3","7","682985829311709184","刘","131","Female","[""坏我"",""坏她"",""好她"",""好我""]","[""弱我"",""弱她"",""强她"",""强我""]","","","","","","","","no","","","","","","","","","SRET","EW_formal","","key","f","16.667368421052878","640","356","朋友","怠惰","Negative","ability","","","","","","","","","","",""
"856","","f","psychophysics","33","187229","0.0-7.0-3.0-0.19","6","6","6","3","2","5","4","5","5","5","5","0","-1","1","0","1","2","1","1","5","5","5","5","4","4","5","5","4","4","4","4","4","6","6","6","6","6","7","7","7","6","7","7","7","7","3","7","7","1","3","2","5","7","5","6","7","2","7","7","2","5","2","3","3","7","7","7","7","7","7","6","2","6","2","6","1","7","3","7","682985829311709184","刘","131","Female","[""坏我"",""坏她"",""好她"",""好我""]","[""弱我"",""弱她"",""强她"",""强我""]","","","","","","","","no","","","","","","","","","SRET","EW_formal","","key","f","16.668181818181818","640","356","自己","外行","Negative","ability","","","","","","","","","","",""
"738","","j","psychophysics","34","188977","0.0-7.0-3.0-0.20","6","6","6","3","2","5","4","5","5","5","5","0","-1","1","0","1","2","1","1","5","5","5","5","4","4","5","5","4","4","4","4","4","6","6","6","6","6","7","7","7","6","7","7","7","7","3","7","7","1","3","2","5","7","5","6","7","2","7","7","2","5","2","3","3","7","7","7","7","7","7","6","2","6","2","6","1","7","3","7","682985829311709184","刘","131","Female","[""坏我"",""坏她"",""好她"",""好我""]","[""弱我"",""弱她"",""强她"",""强我""]","","","","","","","","yes","","","","","","","","","SRET","EW_formal","","key","j","16.666346153846323","640","356","朋友","仗义","Positive","morality","","","","","","","","","","",""
"583","","j","psychophysics","35","190564","0.0-7.0-3.0-0.21","6","6","6","3","2","5","4","5","5","5","5","0","-1","1","0","1","2","1","1","5","5","5","5","4","4","5","5","4","4","4","4","4","6","6","6","6","6","7","7","7","6","7","7","7","7","3","7","7","1","3","2","5","7","5","6","7","2","7","7","2","5","2","3","3","7","7","7","7","7","7","6","2","6","2","6","1","7","3","7","682985829311709184","刘","131","Female","[""坏我"",""坏她"",""好她"",""好我""]","[""弱我"",""弱她"",""强她"",""强我""]","","","","","","","","yes","","","","","","","","","SRET","EW_formal","","key","j","16.671276595744743","640","356","朋友","高尚","Positive","morality","","","","","","","","","","",""
"663","","f","psychophysics","36","192237","0.0-7.0-3.0-0.22","6","6","6","3","2","5","4","5","5","5","5","0","-1","1","0","1","2","1","1","5","5","5","5","4","4","5","5","4","4","4","4","4","6","6","6","6","6","7","7","7","6","7","7","7","7","3","7","7","1","3","2","5","7","5","6","7","2","7","7","2","5","2","3","3","7","7","7","7","7","7","6","2","6","2","6","1","7","3","7","682985829311709184","刘","131","Female","[""坏我"",""坏她"",""好她"",""好我""]","[""弱我"",""弱她"",""强她"",""强我""]","","","","","","","","no","","","","","","","","","SRET","EW_formal","","key","f","16.66899999999994","640","356","自己","势利","Negative","morality","","","","","","","","","","",""
"677","","f","psychophysics","37","193919","0.0-7.0-3.0-0.23","6","6","6","3","2","5","4","5","5","5","5","0","-1","1","0","1","2","1","1","5","5","5","5","4","4","5","5","4","4","4","4","4","6","6","6","6","6","7","7","7","6","7","7","7","7","3","7","7","1","3","2","5","7","5","6","7","2","7","7","2","5","2","3","3","7","7","7","7","7","7","6","2","6","2","6","1","7","3","7","682985829311709184","刘","131","Female","[""坏我"",""坏她"",""好她"",""好我""]","[""弱我"",""弱她"",""强她"",""强我""]","","","","","","","","no","","","","","","","","","SRET","EW_formal","","key","f","16.67","640","356","自己","歹毒","Negative","morality","","","","","","","","","","",""
"660","","j","psychophysics","38","195585","0.0-7.0-3.0-0.24","6","6","6","3","2","5","4","5","5","5","5","0","-1","1","0","1","2","1","1","5","5","5","5","4","4","5","5","4","4","4","4","4","6","6","6","6","6","7","7","7","6","7","7","7","7","3","7","7","1","3","2","5","7","5","6","7","2","7","7","2","5","2","3","3","7","7","7","7","7","7","6","2","6","2","6","1","7","3","7","682985829311709184","刘","131","Female","[""坏我"",""坏她"",""好她"",""好我""]","[""弱我"",""弱她"",""强她"",""强我""]","","","","","","","","yes","","","","","","","","","SRET","EW_formal","","key","j","16.667676767676827","640","356","朋友","好心","Positive","morality","","","","","","","","","","",""
"734","","j","psychophysics","39","197324","0.0-7.0-3.0-0.25","6","6","6","3","2","5","4","5","5","5","5","0","-1","1","0","1","2","1","1","5","5","5","5","4","4","5","5","4","4","4","4","4","6","6","6","6","6","7","7","7","6","7","7","7","7","3","7","7","1","3","2","5","7","5","6","7","2","7","7","2","5","2","3","3","7","7","7","7","7","7","6","2","6","2","6","1","7","3","7","682985829311709184","刘","131","Female","[""坏我"",""坏她"",""好她"",""好我""]","[""弱我"",""弱她"",""强她"",""强我""]","","","","","","","","yes","","","","","","","","","SRET","EW_formal","","key","j","16.66699029126225","640","356","朋友","刻苦","Positive","ability","","","","","","","","","","",""
"531","","j","psychophysics","40","198858","0.0-7.0-3.0-0.26","6","6","6","3","2","5","4","5","5","5","5","0","-1","1","0","1","2","1","1","5","5","5","5","4","4","5","5","4","4","4","4","4","6","6","6","6","6","7","7","7","6","7","7","7","7","3","7","7","1","3","2","5","7","5","6","7","2","7","7","2","5","2","3","3","7","7","7","7","7","7","6","2","6","2","6","1","7","3","7","682985829311709184","刘","131","Female","[""坏我"",""坏她"",""好她"",""好我""]","[""弱我"",""弱她"",""强她"",""强我""]","","","","","","","","yes","","","","","","","","","SRET","EW_formal","","key","j","16.667032967032775","640","356","自己","忠诚","Positive","morality","","","","","","","","","","",""
"579","","f","psychophysics","41","200456","0.0-7.0-3.0-0.27","6","6","6","3","2","5","4","5","5","5","5","0","-1","1","0","1","2","1","1","5","5","5","5","4","4","5","5","4","4","4","4","4","6","6","6","6","6","7","7","7","6","7","7","7","7","3","7","7","1","3","2","5","7","5","6","7","2","7","7","2","5","2","3","3","7","7","7","7","7","7","6","2","6","2","6","1","7","3","7","682985829311709184","刘","131","Female","[""坏我"",""坏她"",""好她"",""好我""]","[""弱我"",""弱她"",""强她"",""强我""]","","","","","","","","no","","","","","","","","","SRET","EW_formal","","key","f","16.670526315789598","640","356","朋友","缺德","Negative","morality","","","","","","","","","","",""
"582","","j","psychophysics","42","202042","0.0-7.0-3.0-0.28","6","6","6","3","2","5","4","5","5","5","5","0","-1","1","0","1","2","1","1","5","5","5","5","4","4","5","5","4","4","4","4","4","6","6","6","6","6","7","7","7","6","7","7","7","7","3","7","7","1","3","2","5","7","5","6","7","2","7","7","2","5","2","3","3","7","7","7","7","7","7","6","2","6","2","6","1","7","3","7","682985829311709184","刘","131","Female","[""坏我"",""坏她"",""好她"",""好我""]","[""弱我"",""弱她"",""强她"",""强我""]","","","","","","","","yes","","","","","","","","","SRET","EW_formal","","key","j","16.667021276595868","640","356","自己","仁厚","Positive","morality","","","","","","","","","","",""
"626","","f","psychophysics","43","203672","0.0-7.0-3.0-0.29","6","6","6","3","2","5","4","5","5","5","5","0","-1","1","0","1","2","1","1","5","5","5","5","4","4","5","5","4","4","4","4","4","6","6","6","6","6","7","7","7","6","7","7","7","7","3","7","7","1","3","2","5","7","5","6","7","2","7","7","2","5","2","3","3","7","7","7","7","7","7","6","2","6","2","6","1","7","3","7","682985829311709184","刘","131","Female","[""坏我"",""坏她"",""好她"",""好我""]","[""弱我"",""弱她"",""强她"",""强我""]","","","","","","","","no","","","","","","","","","SRET","EW_formal","","key","f","16.66701030927817","640","356","自己","弱智","Negative","ability","","","","","","","","","","",""
"1093","","j","psychophysics","44","205769","0.0-7.0-3.0-0.30","6","6","6","3","2","5","4","5","5","5","5","0","-1","1","0","1","2","1","1","5","5","5","5","4","4","5","5","4","4","4","4","4","6","6","6","6","6","7","7","7","6","7","7","7","7","3","7","7","1","3","2","5","7","5","6","7","2","7","7","2","5","2","3","3","7","7","7","7","7","7","6","2","6","2","6","1","7","3","7","682985829311709184","刘","131","Female","[""坏我"",""坏她"",""好她"",""好我""]","[""弱我"",""弱她"",""强她"",""强我""]","","","","","","","","yes","","","","","","","","","SRET","EW_formal","","key","j","16.667199999999955","640","356","朋友","思辨","Positive","ability","","","","","","","","","","",""
"1434","","j","psychophysics","45","208207","0.0-7.0-3.0-0.31","6","6","6","3","2","5","4","5","5","5","5","0","-1","1","0","1","2","1","1","5","5","5","5","4","4","5","5","4","4","4","4","4","6","6","6","6","6","7","7","7","6","7","7","7","7","3","7","7","1","3","2","5","7","5","6","7","2","7","7","2","5","2","3","3","7","7","7","7","7","7","6","2","6","2","6","1","7","3","7","682985829311709184","刘","131","Female","[""坏我"",""坏她"",""好她"",""好我""]","[""弱我"",""弱她"",""强她"",""强我""]","","","","","","","","yes","","","","","","","","","SRET","EW_formal","","key","j","16.66896551724138","640","356","自己","中用","Positive","ability","","","","","","","","","","",""
"581","","j","psychophysics","46","209793","0.0-7.0-3.0-0.32","6","6","6","3","2","5","4","5","5","5","5","0","-1","1","0","1","2","1","1","5","5","5","5","4","4","5","5","4","4","4","4","4","6","6","6","6","6","7","7","7","6","7","7","7","7","3","7","7","1","3","2","5","7","5","6","7","2","7","7","2","5","2","3","3","7","7","7","7","7","7","6","2","6","2","6","1","7","3","7","682985829311709184","刘","131","Female","[""坏我"",""坏她"",""好她"",""好我""]","[""弱我"",""弱她"",""强她"",""强我""]","","","","","","","","yes","","","","","","","","","SRET","EW_formal","","key","j","16.669148936170462","640","356","自己","逞能","Negative","ability","","","","","","","","","","",""
"821","","f","psychophysics","47","211639","0.0-7.0-3.0-0.33","6","6","6","3","2","5","4","5","5","5","5","0","-1","1","0","1","2","1","1","5","5","5","5","4","4","5","5","4","4","4","4","4","6","6","6","6","6","7","7","7","6","7","7","7","7","3","7","7","1","3","2","5","7","5","6","7","2","7","7","2","5","2","3","3","7","7","7","7","7","7","6","2","6","2","6","1","7","3","7","682985829311709184","刘","131","Female","[""坏我"",""坏她"",""好她"",""好我""]","[""弱我"",""弱她"",""强她"",""强我""]","","","","","","","","no","","","","","","","","","SRET","EW_formal","","key","f","16.66636363636353","640","356","自己","不良","Negative","morality","","","","","","","","","","",""
"602","","f","psychophysics","48","213244","0.0-7.0-3.0-0.34","6","6","6","3","2","5","4","5","5","5","5","0","-1","1","0","1","2","1","1","5","5","5","5","4","4","5","5","4","4","4","4","4","6","6","6","6","6","7","7","7","6","7","7","7","7","3","7","7","1","3","2","5","7","5","6","7","2","7","7","2","5","2","3","3","7","7","7","7","7","7","6","2","6","2","6","1","7","3","7","682985829311709184","刘","131","Female","[""坏我"",""坏她"",""好她"",""好我""]","[""弱我"",""弱她"",""强她"",""强我""]","","","","","","","","no","","","","","","","","","SRET","EW_formal","","key","f","16.66526315789486","640","356","朋友","卑鄙","Negative","morality","","","","","","","","","","",""
"695","","j","psychophysics","49","214953","0.0-7.0-3.0-0.35","6","6","6","3","2","5","4","5","5","5","5","0","-1","1","0","1","2","1","1","5","5","5","5","4","4","5","5","4","4","4","4","4","6","6","6","6","6","7","7","7","6","7","7","7","7","3","7","7","1","3","2","5","7","5","6","7","2","7","7","2","5","2","3","3","7","7","7","7","7","7","6","2","6","2","6","1","7","3","7","682985829311709184","刘","131","Female","[""坏我"",""坏她"",""好她"",""好我""]","[""弱我"",""弱她"",""强她"",""强我""]","","","","","","","","yes","","","","","","","","","SRET","EW_formal","","key","j","16.666666666666668","640","356","朋友","专注","Positive","ability","","","","","","","","","","",""
"753","","f","psychophysics","50","216709","0.0-7.0-3.0-0.36","6","6","6","3","2","5","4","5","5","5","5","0","-1","1","0","1","2","1","1","5","5","5","5","4","4","5","5","4","4","4","4","4","6","6","6","6","6","7","7","7","6","7","7","7","7","3","7","7","1","3","2","5","7","5","6","7","2","7","7","2","5","2","3","3","7","7","7","7","7","7","6","2","6","2","6","1","7","3","7","682985829311709184","刘","131","Female","[""坏我"",""坏她"",""好她"",""好我""]","[""弱我"",""弱她"",""强她"",""强我""]","","","","","","","","no","","","","","","","","","SRET","EW_formal","","key","f","16.671153846154013","640","356","朋友","迂拙","Negative","ability","","","","","","","","","","",""
"778","","f","psychophysics","51","218490","0.0-7.0-3.0-0.37","6","6","6","3","2","5","4","5","5","5","5","0","-1","1","0","1","2","1","1","5","5","5","5","4","4","5","5","4","4","4","4","4","6","6","6","6","6","7","7","7","6","7","7","7","7","3","7","7","1","3","2","5","7","5","6","7","2","7","7","2","5","2","3","3","7","7","7","7","7","7","6","2","6","2","6","1","7","3","7","682985829311709184","刘","131","Female","[""坏我"",""坏她"",""好她"",""好我""]","[""弱我"",""弱她"",""强她"",""强我""]","","","","","","","","no","","","","","","","","","SRET","EW_formal","","key","f","16.666037735849113","640","356","自己","差生","Negative","ability","","","","","","","","","","",""
"656","","f","psychophysics","52","220150","0.0-7.0-3.0-0.38","6","6","6","3","2","5","4","5","5","5","5","0","-1","1","0","1","2","1","1","5","5","5","5","4","4","5","5","4","4","4","4","4","6","6","6","6","6","7","7","7","6","7","7","7","7","3","7","7","1","3","2","5","7","5","6","7","2","7","7","2","5","2","3","3","7","7","7","7","7","7","6","2","6","2","6","1","7","3","7","682985829311709184","刘","131","Female","[""坏我"",""坏她"",""好她"",""好我""]","[""弱我"",""弱她"",""强她"",""强我""]","","","","","","","","no","","","","","","","","","SRET","EW_formal","","key","f","16.666666666666668","640","356","自己","龌龊","Negative","morality","","","","","","","","","","",""
"708","","j","psychophysics","53","221863","0.0-7.0-3.0-0.39","6","6","6","3","2","5","4","5","5","5","5","0","-1","1","0","1","2","1","1","5","5","5","5","4","4","5","5","4","4","4","4","4","6","6","6","6","6","7","7","7","6","7","7","7","7","3","7","7","1","3","2","5","7","5","6","7","2","7","7","2","5","2","3","3","7","7","7","7","7","7","6","2","6","2","6","1","7","3","7","682985829311709184","刘","131","Female","[""坏我"",""坏她"",""好她"",""好我""]","[""弱我"",""弱她"",""强她"",""强我""]","","","","","","","","yes","","","","","","","","","SRET","EW_formal","","key","j","16.666336633663253","640","356","朋友","上进","Positive","ability","","","","","","","","","","",""
"730","","j","psychophysics","54","223604","0.0-7.0-3.0-0.40","6","6","6","3","2","5","4","5","5","5","5","0","-1","1","0","1","2","1","1","5","5","5","5","4","4","5","5","4","4","4","4","4","6","6","6","6","6","7","7","7","6","7","7","7","7","3","7","7","1","3","2","5","7","5","6","7","2","7","7","2","5","2","3","3","7","7","7","7","7","7","6","2","6","2","6","1","7","3","7","682985829311709184","刘","131","Female","[""坏我"",""坏她"",""好她"",""好我""]","[""弱我"",""弱她"",""强她"",""强我""]","","","","","","","","yes","","","","","","","","","SRET","EW_formal","","key","j","16.666346153846042","640","356","朋友","依靠","Negative","ability","","","","","","","","","","",""
"630","","j","psychophysics","55","225239","0.0-7.0-3.0-0.41","6","6","6","3","2","5","4","5","5","5","5","0","-1","1","0","1","2","1","1","5","5","5","5","4","4","5","5","4","4","4","4","4","6","6","6","6","6","7","7","7","6","7","7","7","7","3","7","7","1","3","2","5","7","5","6","7","2","7","7","2","5","2","3","3","7","7","7","7","7","7","6","2","6","2","6","1","7","3","7","682985829311709184","刘","131","Female","[""坏我"",""坏她"",""好她"",""好我""]","[""弱我"",""弱她"",""强她"",""强我""]","","","","","","","","yes","","","","","","","","","SRET","EW_formal","","key","j","16.670103092783506","640","356","自己","细心","Positive","ability","","","","","","","","","","",""
"663","","f","psychophysics","56","226905","0.0-7.0-3.0-0.42","6","6","6","3","2","5","4","5","5","5","5","0","-1","1","0","1","2","1","1","5","5","5","5","4","4","5","5","4","4","4","4","4","6","6","6","6","6","7","7","7","6","7","7","7","7","3","7","7","1","3","2","5","7","5","6","7","2","7","7","2","5","2","3","3","7","7","7","7","7","7","6","2","6","2","6","1","7","3","7","682985829311709184","刘","131","Female","[""坏我"",""坏她"",""好她"",""好我""]","[""弱我"",""弱她"",""强她"",""强我""]","","","","","","","","no","","","","","","","","","SRET","EW_formal","","key","f","16.666666666666668","640","356","自己","短视","Negative","ability","","","","","","","","","","",""
"761","","f","psychophysics","57","228669","0.0-7.0-3.0-0.43","6","6","6","3","2","5","4","5","5","5","5","0","-1","1","0","1","2","1","1","5","5","5","5","4","4","5","5","4","4","4","4","4","6","6","6","6","6","7","7","7","6","7","7","7","7","3","7","7","1","3","2","5","7","5","6","7","2","7","7","2","5","2","3","3","7","7","7","7","7","7","6","2","6","2","6","1","7","3","7","682985829311709184","刘","131","Female","[""坏我"",""坏她"",""好她"",""好我""]","[""弱我"",""弱她"",""强她"",""强我""]","","","","","","","","no","","","","","","","","","SRET","EW_formal","","key","f","16.6676190476191","640","356","朋友","笨蛋","Negative","ability","","","","","","","","","","",""
"945","","j","psychophysics","58","230618","0.0-7.0-3.0-0.44","6","6","6","3","2","5","4","5","5","5","5","0","-1","1","0","1","2","1","1","5","5","5","5","4","4","5","5","4","4","4","4","4","6","6","6","6","6","7","7","7","6","7","7","7","7","3","7","7","1","3","2","5","7","5","6","7","2","7","7","2","5","2","3","3","7","7","7","7","7","7","6","2","6","2","6","1","7","3","7","682985829311709184","刘","131","Female","[""坏我"",""坏她"",""好她"",""好我""]","[""弱我"",""弱她"",""强她"",""强我""]","","","","","","","","yes","","","","","","","","","SRET","EW_formal","","key","j","16.66810344827586","640","356","自己","孝顺","Positive","morality","","","","","","","","","","",""
"650","","f","psychophysics","59","232272","0.0-7.0-3.0-0.45","6","6","6","3","2","5","4","5","5","5","5","0","-1","1","0","1","2","1","1","5","5","5","5","4","4","5","5","4","4","4","4","4","6","6","6","6","6","7","7","7","6","7","7","7","7","3","7","7","1","3","2","5","7","5","6","7","2","7","7","2","5","2","3","3","7","7","7","7","7","7","6","2","6","2","6","1","7","3","7","682985829311709184","刘","131","Female","[""坏我"",""坏她"",""好她"",""好我""]","[""弱我"",""弱她"",""强她"",""强我""]","","","","","","","","no","","","","","","","","","SRET","EW_formal","","key","f","16.666326530612423","640","356","朋友","低劣","Negative","morality","","","","","","","","","","",""
"null","","null","psychophysics","60","235278","0.0-7.0-3.0-0.46","6","6","6","3","2","5","4","5","5","5","5","0","-1","1","0","1","2","1","1","5","5","5","5","4","4","5","5","4","4","4","4","4","6","6","6","6","6","7","7","7","6","7","7","7","7","3","7","7","1","3","2","5","7","5","6","7","2","7","7","2","5","2","3","3","7","7","7","7","7","7","6","2","6","2","6","1","7","3","7","682985829311709184","刘","131","Female","[""坏我"",""坏她"",""好她"",""好我""]","[""弱我"",""弱她"",""强她"",""强我""]","","","","","","","","","","","","","","","","","SRET","EW_formal","","key","null","16.66592178770956","640","356","自己","拖延","Negative","ability","","","","","","","","","","",""
"704","","j","psychophysics","61","236992","0.0-7.0-3.0-0.47","6","6","6","3","2","5","4","5","5","5","5","0","-1","1","0","1","2","1","1","5","5","5","5","4","4","5","5","4","4","4","4","4","6","6","6","6","6","7","7","7","6","7","7","7","7","3","7","7","1","3","2","5","7","5","6","7","2","7","7","2","5","2","3","3","7","7","7","7","7","7","6","2","6","2","6","1","7","3","7","682985829311709184","刘","131","Female","[""坏我"",""坏她"",""好她"",""好我""]","[""弱我"",""弱她"",""强她"",""强我""]","","","","","","","","yes","","","","","","","","","SRET","EW_formal","","key","j","16.667647058823302","640","356","朋友","自律","Positive","ability","","","","","","","","","","",""
"447","","j","psychophysics","62","238443","0.0-7.0-3.0-0.48","6","6","6","3","2","5","4","5","5","5","5","0","-1","1","0","1","2","1","1","5","5","5","5","4","4","5","5","4","4","4","4","4","6","6","6","6","6","7","7","7","6","7","7","7","7","3","7","7","1","3","2","5","7","5","6","7","2","7","7","2","5","2","3","3","7","7","7","7","7","7","6","2","6","2","6","1","7","3","7","682985829311709184","刘","131","Female","[""坏我"",""坏她"",""好她"",""好我""]","[""弱我"",""弱她"",""强她"",""强我""]","","","","","","","","yes","","","","","","","","","SRET","EW_formal","","key","j","16.667441860465047","640","356","自己","诚信","Positive","morality","","","","","","","","","","",""
"657","","j","psychophysics","63","240104","0.0-7.0-3.0-0.49","6","6","6","3","2","5","4","5","5","5","5","0","-1","1","0","1","2","1","1","5","5","5","5","4","4","5","5","4","4","4","4","4","6","6","6","6","6","7","7","7","6","7","7","7","7","3","7","7","1","3","2","5","7","5","6","7","2","7","7","2","5","2","3","3","7","7","7","7","7","7","6","2","6","2","6","1","7","3","7","682985829311709184","刘","131","Female","[""坏我"",""坏她"",""好她"",""好我""]","[""弱我"",""弱她"",""强她"",""强我""]","","","","","","","","yes","","","","","","","","","SRET","EW_formal","","key","j","16.671717171717173","640","356","朋友","守法","Positive","morality","","","","","","","","","","",""
"611","","f","psychophysics","64","241718","0.0-7.0-3.0-0.50","6","6","6","3","2","5","4","5","5","5","5","0","-1","1","0","1","2","1","1","5","5","5","5","4","4","5","5","4","4","4","4","4","6","6","6","6","6","7","7","7","6","7","7","7","7","3","7","7","1","3","2","5","7","5","6","7","2","7","7","2","5","2","3","3","7","7","7","7","7","7","6","2","6","2","6","1","7","3","7","682985829311709184","刘","131","Female","[""坏我"",""坏她"",""好她"",""好我""]","[""弱我"",""弱她"",""强她"",""强我""]","","","","","","","","no","","","","","","","","","SRET","EW_formal","","key","f","16.666666666666668","640","356","自己","诡诈","Negative","morality","","","","","","","","","","",""
"635","","f","psychophysics","65","243358","0.0-7.0-3.0-0.51","6","6","6","3","2","5","4","5","5","5","5","0","-1","1","0","1","2","1","1","5","5","5","5","4","4","5","5","4","4","4","4","4","6","6","6","6","6","7","7","7","6","7","7","7","7","3","7","7","1","3","2","5","7","5","6","7","2","7","7","2","5","2","3","3","7","7","7","7","7","7","6","2","6","2","6","1","7","3","7","682985829311709184","刘","131","Female","[""坏我"",""坏她"",""好她"",""好我""]","[""弱我"",""弱她"",""强她"",""强我""]","","","","","","","","no","","","","","","","","","SRET","EW_formal","","key","f","16.669072164948393","640","356","自己","小人","Negative","morality","","","","","","","","","","",""
"623","","j","psychophysics","66","244985","0.0-7.0-3.0-0.52","6","6","6","3","2","5","4","5","5","5","5","0","-1","1","0","1","2","1","1","5","5","5","5","4","4","5","5","4","4","4","4","4","6","6","6","6","6","7","7","7","6","7","7","7","7","3","7","7","1","3","2","5","7","5","6","7","2","7","7","2","5","2","3","3","7","7","7","7","7","7","6","2","6","2","6","1","7","3","7","682985829311709184","刘","131","Female","[""坏我"",""坏她"",""好她"",""好我""]","[""弱我"",""弱她"",""强她"",""强我""]","","","","","","","","yes","","","","","","","","","SRET","EW_formal","","key","j","16.668041237113282","640","356","朋友","顶事","Positive","ability","","","","","","","","","","",""
"499","","j","psychophysics","67","246490","0.0-7.0-3.0-0.53","6","6","6","3","2","5","4","5","5","5","5","0","-1","1","0","1","2","1","1","5","5","5","5","4","4","5","5","4","4","4","4","4","6","6","6","6","6","7","7","7","6","7","7","7","7","3","7","7","1","3","2","5","7","5","6","7","2","7","7","2","5","2","3","3","7","7","7","7","7","7","6","2","6","2","6","1","7","3","7","682985829311709184","刘","131","Female","[""坏我"",""坏她"",""好她"",""好我""]","[""弱我"",""弱她"",""强她"",""强我""]","","","","","","","","yes","","","","","","","","","SRET","EW_formal","","key","j","16.667415730337012","640","356","自己","智慧","Positive","ability","","","","","","","","","","",""
"577","","j","psychophysics","68","248070","0.0-7.0-3.0-0.54","6","6","6","3","2","5","4","5","5","5","5","0","-1","1","0","1","2","1","1","5","5","5","5","4","4","5","5","4","4","4","4","4","6","6","6","6","6","7","7","7","6","7","7","7","7","3","7","7","1","3","2","5","7","5","6","7","2","7","7","2","5","2","3","3","7","7","7","7","7","7","6","2","6","2","6","1","7","3","7","682985829311709184","刘","131","Female","[""坏我"",""坏她"",""好她"",""好我""]","[""弱我"",""弱她"",""强她"",""强我""]","","","","","","","","yes","","","","","","","","","SRET","EW_formal","","key","j","16.66702127659556","640","356","自己","廉正","Positive","morality","","","","","","","","","","",""
"909","","j","psychophysics","69","250005","0.0-7.0-3.0-0.55","6","6","6","3","2","5","4","5","5","5","5","0","-1","1","0","1","2","1","1","5","5","5","5","4","4","5","5","4","4","4","4","4","6","6","6","6","6","7","7","7","6","7","7","7","7","3","7","7","1","3","2","5","7","5","6","7","2","7","7","2","5","2","3","3","7","7","7","7","7","7","6","2","6","2","6","1","7","3","7","682985829311709184","刘","131","Female","[""坏我"",""坏她"",""好她"",""好我""]","[""弱我"",""弱她"",""强她"",""强我""]","","","","","","","","yes","","","","","","","","","SRET","EW_formal","","key","j","16.670434782608748","640","356","自己","腐败","Negative","morality","","","","","","","","","","",""
"512","","j","psychophysics","70","251520","0.0-7.0-3.0-0.56","6","6","6","3","2","5","4","5","5","5","5","0","-1","1","0","1","2","1","1","5","5","5","5","4","4","5","5","4","4","4","4","4","6","6","6","6","6","7","7","7","6","7","7","7","7","3","7","7","1","3","2","5","7","5","6","7","2","7","7","2","5","2","3","3","7","7","7","7","7","7","6","2","6","2","6","1","7","3","7","682985829311709184","刘","131","Female","[""坏我"",""坏她"",""好她"",""好我""]","[""弱我"",""弱她"",""强她"",""强我""]","","","","","","","","yes","","","","","","","","","SRET","EW_formal","","key","j","16.67111111111137","640","356","自己","善心","Positive","morality","","","","","","","","","","",""
"910","","f","psychophysics","71","253438","0.0-7.0-3.0-0.57","6","6","6","3","2","5","4","5","5","5","5","0","-1","1","0","1","2","1","1","5","5","5","5","4","4","5","5","4","4","4","4","4","6","6","6","6","6","7","7","7","6","7","7","7","7","3","7","7","1","3","2","5","7","5","6","7","2","7","7","2","5","2","3","3","7","7","7","7","7","7","6","2","6","2","6","1","7","3","7","682985829311709184","刘","131","Female","[""坏我"",""坏她"",""好她"",""好我""]","[""弱我"",""弱她"",""强她"",""强我""]","","","","","","","","no","","","","","","","","","SRET","EW_formal","","key","f","16.666666666666668","640","356","自己","才尽","Negative","ability","","","","","","","","","","",""
"1079","","f","psychophysics","72","255520","0.0-7.0-3.0-0.58","6","6","6","3","2","5","4","5","5","5","5","0","-1","1","0","1","2","1","1","5","5","5","5","4","4","5","5","4","4","4","4","4","6","6","6","6","6","7","7","7","6","7","7","7","7","3","7","7","1","3","2","5","7","5","6","7","2","7","7","2","5","2","3","3","7","7","7","7","7","7","6","2","6","2","6","1","7","3","7","682985829311709184","刘","131","Female","[""坏我"",""坏她"",""好她"",""好我""]","[""弱我"",""弱她"",""强她"",""强我""]","","","","","","","","no","","","","","","","","","SRET","EW_formal","","key","f","16.80650406504051","640","356","朋友","阴毒","Negative","morality","","","","","","","","","","",""
"912","","j","psychophysics","73","257436","0.0-7.0-3.0-0.59","6","6","6","3","2","5","4","5","5","5","5","0","-1","1","0","1","2","1","1","5","5","5","5","4","4","5","5","4","4","4","4","4","6","6","6","6","6","7","7","7","6","7","7","7","7","3","7","7","1","3","2","5","7","5","6","7","2","7","7","2","5","2","3","3","7","7","7","7","7","7","6","2","6","2","6","1","7","3","7","682985829311709184","刘","131","Female","[""坏我"",""坏她"",""好她"",""好我""]","[""弱我"",""弱她"",""强她"",""强我""]","","","","","","","","yes","","","","","","","","","SRET","EW_formal","","key","j","16.667543859649175","640","356","朋友","忠良","Positive","morality","","","","","","","","","","",""
"934","","j","psychophysics","74","259374","0.0-7.0-3.0-0.60","6","6","6","3","2","5","4","5","5","5","5","0","-1","1","0","1","2","1","1","5","5","5","5","4","4","5","5","4","4","4","4","4","6","6","6","6","6","7","7","7","6","7","7","7","7","3","7","7","1","3","2","5","7","5","6","7","2","7","7","2","5","2","3","3","7","7","7","7","7","7","6","2","6","2","6","1","7","3","7","682985829311709184","刘","131","Female","[""坏我"",""坏她"",""好她"",""好我""]","[""弱我"",""弱她"",""强她"",""强我""]","","","","","","","","yes","","","","","","","","","SRET","EW_formal","","key","j","16.666956521738978","640","356","自己","学霸","Positive","ability","","","","","","","","","","",""
"873","","j","psychophysics","75","261251","0.0-7.0-3.0-0.61","6","6","6","3","2","5","4","5","5","5","5","0","-1","1","0","1","2","1","1","5","5","5","5","4","4","5","5","4","4","4","4","4","6","6","6","6","6","7","7","7","6","7","7","7","7","3","7","7","1","3","2","5","7","5","6","7","2","7","7","2","5","2","3","3","7","7","7","7","7","7","6","2","6","2","6","1","7","3","7","682985829311709184","刘","131","Female","[""坏我"",""坏她"",""好她"",""好我""]","[""弱我"",""弱她"",""强她"",""强我""]","","","","","","","","yes","","","","","","","","","SRET","EW_formal","","key","j","16.66607142857148","640","356","朋友","有力","Positive","ability","","","","","","","","","","",""
"816","","f","psychophysics","76","263071","0.0-7.0-3.0-0.62","6","6","6","3","2","5","4","5","5","5","5","0","-1","1","0","1","2","1","1","5","5","5","5","4","4","5","5","4","4","4","4","4","6","6","6","6","6","7","7","7","6","7","7","7","7","3","7","7","1","3","2","5","7","5","6","7","2","7","7","2","5","2","3","3","7","7","7","7","7","7","6","2","6","2","6","1","7","3","7","682985829311709184","刘","131","Female","[""坏我"",""坏她"",""好她"",""好我""]","[""弱我"",""弱她"",""强她"",""强我""]","","","","","","","","no","","","","","","","","","SRET","EW_formal","","key","f","16.667592592592648","640","356","自己","背叛","Negative","morality","","","","","","","","","","",""
"785","","f","psychophysics","77","264859","0.0-7.0-3.0-0.63","6","6","6","3","2","5","4","5","5","5","5","0","-1","1","0","1","2","1","1","5","5","5","5","4","4","5","5","4","4","4","4","4","6","6","6","6","6","7","7","7","6","7","7","7","7","3","7","7","1","3","2","5","7","5","6","7","2","7","7","2","5","2","3","3","7","7","7","7","7","7","6","2","6","2","6","1","7","3","7","682985829311709184","刘","131","Female","[""坏我"",""坏她"",""好她"",""好我""]","[""弱我"",""弱她"",""强她"",""强我""]","","","","","","","","no","","","","","","","","","SRET","EW_formal","","key","f","16.666037735848835","640","356","朋友","窝囊","Negative","ability","","","","","","","","","","",""
"1003","","f","psychophysics","78","266866","0.0-7.0-3.0-0.64","6","6","6","3","2","5","4","5","5","5","5","0","-1","1","0","1","2","1","1","5","5","5","5","4","4","5","5","4","4","4","4","4","6","6","6","6","6","7","7","7","6","7","7","7","7","3","7","7","1","3","2","5","7","5","6","7","2","7","7","2","5","2","3","3","7","7","7","7","7","7","6","2","6","2","6","1","7","3","7","682985829311709184","刘","131","Female","[""坏我"",""坏她"",""好她"",""好我""]","[""弱我"",""弱她"",""强她"",""强我""]","","","","","","","","no","","","","","","","","","SRET","EW_formal","","key","f","16.66833333333343","640","356","朋友","邪恶","Negative","morality","","","","","","","","","","",""
"928","","j","psychophysics","79","268801","0.0-7.0-3.0-0.65","6","6","6","3","2","5","4","5","5","5","5","0","-1","1","0","1","2","1","1","5","5","5","5","4","4","5","5","4","4","4","4","4","6","6","6","6","6","7","7","7","6","7","7","7","7","3","7","7","1","3","2","5","7","5","6","7","2","7","7","2","5","2","3","3","7","7","7","7","7","7","6","2","6","2","6","1","7","3","7","682985829311709184","刘","131","Female","[""坏我"",""坏她"",""好她"",""好我""]","[""弱我"",""弱她"",""强她"",""强我""]","","","","","","","","yes","","","","","","","","","SRET","EW_formal","","key","j","16.666086956521536","640","356","朋友","忠义","Positive","morality","","","","","","","","","","",""
"814","","f","psychophysics","80","270619","0.0-7.0-3.0-0.66","6","6","6","3","2","5","4","5","5","5","5","0","-1","1","0","1","2","1","1","5","5","5","5","4","4","5","5","4","4","4","4","4","6","6","6","6","6","7","7","7","6","7","7","7","7","3","7","7","1","3","2","5","7","5","6","7","2","7","7","2","5","2","3","3","7","7","7","7","7","7","6","2","6","2","6","1","7","3","7","682985829311709184","刘","131","Female","[""坏我"",""坏她"",""好她"",""好我""]","[""弱我"",""弱她"",""强她"",""强我""]","","","","","","","","no","","","","","","","","","SRET","EW_formal","","key","f","16.668518518518628","640","356","自己","无赖","Negative","morality","","","","","","","","","","",""
"956","","j","psychophysics","81","272579","0.0-7.0-3.0-0.67","6","6","6","3","2","5","4","5","5","5","5","0","-1","1","0","1","2","1","1","5","5","5","5","4","4","5","5","4","4","4","4","4","6","6","6","6","6","7","7","7","6","7","7","7","7","3","7","7","1","3","2","5","7","5","6","7","2","7","7","2","5","2","3","3","7","7","7","7","7","7","6","2","6","2","6","1","7","3","7","682985829311709184","刘","131","Female","[""坏我"",""坏她"",""好她"",""好我""]","[""弱我"",""弱她"",""强她"",""强我""]","","","","","","","","yes","","","","","","","","","SRET","EW_formal","","key","j","16.666379310344727","640","356","朋友","罪恶","Negative","morality","","","","","","","","","","",""
"616","","j","psychophysics","82","274201","0.0-7.0-3.0-0.68","6","6","6","3","2","5","4","5","5","5","5","0","-1","1","0","1","2","1","1","5","5","5","5","4","4","5","5","4","4","4","4","4","6","6","6","6","6","7","7","7","6","7","7","7","7","3","7","7","1","3","2","5","7","5","6","7","2","7","7","2","5","2","3","3","7","7","7","7","7","7","6","2","6","2","6","1","7","3","7","682985829311709184","刘","131","Female","[""坏我"",""坏她"",""好她"",""好我""]","[""弱我"",""弱她"",""强她"",""强我""]","","","","","","","","yes","","","","","","","","","SRET","EW_formal","","key","j","16.670103092783506","640","356","朋友","高效","Positive","ability","","","","","","","","","","",""
"778","","j","psychophysics","83","275983","0.0-7.0-3.0-0.69","6","6","6","3","2","5","4","5","5","5","5","0","-1","1","0","1","2","1","1","5","5","5","5","4","4","5","5","4","4","4","4","4","6","6","6","6","6","7","7","7","6","7","7","7","7","3","7","7","1","3","2","5","7","5","6","7","2","7","7","2","5","2","3","3","7","7","7","7","7","7","6","2","6","2","6","1","7","3","7","682985829311709184","刘","131","Female","[""坏我"",""坏她"",""好她"",""好我""]","[""弱我"",""弱她"",""强她"",""强我""]","","","","","","","","yes","","","","","","","","","SRET","EW_formal","","key","j","16.66698113207558","640","356","自己","博识","Positive","ability","","","","","","","","","","",""
"609","","j","psychophysics","84","277597","0.0-7.0-3.0-0.70","6","6","6","3","2","5","4","5","5","5","5","0","-1","1","0","1","2","1","1","5","5","5","5","4","4","5","5","4","4","4","4","4","6","6","6","6","6","7","7","7","6","7","7","7","7","3","7","7","1","3","2","5","7","5","6","7","2","7","7","2","5","2","3","3","7","7","7","7","7","7","6","2","6","2","6","1","7","3","7","682985829311709184","刘","131","Female","[""坏我"",""坏她"",""好她"",""好我""]","[""弱我"",""弱她"",""强她"",""强我""]","","","","","","","","yes","","","","","","","","","SRET","EW_formal","","key","j","16.66631578947356","640","356","朋友","坦荡","Positive","morality","","","","","","","","","","",""
"561","","j","psychophysics","85","279169","0.0-7.0-3.0-0.71","6","6","6","3","2","5","4","5","5","5","5","0","-1","1","0","1","2","1","1","5","5","5","5","4","4","5","5","4","4","4","4","4","6","6","6","6","6","7","7","7","6","7","7","7","7","3","7","7","1","3","2","5","7","5","6","7","2","7","7","2","5","2","3","3","7","7","7","7","7","7","6","2","6","2","6","1","7","3","7","682985829311709184","刘","131","Female","[""坏我"",""坏她"",""好她"",""好我""]","[""弱我"",""弱她"",""强她"",""强我""]","","","","","","","","yes","","","","","","","","","SRET","EW_formal","","key","j","16.66702127659525","640","356","自己","慈悲","Positive","morality","","","","","","","","","","",""
"1148","","j","psychophysics","86","281320","0.0-7.0-3.0-0.72","6","6","6","3","2","5","4","5","5","5","5","0","-1","1","0","1","2","1","1","5","5","5","5","4","4","5","5","4","4","4","4","4","6","6","6","6","6","7","7","7","6","7","7","7","7","3","7","7","1","3","2","5","7","5","6","7","2","7","7","2","5","2","3","3","7","7","7","7","7","7","6","2","6","2","6","1","7","3","7","682985829311709184","刘","131","Female","[""坏我"",""坏她"",""好她"",""好我""]","[""弱我"",""弱她"",""强她"",""强我""]","","","","","","","","yes","","","","","","","","","SRET","EW_formal","","key","j","16.667187499999727","640","356","自己","马虎","Negative","ability","","","","","","","","","","",""
"844","","f","psychophysics","87","283167","0.0-7.0-3.0-0.73","6","6","6","3","2","5","4","5","5","5","5","0","-1","1","0","1","2","1","1","5","5","5","5","4","4","5","5","4","4","4","4","4","6","6","6","6","6","7","7","7","6","7","7","7","7","3","7","7","1","3","2","5","7","5","6","7","2","7","7","2","5","2","3","3","7","7","7","7","7","7","6","2","6","2","6","1","7","3","7","682985829311709184","刘","131","Female","[""坏我"",""坏她"",""好她"",""好我""]","[""弱我"",""弱她"",""强她"",""强我""]","","","","","","","","no","","","","","","","","","SRET","EW_formal","","key","f","16.668181818181818","640","356","朋友","驽钝","Negative","ability","","","","","","","","","","",""
"627","","j","psychophysics","88","284800","0.0-7.0-3.0-0.74","6","6","6","3","2","5","4","5","5","5","5","0","-1","1","0","1","2","1","1","5","5","5","5","4","4","5","5","4","4","4","4","4","6","6","6","6","6","7","7","7","6","7","7","7","7","3","7","7","1","3","2","5","7","5","6","7","2","7","7","2","5","2","3","3","7","7","7","7","7","7","6","2","6","2","6","1","7","3","7","682985829311709184","刘","131","Female","[""坏我"",""坏她"",""好她"",""好我""]","[""弱我"",""弱她"",""强她"",""强我""]","","","","","","","","yes","","","","","","","","","SRET","EW_formal","","key","j","16.66597938144366","640","356","自己","肯干","Positive","ability","","","","","","","","","","",""
"762","","f","psychophysics","89","286567","0.0-7.0-3.0-0.75","6","6","6","3","2","5","4","5","5","5","5","0","-1","1","0","1","2","1","1","5","5","5","5","4","4","5","5","4","4","4","4","4","6","6","6","6","6","7","7","7","6","7","7","7","7","3","7","7","1","3","2","5","7","5","6","7","2","7","7","2","5","2","3","3","7","7","7","7","7","7","6","2","6","2","6","1","7","3","7","682985829311709184","刘","131","Female","[""坏我"",""坏她"",""好她"",""好我""]","[""弱我"",""弱她"",""强她"",""强我""]","","","","","","","","no","","","","","","","","","SRET","EW_formal","","key","f","16.666666666666668","640","356","自己","废物","Negative","ability","","","","","","","","","","",""
"960","","f","psychophysics","90","288531","0.0-7.0-3.0-0.76","6","6","6","3","2","5","4","5","5","5","5","0","-1","1","0","1","2","1","1","5","5","5","5","4","4","5","5","4","4","4","4","4","6","6","6","6","6","7","7","7","6","7","7","7","7","3","7","7","1","3","2","5","7","5","6","7","2","7","7","2","5","2","3","3","7","7","7","7","7","7","6","2","6","2","6","1","7","3","7","682985829311709184","刘","131","Female","[""坏我"",""坏她"",""好她"",""好我""]","[""弱我"",""弱她"",""强她"",""强我""]","","","","","","","","no","","","","","","","","","SRET","EW_formal","","key","f","16.66896551724168","640","356","朋友","恶劣","Negative","morality","","","","","","","","","","",""
"862","","f","psychophysics","91","290396","0.0-7.0-3.0-0.77","6","6","6","3","2","5","4","5","5","5","5","0","-1","1","0","1","2","1","1","5","5","5","5","4","4","5","5","4","4","4","4","4","6","6","6","6","6","7","7","7","6","7","7","7","7","3","7","7","1","3","2","5","7","5","6","7","2","7","7","2","5","2","3","3","7","7","7","7","7","7","6","2","6","2","6","1","7","3","7","682985829311709184","刘","131","Female","[""坏我"",""坏她"",""好她"",""好我""]","[""弱我"",""弱她"",""强她"",""强我""]","","","","","","","","no","","","","","","","","","SRET","EW_formal","","key","f","16.667567567567357","640","356","自己","失信","Negative","morality","","","","","","","","","","",""
"603","","f","psychophysics","92","292012","0.0-7.0-3.0-0.78","6","6","6","3","2","5","4","5","5","5","5","0","-1","1","0","1","2","1","1","5","5","5","5","4","4","5","5","4","4","4","4","4","6","6","6","6","6","7","7","7","6","7","7","7","7","3","7","7","1","3","2","5","7","5","6","7","2","7","7","2","5","2","3","3","7","7","7","7","7","7","6","2","6","2","6","1","7","3","7","682985829311709184","刘","131","Female","[""坏我"",""坏她"",""好她"",""好我""]","[""弱我"",""弱她"",""强她"",""强我""]","","","","","","","","no","","","","","","","","","SRET","EW_formal","","key","f","16.671875","640","356","朋友","庸碌","Negative","ability","","","","","","","","","","",""
"1321","","f","psychophysics","93","294340","0.0-7.0-3.0-0.79","6","6","6","3","2","5","4","5","5","5","5","0","-1","1","0","1","2","1","1","5","5","5","5","4","4","5","5","4","4","4","4","4","6","6","6","6","6","7","7","7","6","7","7","7","7","3","7","7","1","3","2","5","7","5","6","7","2","7","7","2","5","2","3","3","7","7","7","7","7","7","6","2","6","2","6","1","7","3","7","682985829311709184","刘","131","Female","[""坏我"",""坏她"",""好她"",""好我""]","[""弱我"",""弱她"",""强她"",""强我""]","","","","","","","","no","","","","","","","","","SRET","EW_formal","","key","f","16.666187050359543","640","356","朋友","利己","Negative","morality","","","","","","","","","","",""
"740","","j","psychophysics","94","296083","0.0-7.0-3.0-0.80","6","6","6","3","2","5","4","5","5","5","5","0","-1","1","0","1","2","1","1","5","5","5","5","4","4","5","5","4","4","4","4","4","6","6","6","6","6","7","7","7","6","7","7","7","7","3","7","7","1","3","2","5","7","5","6","7","2","7","7","2","5","2","3","3","7","7","7","7","7","7","6","2","6","2","6","1","7","3","7","682985829311709184","刘","131","Female","[""坏我"",""坏她"",""好她"",""好我""]","[""弱我"",""弱她"",""强她"",""强我""]","","","","","","","","yes","","","","","","","","","SRET","EW_formal","","key","j","16.66826923076923","640","356","自己","忠勇","Positive","morality","","","","","","","","","","",""
"802","","f","psychophysics","95","297889","0.0-7.0-3.0-0.81","6","6","6","3","2","5","4","5","5","5","5","0","-1","1","0","1","2","1","1","5","5","5","5","4","4","5","5","4","4","4","4","4","6","6","6","6","6","7","7","7","6","7","7","7","7","3","7","7","1","3","2","5","7","5","6","7","2","7","7","2","5","2","3","3","7","7","7","7","7","7","6","2","6","2","6","1","7","3","7","682985829311709184","刘","131","Female","[""坏我"",""坏她"",""好她"",""好我""]","[""弱我"",""弱她"",""强她"",""强我""]","","","","","","","","no","","","","","","","","","SRET","EW_formal","","key","f","16.666355140186806","640","356","朋友","不孝","Negative","morality","","","","","","","","","","",""
"1144","","f","psychophysics","96","300037","0.0-7.0-3.0-0.82","6","6","6","3","2","5","4","5","5","5","5","0","-1","1","0","1","2","1","1","5","5","5","5","4","4","5","5","4","4","4","4","4","6","6","6","6","6","7","7","7","6","7","7","7","7","3","7","7","1","3","2","5","7","5","6","7","2","7","7","2","5","2","3","3","7","7","7","7","7","7","6","2","6","2","6","1","7","3","7","682985829311709184","刘","131","Female","[""坏我"",""坏她"",""好她"",""好我""]","[""弱我"",""弱她"",""强她"",""强我""]","","","","","","","","no","","","","","","","","","SRET","EW_formal","","key","f","16.66640624999991","640","356","朋友","屈才","Negative","ability","","","","","","","","","","",""
"731","","j","psychophysics","97","301770","0.0-7.0-3.0-0.83","6","6","6","3","2","5","4","5","5","5","5","0","-1","1","0","1","2","1","1","5","5","5","5","4","4","5","5","4","4","4","4","4","6","6","6","6","6","7","7","7","6","7","7","7","7","3","7","7","1","3","2","5","7","5","6","7","2","7","7","2","5","2","3","3","7","7","7","7","7","7","6","2","6","2","6","1","7","3","7","682985829311709184","刘","131","Female","[""坏我"",""坏她"",""好她"",""好我""]","[""弱我"",""弱她"",""强她"",""强我""]","","","","","","","","yes","","","","","","","","","SRET","EW_formal","","key","j","16.667961165048432","640","356","自己","精干","Positive","ability","","","","","","","","","","",""
"538","","j","psychophysics","98","303311","0.0-7.0-3.0-0.84","6","6","6","3","2","5","4","5","5","5","5","0","-1","1","0","1","2","1","1","5","5","5","5","4","4","5","5","4","4","4","4","4","6","6","6","6","6","7","7","7","6","7","7","7","7","3","7","7","1","3","2","5","7","5","6","7","2","7","7","2","5","2","3","3","7","7","7","7","7","7","6","2","6","2","6","1","7","3","7","682985829311709184","刘","131","Female","[""坏我"",""坏她"",""好她"",""好我""]","[""弱我"",""弱她"",""强她"",""强我""]","","","","","","","","yes","","","","","","","","","SRET","EW_formal","","key","j","16.66593406593381","640","356","自己","主见","Positive","ability","","","","","","","","","","",""
"676","","f","psychophysics","99","304996","0.0-7.0-3.0-0.85","6","6","6","3","2","5","4","5","5","5","5","0","-1","1","0","1","2","1","1","5","5","5","5","4","4","5","5","4","4","4","4","4","6","6","6","6","6","7","7","7","6","7","7","7","7","3","7","7","1","3","2","5","7","5","6","7","2","7","7","2","5","2","3","3","7","7","7","7","7","7","6","2","6","2","6","1","7","3","7","682985829311709184","刘","131","Female","[""坏我"",""坏她"",""好她"",""好我""]","[""弱我"",""弱她"",""强她"",""强我""]","","","","","","","","no","","","","","","","","","SRET","EW_formal","","key","f","16.667999999999882","640","356","自己","缓慢","Negative","ability","","","","","","","","","","",""
"754","","f","psychophysics","100","306757","0.0-7.0-3.0-0.86","6","6","6","3","2","5","4","5","5","5","5","0","-1","1","0","1","2","1","1","5","5","5","5","4","4","5","5","4","4","4","4","4","6","6","6","6","6","7","7","7","6","7","7","7","7","3","7","7","1","3","2","5","7","5","6","7","2","7","7","2","5","2","3","3","7","7","7","7","7","7","6","2","6","2","6","1","7","3","7","682985829311709184","刘","131","Female","[""坏我"",""坏她"",""好她"",""好我""]","[""弱我"",""弱她"",""强她"",""强我""]","","","","","","","","no","","","","","","","","","SRET","EW_formal","","key","f","16.664761904761793","640","356","朋友","素养","Positive","morality","","","","","","","","","","",""
"762","","f","psychophysics","101","308525","0.0-7.0-3.0-0.87","6","6","6","3","2","5","4","5","5","5","5","0","-1","1","0","1","2","1","1","5","5","5","5","4","4","5","5","4","4","4","4","4","6","6","6","6","6","7","7","7","6","7","7","7","7","3","7","7","1","3","2","5","7","5","6","7","2","7","7","2","5","2","3","3","7","7","7","7","7","7","6","2","6","2","6","1","7","3","7","682985829311709184","刘","131","Female","[""坏我"",""坏她"",""好她"",""好我""]","[""弱我"",""弱她"",""强她"",""强我""]","","","","","","","","no","","","","","","","","","SRET","EW_formal","","key","f","16.666666666666668","640","356","朋友","低俗","Negative","morality","","","","","","","","","","",""
"10057","
    <p><div style='color:white;font-size:35px; line-height:20px;'>计算任务</div></p><br>
    <p><div style='color:red;font-size:25px; line-height:20px;'>接下来，您将看到一些四则运算题，<b>请从键盘选择 0-9 进行反应。</b></div></p>
    <p><div style='color:red;font-size:25px; line-height:20px;'>请尽可能快地进行计算，计算的速度和正确率将影响报酬的发放。</div></p>
    <p><div class='footer' style='color:white;font-size:25px; line-height:20px;'>如果对本实验还有不清楚之处，请立即向实验员咨询。</p><p style='color:white;font-size:25px; line-height:20px;'>如果您明白了规则：</p><p style='color:white;font-size:22px; line-height:20px;'>请按 继续 进入练习</p>
    </div>
    ","0","html-button-response","102","318585","0.0-7.0-4.0","6","6","6","3","2","5","4","5","5","5","5","0","-1","1","0","1","2","1","1","5","5","5","5","4","4","5","5","4","4","4","4","4","6","6","6","6","6","7","7","7","6","7","7","7","7","3","7","7","1","3","2","5","7","5","6","7","2","7","7","2","5","2","3","3","7","7","7","7","7","7","6","2","6","2","6","1","7","3","7","682985829311709184","刘","131","Female","[""坏我"",""坏她"",""好她"",""好我""]","[""弱我"",""弱她"",""强她"",""强我""]","","","","","","","","","","","","","","","","","SRET_math","math_instructions","Tue Jan 16 2024 20:53:40 GMT+0800 (中国标准时间)","","","","","","","","","","","","","","","","","","","",""
"2380","","1","psychophysics","103","320970","0.0-7.0-5.0-0.0","6","6","6","3","2","5","4","5","5","5","5","0","-1","1","0","1","2","1","1","5","5","5","5","4","4","5","5","4","4","4","4","4","6","6","6","6","6","7","7","7","6","7","7","7","7","3","7","7","1","3","2","5","7","5","6","7","2","7","7","2","5","2","3","3","7","7","7","7","7","7","6","2","6","2","6","1","7","3","7","682985829311709184","刘","131","Female","[""坏我"",""坏她"",""好她"",""好我""]","[""弱我"",""弱她"",""强她"",""强我""]","","","","","","","","1","","","","","","","","","SRET","SRET_math_calculate","","key","1","16.665034965034803","640","356","","","","","9-8= ?","1","1","","","","","","","",""
"2200","","2","psychophysics","104","323176","0.0-7.0-5.0-0.1","6","6","6","3","2","5","4","5","5","5","5","0","-1","1","0","1","2","1","1","5","5","5","5","4","4","5","5","4","4","4","4","4","6","6","6","6","6","7","7","7","6","7","7","7","7","3","7","7","1","3","2","5","7","5","6","7","2","7","7","2","5","2","3","3","7","7","7","7","7","7","6","2","6","2","6","1","7","3","7","682985829311709184","刘","131","Female","[""坏我"",""坏她"",""好她"",""好我""]","[""弱我"",""弱她"",""强她"",""强我""]","","","","","","","","2","","","","","","","","","SRET","SRET_math_calculate","","key","2","16.66641221374037","640","356","","","","","5-3= ?","2","1","","","","","","","",""
"2063","","6","psychophysics","105","325248","0.0-7.0-5.0-0.2","6","6","6","3","2","5","4","5","5","5","5","0","-1","1","0","1","2","1","1","5","5","5","5","4","4","5","5","4","4","4","4","4","6","6","6","6","6","7","7","7","6","7","7","7","7","3","7","7","1","3","2","5","7","5","6","7","2","7","7","2","5","2","3","3","7","7","7","7","7","7","6","2","6","2","6","1","7","3","7","682985829311709184","刘","131","Female","[""坏我"",""坏她"",""好她"",""好我""]","[""弱我"",""弱她"",""强她"",""强我""]","","","","","","","","6","","","","","","","","","SRET","SRET_math_calculate","","key","6","16.666129032258347","640","356","","","","","3+3= ?","6","1","","","","","","","",""
"1839","","5","psychophysics","106","327096","0.0-7.0-5.0-0.3","6","6","6","3","2","5","4","5","5","5","5","0","-1","1","0","1","2","1","1","5","5","5","5","4","4","5","5","4","4","4","4","4","6","6","6","6","6","7","7","7","6","7","7","7","7","3","7","7","1","3","2","5","7","5","6","7","2","7","7","2","5","2","3","3","7","7","7","7","7","7","6","2","6","2","6","1","7","3","7","682985829311709184","刘","131","Female","[""坏我"",""坏她"",""好她"",""好我""]","[""弱我"",""弱她"",""强她"",""强我""]","","","","","","","","5","","","","","","","","","SRET","SRET_math_calculate","","key","5","16.66605504587188","640","356","","","","","10-5= ?","5","1","","","","","","","",""
"2415","","3","psychophysics","107","329521","0.0-7.0-5.0-0.4","6","6","6","3","2","5","4","5","5","5","5","0","-1","1","0","1","2","1","1","5","5","5","5","4","4","5","5","4","4","4","4","4","6","6","6","6","6","7","7","7","6","7","7","7","7","3","7","7","1","3","2","5","7","5","6","7","2","7","7","2","5","2","3","3","7","7","7","7","7","7","6","2","6","2","6","1","7","3","7","682985829311709184","刘","131","Female","[""坏我"",""坏她"",""好她"",""好我""]","[""弱我"",""弱她"",""强她"",""强我""]","","","","","","","","3","","","","","","","","","SRET","SRET_math_calculate","","key","3","16.666896551723816","640","356","","","","","21/7=  ?","3","1","","","","","","","",""
"2074","","2","psychophysics","108","331600","0.0-7.0-5.0-0.5","6","6","6","3","2","5","4","5","5","5","5","0","-1","1","0","1","2","1","1","5","5","5","5","4","4","5","5","4","4","4","4","4","6","6","6","6","6","7","7","7","6","7","7","7","7","3","7","7","1","3","2","5","7","5","6","7","2","7","7","2","5","2","3","3","7","7","7","7","7","7","6","2","6","2","6","1","7","3","7","682985829311709184","刘","131","Female","[""坏我"",""坏她"",""好她"",""好我""]","[""弱我"",""弱她"",""强她"",""强我""]","","","","","","","","2","","","","","","","","","SRET","SRET_math_calculate","","key","2","16.66774193548378","640","356","","","","","8/4= ?","2","1","","","","","","","",""
"2387","","9","psychophysics","109","333991","0.0-7.0-5.0-0.6","6","6","6","3","2","5","4","5","5","5","5","0","-1","1","0","1","2","1","1","5","5","5","5","4","4","5","5","4","4","4","4","4","6","6","6","6","6","7","7","7","6","7","7","7","7","3","7","7","1","3","2","5","7","5","6","7","2","7","7","2","5","2","3","3","7","7","7","7","7","7","6","2","6","2","6","1","7","3","7","682985829311709184","刘","131","Female","[""坏我"",""坏她"",""好她"",""好我""]","[""弱我"",""弱她"",""强她"",""强我""]","","","","","","","","9","","","","","","","","","SRET","SRET_math_calculate","","key","9","16.66549295774648","640","356","","","","","3*3= ?","9","1","","","","","","","",""
"2419","","0","psychophysics","110","336421","0.0-7.0-5.0-0.7","6","6","6","3","2","5","4","5","5","5","5","0","-1","1","0","1","2","1","1","5","5","5","5","4","4","5","5","4","4","4","4","4","6","6","6","6","6","7","7","7","6","7","7","7","7","3","7","7","1","3","2","5","7","5","6","7","2","7","7","2","5","2","3","3","7","7","7","7","7","7","6","2","6","2","6","1","7","3","7","682985829311709184","刘","131","Female","[""坏我"",""坏她"",""好她"",""好我""]","[""弱我"",""弱她"",""强她"",""强我""]","","","","","","","","0","","","","","","","","","SRET","SRET_math_calculate","","key","0","16.666896551724218","640","356","","","","","6*0= ?","0","1","","","","","","","",""
"2208","","3","psychophysics","111","338633","0.0-7.0-5.0-0.8","6","6","6","3","2","5","4","5","5","5","5","0","-1","1","0","1","2","1","1","5","5","5","5","4","4","5","5","4","4","4","4","4","6","6","6","6","6","7","7","7","6","7","7","7","7","3","7","7","1","3","2","5","7","5","6","7","2","7","7","2","5","2","3","3","7","7","7","7","7","7","6","2","6","2","6","1","7","3","7","682985829311709184","刘","131","Female","[""坏我"",""坏她"",""好她"",""好我""]","[""弱我"",""弱她"",""强她"",""强我""]","","","","","","","","3","","","","","","","","","SRET","SRET_math_calculate","","key","3","16.666666666666668","640","356","","","","","3+0= ?","3","1","","","","","","","",""
"2129","","4","psychophysics","112","340770","0.0-7.0-5.0-0.9","6","6","6","3","2","5","4","5","5","5","5","0","-1","1","0","1","2","1","1","5","5","5","5","4","4","5","5","4","4","4","4","4","6","6","6","6","6","7","7","7","6","7","7","7","7","3","7","7","1","3","2","5","7","5","6","7","2","7","7","2","5","2","3","3","7","7","7","7","7","7","6","2","6","2","6","1","7","3","7","682985829311709184","刘","131","Female","[""坏我"",""坏她"",""好她"",""好我""]","[""弱我"",""弱她"",""强她"",""强我""]","","","","","","","","4","","","","","","","","","SRET","SRET_math_calculate","","key","4","16.670078740157756","640","356","","","","","4*1= ?","4","1","","","","","","","",""
"2040","","8","psychophysics","113","342816","0.0-7.0-5.0-0.10","6","6","6","3","2","5","4","5","5","5","5","0","-1","1","0","1","2","1","1","5","5","5","5","4","4","5","5","4","4","4","4","4","6","6","6","6","6","7","7","7","6","7","7","7","7","3","7","7","1","3","2","5","7","5","6","7","2","7","7","2","5","2","3","3","7","7","7","7","7","7","6","2","6","2","6","1","7","3","7","682985829311709184","刘","131","Female","[""坏我"",""坏她"",""好她"",""好我""]","[""弱我"",""弱她"",""强她"",""强我""]","","","","","","","","8","","","","","","","","","SRET","SRET_math_calculate","","key","8","16.66639344262333","640","356","","","","","3+5= ?","8","1","","","","","","","",""
"1870","","8","psychophysics","114","344693","0.0-7.0-5.0-0.11","6","6","6","3","2","5","4","5","5","5","5","0","-1","1","0","1","2","1","1","5","5","5","5","4","4","5","5","4","4","4","4","4","6","6","6","6","6","7","7","7","6","7","7","7","7","3","7","7","1","3","2","5","7","5","6","7","2","7","7","2","5","2","3","3","7","7","7","7","7","7","6","2","6","2","6","1","7","3","7","682985829311709184","刘","131","Female","[""坏我"",""坏她"",""好她"",""好我""]","[""弱我"",""弱她"",""强她"",""强我""]","","","","","","","","8","","","","","","","","","SRET","SRET_math_calculate","","key","8","16.818181818181817","640","356","","","","","7+1= ?","8","1","","","","","","","",""
"2037","","7","psychophysics","115","346740","0.0-7.0-5.0-0.12","6","6","6","3","2","5","4","5","5","5","5","0","-1","1","0","1","2","1","1","5","5","5","5","4","4","5","5","4","4","4","4","4","6","6","6","6","6","7","7","7","6","7","7","7","7","3","7","7","1","3","2","5","7","5","6","7","2","7","7","2","5","2","3","3","7","7","7","7","7","7","6","2","6","2","6","1","7","3","7","682985829311709184","刘","131","Female","[""坏我"",""坏她"",""好她"",""好我""]","[""弱我"",""弱她"",""强她"",""强我""]","","","","","","","","7","","","","","","","","","SRET","SRET_math_calculate","","key","7","16.667213114753814","640","356","","","","","5+2= ?","7","1","","","","","","","",""
"3474","","8","psychophysics","116","350219","0.0-7.0-5.0-0.13","6","6","6","3","2","5","4","5","5","5","5","0","-1","1","0","1","2","1","1","5","5","5","5","4","4","5","5","4","4","4","4","4","6","6","6","6","6","7","7","7","6","7","7","7","7","3","7","7","1","3","2","5","7","5","6","7","2","7","7","2","5","2","3","3","7","7","7","7","7","7","6","2","6","2","6","1","7","3","7","682985829311709184","刘","131","Female","[""坏我"",""坏她"",""好她"",""好我""]","[""弱我"",""弱她"",""强她"",""强我""]","","","","","","","","8","","","","","","","","","SRET","SRET_math_calculate","","key","8","16.66682692307698","640","356","","","","","11-3= ?","8","1","","","","","","","",""
"2104","","2","psychophysics","117","352327","0.0-7.0-5.0-0.14","6","6","6","3","2","5","4","5","5","5","5","0","-1","1","0","1","2","1","1","5","5","5","5","4","4","5","5","4","4","4","4","4","6","6","6","6","6","7","7","7","6","7","7","7","7","3","7","7","1","3","2","5","7","5","6","7","2","7","7","2","5","2","3","3","7","7","7","7","7","7","6","2","6","2","6","1","7","3","7","682985829311709184","刘","131","Female","[""坏我"",""坏她"",""好她"",""好我""]","[""弱我"",""弱她"",""强她"",""强我""]","","","","","","","","2","","","","","","","","","SRET","SRET_math_calculate","","key","2","16.667200000000186","640","356","","","","","19-17= ?","2","1","","","","","","","",""
"2443","","6","psychophysics","118","354781","0.0-7.0-5.0-0.15","6","6","6","3","2","5","4","5","5","5","5","0","-1","1","0","1","2","1","1","5","5","5","5","4","4","5","5","4","4","4","4","4","6","6","6","6","6","7","7","7","6","7","7","7","7","3","7","7","1","3","2","5","7","5","6","7","2","7","7","2","5","2","3","3","7","7","7","7","7","7","6","2","6","2","6","1","7","3","7","682985829311709184","刘","131","Female","[""坏我"",""坏她"",""好她"",""好我""]","[""弱我"",""弱她"",""强她"",""强我""]","","","","","","","","6","","","","","","","","","SRET","SRET_math_calculate","","key","6","16.666438356164303","640","356","","","","","2+4= ?","6","1","","","","","","","",""
"2190","","7","psychophysics","119","356981","0.0-7.0-5.0-0.16","6","6","6","3","2","5","4","5","5","5","5","0","-1","1","0","1","2","1","1","5","5","5","5","4","4","5","5","4","4","4","4","4","6","6","6","6","6","7","7","7","6","7","7","7","7","3","7","7","1","3","2","5","7","5","6","7","2","7","7","2","5","2","3","3","7","7","7","7","7","7","6","2","6","2","6","1","7","3","7","682985829311709184","刘","131","Female","[""坏我"",""坏她"",""好她"",""好我""]","[""弱我"",""弱她"",""强她"",""强我""]","","","","","","","","7","","","","","","","","","SRET","SRET_math_calculate","","key","7","16.66793893129771","640","356","","","","","11-4= ?","7","1","","","","","","","",""
"2034","","5","psychophysics","120","359026","0.0-7.0-5.0-0.17","6","6","6","3","2","5","4","5","5","5","5","0","-1","1","0","1","2","1","1","5","5","5","5","4","4","5","5","4","4","4","4","4","6","6","6","6","6","7","7","7","6","7","7","7","7","3","7","7","1","3","2","5","7","5","6","7","2","7","7","2","5","2","3","3","7","7","7","7","7","7","6","2","6","2","6","1","7","3","7","682985829311709184","刘","131","Female","[""坏我"",""坏她"",""好她"",""好我""]","[""弱我"",""弱她"",""强她"",""强我""]","","","","","","","","5","","","","","","","","","SRET","SRET_math_calculate","","key","5","16.667213114753814","640","356","","","","","12-7= ?","5","1","","","","","","","",""
"1912","","8","psychophysics","121","360949","0.0-7.0-5.0-0.18","6","6","6","3","2","5","4","5","5","5","5","0","-1","1","0","1","2","1","1","5","5","5","5","4","4","5","5","4","4","4","4","4","6","6","6","6","6","7","7","7","6","7","7","7","7","3","7","7","1","3","2","5","7","5","6","7","2","7","7","2","5","2","3","3","7","7","7","7","7","7","6","2","6","2","6","1","7","3","7","682985829311709184","刘","131","Female","[""坏我"",""坏她"",""好她"",""好我""]","[""弱我"",""弱她"",""强她"",""强我""]","","","","","","","","8","","","","","","","","","SRET","SRET_math_calculate","","key","8","16.666956521738726","640","356","","","","","2+6= ?","8","1","","","","","","","",""
"2549","","0","psychophysics","122","363507","0.0-7.0-5.0-0.19","6","6","6","3","2","5","4","5","5","5","5","0","-1","1","0","1","2","1","1","5","5","5","5","4","4","5","5","4","4","4","4","4","6","6","6","6","6","7","7","7","6","7","7","7","7","3","7","7","1","3","2","5","7","5","6","7","2","7","7","2","5","2","3","3","7","7","7","7","7","7","6","2","6","2","6","1","7","3","7","682985829311709184","刘","131","Female","[""坏我"",""坏她"",""好她"",""好我""]","[""弱我"",""弱她"",""强她"",""强我""]","","","","","","","","0","","","","","","","","","SRET","SRET_math_calculate","","key","0","16.666447368420975","640","356","","","","","32-32= ?","0","1","","","","","","","",""
"1799","","0","psychophysics","123","365317","0.0-7.0-5.0-0.20","6","6","6","3","2","5","4","5","5","5","5","0","-1","1","0","1","2","1","1","5","5","5","5","4","4","5","5","4","4","4","4","4","6","6","6","6","6","7","7","7","6","7","7","7","7","3","7","7","1","3","2","5","7","5","6","7","2","7","7","2","5","2","3","3","7","7","7","7","7","7","6","2","6","2","6","1","7","3","7","682985829311709184","刘","131","Female","[""坏我"",""坏她"",""好她"",""好我""]","[""弱我"",""弱她"",""强她"",""强我""]","","","","","","","","0","","","","","","","","","SRET","SRET_math_calculate","","key","0","16.666666666666668","640","356","","","","","9-9= ?","0","1","","","","","","","",""
"2097","","5","psychophysics","124","367419","0.0-7.0-5.0-0.21","6","6","6","3","2","5","4","5","5","5","5","0","-1","1","0","1","2","1","1","5","5","5","5","4","4","5","5","4","4","4","4","4","6","6","6","6","6","7","7","7","6","7","7","7","7","3","7","7","1","3","2","5","7","5","6","7","2","7","7","2","5","2","3","3","7","7","7","7","7","7","6","2","6","2","6","1","7","3","7","682985829311709184","刘","131","Female","[""坏我"",""坏她"",""好她"",""好我""]","[""弱我"",""弱她"",""强她"",""强我""]","","","","","","","","5","","","","","","","","","SRET","SRET_math_calculate","","key","5","16.66559999999963","640","356","","","","","17-12= ? ","5","1","","","","","","","",""
"1850","","8","psychophysics","125","369274","0.0-7.0-5.0-0.22","6","6","6","3","2","5","4","5","5","5","5","0","-1","1","0","1","2","1","1","5","5","5","5","4","4","5","5","4","4","4","4","4","6","6","6","6","6","7","7","7","6","7","7","7","7","3","7","7","1","3","2","5","7","5","6","7","2","7","7","2","5","2","3","3","7","7","7","7","7","7","6","2","6","2","6","1","7","3","7","682985829311709184","刘","131","Female","[""坏我"",""坏她"",""好她"",""好我""]","[""弱我"",""弱她"",""强她"",""强我""]","","","","","","","","8","","","","","","","","","SRET","SRET_math_calculate","","key","8","16.66636363636353","640","356","","","","","4+4= ?","8","1","","","","","","","",""
"1965","","9","psychophysics","126","371251","0.0-7.0-5.0-0.23","6","6","6","3","2","5","4","5","5","5","5","0","-1","1","0","1","2","1","1","5","5","5","5","4","4","5","5","4","4","4","4","4","6","6","6","6","6","7","7","7","6","7","7","7","7","3","7","7","1","3","2","5","7","5","6","7","2","7","7","2","5","2","3","3","7","7","7","7","7","7","6","2","6","2","6","1","7","3","7","682985829311709184","刘","131","Female","[""坏我"",""坏她"",""好她"",""好我""]","[""弱我"",""弱她"",""强她"",""强我""]","","","","","","","","9","","","","","","","","","SRET","SRET_math_calculate","","key","9","16.666949152542472","640","356","","","","","2+7= ?","9","1","","","","","","","",""
"1766","","9","psychophysics","127","373022","0.0-7.0-5.0-0.24","6","6","6","3","2","5","4","5","5","5","5","0","-1","1","0","1","2","1","1","5","5","5","5","4","4","5","5","4","4","4","4","4","6","6","6","6","6","7","7","7","6","7","7","7","7","3","7","7","1","3","2","5","7","5","6","7","2","7","7","2","5","2","3","3","7","7","7","7","7","7","6","2","6","2","6","1","7","3","7","682985829311709184","刘","131","Female","[""坏我"",""坏她"",""好她"",""好我""]","[""弱我"",""弱她"",""强她"",""强我""]","","","","","","","","9","","","","","","","","","SRET","SRET_math_calculate","","key","9","16.669523809524254","640","356","","","","","4+5= ?","9","1","","","","","","","",""
"2342","","2","psychophysics","128","375369","0.0-7.0-5.0-0.25","6","6","6","3","2","5","4","5","5","5","5","0","-1","1","0","1","2","1","1","5","5","5","5","4","4","5","5","4","4","4","4","4","6","6","6","6","6","7","7","7","6","7","7","7","7","3","7","7","1","3","2","5","7","5","6","7","2","7","7","2","5","2","3","3","7","7","7","7","7","7","6","2","6","2","6","1","7","3","7","682985829311709184","刘","131","Female","[""坏我"",""坏她"",""好她"",""好我""]","[""弱我"",""弱她"",""强她"",""强我""]","","","","","","","","2","","","","","","","","","SRET","SRET_math_calculate","","key","2","16.664999999999832","640","356","","","","","9-7= ?","2","1","","","","","","","",""
"2215","","4","psychophysics","129","377588","0.0-7.0-5.0-0.26","6","6","6","3","2","5","4","5","5","5","5","0","-1","1","0","1","2","1","1","5","5","5","5","4","4","5","5","4","4","4","4","4","6","6","6","6","6","7","7","7","6","7","7","7","7","3","7","7","1","3","2","5","7","5","6","7","2","7","7","2","5","2","3","3","7","7","7","7","7","7","6","2","6","2","6","1","7","3","7","682985829311709184","刘","131","Female","[""坏我"",""坏她"",""好她"",""好我""]","[""弱我"",""弱她"",""强她"",""强我""]","","","","","","","","4","","","","","","","","","SRET","SRET_math_calculate","","key","4","16.667424242424506","640","356","","","","","9-5= ?","4","1","","","","","","","",""
"2154","","0","psychophysics","130","379747","0.0-7.0-5.0-0.27","6","6","6","3","2","5","4","5","5","5","5","0","-1","1","0","1","2","1","1","5","5","5","5","4","4","5","5","4","4","4","4","4","6","6","6","6","6","7","7","7","6","7","7","7","7","3","7","7","1","3","2","5","7","5","6","7","2","7","7","2","5","2","3","3","7","7","7","7","7","7","6","2","6","2","6","1","7","3","7","682985829311709184","刘","131","Female","[""坏我"",""坏她"",""好她"",""好我""]","[""弱我"",""弱她"",""强她"",""强我""]","","","","","","","","0","","","","","","","","","SRET","SRET_math_calculate","","key","0","16.66640624999991","640","356","","","","","1-1= ?","0","1","","","","","","","",""
"1923","","9","psychophysics","131","381686","0.0-7.0-5.0-0.28","6","6","6","3","2","5","4","5","5","5","5","0","-1","1","0","1","2","1","1","5","5","5","5","4","4","5","5","4","4","4","4","4","6","6","6","6","6","7","7","7","6","7","7","7","7","3","7","7","1","3","2","5","7","5","6","7","2","7","7","2","5","2","3","3","7","7","7","7","7","7","6","2","6","2","6","1","7","3","7","682985829311709184","刘","131","Female","[""坏我"",""坏她"",""好她"",""好我""]","[""弱我"",""弱她"",""强她"",""强我""]","","","","","","","","9","","","","","","","","","SRET","SRET_math_calculate","","key","9","16.666379310344727","640","356","","","","","3+6= ?","9","1","","","","","","","",""
"1793","","2","psychophysics","132","383486","0.0-7.0-5.0-0.29","6","6","6","3","2","5","4","5","5","5","5","0","-1","1","0","1","2","1","1","5","5","5","5","4","4","5","5","4","4","4","4","4","6","6","6","6","6","7","7","7","6","7","7","7","7","3","7","7","1","3","2","5","7","5","6","7","2","7","7","2","5","2","3","3","7","7","7","7","7","7","6","2","6","2","6","1","7","3","7","682985829311709184","刘","131","Female","[""坏我"",""坏她"",""好她"",""好我""]","[""弱我"",""弱她"",""强她"",""强我""]","","","","","","","","2","","","","","","","","","SRET","SRET_math_calculate","","key","2","16.666355140186806","640","356","","","","","1+1= ?","2","1","","","","","","","",""
"1875","","1","psychophysics","133","385366","0.0-7.0-5.0-0.30","6","6","6","3","2","5","4","5","5","5","5","0","-1","1","0","1","2","1","1","5","5","5","5","4","4","5","5","4","4","4","4","4","6","6","6","6","6","7","7","7","6","7","7","7","7","3","7","7","1","3","2","5","7","5","6","7","2","7","7","2","5","2","3","3","7","7","7","7","7","7","6","2","6","2","6","1","7","3","7","682985829311709184","刘","131","Female","[""坏我"",""坏她"",""好她"",""好我""]","[""弱我"",""弱她"",""强她"",""强我""]","","","","","","","","1","","","","","","","","","SRET","SRET_math_calculate","","key","1","16.66875000000021","640","356","","","","","10-9= ?","1","1","","","","","","","",""
"2224","","8","psychophysics","134","387594","0.0-7.0-5.0-0.31","6","6","6","3","2","5","4","5","5","5","5","0","-1","1","0","1","2","1","1","5","5","5","5","4","4","5","5","4","4","4","4","4","6","6","6","6","6","7","7","7","6","7","7","7","7","3","7","7","1","3","2","5","7","5","6","7","2","7","7","2","5","2","3","3","7","7","7","7","7","7","6","2","6","2","6","1","7","3","7","682985829311709184","刘","131","Female","[""坏我"",""坏她"",""好她"",""好我""]","[""弱我"",""弱她"",""强她"",""强我""]","","","","","","","","8","","","","","","","","","SRET","SRET_math_calculate","","key","8","16.667424242424506","640","356","","","","","4*2= ?","8","1","","","","","","","",""
"2435","","9","psychophysics","135","390038","0.0-7.0-5.0-0.32","6","6","6","3","2","5","4","5","5","5","5","0","-1","1","0","1","2","1","1","5","5","5","5","4","4","5","5","4","4","4","4","4","6","6","6","6","6","7","7","7","6","7","7","7","7","3","7","7","1","3","2","5","7","5","6","7","2","7","7","2","5","2","3","3","7","7","7","7","7","7","6","2","6","2","6","1","7","3","7","682985829311709184","刘","131","Female","[""坏我"",""坏她"",""好她"",""好我""]","[""弱我"",""弱她"",""强她"",""强我""]","","","","","","","","9","","","","","","","","","SRET","SRET_math_calculate","","key","9","16.666438356164303","640","356","","","","","6+3= ?","9","1","","","","","","","",""
"2259","","3","psychophysics","136","392302","0.0-7.0-5.0-0.33","6","6","6","3","2","5","4","5","5","5","5","0","-1","1","0","1","2","1","1","5","5","5","5","4","4","5","5","4","4","4","4","4","6","6","6","6","6","7","7","7","6","7","7","7","7","3","7","7","1","3","2","5","7","5","6","7","2","7","7","2","5","2","3","3","7","7","7","7","7","7","6","2","6","2","6","1","7","3","7","682985829311709184","刘","131","Female","[""坏我"",""坏她"",""好她"",""好我""]","[""弱我"",""弱她"",""强她"",""强我""]","","","","","","","","3","","","","","","","","","SRET","SRET_math_calculate","","key","3","16.666666666666668","640","356","","","","","9/3= ?","3","1","","","","","","","",""
"1832","","9","psychophysics","137","394139","0.0-7.0-5.0-0.34","6","6","6","3","2","5","4","5","5","5","5","0","-1","1","0","1","2","1","1","5","5","5","5","4","4","5","5","4","4","4","4","4","6","6","6","6","6","7","7","7","6","7","7","7","7","3","7","7","1","3","2","5","7","5","6","7","2","7","7","2","5","2","3","3","7","7","7","7","7","7","6","2","6","2","6","1","7","3","7","682985829311709184","刘","131","Female","[""坏我"",""坏她"",""好她"",""好我""]","[""弱我"",""弱她"",""强她"",""强我""]","","","","","","","","9","","","","","","","","","SRET","SRET_math_calculate","","key","9","16.671559633027094","640","356","","","","","1+8= ?","9","1","","","","","","","",""
"2743","","7","psychophysics","138","396901","0.0-7.0-5.0-0.35","6","6","6","3","2","5","4","5","5","5","5","0","-1","1","0","1","2","1","1","5","5","5","5","4","4","5","5","4","4","4","4","4","6","6","6","6","6","7","7","7","6","7","7","7","7","3","7","7","1","3","2","5","7","5","6","7","2","7","7","2","5","2","3","3","7","7","7","7","7","7","6","2","6","2","6","1","7","3","7","682985829311709184","刘","131","Female","[""坏我"",""坏她"",""好她"",""好我""]","[""弱我"",""弱她"",""强她"",""强我""]","","","","","","","","7","","","","","","","","","SRET","SRET_math_calculate","","key","7","16.667272727272586","640","356","","","","","13-6= ?","7","1","","","","","","","",""
"1942","","3","psychophysics","139","398849","0.0-7.0-5.0-0.36","6","6","6","3","2","5","4","5","5","5","5","0","-1","1","0","1","2","1","1","5","5","5","5","4","4","5","5","4","4","4","4","4","6","6","6","6","6","7","7","7","6","7","7","7","7","3","7","7","1","3","2","5","7","5","6","7","2","7","7","2","5","2","3","3","7","7","7","7","7","7","6","2","6","2","6","1","7","3","7","682985829311709184","刘","131","Female","[""坏我"",""坏她"",""好她"",""好我""]","[""弱我"",""弱她"",""强她"",""强我""]","","","","","","","","3","","","","","","","","","SRET","SRET_math_calculate","","key","3","16.667241379310546","640","356","","","","","2+1= ?","3","1","","","","","","","",""
"1878","","8","psychophysics","140","400732","0.0-7.0-5.0-0.37","6","6","6","3","2","5","4","5","5","5","5","0","-1","1","0","1","2","1","1","5","5","5","5","4","4","5","5","4","4","4","4","4","6","6","6","6","6","7","7","7","6","7","7","7","7","3","7","7","1","3","2","5","7","5","6","7","2","7","7","2","5","2","3","3","7","7","7","7","7","7","6","2","6","2","6","1","7","3","7","682985829311709184","刘","131","Female","[""坏我"",""坏她"",""好她"",""好我""]","[""弱我"",""弱她"",""强她"",""强我""]","","","","","","","","8","","","","","","","","","SRET","SRET_math_calculate","","key","8","16.66696428571439","640","356","","","","","9-1= ?","8","1","","","","","","","",""
"1816","","8","psychophysics","141","402554","0.0-7.0-5.0-0.38","6","6","6","3","2","5","4","5","5","5","5","0","-1","1","0","1","2","1","1","5","5","5","5","4","4","5","5","4","4","4","4","4","6","6","6","6","6","7","7","7","6","7","7","7","7","3","7","7","1","3","2","5","7","5","6","7","2","7","7","2","5","2","3","3","7","7","7","7","7","7","6","2","6","2","6","1","7","3","7","682985829311709184","刘","131","Female","[""坏我"",""坏她"",""好她"",""好我""]","[""弱我"",""弱她"",""强她"",""强我""]","","","","","","","","8","","","","","","","","","SRET","SRET_math_calculate","","key","8","16.669444444444338","640","356","","","","","1+7= ?","8","1","","","","","","","",""
"2007","","7","psychophysics","142","404567","0.0-7.0-5.0-0.39","6","6","6","3","2","5","4","5","5","5","5","0","-1","1","0","1","2","1","1","5","5","5","5","4","4","5","5","4","4","4","4","4","6","6","6","6","6","7","7","7","6","7","7","7","7","3","7","7","1","3","2","5","7","5","6","7","2","7","7","2","5","2","3","3","7","7","7","7","7","7","6","2","6","2","6","1","7","3","7","682985829311709184","刘","131","Female","[""坏我"",""坏她"",""好她"",""好我""]","[""弱我"",""弱她"",""强她"",""强我""]","","","","","","","","7","","","","","","","","","SRET","SRET_math_calculate","","key","7","16.666666666666668","640","356","","","","","21/3= ? ","7","1","","","","","","","",""
