"rt","stimulus","response","trial_type","trial_index","time_elapsed","internal_node_id","swb_1","swb_2","swb_3","swb_4","swb_5","LOT_1","LOT_2","LOT_3","LOT_4","LOT_5","LOT_6","IPC_1","IPC_2","IPC_3","IPC_4","IPC_5","IPC_6","IPC_7","IPC_8","MorIden_1","MorIden_2","MorIden_3","MorIden_4","MorIden_5","MorIden_6","MorIden_7","MorIden_8","MorIden_9","MorIden_10","moralSeImag_1","moralSeImag_2","moralSeImag_3","moralSeImag_4","moralSeImag_5","moralSeImag_6","moralSeImag_7","moralSeImag_8","moralSeImag_9","sde_1","sde_2","sde_3","sde_4","sde_5","sde_6","sde_7","sde_8","sde_9","sde_10","trap2","sde_11","sde_12","sde_13","sde_14","sde_15","sde_16","sde_17","sde_18","sde_19","sde_20","IM_1","IM_2","IM_3","IM_4","IM_5","IM_6","IM_7","IM_8","IM_9","IM_10","IM_11","IM_12","IM_13","IM_14","IM_15","IM_16","IM_17","IM_18","IM_19","IM_20","subj_idx","friend_name","ParticipantID","Sex","Word","Word2","value","success","timeout","failed_images","failed_audio","failed_video","user_agent","responses","item_order","radio_event_ids","radio_event_times","key_event_times","mouse_event_times","straightlining","zigzagging","honeypot","view_history","response_type","key_press","avg_frame_time","center_x","center_y","correct_response","correct","identity","Image","word","condition","task_id","screen_id","time_stamp","person","valence","domain","math","status","duration","question_order","trap2_item"
"6775","
   <p><div style='color:white; font-size: 25px'>您好，欢迎参加本次实验。</div></p>
   <p><div style='color:white; font-size: 25px'>为充分保障您的权利，请确保您已经知晓并同意《参与实验同意书》以及《数据公开知情同意书》。</div></p>
   <p><div style='color:white; font-size: 25px'>如果您未见过上述内容，请咨询实验员。</div></p>
   <p style='color:white; font-size: 25px'>如果您选择继续实验，则表示您已经清楚两份知情同意书的内容并同意。</p>
   <p><div style = ""color: pink;font-size:30px;"">请确保您记得day0的实验编号，您将在本次实验输入该编号，若您忘记，请咨询实验员后作答。</div></p>
   <p><div style = ""color:lightblue;font-size:25px;"">请您尽可能认真地作答，我们将依据您在各问卷和按键任务中的作答质量发放报酬。</div></p>
   <p> <div style = ""color: green""><按空格键至下页></div> </p>
   "," ","html-keyboard-response","0","6780","0.0-0.0","6","6","6","5","3","4","3","4","4","4","4","1","0","1","1","1","1","1","1","5","5","5","5","4","4","4","4","4","4","5","5","5","6","5","6","6","6","7","6","6","2","6","5","3","5","4","5","5","1","3","3","4","3","5","5","5","7","5","5","6","5","5","5","3","5","6","5","6","7","7","7","6","5","6","6","6","6","6","6","763057278428647426","姚","698","Female","[""好我"",""好她"",""坏我"",""坏她""]","[""强我"",""强她"",""弱我"",""弱她""]","","","","","","","","","","","","","","","","","","","","","","","","","","","","","","","","","","","","","","",""
"","","","call-function","1","6784","0.0-1.0-0.0","6","6","6","5","3","4","3","4","4","4","4","1","0","1","1","1","1","1","1","5","5","5","5","4","4","4","4","4","4","5","5","5","6","5","6","6","6","7","6","6","2","6","5","3","5","4","5","5","1","3","3","4","3","5","5","5","7","5","5","6","5","5","5","3","5","6","5","6","7","7","7","6","5","6","6","6","6","6","6","763057278428647426","姚","698","Female","[""好我"",""好她"",""坏我"",""坏她""]","[""强我"",""强她"",""弱我"",""弱她""]","","","","","","","","","","","","","","","","","","","","","","","","","","","","","","","","","","","","","","",""
"17893","","[{""name"":""Sex"",""value"":""1""},{""name"":""friend_name"",""value"":""姚""},{""name"":""ParticipantID"",""value"":""698""}]","survey-html-form","2","24679","0.0-1.0-1.0","6","6","6","5","3","4","3","4","4","4","4","1","0","1","1","1","1","1","1","5","5","5","5","4","4","4","4","4","4","5","5","5","6","5","6","6","6","7","6","6","2","6","5","3","5","4","5","5","1","3","3","4","3","5","5","5","7","5","5","6","5","5","5","3","5","6","5","6","7","7","7","6","5","6","6","6","6","6","6","763057278428647426","姚","698","Female","[""好我"",""好她"",""坏我"",""坏她""]","[""强我"",""强她"",""弱我"",""弱她""]","","","","","","","","","","","","","","","","","","","","","","","","","","","","","","","","","","","","","","",""
"","","","preload","3","25036","0.0-2.0","6","6","6","5","3","4","3","4","4","4","4","1","0","1","1","1","1","1","1","5","5","5","5","4","4","4","4","4","4","5","5","5","6","5","6","6","6","7","6","6","2","6","5","3","5","4","5","5","1","3","3","4","3","5","5","5","7","5","5","6","5","5","5","3","5","6","5","6","7","7","7","6","5","6","6","6","6","6","6","763057278428647426","姚","698","Female","[""好我"",""好她"",""坏我"",""坏她""]","[""强我"",""强她"",""弱我"",""弱她""]","","true","false","[]","[]","[]","","","","","","","","","","","","","","","","","","","","","","","","","","","","","","","","",""
"","","","fullscreen","4","29037","0.0-3.0","6","6","6","5","3","4","3","4","4","4","4","1","0","1","1","1","1","1","1","5","5","5","5","4","4","4","4","4","4","5","5","5","6","5","6","6","6","7","6","6","2","6","5","3","5","4","5","5","1","3","3","4","3","5","5","5","7","5","5","6","5","5","5","3","5","6","5","6","7","7","7","6","5","6","6","6","6","6","6","763057278428647426","姚","698","Female","[""好我"",""好她"",""坏我"",""坏她""]","[""强我"",""强她"",""弱我"",""弱她""]","","true","","","","","{}","","","","","","","","","","","","","","","","","","","","","","","","","","","","","","","",""
"13072.39999961853","","{""Q01"":""6"",""Q02"":""6"",""Q03"":""6"",""Q04"":""5"",""Q05"":""3""}","survey-template","5","42113","0.0-4.0","6","6","6","5","3","4","3","4","4","4","4","1","0","1","1","1","1","1","1","5","5","5","5","4","4","4","4","4","4","5","5","5","6","5","6","6","6","7","6","6","2","6","5","3","5","4","5","5","1","3","3","4","3","5","5","5","7","5","5","6","5","5","5","3","5","6","5","6","7","7","7","6","5","6","6","6","6","6","6","763057278428647426","姚","698","Female","[""好我"",""好她"",""坏我"",""坏她""]","[""强我"",""强她"",""弱我"",""弱她""]","","","","","","","","{""Q01"":""6"",""Q02"":""6"",""Q03"":""6"",""Q04"":""5"",""Q05"":""3""}","[0,1,2,3,4]","[""Q01"",""Q02"",""Q03"",""Q04"",""Q05""]","[4746.599999904633,5744.299999713898,6928.89999961853,9281.39999961853,11598.599999904633]","[]","[4746.599999904633,5744.299999713898,6928.89999961853,9281.39999961853,11598.599999904633,13071.199999809265]","0.6","0.25","0","","","","","","","","","","","","","","","","","","","","","","",""
"21967.300000190735","","{""Q01"":""4"",""Q02"":""3"",""Q03"":""4"",""Q04"":""4"",""Q05"":""4"",""Q06"":""4""}","survey-template","6","64085","0.0-5.0","6","6","6","5","3","4","3","4","4","4","4","1","0","1","1","1","1","1","1","5","5","5","5","4","4","4","4","4","4","5","5","5","6","5","6","6","6","7","6","6","2","6","5","3","5","4","5","5","1","3","3","4","3","5","5","5","7","5","5","6","5","5","5","3","5","6","5","6","7","7","7","6","5","6","6","6","6","6","6","763057278428647426","姚","698","Female","[""好我"",""好她"",""坏我"",""坏她""]","[""强我"",""强她"",""弱我"",""弱她""]","","","","","","","","{""Q01"":""4"",""Q02"":""3"",""Q03"":""4"",""Q04"":""4"",""Q05"":""4"",""Q06"":""4""}","[0,1,2,3,4,5]","[""Q01"",""Q02"",""Q03"",""Q04"",""Q05"",""Q06""]","[3070.0999999046326,10147.700000286102,12154,15040.800000190735,17824.800000190735,21014.099999904633]","[]","[3070.0999999046326,10147.700000286102,12154,15040.800000190735,17824.800000190735,21014.099999904633,21966]","0.5","0.4","0","","","","","","","","","","","","","","","","","","","","","","",""
"16269.099999904633","","{""Q01"":""1"",""Q02"":""0"",""Q03"":""1"",""Q04"":""1"",""Q05"":""1"",""Q06"":""1"",""Q07"":""1"",""Q08"":""1""}","survey-template","7","80358","0.0-6.0","6","6","6","5","3","4","3","4","4","4","4","1","0","1","1","1","1","1","1","5","5","5","5","4","4","4","4","4","4","5","5","5","6","5","6","6","6","7","6","6","2","6","5","3","5","4","5","5","1","3","3","4","3","5","5","5","7","5","5","6","5","5","5","3","5","6","5","6","7","7","7","6","5","6","6","6","6","6","6","763057278428647426","姚","698","Female","[""好我"",""好她"",""坏我"",""坏她""]","[""强我"",""强她"",""弱我"",""弱她""]","","","","","","","","{""Q01"":""1"",""Q02"":""0"",""Q03"":""1"",""Q04"":""1"",""Q05"":""1"",""Q06"":""1"",""Q07"":""1"",""Q08"":""1""}","[0,1,2,3,4,5,6,7]","[""Q01"",""Q02"",""Q03"",""Q04"",""Q05"",""Q06"",""Q07"",""Q08""]","[4032.9000000953674,6096.900000095367,9023.400000095367,10000.5,11252.599999904633,13348.599999904633,14277.099999904633,14997.099999904633]","[]","[4032.9000000953674,6096.900000095367,9023.400000095367,10000.5,11252.599999904633,13348.599999904633,14277.099999904633,14997.099999904633,16267.400000095367]","0.875","0.2857142857142857","0","","","","","","","","","","","","","","","","","","","","","","",""
"44393","","","instructions","8","124749","0.0-7.0","6","6","6","5","3","4","3","4","4","4","4","1","0","1","1","1","1","1","1","5","5","5","5","4","4","4","4","4","4","5","5","5","6","5","6","6","6","7","6","6","2","6","5","3","5","4","5","5","1","3","3","4","3","5","5","5","7","5","5","6","5","5","5","3","5","6","5","6","7","7","7","6","5","6","6","6","6","6","6","763057278428647426","姚","698","Female","[""好我"",""好她"",""坏我"",""坏她""]","[""强我"",""强她"",""弱我"",""弱她""]","","","","","","","","","","","","","","","","","[{""page_index"":0,""viewing_time"":44393}]","","","","","","","","","","","","","","","","","","","","","",""
"105477","","","instructions","9","230232","0.0-8.0-1.0-0.0","6","6","6","5","3","4","3","4","4","4","4","1","0","1","1","1","1","1","1","5","5","5","5","4","4","4","4","4","4","5","5","5","6","5","6","6","6","7","6","6","2","6","5","3","5","4","5","5","1","3","3","4","3","5","5","5","7","5","5","6","5","5","5","3","5","6","5","6","7","7","7","6","5","6","6","6","6","6","6","763057278428647426","姚","698","Female","[""好我"",""好她"",""坏我"",""坏她""]","[""强我"",""强她"",""弱我"",""弱她""]","","","","","","","","","","","","","","","","","[{""page_index"":0,""viewing_time"":13576},{""page_index"":1,""viewing_time"":72733},{""page_index"":2,""viewing_time"":16874},{""page_index"":3,""viewing_time"":2294}]","","","","","","","","","","","","","","","","","","","","","",""
"null","","null","psychophysics","10","232446","0.0-8.0-1.0-1.0-0.0-0.0","6","6","6","5","3","4","3","4","4","4","4","1","0","1","1","1","1","1","1","5","5","5","5","4","4","4","4","4","4","5","5","5","6","5","6","6","6","7","6","6","2","6","5","3","5","4","5","5","1","3","3","4","3","5","5","5","7","5","5","6","5","5","5","3","5","6","5","6","7","7","7","6","5","6","6","6","6","6","6","763057278428647426","姚","698","Female","[""好我"",""好她"",""坏我"",""坏她""]","[""强我"",""强她"",""弱我"",""弱她""]","","","","","","","","null","","","","","","","","","","key","null","16.66717557251904","768","428","j","false","nonmatch","img/square.png","弱她","强她","prac_ALT2_ability","practice_ability","","","","","","","","",""
"null","<span class='add_' style='color:yellow; font-size: 70px;'> 太慢! </span>","null","html-keyboard-response","11","232955","0.0-8.0-1.0-1.0-0.0-1.0","6","6","6","5","3","4","3","4","4","4","4","1","0","1","1","1","1","1","1","5","5","5","5","4","4","4","4","4","4","5","5","5","6","5","6","6","6","7","6","6","2","6","5","3","5","4","5","5","1","3","3","4","3","5","5","5","7","5","5","6","5","5","5","3","5","6","5","6","7","7","7","6","5","6","6","6","6","6","6","763057278428647426","姚","698","Female","[""好我"",""好她"",""坏我"",""坏她""]","[""强我"",""强她"",""弱我"",""弱她""]","","","","","","","","","","","","","","","","","","","","","","","","","","","","","","feedback_test","","","","","","","","",""
"null","","null","psychophysics","12","235179","0.0-8.0-1.0-1.0-0.0-0.1","6","6","6","5","3","4","3","4","4","4","4","1","0","1","1","1","1","1","1","5","5","5","5","4","4","4","4","4","4","5","5","5","6","5","6","6","6","7","6","6","2","6","5","3","5","4","5","5","1","3","3","4","3","5","5","5","7","5","5","6","5","5","5","3","5","6","5","6","7","7","7","6","5","6","6","6","6","6","6","763057278428647426","姚","698","Female","[""好我"",""好她"",""坏我"",""坏她""]","[""强我"",""强她"",""弱我"",""弱她""]","","","","","","","","null","","","","","","","","","","key","null","16.793129770992323","768","428","f","false","match","img/square.png","强她","强她","prac_ALT2_ability","practice_ability","","","","","","","","",""
"null","<span class='add_' style='color:yellow; font-size: 70px;'> 太慢! </span>","null","html-keyboard-response","13","235684","0.0-8.0-1.0-1.0-0.0-1.1","6","6","6","5","3","4","3","4","4","4","4","1","0","1","1","1","1","1","1","5","5","5","5","4","4","4","4","4","4","5","5","5","6","5","6","6","6","7","6","6","2","6","5","3","5","4","5","5","1","3","3","4","3","5","5","5","7","5","5","6","5","5","5","3","5","6","5","6","7","7","7","6","5","6","6","6","6","6","6","763057278428647426","姚","698","Female","[""好我"",""好她"",""坏我"",""坏她""]","[""强我"",""强她"",""弱我"",""弱她""]","","","","","","","","","","","","","","","","","","","","","","","","","","","","","","feedback_test","","","","","","","","",""
"null","","null","psychophysics","14","237906","0.0-8.0-1.0-1.0-0.0-0.2","6","6","6","5","3","4","3","4","4","4","4","1","0","1","1","1","1","1","1","5","5","5","5","4","4","4","4","4","4","5","5","5","6","5","6","6","6","7","6","6","2","6","5","3","5","4","5","5","1","3","3","4","3","5","5","5","7","5","5","6","5","5","5","3","5","6","5","6","7","7","7","6","5","6","6","6","6","6","6","763057278428647426","姚","698","Female","[""好我"",""好她"",""坏我"",""坏她""]","[""强我"",""强她"",""弱我"",""弱她""]","","","","","","","","null","","","","","","","","","","key","null","16.667424242424286","768","428","f","false","match","img/triangle.png","强我","强我","prac_ALT2_ability","practice_ability","","","","","","","","",""
"null","<span class='add_' style='color:yellow; font-size: 70px;'> 太慢! </span>","null","html-keyboard-response","15","238415","0.0-8.0-1.0-1.0-0.0-1.2","6","6","6","5","3","4","3","4","4","4","4","1","0","1","1","1","1","1","1","5","5","5","5","4","4","4","4","4","4","5","5","5","6","5","6","6","6","7","6","6","2","6","5","3","5","4","5","5","1","3","3","4","3","5","5","5","7","5","5","6","5","5","5","3","5","6","5","6","7","7","7","6","5","6","6","6","6","6","6","763057278428647426","姚","698","Female","[""好我"",""好她"",""坏我"",""坏她""]","[""强我"",""强她"",""弱我"",""弱她""]","","","","","","","","","","","","","","","","","","","","","","","","","","","","","","feedback_test","","","","","","","","",""
"932","","j","psychophysics","16","240357","0.0-8.0-1.0-1.0-0.0-0.3","6","6","6","5","3","4","3","4","4","4","4","1","0","1","1","1","1","1","1","5","5","5","5","4","4","4","4","4","4","5","5","5","6","5","6","6","6","7","6","6","2","6","5","3","5","4","5","5","1","3","3","4","3","5","5","5","7","5","5","6","5","5","5","3","5","6","5","6","7","7","7","6","5","6","6","6","6","6","6","763057278428647426","姚","698","Female","[""好我"",""好她"",""坏我"",""坏她""]","[""强我"",""强她"",""弱我"",""弱她""]","","","","","","","","nonmatch","","","","","","","","","","key","j","16.667826086956673","768","428","f","false","match","img/triangle.png","强我","强我","prac_ALT2_ability","practice_ability","","","","","","","","",""
"null","<span style='color:red; font-size: 70px;'>错误! </span>","null","html-keyboard-response","17","240864","0.0-8.0-1.0-1.0-0.0-1.3","6","6","6","5","3","4","3","4","4","4","4","1","0","1","1","1","1","1","1","5","5","5","5","4","4","4","4","4","4","5","5","5","6","5","6","6","6","7","6","6","2","6","5","3","5","4","5","5","1","3","3","4","3","5","5","5","7","5","5","6","5","5","5","3","5","6","5","6","7","7","7","6","5","6","6","6","6","6","6","763057278428647426","姚","698","Female","[""好我"",""好她"",""坏我"",""坏她""]","[""强我"",""强她"",""弱我"",""弱她""]","","","","","","","","","","","","","","","","","","","","","","","","","","","","","","feedback_test","","","","","","","","",""
"1021","","j","psychophysics","18","242889","0.0-8.0-1.0-1.0-0.0-0.4","6","6","6","5","3","4","3","4","4","4","4","1","0","1","1","1","1","1","1","5","5","5","5","4","4","4","4","4","4","5","5","5","6","5","6","6","6","7","6","6","2","6","5","3","5","4","5","5","1","3","3","4","3","5","5","5","7","5","5","6","5","5","5","3","5","6","5","6","7","7","7","6","5","6","6","6","6","6","6","763057278428647426","姚","698","Female","[""好我"",""好她"",""坏我"",""坏她""]","[""强我"",""强她"",""弱我"",""弱她""]","","","","","","","","nonmatch","","","","","","","","","","key","j","16.66750000000005","768","428","j","true","nonmatch","img/triangle.png","弱我","强我","prac_ALT2_ability","practice_ability","","","","","","","","",""
"null","<span style='color:GreenYellow; font-size: 70px;'>正确! </span>","null","html-keyboard-response","19","243396","0.0-8.0-1.0-1.0-0.0-1.4","6","6","6","5","3","4","3","4","4","4","4","1","0","1","1","1","1","1","1","5","5","5","5","4","4","4","4","4","4","5","5","5","6","5","6","6","6","7","6","6","2","6","5","3","5","4","5","5","1","3","3","4","3","5","5","5","7","5","5","6","5","5","5","3","5","6","5","6","7","7","7","6","5","6","6","6","6","6","6","763057278428647426","姚","698","Female","[""好我"",""好她"",""坏我"",""坏她""]","[""强我"",""强她"",""弱我"",""弱她""]","","","","","","","","","","","","","","","","","","","","","","","","","","","","","","feedback_test","","","","","","","","",""
"null","","null","psychophysics","20","245643","0.0-8.0-1.0-1.0-0.0-0.5","6","6","6","5","3","4","3","4","4","4","4","1","0","1","1","1","1","1","1","5","5","5","5","4","4","4","4","4","4","5","5","5","6","5","6","6","6","7","6","6","2","6","5","3","5","4","5","5","1","3","3","4","3","5","5","5","7","5","5","6","5","5","5","3","5","6","5","6","7","7","7","6","5","6","6","6","6","6","6","763057278428647426","姚","698","Female","[""好我"",""好她"",""坏我"",""坏她""]","[""强我"",""强她"",""弱我"",""弱她""]","","","","","","","","null","","","","","","","","","","key","null","16.665909090909047","768","428","j","false","nonmatch","img/hexagon.png","弱我","弱她","prac_ALT2_ability","practice_ability","","","","","","","","",""
"null","<span class='add_' style='color:yellow; font-size: 70px;'> 太慢! </span>","null","html-keyboard-response","21","246146","0.0-8.0-1.0-1.0-0.0-1.5","6","6","6","5","3","4","3","4","4","4","4","1","0","1","1","1","1","1","1","5","5","5","5","4","4","4","4","4","4","5","5","5","6","5","6","6","6","7","6","6","2","6","5","3","5","4","5","5","1","3","3","4","3","5","5","5","7","5","5","6","5","5","5","3","5","6","5","6","7","7","7","6","5","6","6","6","6","6","6","763057278428647426","姚","698","Female","[""好我"",""好她"",""坏我"",""坏她""]","[""强我"",""强她"",""弱我"",""弱她""]","","","","","","","","","","","","","","","","","","","","","","","","","","","","","","feedback_test","","","","","","","","",""
"null","","null","psychophysics","22","248364","0.0-8.0-1.0-1.0-0.0-0.6","6","6","6","5","3","4","3","4","4","4","4","1","0","1","1","1","1","1","1","5","5","5","5","4","4","4","4","4","4","5","5","5","6","5","6","6","6","7","6","6","2","6","5","3","5","4","5","5","1","3","3","4","3","5","5","5","7","5","5","6","5","5","5","3","5","6","5","6","7","7","7","6","5","6","6","6","6","6","6","763057278428647426","姚","698","Female","[""好我"",""好她"",""坏我"",""坏她""]","[""强我"",""强她"",""弱我"",""弱她""]","","","","","","","","null","","","","","","","","","","key","null","16.666412213740593","768","428","f","false","match","img/square.png","强她","强她","prac_ALT2_ability","practice_ability","","","","","","","","",""
"null","<span class='add_' style='color:yellow; font-size: 70px;'> 太慢! </span>","null","html-keyboard-response","23","248867","0.0-8.0-1.0-1.0-0.0-1.6","6","6","6","5","3","4","3","4","4","4","4","1","0","1","1","1","1","1","1","5","5","5","5","4","4","4","4","4","4","5","5","5","6","5","6","6","6","7","6","6","2","6","5","3","5","4","5","5","1","3","3","4","3","5","5","5","7","5","5","6","5","5","5","3","5","6","5","6","7","7","7","6","5","6","6","6","6","6","6","763057278428647426","姚","698","Female","[""好我"",""好她"",""坏我"",""坏她""]","[""强我"",""强她"",""弱我"",""弱她""]","","","","","","","","","","","","","","","","","","","","","","","","","","","","","","feedback_test","","","","","","","","",""
"889","","j","psychophysics","24","250761","0.0-8.0-1.0-1.0-0.0-0.7","6","6","6","5","3","4","3","4","4","4","4","1","0","1","1","1","1","1","1","5","5","5","5","4","4","4","4","4","4","5","5","5","6","5","6","6","6","7","6","6","2","6","5","3","5","4","5","5","1","3","3","4","3","5","5","5","7","5","5","6","5","5","5","3","5","6","5","6","7","7","7","6","5","6","6","6","6","6","6","763057278428647426","姚","698","Female","[""好我"",""好她"",""坏我"",""坏她""]","[""强我"",""强她"",""弱我"",""弱她""]","","","","","","","","nonmatch","","","","","","","","","","key","j","16.665178571428573","768","428","f","false","match","img/triangle.png","强我","强我","prac_ALT2_ability","practice_ability","","","","","","","","",""
"null","<span style='color:red; font-size: 70px;'>错误! </span>","null","html-keyboard-response","25","251263","0.0-8.0-1.0-1.0-0.0-1.7","6","6","6","5","3","4","3","4","4","4","4","1","0","1","1","1","1","1","1","5","5","5","5","4","4","4","4","4","4","5","5","5","6","5","6","6","6","7","6","6","2","6","5","3","5","4","5","5","1","3","3","4","3","5","5","5","7","5","5","6","5","5","5","3","5","6","5","6","7","7","7","6","5","6","6","6","6","6","6","763057278428647426","姚","698","Female","[""好我"",""好她"",""坏我"",""坏她""]","[""强我"",""强她"",""弱我"",""弱她""]","","","","","","","","","","","","","","","","","","","","","","","","","","","","","","feedback_test","","","","","","","","",""
"778","","f","psychophysics","26","253042","0.0-8.0-1.0-1.0-0.0-0.8","6","6","6","5","3","4","3","4","4","4","4","1","0","1","1","1","1","1","1","5","5","5","5","4","4","4","4","4","4","5","5","5","6","5","6","6","6","7","6","6","2","6","5","3","5","4","5","5","1","3","3","4","3","5","5","5","7","5","5","6","5","5","5","3","5","6","5","6","7","7","7","6","5","6","6","6","6","6","6","763057278428647426","姚","698","Female","[""好我"",""好她"",""坏我"",""坏她""]","[""强我"",""强她"",""弱我"",""弱她""]","","","","","","","","match","","","","","","","","","","key","f","16.66857142857154","768","428","j","false","nonmatch","img/circle.png","强我","弱我","prac_ALT2_ability","practice_ability","","","","","","","","",""
"null","<span style='color:red; font-size: 70px;'>错误! </span>","null","html-keyboard-response","27","253550","0.0-8.0-1.0-1.0-0.0-1.8","6","6","6","5","3","4","3","4","4","4","4","1","0","1","1","1","1","1","1","5","5","5","5","4","4","4","4","4","4","5","5","5","6","5","6","6","6","7","6","6","2","6","5","3","5","4","5","5","1","3","3","4","3","5","5","5","7","5","5","6","5","5","5","3","5","6","5","6","7","7","7","6","5","6","6","6","6","6","6","763057278428647426","姚","698","Female","[""好我"",""好她"",""坏我"",""坏她""]","[""强我"",""强她"",""弱我"",""弱她""]","","","","","","","","","","","","","","","","","","","","","","","","","","","","","","feedback_test","","","","","","","","",""
"779","","j","psychophysics","28","255333","0.0-8.0-1.0-1.0-0.0-0.9","6","6","6","5","3","4","3","4","4","4","4","1","0","1","1","1","1","1","1","5","5","5","5","4","4","4","4","4","4","5","5","5","6","5","6","6","6","7","6","6","2","6","5","3","5","4","5","5","1","3","3","4","3","5","5","5","7","5","5","6","5","5","5","3","5","6","5","6","7","7","7","6","5","6","6","6","6","6","6","763057278428647426","姚","698","Female","[""好我"",""好她"",""坏我"",""坏她""]","[""强我"",""强她"",""弱我"",""弱她""]","","","","","","","","nonmatch","","","","","","","","","","key","j","16.66509433962264","768","428","f","false","match","img/square.png","强她","强她","prac_ALT2_ability","practice_ability","","","","","","","","",""
"null","<span style='color:red; font-size: 70px;'>错误! </span>","null","html-keyboard-response","29","255840","0.0-8.0-1.0-1.0-0.0-1.9","6","6","6","5","3","4","3","4","4","4","4","1","0","1","1","1","1","1","1","5","5","5","5","4","4","4","4","4","4","5","5","5","6","5","6","6","6","7","6","6","2","6","5","3","5","4","5","5","1","3","3","4","3","5","5","5","7","5","5","6","5","5","5","3","5","6","5","6","7","7","7","6","5","6","6","6","6","6","6","763057278428647426","姚","698","Female","[""好我"",""好她"",""坏我"",""坏她""]","[""强我"",""强她"",""弱我"",""弱她""]","","","","","","","","","","","","","","","","","","","","","","","","","","","","","","feedback_test","","","","","","","","",""
"503","","f","psychophysics","30","257349","0.0-8.0-1.0-1.0-0.0-0.10","6","6","6","5","3","4","3","4","4","4","4","1","0","1","1","1","1","1","1","5","5","5","5","4","4","4","4","4","4","5","5","5","6","5","6","6","6","7","6","6","2","6","5","3","5","4","5","5","1","3","3","4","3","5","5","5","7","5","5","6","5","5","5","3","5","6","5","6","7","7","7","6","5","6","6","6","6","6","6","763057278428647426","姚","698","Female","[""好我"",""好她"",""坏我"",""坏她""]","[""强我"",""强她"",""弱我"",""弱她""]","","","","","","","","match","","","","","","","","","","key","f","16.667777777777843","768","428","j","false","nonmatch","img/triangle.png","强她","强我","prac_ALT2_ability","practice_ability","","","","","","","","",""
"null","<span style='color:red; font-size: 70px;'>错误! </span>","null","html-keyboard-response","31","257858","0.0-8.0-1.0-1.0-0.0-1.10","6","6","6","5","3","4","3","4","4","4","4","1","0","1","1","1","1","1","1","5","5","5","5","4","4","4","4","4","4","5","5","5","6","5","6","6","6","7","6","6","2","6","5","3","5","4","5","5","1","3","3","4","3","5","5","5","7","5","5","6","5","5","5","3","5","6","5","6","7","7","7","6","5","6","6","6","6","6","6","763057278428647426","姚","698","Female","[""好我"",""好她"",""坏我"",""坏她""]","[""强我"",""强她"",""弱我"",""弱她""]","","","","","","","","","","","","","","","","","","","","","","","","","","","","","","feedback_test","","","","","","","","",""
"796","","j","psychophysics","32","259658","0.0-8.0-1.0-1.0-0.0-0.11","6","6","6","5","3","4","3","4","4","4","4","1","0","1","1","1","1","1","1","5","5","5","5","4","4","4","4","4","4","5","5","5","6","5","6","6","6","7","6","6","2","6","5","3","5","4","5","5","1","3","3","4","3","5","5","5","7","5","5","6","5","5","5","3","5","6","5","6","7","7","7","6","5","6","6","6","6","6","6","763057278428647426","姚","698","Female","[""好我"",""好她"",""坏我"",""坏她""]","[""强我"",""强她"",""弱我"",""弱她""]","","","","","","","","nonmatch","","","","","","","","","","key","j","16.666037735849113","768","428","f","false","match","img/circle.png","弱我","弱我","prac_ALT2_ability","practice_ability","","","","","","","","",""
"null","<span style='color:red; font-size: 70px;'>错误! </span>","null","html-keyboard-response","33","260161","0.0-8.0-1.0-1.0-0.0-1.11","6","6","6","5","3","4","3","4","4","4","4","1","0","1","1","1","1","1","1","5","5","5","5","4","4","4","4","4","4","5","5","5","6","5","6","6","6","7","6","6","2","6","5","3","5","4","5","5","1","3","3","4","3","5","5","5","7","5","5","6","5","5","5","3","5","6","5","6","7","7","7","6","5","6","6","6","6","6","6","763057278428647426","姚","698","Female","[""好我"",""好她"",""坏我"",""坏她""]","[""强我"",""强她"",""弱我"",""弱她""]","","","","","","","","","","","","","","","","","","","","","","","","","","","","","","feedback_test","","","","","","","","",""
"388","","f","psychophysics","34","261551","0.0-8.0-1.0-1.0-0.0-0.12","6","6","6","5","3","4","3","4","4","4","4","1","0","1","1","1","1","1","1","5","5","5","5","4","4","4","4","4","4","5","5","5","6","5","6","6","6","7","6","6","2","6","5","3","5","4","5","5","1","3","3","4","3","5","5","5","7","5","5","6","5","5","5","3","5","6","5","6","7","7","7","6","5","6","6","6","6","6","6","763057278428647426","姚","698","Female","[""好我"",""好她"",""坏我"",""坏她""]","[""强我"",""强她"",""弱我"",""弱她""]","","","","","","","","match","","","","","","","","","","key","f","16.667469879518354","768","428","j","false","nonmatch","img/square.png","弱我","强她","prac_ALT2_ability","practice_ability","","","","","","","","",""
"null","<span style='color:red; font-size: 70px;'>错误! </span>","null","html-keyboard-response","35","262061","0.0-8.0-1.0-1.0-0.0-1.12","6","6","6","5","3","4","3","4","4","4","4","1","0","1","1","1","1","1","1","5","5","5","5","4","4","4","4","4","4","5","5","5","6","5","6","6","6","7","6","6","2","6","5","3","5","4","5","5","1","3","3","4","3","5","5","5","7","5","5","6","5","5","5","3","5","6","5","6","7","7","7","6","5","6","6","6","6","6","6","763057278428647426","姚","698","Female","[""好我"",""好她"",""坏我"",""坏她""]","[""强我"",""强她"",""弱我"",""弱她""]","","","","","","","","","","","","","","","","","","","","","","","","","","","","","","feedback_test","","","","","","","","",""
"308","","j","psychophysics","36","263371","0.0-8.0-1.0-1.0-0.0-0.13","6","6","6","5","3","4","3","4","4","4","4","1","0","1","1","1","1","1","1","5","5","5","5","4","4","4","4","4","4","5","5","5","6","5","6","6","6","7","6","6","2","6","5","3","5","4","5","5","1","3","3","4","3","5","5","5","7","5","5","6","5","5","5","3","5","6","5","6","7","7","7","6","5","6","6","6","6","6","6","763057278428647426","姚","698","Female","[""好我"",""好她"",""坏我"",""坏她""]","[""强我"",""强她"",""弱我"",""弱她""]","","","","","","","","nonmatch","","","","","","","","","","key","j","16.670129870129568","768","428","j","true","nonmatch","img/circle.png","强她","弱我","prac_ALT2_ability","practice_ability","","","","","","","","",""
"null","<span style='color:GreenYellow; font-size: 70px;'>正确! </span>","null","html-keyboard-response","37","263882","0.0-8.0-1.0-1.0-0.0-1.13","6","6","6","5","3","4","3","4","4","4","4","1","0","1","1","1","1","1","1","5","5","5","5","4","4","4","4","4","4","5","5","5","6","5","6","6","6","7","6","6","2","6","5","3","5","4","5","5","1","3","3","4","3","5","5","5","7","5","5","6","5","5","5","3","5","6","5","6","7","7","7","6","5","6","6","6","6","6","6","763057278428647426","姚","698","Female","[""好我"",""好她"",""坏我"",""坏她""]","[""强我"",""强她"",""弱我"",""弱她""]","","","","","","","","","","","","","","","","","","","","","","","","","","","","","","feedback_test","","","","","","","","",""
"884","","f","psychophysics","38","265776","0.0-8.0-1.0-1.0-0.0-0.14","6","6","6","5","3","4","3","4","4","4","4","1","0","1","1","1","1","1","1","5","5","5","5","4","4","4","4","4","4","5","5","5","6","5","6","6","6","7","6","6","2","6","5","3","5","4","5","5","1","3","3","4","3","5","5","5","7","5","5","6","5","5","5","3","5","6","5","6","7","7","7","6","5","6","6","6","6","6","6","763057278428647426","姚","698","Female","[""好我"",""好她"",""坏我"",""坏她""]","[""强我"",""强她"",""弱我"",""弱她""]","","","","","","","","match","","","","","","","","","","key","f","16.66696428571439","768","428","j","false","nonmatch","img/triangle.png","弱她","强我","prac_ALT2_ability","practice_ability","","","","","","","","",""
"null","<span style='color:red; font-size: 70px;'>错误! </span>","null","html-keyboard-response","39","266285","0.0-8.0-1.0-1.0-0.0-1.14","6","6","6","5","3","4","3","4","4","4","4","1","0","1","1","1","1","1","1","5","5","5","5","4","4","4","4","4","4","5","5","5","6","5","6","6","6","7","6","6","2","6","5","3","5","4","5","5","1","3","3","4","3","5","5","5","7","5","5","6","5","5","5","3","5","6","5","6","7","7","7","6","5","6","6","6","6","6","6","763057278428647426","姚","698","Female","[""好我"",""好她"",""坏我"",""坏她""]","[""强我"",""强她"",""弱我"",""弱她""]","","","","","","","","","","","","","","","","","","","","","","","","","","","","","","feedback_test","","","","","","","","",""
"584","","j","psychophysics","40","267871","0.0-8.0-1.0-1.0-0.0-0.15","6","6","6","5","3","4","3","4","4","4","4","1","0","1","1","1","1","1","1","5","5","5","5","4","4","4","4","4","4","5","5","5","6","5","6","6","6","7","6","6","2","6","5","3","5","4","5","5","1","3","3","4","3","5","5","5","7","5","5","6","5","5","5","3","5","6","5","6","7","7","7","6","5","6","6","6","6","6","6","763057278428647426","姚","698","Female","[""好我"",""好她"",""坏我"",""坏她""]","[""强我"",""强她"",""弱我"",""弱她""]","","","","","","","","nonmatch","","","","","","","","","","key","j","16.665957446808264","768","428","f","false","match","img/hexagon.png","弱她","弱她","prac_ALT2_ability","practice_ability","","","","","","","","",""
"null","<span style='color:red; font-size: 70px;'>错误! </span>","null","html-keyboard-response","41","268377","0.0-8.0-1.0-1.0-0.0-1.15","6","6","6","5","3","4","3","4","4","4","4","1","0","1","1","1","1","1","1","5","5","5","5","4","4","4","4","4","4","5","5","5","6","5","6","6","6","7","6","6","2","6","5","3","5","4","5","5","1","3","3","4","3","5","5","5","7","5","5","6","5","5","5","3","5","6","5","6","7","7","7","6","5","6","6","6","6","6","6","763057278428647426","姚","698","Female","[""好我"",""好她"",""坏我"",""坏她""]","[""强我"",""强她"",""弱我"",""弱她""]","","","","","","","","","","","","","","","","","","","","","","","","","","","","","","feedback_test","","","","","","","","",""
"460","","j","psychophysics","42","269838","0.0-8.0-1.0-1.0-0.0-0.16","6","6","6","5","3","4","3","4","4","4","4","1","0","1","1","1","1","1","1","5","5","5","5","4","4","4","4","4","4","5","5","5","6","5","6","6","6","7","6","6","2","6","5","3","5","4","5","5","1","3","3","4","3","5","5","5","7","5","5","6","5","5","5","3","5","6","5","6","7","7","7","6","5","6","6","6","6","6","6","763057278428647426","姚","698","Female","[""好我"",""好她"",""坏我"",""坏她""]","[""强我"",""强她"",""弱我"",""弱她""]","","","","","","","","nonmatch","","","","","","","","","","key","j","16.666279069767306","768","428","j","true","nonmatch","img/circle.png","弱她","弱我","prac_ALT2_ability","practice_ability","","","","","","","","",""
"null","<span style='color:GreenYellow; font-size: 70px;'>正确! </span>","null","html-keyboard-response","43","270346","0.0-8.0-1.0-1.0-0.0-1.16","6","6","6","5","3","4","3","4","4","4","4","1","0","1","1","1","1","1","1","5","5","5","5","4","4","4","4","4","4","5","5","5","6","5","6","6","6","7","6","6","2","6","5","3","5","4","5","5","1","3","3","4","3","5","5","5","7","5","5","6","5","5","5","3","5","6","5","6","7","7","7","6","5","6","6","6","6","6","6","763057278428647426","姚","698","Female","[""好我"",""好她"",""坏我"",""坏她""]","[""强我"",""强她"",""弱我"",""弱她""]","","","","","","","","","","","","","","","","","","","","","","","","","","","","","","feedback_test","","","","","","","","",""
"655","","f","psychophysics","44","272003","0.0-8.0-1.0-1.0-0.0-0.17","6","6","6","5","3","4","3","4","4","4","4","1","0","1","1","1","1","1","1","5","5","5","5","4","4","4","4","4","4","5","5","5","6","5","6","6","6","7","6","6","2","6","5","3","5","4","5","5","1","3","3","4","3","5","5","5","7","5","5","6","5","5","5","3","5","6","5","6","7","7","7","6","5","6","6","6","6","6","6","763057278428647426","姚","698","Female","[""好我"",""好她"",""坏我"",""坏她""]","[""强我"",""强她"",""弱我"",""弱她""]","","","","","","","","match","","","","","","","","","","key","f","16.667346938775747","768","428","j","false","nonmatch","img/hexagon.png","强她","弱她","prac_ALT2_ability","practice_ability","","","","","","","","",""
"null","<span style='color:red; font-size: 70px;'>错误! </span>","null","html-keyboard-response","45","272508","0.0-8.0-1.0-1.0-0.0-1.17","6","6","6","5","3","4","3","4","4","4","4","1","0","1","1","1","1","1","1","5","5","5","5","4","4","4","4","4","4","5","5","5","6","5","6","6","6","7","6","6","2","6","5","3","5","4","5","5","1","3","3","4","3","5","5","5","7","5","5","6","5","5","5","3","5","6","5","6","7","7","7","6","5","6","6","6","6","6","6","763057278428647426","姚","698","Female","[""好我"",""好她"",""坏我"",""坏她""]","[""强我"",""强她"",""弱我"",""弱她""]","","","","","","","","","","","","","","","","","","","","","","","","","","","","","","feedback_test","","","","","","","","",""
"469","","j","psychophysics","46","273980","0.0-8.0-1.0-1.0-0.0-0.18","6","6","6","5","3","4","3","4","4","4","4","1","0","1","1","1","1","1","1","5","5","5","5","4","4","4","4","4","4","5","5","5","6","5","6","6","6","7","6","6","2","6","5","3","5","4","5","5","1","3","3","4","3","5","5","5","7","5","5","6","5","5","5","3","5","6","5","6","7","7","7","6","5","6","6","6","6","6","6","763057278428647426","姚","698","Female","[""好我"",""好她"",""坏我"",""坏她""]","[""强我"",""强她"",""弱我"",""弱她""]","","","","","","","","nonmatch","","","","","","","","","","key","j","16.668965517241514","768","428","j","true","nonmatch","img/hexagon.png","强我","弱她","prac_ALT2_ability","practice_ability","","","","","","","","",""
"null","<span style='color:GreenYellow; font-size: 70px;'>正确! </span>","null","html-keyboard-response","47","274489","0.0-8.0-1.0-1.0-0.0-1.18","6","6","6","5","3","4","3","4","4","4","4","1","0","1","1","1","1","1","1","5","5","5","5","4","4","4","4","4","4","5","5","5","6","5","6","6","6","7","6","6","2","6","5","3","5","4","5","5","1","3","3","4","3","5","5","5","7","5","5","6","5","5","5","3","5","6","5","6","7","7","7","6","5","6","6","6","6","6","6","763057278428647426","姚","698","Female","[""好我"",""好她"",""坏我"",""坏她""]","[""强我"",""强她"",""弱我"",""弱她""]","","","","","","","","","","","","","","","","","","","","","","","","","","","","","","feedback_test","","","","","","","","",""
"467","","j","psychophysics","48","275958","0.0-8.0-1.0-1.0-0.0-0.19","6","6","6","5","3","4","3","4","4","4","4","1","0","1","1","1","1","1","1","5","5","5","5","4","4","4","4","4","4","5","5","5","6","5","6","6","6","7","6","6","2","6","5","3","5","4","5","5","1","3","3","4","3","5","5","5","7","5","5","6","5","5","5","3","5","6","5","6","7","7","7","6","5","6","6","6","6","6","6","763057278428647426","姚","698","Female","[""好我"",""好她"",""坏我"",""坏她""]","[""强我"",""强她"",""弱我"",""弱她""]","","","","","","","","nonmatch","","","","","","","","","","key","j","16.666666666666668","768","428","f","false","match","img/circle.png","弱我","弱我","prac_ALT2_ability","practice_ability","","","","","","","","",""
"null","<span style='color:red; font-size: 70px;'>错误! </span>","null","html-keyboard-response","49","276460","0.0-8.0-1.0-1.0-0.0-1.19","6","6","6","5","3","4","3","4","4","4","4","1","0","1","1","1","1","1","1","5","5","5","5","4","4","4","4","4","4","5","5","5","6","5","6","6","6","7","6","6","2","6","5","3","5","4","5","5","1","3","3","4","3","5","5","5","7","5","5","6","5","5","5","3","5","6","5","6","7","7","7","6","5","6","6","6","6","6","6","763057278428647426","姚","698","Female","[""好我"",""好她"",""坏我"",""坏她""]","[""强我"",""强她"",""弱我"",""弱她""]","","","","","","","","","","","","","","","","","","","","","","","","","","","","","","feedback_test","","","","","","","","",""
"790","","f","psychophysics","50","278254","0.0-8.0-1.0-1.0-0.0-0.20","6","6","6","5","3","4","3","4","4","4","4","1","0","1","1","1","1","1","1","5","5","5","5","4","4","4","4","4","4","5","5","5","6","5","6","6","6","7","6","6","2","6","5","3","5","4","5","5","1","3","3","4","3","5","5","5","7","5","5","6","5","5","5","3","5","6","5","6","7","7","7","6","5","6","6","6","6","6","6","763057278428647426","姚","698","Female","[""好我"",""好她"",""坏我"",""坏她""]","[""强我"",""强她"",""弱我"",""弱她""]","","","","","","","","match","","","","","","","","","","key","f","16.82358490566027","768","428","j","false","nonmatch","img/square.png","强我","强她","prac_ALT2_ability","practice_ability","","","","","","","","",""
"null","<span style='color:red; font-size: 70px;'>错误! </span>","null","html-keyboard-response","51","278760","0.0-8.0-1.0-1.0-0.0-1.20","6","6","6","5","3","4","3","4","4","4","4","1","0","1","1","1","1","1","1","5","5","5","5","4","4","4","4","4","4","5","5","5","6","5","6","6","6","7","6","6","2","6","5","3","5","4","5","5","1","3","3","4","3","5","5","5","7","5","5","6","5","5","5","3","5","6","5","6","7","7","7","6","5","6","6","6","6","6","6","763057278428647426","姚","698","Female","[""好我"",""好她"",""坏我"",""坏她""]","[""强我"",""强她"",""弱我"",""弱她""]","","","","","","","","","","","","","","","","","","","","","","","","","","","","","","feedback_test","","","","","","","","",""
"401","","j","psychophysics","52","280164","0.0-8.0-1.0-1.0-0.0-0.21","6","6","6","5","3","4","3","4","4","4","4","1","0","1","1","1","1","1","1","5","5","5","5","4","4","4","4","4","4","5","5","5","6","5","6","6","6","7","6","6","2","6","5","3","5","4","5","5","1","3","3","4","3","5","5","5","7","5","5","6","5","5","5","3","5","6","5","6","7","7","7","6","5","6","6","6","6","6","6","763057278428647426","姚","698","Female","[""好我"",""好她"",""坏我"",""坏她""]","[""强我"",""强她"",""弱我"",""弱她""]","","","","","","","","nonmatch","","","","","","","","","","key","j","16.666265060240825","768","428","f","false","match","img/hexagon.png","弱她","弱她","prac_ALT2_ability","practice_ability","","","","","","","","",""
"null","<span style='color:red; font-size: 70px;'>错误! </span>","null","html-keyboard-response","53","280667","0.0-8.0-1.0-1.0-0.0-1.21","6","6","6","5","3","4","3","4","4","4","4","1","0","1","1","1","1","1","1","5","5","5","5","4","4","4","4","4","4","5","5","5","6","5","6","6","6","7","6","6","2","6","5","3","5","4","5","5","1","3","3","4","3","5","5","5","7","5","5","6","5","5","5","3","5","6","5","6","7","7","7","6","5","6","6","6","6","6","6","763057278428647426","姚","698","Female","[""好我"",""好她"",""坏我"",""坏她""]","[""强我"",""强她"",""弱我"",""弱她""]","","","","","","","","","","","","","","","","","","","","","","","","","","","","","","feedback_test","","","","","","","","",""
"632","","j","psychophysics","54","282306","0.0-8.0-1.0-1.0-0.0-0.22","6","6","6","5","3","4","3","4","4","4","4","1","0","1","1","1","1","1","1","5","5","5","5","4","4","4","4","4","4","5","5","5","6","5","6","6","6","7","6","6","2","6","5","3","5","4","5","5","1","3","3","4","3","5","5","5","7","5","5","6","5","5","5","3","5","6","5","6","7","7","7","6","5","6","6","6","6","6","6","763057278428647426","姚","698","Female","[""好我"",""好她"",""坏我"",""坏她""]","[""强我"",""强她"",""弱我"",""弱她""]","","","","","","","","nonmatch","","","","","","","","","","key","j","16.664948453608247","768","428","f","false","match","img/hexagon.png","弱她","弱她","prac_ALT2_ability","practice_ability","","","","","","","","",""
"null","<span style='color:red; font-size: 70px;'>错误! </span>","null","html-keyboard-response","55","282810","0.0-8.0-1.0-1.0-0.0-1.22","6","6","6","5","3","4","3","4","4","4","4","1","0","1","1","1","1","1","1","5","5","5","5","4","4","4","4","4","4","5","5","5","6","5","6","6","6","7","6","6","2","6","5","3","5","4","5","5","1","3","3","4","3","5","5","5","7","5","5","6","5","5","5","3","5","6","5","6","7","7","7","6","5","6","6","6","6","6","6","763057278428647426","姚","698","Female","[""好我"",""好她"",""坏我"",""坏她""]","[""强我"",""强她"",""弱我"",""弱她""]","","","","","","","","","","","","","","","","","","","","","","","","","","","","","","feedback_test","","","","","","","","",""
"359","","f","psychophysics","56","284173","0.0-8.0-1.0-1.0-0.0-0.23","6","6","6","5","3","4","3","4","4","4","4","1","0","1","1","1","1","1","1","5","5","5","5","4","4","4","4","4","4","5","5","5","6","5","6","6","6","7","6","6","2","6","5","3","5","4","5","5","1","3","3","4","3","5","5","5","7","5","5","6","5","5","5","3","5","6","5","6","7","7","7","6","5","6","6","6","6","6","6","763057278428647426","姚","698","Female","[""好我"",""好她"",""坏我"",""坏她""]","[""强我"",""强她"",""弱我"",""弱她""]","","","","","","","","match","","","","","","","","","","key","f","16.666666666666668","768","428","f","true","match","img/circle.png","弱我","弱我","prac_ALT2_ability","practice_ability","","","","","","","","",""
"null","<span style='color:GreenYellow; font-size: 70px;'>正确! </span>","null","html-keyboard-response","57","284678","0.0-8.0-1.0-1.0-0.0-1.23","6","6","6","5","3","4","3","4","4","4","4","1","0","1","1","1","1","1","1","5","5","5","5","4","4","4","4","4","4","5","5","5","6","5","6","6","6","7","6","6","2","6","5","3","5","4","5","5","1","3","3","4","3","5","5","5","7","5","5","6","5","5","5","3","5","6","5","6","7","7","7","6","5","6","6","6","6","6","6","763057278428647426","姚","698","Female","[""好我"",""好她"",""坏我"",""坏她""]","[""强我"",""强她"",""弱我"",""弱她""]","","","","","","","","","","","","","","","","","","","","","","","","","","","","","","feedback_test","","","","","","","","",""
"421","","f","psychophysics","58","286103","0.0-8.0-1.0-1.0-0.0-0.24","6","6","6","5","3","4","3","4","4","4","4","1","0","1","1","1","1","1","1","5","5","5","5","4","4","4","4","4","4","5","5","5","6","5","6","6","6","7","6","6","2","6","5","3","5","4","5","5","1","3","3","4","3","5","5","5","7","5","5","6","5","5","5","3","5","6","5","6","7","7","7","6","5","6","6","6","6","6","6","763057278428647426","姚","698","Female","[""好我"",""好她"",""坏我"",""坏她""]","[""强我"",""强她"",""弱我"",""弱她""]","","","","","","","","match","","","","","","","","","","key","f","16.58452380952353","768","428","j","false","nonmatch","img/square.png","弱她","强她","prac_ALT2_ability","practice_ability","","","","","","","","",""
"null","<span style='color:red; font-size: 70px;'>错误! </span>","null","html-keyboard-response","59","286607","0.0-8.0-1.0-1.0-0.0-1.24","6","6","6","5","3","4","3","4","4","4","4","1","0","1","1","1","1","1","1","5","5","5","5","4","4","4","4","4","4","5","5","5","6","5","6","6","6","7","6","6","2","6","5","3","5","4","5","5","1","3","3","4","3","5","5","5","7","5","5","6","5","5","5","3","5","6","5","6","7","7","7","6","5","6","6","6","6","6","6","763057278428647426","姚","698","Female","[""好我"",""好她"",""坏我"",""坏她""]","[""强我"",""强她"",""弱我"",""弱她""]","","","","","","","","","","","","","","","","","","","","","","","","","","","","","","feedback_test","","","","","","","","",""
"250","","j","psychophysics","60","287863","0.0-8.0-1.0-1.0-0.0-0.25","6","6","6","5","3","4","3","4","4","4","4","1","0","1","1","1","1","1","1","5","5","5","5","4","4","4","4","4","4","5","5","5","6","5","6","6","6","7","6","6","2","6","5","3","5","4","5","5","1","3","3","4","3","5","5","5","7","5","5","6","5","5","5","3","5","6","5","6","7","7","7","6","5","6","6","6","6","6","6","763057278428647426","姚","698","Female","[""好我"",""好她"",""坏我"",""坏她""]","[""强我"",""强她"",""弱我"",""弱她""]","","","","","","","","nonmatch","","","","","","","","","","key","j","16.66621621621606","768","428","f","false","match","img/hexagon.png","弱她","弱她","prac_ALT2_ability","practice_ability","","","","","","","","",""
"null","<span style='color:red; font-size: 70px;'>错误! </span>","null","html-keyboard-response","61","288367","0.0-8.0-1.0-1.0-0.0-1.25","6","6","6","5","3","4","3","4","4","4","4","1","0","1","1","1","1","1","1","5","5","5","5","4","4","4","4","4","4","5","5","5","6","5","6","6","6","7","6","6","2","6","5","3","5","4","5","5","1","3","3","4","3","5","5","5","7","5","5","6","5","5","5","3","5","6","5","6","7","7","7","6","5","6","6","6","6","6","6","763057278428647426","姚","698","Female","[""好我"",""好她"",""坏我"",""坏她""]","[""强我"",""强她"",""弱我"",""弱她""]","","","","","","","","","","","","","","","","","","","","","","","","","","","","","","feedback_test","","","","","","","","",""
"291","","f","psychophysics","62","289661","0.0-8.0-1.0-1.0-0.0-0.26","6","6","6","5","3","4","3","4","4","4","4","1","0","1","1","1","1","1","1","5","5","5","5","4","4","4","4","4","4","5","5","5","6","5","6","6","6","7","6","6","2","6","5","3","5","4","5","5","1","3","3","4","3","5","5","5","7","5","5","6","5","5","5","3","5","6","5","6","7","7","7","6","5","6","6","6","6","6","6","763057278428647426","姚","698","Female","[""好我"",""好她"",""坏我"",""坏她""]","[""强我"",""强她"",""弱我"",""弱她""]","","","","","","","","match","","","","","","","","","","key","f","16.66710526315805","768","428","j","false","nonmatch","img/square.png","强我","强她","prac_ALT2_ability","practice_ability","","","","","","","","",""
"null","<span style='color:red; font-size: 70px;'>错误! </span>","null","html-keyboard-response","63","290167","0.0-8.0-1.0-1.0-0.0-1.26","6","6","6","5","3","4","3","4","4","4","4","1","0","1","1","1","1","1","1","5","5","5","5","4","4","4","4","4","4","5","5","5","6","5","6","6","6","7","6","6","2","6","5","3","5","4","5","5","1","3","3","4","3","5","5","5","7","5","5","6","5","5","5","3","5","6","5","6","7","7","7","6","5","6","6","6","6","6","6","763057278428647426","姚","698","Female","[""好我"",""好她"",""坏我"",""坏她""]","[""强我"",""强她"",""弱我"",""弱她""]","","","","","","","","","","","","","","","","","","","","","","","","","","","","","","feedback_test","","","","","","","","",""
"258","","f","psychophysics","64","291435","0.0-8.0-1.0-1.0-0.0-0.27","6","6","6","5","3","4","3","4","4","4","4","1","0","1","1","1","1","1","1","5","5","5","5","4","4","4","4","4","4","5","5","5","6","5","6","6","6","7","6","6","2","6","5","3","5","4","5","5","1","3","3","4","3","5","5","5","7","5","5","6","5","5","5","3","5","6","5","6","7","7","7","6","5","6","6","6","6","6","6","763057278428647426","姚","698","Female","[""好我"",""好她"",""坏我"",""坏她""]","[""强我"",""强她"",""弱我"",""弱她""]","","","","","","","","match","","","","","","","","","","key","f","16.665333333333646","768","428","f","true","match","img/triangle.png","强我","强我","prac_ALT2_ability","practice_ability","","","","","","","","",""
"null","<span style='color:GreenYellow; font-size: 70px;'>正确! </span>","null","html-keyboard-response","65","291937","0.0-8.0-1.0-1.0-0.0-1.27","6","6","6","5","3","4","3","4","4","4","4","1","0","1","1","1","1","1","1","5","5","5","5","4","4","4","4","4","4","5","5","5","6","5","6","6","6","7","6","6","2","6","5","3","5","4","5","5","1","3","3","4","3","5","5","5","7","5","5","6","5","5","5","3","5","6","5","6","7","7","7","6","5","6","6","6","6","6","6","763057278428647426","姚","698","Female","[""好我"",""好她"",""坏我"",""坏她""]","[""强我"",""强她"",""弱我"",""弱她""]","","","","","","","","","","","","","","","","","","","","","","","","","","","","","","feedback_test","","","","","","","","",""
"750","","f","psychophysics","66","293690","0.0-8.0-1.0-1.0-0.0-0.28","6","6","6","5","3","4","3","4","4","4","4","1","0","1","1","1","1","1","1","5","5","5","5","4","4","4","4","4","4","5","5","5","6","5","6","6","6","7","6","6","2","6","5","3","5","4","5","5","1","3","3","4","3","5","5","5","7","5","5","6","5","5","5","3","5","6","5","6","7","7","7","6","5","6","6","6","6","6","6","763057278428647426","姚","698","Female","[""好我"",""好她"",""坏我"",""坏她""]","[""强我"",""强她"",""弱我"",""弱她""]","","","","","","","","match","","","","","","","","","","key","f","16.6663461538466","768","428","f","true","match","img/hexagon.png","弱她","弱她","prac_ALT2_ability","practice_ability","","","","","","","","",""
"null","<span style='color:GreenYellow; font-size: 70px;'>正确! </span>","null","html-keyboard-response","67","294196","0.0-8.0-1.0-1.0-0.0-1.28","6","6","6","5","3","4","3","4","4","4","4","1","0","1","1","1","1","1","1","5","5","5","5","4","4","4","4","4","4","5","5","5","6","5","6","6","6","7","6","6","2","6","5","3","5","4","5","5","1","3","3","4","3","5","5","5","7","5","5","6","5","5","5","3","5","6","5","6","7","7","7","6","5","6","6","6","6","6","6","763057278428647426","姚","698","Female","[""好我"",""好她"",""坏我"",""坏她""]","[""强我"",""强她"",""弱我"",""弱她""]","","","","","","","","","","","","","","","","","","","","","","","","","","","","","","feedback_test","","","","","","","","",""
"392","","f","psychophysics","68","295595","0.0-8.0-1.0-1.0-0.0-0.29","6","6","6","5","3","4","3","4","4","4","4","1","0","1","1","1","1","1","1","5","5","5","5","4","4","4","4","4","4","5","5","5","6","5","6","6","6","7","6","6","2","6","5","3","5","4","5","5","1","3","3","4","3","5","5","5","7","5","5","6","5","5","5","3","5","6","5","6","7","7","7","6","5","6","6","6","6","6","6","763057278428647426","姚","698","Female","[""好我"",""好她"",""坏我"",""坏她""]","[""强我"",""强她"",""弱我"",""弱她""]","","","","","","","","match","","","","","","","","","","key","f","16.66585365853701","768","428","f","true","match","img/square.png","强她","强她","prac_ALT2_ability","practice_ability","","","","","","","","",""
"null","<span style='color:GreenYellow; font-size: 70px;'>正确! </span>","null","html-keyboard-response","69","296102","0.0-8.0-1.0-1.0-0.0-1.29","6","6","6","5","3","4","3","4","4","4","4","1","0","1","1","1","1","1","1","5","5","5","5","4","4","4","4","4","4","5","5","5","6","5","6","6","6","7","6","6","2","6","5","3","5","4","5","5","1","3","3","4","3","5","5","5","7","5","5","6","5","5","5","3","5","6","5","6","7","7","7","6","5","6","6","6","6","6","6","763057278428647426","姚","698","Female","[""好我"",""好她"",""坏我"",""坏她""]","[""强我"",""强她"",""弱我"",""弱她""]","","","","","","","","","","","","","","","","","","","","","","","","","","","","","","feedback_test","","","","","","","","",""
"478","","f","psychophysics","70","297589","0.0-8.0-1.0-1.0-0.0-0.30","6","6","6","5","3","4","3","4","4","4","4","1","0","1","1","1","1","1","1","5","5","5","5","4","4","4","4","4","4","5","5","5","6","5","6","6","6","7","6","6","2","6","5","3","5","4","5","5","1","3","3","4","3","5","5","5","7","5","5","6","5","5","5","3","5","6","5","6","7","7","7","6","5","6","6","6","6","6","6","763057278428647426","姚","698","Female","[""好我"",""好她"",""坏我"",""坏她""]","[""强我"",""强她"",""弱我"",""弱她""]","","","","","","","","match","","","","","","","","","","key","f","16.667045454545587","768","428","j","false","nonmatch","img/hexagon.png","强她","弱她","prac_ALT2_ability","practice_ability","","","","","","","","",""
"null","<span style='color:red; font-size: 70px;'>错误! </span>","null","html-keyboard-response","71","298092","0.0-8.0-1.0-1.0-0.0-1.30","6","6","6","5","3","4","3","4","4","4","4","1","0","1","1","1","1","1","1","5","5","5","5","4","4","4","4","4","4","5","5","5","6","5","6","6","6","7","6","6","2","6","5","3","5","4","5","5","1","3","3","4","3","5","5","5","7","5","5","6","5","5","5","3","5","6","5","6","7","7","7","6","5","6","6","6","6","6","6","763057278428647426","姚","698","Female","[""好我"",""好她"",""坏我"",""坏她""]","[""强我"",""强她"",""弱我"",""弱她""]","","","","","","","","","","","","","","","","","","","","","","","","","","","","","","feedback_test","","","","","","","","",""
"379","","j","psychophysics","72","299474","0.0-8.0-1.0-1.0-0.0-0.31","6","6","6","5","3","4","3","4","4","4","4","1","0","1","1","1","1","1","1","5","5","5","5","4","4","4","4","4","4","5","5","5","6","5","6","6","6","7","6","6","2","6","5","3","5","4","5","5","1","3","3","4","3","5","5","5","7","5","5","6","5","5","5","3","5","6","5","6","7","7","7","6","5","6","6","6","6","6","6","763057278428647426","姚","698","Female","[""好我"",""好她"",""坏我"",""坏她""]","[""强我"",""强她"",""弱我"",""弱她""]","","","","","","","","nonmatch","","","","","","","","","","key","j","16.664634146341463","768","428","j","true","nonmatch","img/hexagon.png","弱我","弱她","prac_ALT2_ability","practice_ability","","","","","","","","",""
"null","<span style='color:GreenYellow; font-size: 70px;'>正确! </span>","null","html-keyboard-response","73","299982","0.0-8.0-1.0-1.0-0.0-1.31","6","6","6","5","3","4","3","4","4","4","4","1","0","1","1","1","1","1","1","5","5","5","5","4","4","4","4","4","4","5","5","5","6","5","6","6","6","7","6","6","2","6","5","3","5","4","5","5","1","3","3","4","3","5","5","5","7","5","5","6","5","5","5","3","5","6","5","6","7","7","7","6","5","6","6","6","6","6","6","763057278428647426","姚","698","Female","[""好我"",""好她"",""坏我"",""坏她""]","[""强我"",""强她"",""弱我"",""弱她""]","","","","","","","","","","","","","","","","","","","","","","","","","","","","","","feedback_test","","","","","","","","",""
"333","","j","psychophysics","74","301320","0.0-8.0-1.0-1.0-0.0-0.32","6","6","6","5","3","4","3","4","4","4","4","1","0","1","1","1","1","1","1","5","5","5","5","4","4","4","4","4","4","5","5","5","6","5","6","6","6","7","6","6","2","6","5","3","5","4","5","5","1","3","3","4","3","5","5","5","7","5","5","6","5","5","5","3","5","6","5","6","7","7","7","6","5","6","6","6","6","6","6","763057278428647426","姚","698","Female","[""好我"",""好她"",""坏我"",""坏她""]","[""强我"",""强她"",""弱我"",""弱她""]","","","","","","","","nonmatch","","","","","","","","","","key","j","16.66582278481057","768","428","f","false","match","img/square.png","强她","强她","prac_ALT2_ability","practice_ability","","","","","","","","",""
"null","<span style='color:red; font-size: 70px;'>错误! </span>","null","html-keyboard-response","75","301822","0.0-8.0-1.0-1.0-0.0-1.32","6","6","6","5","3","4","3","4","4","4","4","1","0","1","1","1","1","1","1","5","5","5","5","4","4","4","4","4","4","5","5","5","6","5","6","6","6","7","6","6","2","6","5","3","5","4","5","5","1","3","3","4","3","5","5","5","7","5","5","6","5","5","5","3","5","6","5","6","7","7","7","6","5","6","6","6","6","6","6","763057278428647426","姚","698","Female","[""好我"",""好她"",""坏我"",""坏她""]","[""强我"",""强她"",""弱我"",""弱她""]","","","","","","","","","","","","","","","","","","","","","","","","","","","","","","feedback_test","","","","","","","","",""
"259","","f","psychophysics","76","303083","0.0-8.0-1.0-1.0-0.0-0.33","6","6","6","5","3","4","3","4","4","4","4","1","0","1","1","1","1","1","1","5","5","5","5","4","4","4","4","4","4","5","5","5","6","5","6","6","6","7","6","6","2","6","5","3","5","4","5","5","1","3","3","4","3","5","5","5","7","5","5","6","5","5","5","3","5","6","5","6","7","7","7","6","5","6","6","6","6","6","6","763057278428647426","姚","698","Female","[""好我"",""好她"",""坏我"",""坏她""]","[""强我"",""强她"",""弱我"",""弱她""]","","","","","","","","match","","","","","","","","","","key","f","16.666216216216846","768","428","j","false","nonmatch","img/circle.png","强我","弱我","prac_ALT2_ability","practice_ability","","","","","","","","",""
"null","<span style='color:red; font-size: 70px;'>错误! </span>","null","html-keyboard-response","77","303590","0.0-8.0-1.0-1.0-0.0-1.33","6","6","6","5","3","4","3","4","4","4","4","1","0","1","1","1","1","1","1","5","5","5","5","4","4","4","4","4","4","5","5","5","6","5","6","6","6","7","6","6","2","6","5","3","5","4","5","5","1","3","3","4","3","5","5","5","7","5","5","6","5","5","5","3","5","6","5","6","7","7","7","6","5","6","6","6","6","6","6","763057278428647426","姚","698","Female","[""好我"",""好她"",""坏我"",""坏她""]","[""强我"",""强她"",""弱我"",""弱她""]","","","","","","","","","","","","","","","","","","","","","","","","","","","","","","feedback_test","","","","","","","","",""
"258","","j","psychophysics","78","304854","0.0-8.0-1.0-1.0-0.0-0.34","6","6","6","5","3","4","3","4","4","4","4","1","0","1","1","1","1","1","1","5","5","5","5","4","4","4","4","4","4","5","5","5","6","5","6","6","6","7","6","6","2","6","5","3","5","4","5","5","1","3","3","4","3","5","5","5","7","5","5","6","5","5","5","3","5","6","5","6","7","7","7","6","5","6","6","6","6","6","6","763057278428647426","姚","698","Female","[""好我"",""好她"",""坏我"",""坏她""]","[""强我"",""强她"",""弱我"",""弱她""]","","","","","","","","nonmatch","","","","","","","","","","key","j","16.664864864864235","768","428","j","true","nonmatch","img/hexagon.png","强我","弱她","prac_ALT2_ability","practice_ability","","","","","","","","",""
"null","<span style='color:GreenYellow; font-size: 70px;'>正确! </span>","null","html-keyboard-response","79","305356","0.0-8.0-1.0-1.0-0.0-1.34","6","6","6","5","3","4","3","4","4","4","4","1","0","1","1","1","1","1","1","5","5","5","5","4","4","4","4","4","4","5","5","5","6","5","6","6","6","7","6","6","2","6","5","3","5","4","5","5","1","3","3","4","3","5","5","5","7","5","5","6","5","5","5","3","5","6","5","6","7","7","7","6","5","6","6","6","6","6","6","763057278428647426","姚","698","Female","[""好我"",""好她"",""坏我"",""坏她""]","[""强我"",""强她"",""弱我"",""弱她""]","","","","","","","","","","","","","","","","","","","","","","","","","","","","","","feedback_test","","","","","","","","",""
"305","","j","psychophysics","80","306669","0.0-8.0-1.0-1.0-0.0-0.35","6","6","6","5","3","4","3","4","4","4","4","1","0","1","1","1","1","1","1","5","5","5","5","4","4","4","4","4","4","5","5","5","6","5","6","6","6","7","6","6","2","6","5","3","5","4","5","5","1","3","3","4","3","5","5","5","7","5","5","6","5","5","5","3","5","6","5","6","7","7","7","6","5","6","6","6","6","6","6","763057278428647426","姚","698","Female","[""好我"",""好她"",""坏我"",""坏她""]","[""强我"",""强她"",""弱我"",""弱她""]","","","","","","","","nonmatch","","","","","","","","","","key","j","16.666233766233614","768","428","f","false","match","img/hexagon.png","弱她","弱她","prac_ALT2_ability","practice_ability","","","","","","","","",""
"null","<span style='color:red; font-size: 70px;'>错误! </span>","null","html-keyboard-response","81","307172","0.0-8.0-1.0-1.0-0.0-1.35","6","6","6","5","3","4","3","4","4","4","4","1","0","1","1","1","1","1","1","5","5","5","5","4","4","4","4","4","4","5","5","5","6","5","6","6","6","7","6","6","2","6","5","3","5","4","5","5","1","3","3","4","3","5","5","5","7","5","5","6","5","5","5","3","5","6","5","6","7","7","7","6","5","6","6","6","6","6","6","763057278428647426","姚","698","Female","[""好我"",""好她"",""坏我"",""坏她""]","[""强我"",""强她"",""弱我"",""弱她""]","","","","","","","","","","","","","","","","","","","","","","","","","","","","","","feedback_test","","","","","","","","",""
"263","","f","psychophysics","82","308439","0.0-8.0-1.0-1.0-0.0-0.36","6","6","6","5","3","4","3","4","4","4","4","1","0","1","1","1","1","1","1","5","5","5","5","4","4","4","4","4","4","5","5","5","6","5","6","6","6","7","6","6","2","6","5","3","5","4","5","5","1","3","3","4","3","5","5","5","7","5","5","6","5","5","5","3","5","6","5","6","7","7","7","6","5","6","6","6","6","6","6","763057278428647426","姚","698","Female","[""好我"",""好她"",""坏我"",""坏她""]","[""强我"",""强她"",""弱我"",""弱她""]","","","","","","","","match","","","","","","","","","","key","f","16.666666666666668","768","428","j","false","nonmatch","img/triangle.png","强她","强我","prac_ALT2_ability","practice_ability","","","","","","","","",""
"null","<span style='color:red; font-size: 70px;'>错误! </span>","null","html-keyboard-response","83","308942","0.0-8.0-1.0-1.0-0.0-1.36","6","6","6","5","3","4","3","4","4","4","4","1","0","1","1","1","1","1","1","5","5","5","5","4","4","4","4","4","4","5","5","5","6","5","6","6","6","7","6","6","2","6","5","3","5","4","5","5","1","3","3","4","3","5","5","5","7","5","5","6","5","5","5","3","5","6","5","6","7","7","7","6","5","6","6","6","6","6","6","763057278428647426","姚","698","Female","[""好我"",""好她"",""坏我"",""坏她""]","[""强我"",""强她"",""弱我"",""弱她""]","","","","","","","","","","","","","","","","","","","","","","","","","","","","","","feedback_test","","","","","","","","",""
"138","","j","psychophysics","84","310085","0.0-8.0-1.0-1.0-0.0-0.37","6","6","6","5","3","4","3","4","4","4","4","1","0","1","1","1","1","1","1","5","5","5","5","4","4","4","4","4","4","5","5","5","6","5","6","6","6","7","6","6","2","6","5","3","5","4","5","5","1","3","3","4","3","5","5","5","7","5","5","6","5","5","5","3","5","6","5","6","7","7","7","6","5","6","6","6","6","6","6","763057278428647426","姚","698","Female","[""好我"",""好她"",""坏我"",""坏她""]","[""强我"",""强她"",""弱我"",""弱她""]","","","","","","","","nonmatch","","","","","","","","","","key","j","16.916417910448107","768","428","f","false","match","img/circle.png","弱我","弱我","prac_ALT2_ability","practice_ability","","","","","","","","",""
"null","<span style='color:yellow; font-size: 70px;'>过快! </span>","null","html-keyboard-response","85","310592","0.0-8.0-1.0-1.0-0.0-1.37","6","6","6","5","3","4","3","4","4","4","4","1","0","1","1","1","1","1","1","5","5","5","5","4","4","4","4","4","4","5","5","5","6","5","6","6","6","7","6","6","2","6","5","3","5","4","5","5","1","3","3","4","3","5","5","5","7","5","5","6","5","5","5","3","5","6","5","6","7","7","7","6","5","6","6","6","6","6","6","763057278428647426","姚","698","Female","[""好我"",""好她"",""坏我"",""坏她""]","[""强我"",""强她"",""弱我"",""弱她""]","","","","","","","","","","","","","","","","","","","","","","","","","","","","","","feedback_test","","","","","","","","",""
"455","","j","psychophysics","86","312052","0.0-8.0-1.0-1.0-0.0-0.38","6","6","6","5","3","4","3","4","4","4","4","1","0","1","1","1","1","1","1","5","5","5","5","4","4","4","4","4","4","5","5","5","6","5","6","6","6","7","6","6","2","6","5","3","5","4","5","5","1","3","3","4","3","5","5","5","7","5","5","6","5","5","5","3","5","6","5","6","7","7","7","6","5","6","6","6","6","6","6","763057278428647426","姚","698","Female","[""好我"",""好她"",""坏我"",""坏她""]","[""强我"",""强她"",""弱我"",""弱她""]","","","","","","","","nonmatch","","","","","","","","","","key","j","16.665517241378907","768","428","j","true","nonmatch","img/circle.png","强她","弱我","prac_ALT2_ability","practice_ability","","","","","","","","",""
"null","<span style='color:GreenYellow; font-size: 70px;'>正确! </span>","null","html-keyboard-response","87","312555","0.0-8.0-1.0-1.0-0.0-1.38","6","6","6","5","3","4","3","4","4","4","4","1","0","1","1","1","1","1","1","5","5","5","5","4","4","4","4","4","4","5","5","5","6","5","6","6","6","7","6","6","2","6","5","3","5","4","5","5","1","3","3","4","3","5","5","5","7","5","5","6","5","5","5","3","5","6","5","6","7","7","7","6","5","6","6","6","6","6","6","763057278428647426","姚","698","Female","[""好我"",""好她"",""坏我"",""坏她""]","[""强我"",""强她"",""弱我"",""弱她""]","","","","","","","","","","","","","","","","","","","","","","","","","","","","","","feedback_test","","","","","","","","",""
"351","","f","psychophysics","88","313912","0.0-8.0-1.0-1.0-0.0-0.39","6","6","6","5","3","4","3","4","4","4","4","1","0","1","1","1","1","1","1","5","5","5","5","4","4","4","4","4","4","5","5","5","6","5","6","6","6","7","6","6","2","6","5","3","5","4","5","5","1","3","3","4","3","5","5","5","7","5","5","6","5","5","5","3","5","6","5","6","7","7","7","6","5","6","6","6","6","6","6","763057278428647426","姚","698","Female","[""好我"",""好她"",""坏我"",""坏她""]","[""强我"",""强她"",""弱我"",""弱她""]","","","","","","","","match","","","","","","","","","","key","f","16.665000000000145","768","428","f","true","match","img/circle.png","弱我","弱我","prac_ALT2_ability","practice_ability","","","","","","","","",""
"null","<span style='color:GreenYellow; font-size: 70px;'>正确! </span>","null","html-keyboard-response","89","314419","0.0-8.0-1.0-1.0-0.0-1.39","6","6","6","5","3","4","3","4","4","4","4","1","0","1","1","1","1","1","1","5","5","5","5","4","4","4","4","4","4","5","5","5","6","5","6","6","6","7","6","6","2","6","5","3","5","4","5","5","1","3","3","4","3","5","5","5","7","5","5","6","5","5","5","3","5","6","5","6","7","7","7","6","5","6","6","6","6","6","6","763057278428647426","姚","698","Female","[""好我"",""好她"",""坏我"",""坏她""]","[""强我"",""强她"",""弱我"",""弱她""]","","","","","","","","","","","","","","","","","","","","","","","","","","","","","","feedback_test","","","","","","","","",""
"276","","j","psychophysics","90","315698","0.0-8.0-1.0-1.0-0.0-0.40","6","6","6","5","3","4","3","4","4","4","4","1","0","1","1","1","1","1","1","5","5","5","5","4","4","4","4","4","4","5","5","5","6","5","6","6","6","7","6","6","2","6","5","3","5","4","5","5","1","3","3","4","3","5","5","5","7","5","5","6","5","5","5","3","5","6","5","6","7","7","7","6","5","6","6","6","6","6","6","763057278428647426","姚","698","Female","[""好我"",""好她"",""坏我"",""坏她""]","[""强我"",""强她"",""弱我"",""弱她""]","","","","","","","","nonmatch","","","","","","","","","","key","j","16.666666666666668","768","428","j","true","nonmatch","img/square.png","弱我","强她","prac_ALT2_ability","practice_ability","","","","","","","","",""
"null","<span style='color:GreenYellow; font-size: 70px;'>正确! </span>","null","html-keyboard-response","91","316205","0.0-8.0-1.0-1.0-0.0-1.40","6","6","6","5","3","4","3","4","4","4","4","1","0","1","1","1","1","1","1","5","5","5","5","4","4","4","4","4","4","5","5","5","6","5","6","6","6","7","6","6","2","6","5","3","5","4","5","5","1","3","3","4","3","5","5","5","7","5","5","6","5","5","5","3","5","6","5","6","7","7","7","6","5","6","6","6","6","6","6","763057278428647426","姚","698","Female","[""好我"",""好她"",""坏我"",""坏她""]","[""强我"",""强她"",""弱我"",""弱她""]","","","","","","","","","","","","","","","","","","","","","","","","","","","","","","feedback_test","","","","","","","","",""
"268","","f","psychophysics","92","317477","0.0-8.0-1.0-1.0-0.0-0.41","6","6","6","5","3","4","3","4","4","4","4","1","0","1","1","1","1","1","1","5","5","5","5","4","4","4","4","4","4","5","5","5","6","5","6","6","6","7","6","6","2","6","5","3","5","4","5","5","1","3","3","4","3","5","5","5","7","5","5","6","5","5","5","3","5","6","5","6","7","7","7","6","5","6","6","6","6","6","6","763057278428647426","姚","698","Female","[""好我"",""好她"",""坏我"",""坏她""]","[""强我"",""强她"",""弱我"",""弱她""]","","","","","","","","match","","","","","","","","","","key","f","16.66799999999969","768","428","j","false","nonmatch","img/triangle.png","弱她","强我","prac_ALT2_ability","practice_ability","","","","","","","","",""
"null","<span style='color:red; font-size: 70px;'>错误! </span>","null","html-keyboard-response","93","317981","0.0-8.0-1.0-1.0-0.0-1.41","6","6","6","5","3","4","3","4","4","4","4","1","0","1","1","1","1","1","1","5","5","5","5","4","4","4","4","4","4","5","5","5","6","5","6","6","6","7","6","6","2","6","5","3","5","4","5","5","1","3","3","4","3","5","5","5","7","5","5","6","5","5","5","3","5","6","5","6","7","7","7","6","5","6","6","6","6","6","6","763057278428647426","姚","698","Female","[""好我"",""好她"",""坏我"",""坏她""]","[""强我"",""强她"",""弱我"",""弱她""]","","","","","","","","","","","","","","","","","","","","","","","","","","","","","","feedback_test","","","","","","","","",""
"290","","j","psychophysics","94","319278","0.0-8.0-1.0-1.0-0.0-0.42","6","6","6","5","3","4","3","4","4","4","4","1","0","1","1","1","1","1","1","5","5","5","5","4","4","4","4","4","4","5","5","5","6","5","6","6","6","7","6","6","2","6","5","3","5","4","5","5","1","3","3","4","3","5","5","5","7","5","5","6","5","5","5","3","5","6","5","6","7","7","7","6","5","6","6","6","6","6","6","763057278428647426","姚","698","Female","[""好我"",""好她"",""坏我"",""坏她""]","[""强我"",""强她"",""弱我"",""弱她""]","","","","","","","","nonmatch","","","","","","","","","","key","j","16.664473684210527","768","428","j","true","nonmatch","img/triangle.png","弱我","强我","prac_ALT2_ability","practice_ability","","","","","","","","",""
"null","<span style='color:GreenYellow; font-size: 70px;'>正确! </span>","null","html-keyboard-response","95","319784","0.0-8.0-1.0-1.0-0.0-1.42","6","6","6","5","3","4","3","4","4","4","4","1","0","1","1","1","1","1","1","5","5","5","5","4","4","4","4","4","4","5","5","5","6","5","6","6","6","7","6","6","2","6","5","3","5","4","5","5","1","3","3","4","3","5","5","5","7","5","5","6","5","5","5","3","5","6","5","6","7","7","7","6","5","6","6","6","6","6","6","763057278428647426","姚","698","Female","[""好我"",""好她"",""坏我"",""坏她""]","[""强我"",""强她"",""弱我"",""弱她""]","","","","","","","","","","","","","","","","","","","","","","","","","","","","","","feedback_test","","","","","","","","",""
"361","","f","psychophysics","96","321152","0.0-8.0-1.0-1.0-0.0-0.43","6","6","6","5","3","4","3","4","4","4","4","1","0","1","1","1","1","1","1","5","5","5","5","4","4","4","4","4","4","5","5","5","6","5","6","6","6","7","6","6","2","6","5","3","5","4","5","5","1","3","3","4","3","5","5","5","7","5","5","6","5","5","5","3","5","6","5","6","7","7","7","6","5","6","6","6","6","6","6","763057278428647426","姚","698","Female","[""好我"",""好她"",""坏我"",""坏她""]","[""强我"",""强她"",""弱我"",""弱她""]","","","","","","","","match","","","","","","","","","","key","f","16.665432098765002","768","428","f","true","match","img/square.png","强她","强她","prac_ALT2_ability","practice_ability","","","","","","","","",""
"null","<span style='color:GreenYellow; font-size: 70px;'>正确! </span>","null","html-keyboard-response","97","321660","0.0-8.0-1.0-1.0-0.0-1.43","6","6","6","5","3","4","3","4","4","4","4","1","0","1","1","1","1","1","1","5","5","5","5","4","4","4","4","4","4","5","5","5","6","5","6","6","6","7","6","6","2","6","5","3","5","4","5","5","1","3","3","4","3","5","5","5","7","5","5","6","5","5","5","3","5","6","5","6","7","7","7","6","5","6","6","6","6","6","6","763057278428647426","姚","698","Female","[""好我"",""好她"",""坏我"",""坏她""]","[""强我"",""强她"",""弱我"",""弱她""]","","","","","","","","","","","","","","","","","","","","","","","","","","","","","","feedback_test","","","","","","","","",""
"245","","j","psychophysics","98","322908","0.0-8.0-1.0-1.0-0.0-0.44","6","6","6","5","3","4","3","4","4","4","4","1","0","1","1","1","1","1","1","5","5","5","5","4","4","4","4","4","4","5","5","5","6","5","6","6","6","7","6","6","2","6","5","3","5","4","5","5","1","3","3","4","3","5","5","5","7","5","5","6","5","5","5","3","5","6","5","6","7","7","7","6","5","6","6","6","6","6","6","763057278428647426","姚","698","Female","[""好我"",""好她"",""坏我"",""坏她""]","[""强我"",""强她"",""弱我"",""弱她""]","","","","","","","","nonmatch","","","","","","","","","","key","j","16.667567567567097","768","428","f","false","match","img/circle.png","弱我","弱我","prac_ALT2_ability","practice_ability","","","","","","","","",""
"null","<span style='color:red; font-size: 70px;'>错误! </span>","null","html-keyboard-response","99","323413","0.0-8.0-1.0-1.0-0.0-1.44","6","6","6","5","3","4","3","4","4","4","4","1","0","1","1","1","1","1","1","5","5","5","5","4","4","4","4","4","4","5","5","5","6","5","6","6","6","7","6","6","2","6","5","3","5","4","5","5","1","3","3","4","3","5","5","5","7","5","5","6","5","5","5","3","5","6","5","6","7","7","7","6","5","6","6","6","6","6","6","763057278428647426","姚","698","Female","[""好我"",""好她"",""坏我"",""坏她""]","[""强我"",""强她"",""弱我"",""弱她""]","","","","","","","","","","","","","","","","","","","","","","","","","","","","","","feedback_test","","","","","","","","",""
"300","","f","psychophysics","100","324715","0.0-8.0-1.0-1.0-0.0-0.45","6","6","6","5","3","4","3","4","4","4","4","1","0","1","1","1","1","1","1","5","5","5","5","4","4","4","4","4","4","5","5","5","6","5","6","6","6","7","6","6","2","6","5","3","5","4","5","5","1","3","3","4","3","5","5","5","7","5","5","6","5","5","5","3","5","6","5","6","7","7","7","6","5","6","6","6","6","6","6","763057278428647426","姚","698","Female","[""好我"",""好她"",""坏我"",""坏她""]","[""强我"",""强她"",""弱我"",""弱她""]","","","","","","","","match","","","","","","","","","","key","f","16.58701298701314","768","428","f","true","match","img/triangle.png","强我","强我","prac_ALT2_ability","practice_ability","","","","","","","","",""
"null","<span style='color:GreenYellow; font-size: 70px;'>正确! </span>","null","html-keyboard-response","101","325219","0.0-8.0-1.0-1.0-0.0-1.45","6","6","6","5","3","4","3","4","4","4","4","1","0","1","1","1","1","1","1","5","5","5","5","4","4","4","4","4","4","5","5","5","6","5","6","6","6","7","6","6","2","6","5","3","5","4","5","5","1","3","3","4","3","5","5","5","7","5","5","6","5","5","5","3","5","6","5","6","7","7","7","6","5","6","6","6","6","6","6","763057278428647426","姚","698","Female","[""好我"",""好她"",""坏我"",""坏她""]","[""强我"",""强她"",""弱我"",""弱她""]","","","","","","","","","","","","","","","","","","","","","","","","","","","","","","feedback_test","","","","","","","","",""
"323","","j","psychophysics","102","326545","0.0-8.0-1.0-1.0-0.0-0.46","6","6","6","5","3","4","3","4","4","4","4","1","0","1","1","1","1","1","1","5","5","5","5","4","4","4","4","4","4","5","5","5","6","5","6","6","6","7","6","6","2","6","5","3","5","4","5","5","1","3","3","4","3","5","5","5","7","5","5","6","5","5","5","3","5","6","5","6","7","7","7","6","5","6","6","6","6","6","6","763057278428647426","姚","698","Female","[""好我"",""好她"",""坏我"",""坏她""]","[""强我"",""强她"",""弱我"",""弱她""]","","","","","","","","nonmatch","","","","","","","","","","key","j","16.666666666666668","768","428","f","false","match","img/triangle.png","强我","强我","prac_ALT2_ability","practice_ability","","","","","","","","",""
"null","<span style='color:red; font-size: 70px;'>错误! </span>","null","html-keyboard-response","103","327053","0.0-8.0-1.0-1.0-0.0-1.46","6","6","6","5","3","4","3","4","4","4","4","1","0","1","1","1","1","1","1","5","5","5","5","4","4","4","4","4","4","5","5","5","6","5","6","6","6","7","6","6","2","6","5","3","5","4","5","5","1","3","3","4","3","5","5","5","7","5","5","6","5","5","5","3","5","6","5","6","7","7","7","6","5","6","6","6","6","6","6","763057278428647426","姚","698","Female","[""好我"",""好她"",""坏我"",""坏她""]","[""强我"",""强她"",""弱我"",""弱她""]","","","","","","","","","","","","","","","","","","","","","","","","","","","","","","feedback_test","","","","","","","","",""
"244","","f","psychophysics","104","328301","0.0-8.0-1.0-1.0-0.0-0.47","6","6","6","5","3","4","3","4","4","4","4","1","0","1","1","1","1","1","1","5","5","5","5","4","4","4","4","4","4","5","5","5","6","5","6","6","6","7","6","6","2","6","5","3","5","4","5","5","1","3","3","4","3","5","5","5","7","5","5","6","5","5","5","3","5","6","5","6","7","7","7","6","5","6","6","6","6","6","6","763057278428647426","姚","698","Female","[""好我"",""好她"",""坏我"",""坏她""]","[""强我"",""强她"",""弱我"",""弱她""]","","","","","","","","match","","","","","","","","","","key","f","16.667567567567097","768","428","j","false","nonmatch","img/circle.png","弱她","弱我","prac_ALT2_ability","practice_ability","","","","","","","","",""
"null","<span style='color:red; font-size: 70px;'>错误! </span>","null","html-keyboard-response","105","328805","0.0-8.0-1.0-1.0-0.0-1.47","6","6","6","5","3","4","3","4","4","4","4","1","0","1","1","1","1","1","1","5","5","5","5","4","4","4","4","4","4","5","5","5","6","5","6","6","6","7","6","6","2","6","5","3","5","4","5","5","1","3","3","4","3","5","5","5","7","5","5","6","5","5","5","3","5","6","5","6","7","7","7","6","5","6","6","6","6","6","6","763057278428647426","姚","698","Female","[""好我"",""好她"",""坏我"",""坏她""]","[""强我"",""强她"",""弱我"",""弱她""]","","","","","","","","","","","","","","","","","","","","","","","","","","","","","","feedback_test","","","","","","","","",""
"57338","<style>.context{color:white; font-size: 35px; line-height:40px}</style>                          <div><p class='context'>您正确回答了33% 的试次。</p><p class='context'>您的平均反应时为418毫秒。</p><p class='context'>恭喜您完成练习。按空格键继续。</p></div>"," ","html-keyboard-response","106","386146","0.0-8.0-1.0-1.0-1.0-0.0","6","6","6","5","3","4","3","4","4","4","4","1","0","1","1","1","1","1","1","5","5","5","5","4","4","4","4","4","4","5","5","5","6","5","6","6","6","7","6","6","2","6","5","3","5","4","5","5","1","3","3","4","3","5","5","5","7","5","5","6","5","5","5","3","5","6","5","6","7","7","7","6","5","6","6","6","6","6","6","763057278428647426","姚","698","Female","[""好我"",""好她"",""坏我"",""坏她""]","[""强我"",""强她"",""弱我"",""弱她""]","","","","","","","","","","","","","","","","","","","","","","","","","","","","","","","","","","","","","","",""
"23787","","","instructions","107","409938","0.0-8.0-1.0-1.0-1.0-1.0","6","6","6","5","3","4","3","4","4","4","4","1","0","1","1","1","1","1","1","5","5","5","5","4","4","4","4","4","4","5","5","5","6","5","6","6","6","7","6","6","2","6","5","3","5","4","5","5","1","3","3","4","3","5","5","5","7","5","5","6","5","5","5","3","5","6","5","6","7","7","7","6","5","6","6","6","6","6","6","763057278428647426","姚","698","Female","[""好我"",""好她"",""坏我"",""坏她""]","[""强我"",""强她"",""弱我"",""弱她""]","","","","","","","","","","","","","","","","","[{""page_index"":0,""viewing_time"":17208},{""page_index"":1,""viewing_time"":4221},{""page_index"":2,""viewing_time"":2358}]","","","","","","","","","","","","","","","","","","","","","",""
"null","","null","psychophysics","108","412146","0.0-8.0-1.0-1.1-0.1-0.48","6","6","6","5","3","4","3","4","4","4","4","1","0","1","1","1","1","1","1","5","5","5","5","4","4","4","4","4","4","5","5","5","6","5","6","6","6","7","6","6","2","6","5","3","5","4","5","5","1","3","3","4","3","5","5","5","7","5","5","6","5","5","5","3","5","6","5","6","7","7","7","6","5","6","6","6","6","6","6","763057278428647426","姚","698","Female","[""好我"",""好她"",""坏我"",""坏她""]","[""强我"",""强她"",""弱我"",""弱她""]","","","","","","","","null","","","","","","","","","","key","null","16.66717557251882","768","428","j","false","nonmatch","img/triangle.png","强她","强我","prac_ALT2_ability","practice_ability","","","","","","","","",""
"null","<span class='add_' style='color:yellow; font-size: 70px;'> 太慢! </span>","null","html-keyboard-response","109","412647","0.0-8.0-1.0-1.1-0.1-1.48","6","6","6","5","3","4","3","4","4","4","4","1","0","1","1","1","1","1","1","5","5","5","5","4","4","4","4","4","4","5","5","5","6","5","6","6","6","7","6","6","2","6","5","3","5","4","5","5","1","3","3","4","3","5","5","5","7","5","5","6","5","5","5","3","5","6","5","6","7","7","7","6","5","6","6","6","6","6","6","763057278428647426","姚","698","Female","[""好我"",""好她"",""坏我"",""坏她""]","[""强我"",""强她"",""弱我"",""弱她""]","","","","","","","","","","","","","","","","","","","","","","","","","","","","","","feedback_test","","","","","","","","",""
"800","","j","psychophysics","110","414454","0.0-8.0-1.0-1.1-0.1-0.49","6","6","6","5","3","4","3","4","4","4","4","1","0","1","1","1","1","1","1","5","5","5","5","4","4","4","4","4","4","5","5","5","6","5","6","6","6","7","6","6","2","6","5","3","5","4","5","5","1","3","3","4","3","5","5","5","7","5","5","6","5","5","5","3","5","6","5","6","7","7","7","6","5","6","6","6","6","6","6","763057278428647426","姚","698","Female","[""好我"",""好她"",""坏我"",""坏她""]","[""强我"",""强她"",""弱我"",""弱她""]","","","","","","","","nonmatch","","","","","","","","","","key","j","16.66822429906542","768","428","j","true","nonmatch","img/square.png","弱她","强她","prac_ALT2_ability","practice_ability","","","","","","","","",""
"null","<span style='color:GreenYellow; font-size: 70px;'>正确! </span>","null","html-keyboard-response","111","414959","0.0-8.0-1.0-1.1-0.1-1.49","6","6","6","5","3","4","3","4","4","4","4","1","0","1","1","1","1","1","1","5","5","5","5","4","4","4","4","4","4","5","5","5","6","5","6","6","6","7","6","6","2","6","5","3","5","4","5","5","1","3","3","4","3","5","5","5","7","5","5","6","5","5","5","3","5","6","5","6","7","7","7","6","5","6","6","6","6","6","6","763057278428647426","姚","698","Female","[""好我"",""好她"",""坏我"",""坏她""]","[""强我"",""强她"",""弱我"",""弱她""]","","","","","","","","","","","","","","","","","","","","","","","","","","","","","","feedback_test","","","","","","","","",""
"823","","j","psychophysics","112","416784","0.0-8.0-1.0-1.1-0.1-0.50","6","6","6","5","3","4","3","4","4","4","4","1","0","1","1","1","1","1","1","5","5","5","5","4","4","4","4","4","4","5","5","5","6","5","6","6","6","7","6","6","2","6","5","3","5","4","5","5","1","3","3","4","3","5","5","5","7","5","5","6","5","5","5","3","5","6","5","6","7","7","7","6","5","6","6","6","6","6","6","763057278428647426","姚","698","Female","[""好我"",""好她"",""坏我"",""坏她""]","[""强我"",""强她"",""弱我"",""弱她""]","","","","","","","","nonmatch","","","","","","","","","","key","j","16.667592592592914","768","428","j","true","nonmatch","img/hexagon.png","强她","弱她","prac_ALT2_ability","practice_ability","","","","","","","","",""
"null","<span style='color:GreenYellow; font-size: 70px;'>正确! </span>","null","html-keyboard-response","113","417285","0.0-8.0-1.0-1.1-0.1-1.50","6","6","6","5","3","4","3","4","4","4","4","1","0","1","1","1","1","1","1","5","5","5","5","4","4","4","4","4","4","5","5","5","6","5","6","6","6","7","6","6","2","6","5","3","5","4","5","5","1","3","3","4","3","5","5","5","7","5","5","6","5","5","5","3","5","6","5","6","7","7","7","6","5","6","6","6","6","6","6","763057278428647426","姚","698","Female","[""好我"",""好她"",""坏我"",""坏她""]","[""强我"",""强她"",""弱我"",""弱她""]","","","","","","","","","","","","","","","","","","","","","","","","","","","","","","feedback_test","","","","","","","","",""
"811","","f","psychophysics","114","419100","0.0-8.0-1.0-1.1-0.1-0.51","6","6","6","5","3","4","3","4","4","4","4","1","0","1","1","1","1","1","1","5","5","5","5","4","4","4","4","4","4","5","5","5","6","5","6","6","6","7","6","6","2","6","5","3","5","4","5","5","1","3","3","4","3","5","5","5","7","5","5","6","5","5","5","3","5","6","5","6","7","7","7","6","5","6","6","6","6","6","6","763057278428647426","姚","698","Female","[""好我"",""好她"",""坏我"",""坏她""]","[""强我"",""强她"",""弱我"",""弱她""]","","","","","","","","match","","","","","","","","","","key","f","16.667289719626385","768","428","f","true","match","img/hexagon.png","弱她","弱她","prac_ALT2_ability","practice_ability","","","","","","","","",""
"null","<span style='color:GreenYellow; font-size: 70px;'>正确! </span>","null","html-keyboard-response","115","419607","0.0-8.0-1.0-1.1-0.1-1.51","6","6","6","5","3","4","3","4","4","4","4","1","0","1","1","1","1","1","1","5","5","5","5","4","4","4","4","4","4","5","5","5","6","5","6","6","6","7","6","6","2","6","5","3","5","4","5","5","1","3","3","4","3","5","5","5","7","5","5","6","5","5","5","3","5","6","5","6","7","7","7","6","5","6","6","6","6","6","6","763057278428647426","姚","698","Female","[""好我"",""好她"",""坏我"",""坏她""]","[""强我"",""强她"",""弱我"",""弱她""]","","","","","","","","","","","","","","","","","","","","","","","","","","","","","","feedback_test","","","","","","","","",""
"785","","j","psychophysics","116","421400","0.0-8.0-1.0-1.1-0.1-0.52","6","6","6","5","3","4","3","4","4","4","4","1","0","1","1","1","1","1","1","5","5","5","5","4","4","4","4","4","4","5","5","5","6","5","6","6","6","7","6","6","2","6","5","3","5","4","5","5","1","3","3","4","3","5","5","5","7","5","5","6","5","5","5","3","5","6","5","6","7","7","7","6","5","6","6","6","6","6","6","763057278428647426","姚","698","Female","[""好我"",""好她"",""坏我"",""坏她""]","[""强我"",""强她"",""弱我"",""弱她""]","","","","","","","","nonmatch","","","","","","","","","","key","j","16.666355140187353","768","428","f","false","match","img/circle.png","弱我","弱我","prac_ALT2_ability","practice_ability","","","","","","","","",""
"null","<span style='color:red; font-size: 70px;'>错误! </span>","null","html-keyboard-response","117","421909","0.0-8.0-1.0-1.1-0.1-1.52","6","6","6","5","3","4","3","4","4","4","4","1","0","1","1","1","1","1","1","5","5","5","5","4","4","4","4","4","4","5","5","5","6","5","6","6","6","7","6","6","2","6","5","3","5","4","5","5","1","3","3","4","3","5","5","5","7","5","5","6","5","5","5","3","5","6","5","6","7","7","7","6","5","6","6","6","6","6","6","763057278428647426","姚","698","Female","[""好我"",""好她"",""坏我"",""坏她""]","[""强我"",""强她"",""弱我"",""弱她""]","","","","","","","","","","","","","","","","","","","","","","","","","","","","","","feedback_test","","","","","","","","",""
"1035","","j","psychophysics","118","423949","0.0-8.0-1.0-1.1-0.1-0.53","6","6","6","5","3","4","3","4","4","4","4","1","0","1","1","1","1","1","1","5","5","5","5","4","4","4","4","4","4","5","5","5","6","5","6","6","6","7","6","6","2","6","5","3","5","4","5","5","1","3","3","4","3","5","5","5","7","5","5","6","5","5","5","3","5","6","5","6","7","7","7","6","5","6","6","6","6","6","6","763057278428647426","姚","698","Female","[""好我"",""好她"",""坏我"",""坏她""]","[""强我"",""强她"",""弱我"",""弱她""]","","","","","","","","nonmatch","","","","","","","","","","key","j","16.666115702479626","768","428","j","true","nonmatch","img/square.png","弱我","强她","prac_ALT2_ability","practice_ability","","","","","","","","",""
"null","<span style='color:GreenYellow; font-size: 70px;'>正确! </span>","null","html-keyboard-response","119","424454","0.0-8.0-1.0-1.1-0.1-1.53","6","6","6","5","3","4","3","4","4","4","4","1","0","1","1","1","1","1","1","5","5","5","5","4","4","4","4","4","4","5","5","5","6","5","6","6","6","7","6","6","2","6","5","3","5","4","5","5","1","3","3","4","3","5","5","5","7","5","5","6","5","5","5","3","5","6","5","6","7","7","7","6","5","6","6","6","6","6","6","763057278428647426","姚","698","Female","[""好我"",""好她"",""坏我"",""坏她""]","[""强我"",""强她"",""弱我"",""弱她""]","","","","","","","","","","","","","","","","","","","","","","","","","","","","","","feedback_test","","","","","","","","",""
"738","","j","psychophysics","120","426200","0.0-8.0-1.0-1.1-0.1-0.54","6","6","6","5","3","4","3","4","4","4","4","1","0","1","1","1","1","1","1","5","5","5","5","4","4","4","4","4","4","5","5","5","6","5","6","6","6","7","6","6","2","6","5","3","5","4","5","5","1","3","3","4","3","5","5","5","7","5","5","6","5","5","5","3","5","6","5","6","7","7","7","6","5","6","6","6","6","6","6","763057278428647426","姚","698","Female","[""好我"",""好她"",""坏我"",""坏她""]","[""强我"",""强她"",""弱我"",""弱她""]","","","","","","","","nonmatch","","","","","","","","","","key","j","16.665384615384728","768","428","f","false","match","img/triangle.png","强我","强我","prac_ALT2_ability","practice_ability","","","","","","","","",""
"null","<span style='color:red; font-size: 70px;'>错误! </span>","null","html-keyboard-response","121","426708","0.0-8.0-1.0-1.1-0.1-1.54","6","6","6","5","3","4","3","4","4","4","4","1","0","1","1","1","1","1","1","5","5","5","5","4","4","4","4","4","4","5","5","5","6","5","6","6","6","7","6","6","2","6","5","3","5","4","5","5","1","3","3","4","3","5","5","5","7","5","5","6","5","5","5","3","5","6","5","6","7","7","7","6","5","6","6","6","6","6","6","763057278428647426","姚","698","Female","[""好我"",""好她"",""坏我"",""坏她""]","[""强我"",""强她"",""弱我"",""弱她""]","","","","","","","","","","","","","","","","","","","","","","","","","","","","","","feedback_test","","","","","","","","",""
"836","","j","psychophysics","122","428550","0.0-8.0-1.0-1.1-0.1-0.55","6","6","6","5","3","4","3","4","4","4","4","1","0","1","1","1","1","1","1","5","5","5","5","4","4","4","4","4","4","5","5","5","6","5","6","6","6","7","6","6","2","6","5","3","5","4","5","5","1","3","3","4","3","5","5","5","7","5","5","6","5","5","5","3","5","6","5","6","7","7","7","6","5","6","6","6","6","6","6","763057278428647426","姚","698","Female","[""好我"",""好她"",""坏我"",""坏她""]","[""强我"",""强她"",""弱我"",""弱她""]","","","","","","","","nonmatch","","","","","","","","","","key","j","16.66636363636406","768","428","j","true","nonmatch","img/hexagon.png","强我","弱她","prac_ALT2_ability","practice_ability","","","","","","","","",""
"null","<span style='color:GreenYellow; font-size: 70px;'>正确! </span>","null","html-keyboard-response","123","429053","0.0-8.0-1.0-1.1-0.1-1.55","6","6","6","5","3","4","3","4","4","4","4","1","0","1","1","1","1","1","1","5","5","5","5","4","4","4","4","4","4","5","5","5","6","5","6","6","6","7","6","6","2","6","5","3","5","4","5","5","1","3","3","4","3","5","5","5","7","5","5","6","5","5","5","3","5","6","5","6","7","7","7","6","5","6","6","6","6","6","6","763057278428647426","姚","698","Female","[""好我"",""好她"",""坏我"",""坏她""]","[""强我"",""强她"",""弱我"",""弱她""]","","","","","","","","","","","","","","","","","","","","","","","","","","","","","","feedback_test","","","","","","","","",""
"813","","j","psychophysics","124","430869","0.0-8.0-1.0-1.1-0.1-0.56","6","6","6","5","3","4","3","4","4","4","4","1","0","1","1","1","1","1","1","5","5","5","5","4","4","4","4","4","4","5","5","5","6","5","6","6","6","7","6","6","2","6","5","3","5","4","5","5","1","3","3","4","3","5","5","5","7","5","5","6","5","5","5","3","5","6","5","6","7","7","7","6","5","6","6","6","6","6","6","763057278428647426","姚","698","Female","[""好我"",""好她"",""坏我"",""坏她""]","[""强我"",""强她"",""弱我"",""弱她""]","","","","","","","","nonmatch","","","","","","","","","","key","j","16.667592592592914","768","428","f","false","match","img/square.png","强她","强她","prac_ALT2_ability","practice_ability","","","","","","","","",""
"null","<span style='color:red; font-size: 70px;'>错误! </span>","null","html-keyboard-response","125","431378","0.0-8.0-1.0-1.1-0.1-1.56","6","6","6","5","3","4","3","4","4","4","4","1","0","1","1","1","1","1","1","5","5","5","5","4","4","4","4","4","4","5","5","5","6","5","6","6","6","7","6","6","2","6","5","3","5","4","5","5","1","3","3","4","3","5","5","5","7","5","5","6","5","5","5","3","5","6","5","6","7","7","7","6","5","6","6","6","6","6","6","763057278428647426","姚","698","Female","[""好我"",""好她"",""坏我"",""坏她""]","[""强我"",""强她"",""弱我"",""弱她""]","","","","","","","","","","","","","","","","","","","","","","","","","","","","","","feedback_test","","","","","","","","",""
"903","","j","psychophysics","126","433284","0.0-8.0-1.0-1.1-0.1-0.57","6","6","6","5","3","4","3","4","4","4","4","1","0","1","1","1","1","1","1","5","5","5","5","4","4","4","4","4","4","5","5","5","6","5","6","6","6","7","6","6","2","6","5","3","5","4","5","5","1","3","3","4","3","5","5","5","7","5","5","6","5","5","5","3","5","6","5","6","7","7","7","6","5","6","6","6","6","6","6","763057278428647426","姚","698","Female","[""好我"",""好她"",""坏我"",""坏她""]","[""强我"",""强她"",""弱我"",""弱她""]","","","","","","","","nonmatch","","","","","","","","","","key","j","16.666666666666668","768","428","j","true","nonmatch","img/circle.png","强我","弱我","prac_ALT2_ability","practice_ability","","","","","","","","",""
"null","<span style='color:GreenYellow; font-size: 70px;'>正确! </span>","null","html-keyboard-response","127","433791","0.0-8.0-1.0-1.1-0.1-1.57","6","6","6","5","3","4","3","4","4","4","4","1","0","1","1","1","1","1","1","5","5","5","5","4","4","4","4","4","4","5","5","5","6","5","6","6","6","7","6","6","2","6","5","3","5","4","5","5","1","3","3","4","3","5","5","5","7","5","5","6","5","5","5","3","5","6","5","6","7","7","7","6","5","6","6","6","6","6","6","763057278428647426","姚","698","Female","[""好我"",""好她"",""坏我"",""坏她""]","[""强我"",""强她"",""弱我"",""弱她""]","","","","","","","","","","","","","","","","","","","","","","","","","","","","","","feedback_test","","","","","","","","",""
"781","","j","psychophysics","128","435574","0.0-8.0-1.0-1.1-0.1-0.58","6","6","6","5","3","4","3","4","4","4","4","1","0","1","1","1","1","1","1","5","5","5","5","4","4","4","4","4","4","5","5","5","6","5","6","6","6","7","6","6","2","6","5","3","5","4","5","5","1","3","3","4","3","5","5","5","7","5","5","6","5","5","5","3","5","6","5","6","7","7","7","6","5","6","6","6","6","6","6","763057278428647426","姚","698","Female","[""好我"",""好她"",""坏我"",""坏她""]","[""强我"",""强她"",""弱我"",""弱她""]","","","","","","","","nonmatch","","","","","","","","","","key","j","16.666666666666668","768","428","j","true","nonmatch","img/circle.png","强她","弱我","prac_ALT2_ability","practice_ability","","","","","","","","",""
"null","<span style='color:GreenYellow; font-size: 70px;'>正确! </span>","null","html-keyboard-response","129","436076","0.0-8.0-1.0-1.1-0.1-1.58","6","6","6","5","3","4","3","4","4","4","4","1","0","1","1","1","1","1","1","5","5","5","5","4","4","4","4","4","4","5","5","5","6","5","6","6","6","7","6","6","2","6","5","3","5","4","5","5","1","3","3","4","3","5","5","5","7","5","5","6","5","5","5","3","5","6","5","6","7","7","7","6","5","6","6","6","6","6","6","763057278428647426","姚","698","Female","[""好我"",""好她"",""坏我"",""坏她""]","[""强我"",""强她"",""弱我"",""弱她""]","","","","","","","","","","","","","","","","","","","","","","","","","","","","","","feedback_test","","","","","","","","",""
"957","","j","psychophysics","130","438038","0.0-8.0-1.0-1.1-0.1-0.59","6","6","6","5","3","4","3","4","4","4","4","1","0","1","1","1","1","1","1","5","5","5","5","4","4","4","4","4","4","5","5","5","6","5","6","6","6","7","6","6","2","6","5","3","5","4","5","5","1","3","3","4","3","5","5","5","7","5","5","6","5","5","5","3","5","6","5","6","7","7","7","6","5","6","6","6","6","6","6","763057278428647426","姚","698","Female","[""好我"",""好她"",""坏我"",""坏她""]","[""强我"",""强她"",""弱我"",""弱她""]","","","","","","","","nonmatch","","","","","","","","","","key","j","16.665517241379412","768","428","j","true","nonmatch","img/triangle.png","弱我","强我","prac_ALT2_ability","practice_ability","","","","","","","","",""
"null","<span style='color:GreenYellow; font-size: 70px;'>正确! </span>","null","html-keyboard-response","131","438541","0.0-8.0-1.0-1.1-0.1-1.59","6","6","6","5","3","4","3","4","4","4","4","1","0","1","1","1","1","1","1","5","5","5","5","4","4","4","4","4","4","5","5","5","6","5","6","6","6","7","6","6","2","6","5","3","5","4","5","5","1","3","3","4","3","5","5","5","7","5","5","6","5","5","5","3","5","6","5","6","7","7","7","6","5","6","6","6","6","6","6","763057278428647426","姚","698","Female","[""好我"",""好她"",""坏我"",""坏她""]","[""强我"",""强她"",""弱我"",""弱她""]","","","","","","","","","","","","","","","","","","","","","","","","","","","","","","feedback_test","","","","","","","","",""
"1022","","j","psychophysics","132","440568","0.0-8.0-1.0-1.1-0.1-0.60","6","6","6","5","3","4","3","4","4","4","4","1","0","1","1","1","1","1","1","5","5","5","5","4","4","4","4","4","4","5","5","5","6","5","6","6","6","7","6","6","2","6","5","3","5","4","5","5","1","3","3","4","3","5","5","5","7","5","5","6","5","5","5","3","5","6","5","6","7","7","7","6","5","6","6","6","6","6","6","763057278428647426","姚","698","Female","[""好我"",""好她"",""坏我"",""坏她""]","[""强我"",""强她"",""弱我"",""弱她""]","","","","","","","","nonmatch","","","","","","","","","","key","j","16.666115702479146","768","428","f","false","match","img/square.png","强她","强她","prac_ALT2_ability","practice_ability","","","","","","","","",""
"null","<span style='color:red; font-size: 70px;'>错误! </span>","null","html-keyboard-response","133","441071","0.0-8.0-1.0-1.1-0.1-1.60","6","6","6","5","3","4","3","4","4","4","4","1","0","1","1","1","1","1","1","5","5","5","5","4","4","4","4","4","4","5","5","5","6","5","6","6","6","7","6","6","2","6","5","3","5","4","5","5","1","3","3","4","3","5","5","5","7","5","5","6","5","5","5","3","5","6","5","6","7","7","7","6","5","6","6","6","6","6","6","763057278428647426","姚","698","Female","[""好我"",""好她"",""坏我"",""坏她""]","[""强我"",""强她"",""弱我"",""弱她""]","","","","","","","","","","","","","","","","","","","","","","","","","","","","","","feedback_test","","","","","","","","",""
"1042","","j","psychophysics","134","443118","0.0-8.0-1.0-1.1-0.1-0.61","6","6","6","5","3","4","3","4","4","4","4","1","0","1","1","1","1","1","1","5","5","5","5","4","4","4","4","4","4","5","5","5","6","5","6","6","6","7","6","6","2","6","5","3","5","4","5","5","1","3","3","4","3","5","5","5","7","5","5","6","5","5","5","3","5","6","5","6","7","7","7","6","5","6","6","6","6","6","6","763057278428647426","姚","698","Female","[""好我"",""好她"",""坏我"",""坏她""]","[""强我"",""强她"",""弱我"",""弱她""]","","","","","","","","nonmatch","","","","","","","","","","key","j","16.666393442622855","768","428","f","false","match","img/circle.png","弱我","弱我","prac_ALT2_ability","practice_ability","","","","","","","","",""
"null","<span style='color:red; font-size: 70px;'>错误! </span>","null","html-keyboard-response","135","443624","0.0-8.0-1.0-1.1-0.1-1.61","6","6","6","5","3","4","3","4","4","4","4","1","0","1","1","1","1","1","1","5","5","5","5","4","4","4","4","4","4","5","5","5","6","5","6","6","6","7","6","6","2","6","5","3","5","4","5","5","1","3","3","4","3","5","5","5","7","5","5","6","5","5","5","3","5","6","5","6","7","7","7","6","5","6","6","6","6","6","6","763057278428647426","姚","698","Female","[""好我"",""好她"",""坏我"",""坏她""]","[""强我"",""强她"",""弱我"",""弱她""]","","","","","","","","","","","","","","","","","","","","","","","","","","","","","","feedback_test","","","","","","","","",""
"762","","j","psychophysics","136","445389","0.0-8.0-1.0-1.1-0.1-0.62","6","6","6","5","3","4","3","4","4","4","4","1","0","1","1","1","1","1","1","5","5","5","5","4","4","4","4","4","4","5","5","5","6","5","6","6","6","7","6","6","2","6","5","3","5","4","5","5","1","3","3","4","3","5","5","5","7","5","5","6","5","5","5","3","5","6","5","6","7","7","7","6","5","6","6","6","6","6","6","763057278428647426","姚","698","Female","[""好我"",""好她"",""坏我"",""坏她""]","[""强我"",""强她"",""弱我"",""弱她""]","","","","","","","","nonmatch","","","","","","","","","","key","j","16.667619047618825","768","428","f","false","match","img/triangle.png","强我","强我","prac_ALT2_ability","practice_ability","","","","","","","","",""
"null","<span style='color:red; font-size: 70px;'>错误! </span>","null","html-keyboard-response","137","445893","0.0-8.0-1.0-1.1-0.1-1.62","6","6","6","5","3","4","3","4","4","4","4","1","0","1","1","1","1","1","1","5","5","5","5","4","4","4","4","4","4","5","5","5","6","5","6","6","6","7","6","6","2","6","5","3","5","4","5","5","1","3","3","4","3","5","5","5","7","5","5","6","5","5","5","3","5","6","5","6","7","7","7","6","5","6","6","6","6","6","6","763057278428647426","姚","698","Female","[""好我"",""好她"",""坏我"",""坏她""]","[""强我"",""强她"",""弱我"",""弱她""]","","","","","","","","","","","","","","","","","","","","","","","","","","","","","","feedback_test","","","","","","","","",""
