"rt","stimulus","response","trial_type","trial_index","time_elapsed","internal_node_id","swb_1","swb_2","swb_3","swb_4","swb_5","LOT_1","LOT_2","LOT_3","LOT_4","LOT_5","LOT_6","IPC_1","IPC_2","IPC_3","IPC_4","IPC_5","IPC_6","IPC_7","IPC_8","MorIden_1","MorIden_2","MorIden_3","MorIden_4","MorIden_5","MorIden_6","MorIden_7","MorIden_8","MorIden_9","MorIden_10","moralSeImag_1","moralSeImag_2","moralSeImag_3","moralSeImag_4","moralSeImag_5","moralSeImag_6","moralSeImag_7","moralSeImag_8","moralSeImag_9","sde_1","sde_2","sde_3","sde_4","sde_5","sde_6","sde_7","sde_8","sde_9","sde_10","trap2","sde_11","sde_12","sde_13","sde_14","sde_15","sde_16","sde_17","sde_18","sde_19","sde_20","IM_1","IM_2","IM_3","IM_4","IM_5","IM_6","IM_7","IM_8","IM_9","IM_10","IM_11","IM_12","IM_13","IM_14","IM_15","IM_16","IM_17","IM_18","IM_19","IM_20","subj_idx","friend_name","ParticipantID","Sex","Word","Word2","value","success","timeout","failed_images","failed_audio","failed_video","user_agent","responses","item_order","radio_event_ids","radio_event_times","key_event_times","mouse_event_times","straightlining","zigzagging","honeypot","task_id","screen_id","time_stamp","response_type","key_press","avg_frame_time","center_x","center_y","person","word","valence","domain","math","correct_response","correct","status","view_history","identity","duration","Image","condition","question_order","trap2_item"
"971","
   <p><div style='color:white; font-size: 25px'>您好，欢迎参加本次实验。</div></p>
   <p><div style='color:white; font-size: 25px'>为充分保障您的权利，请确保您已经知晓并同意《参与实验同意书》以及《数据公开知情同意书》。</div></p>
   <p><div style='color:white; font-size: 25px'>如果您未见过上述内容，请咨询实验员。</div></p>
   <p style='color:white; font-size: 25px'>如果您选择继续实验，则表示您已经清楚两份知情同意书的内容并同意。</p>
   <p><div style = ""color: pink;font-size:30px;"">请确保您记得day0的实验编号，您将在本次实验输入该编号，若您忘记，请咨询实验员后作答。</div></p>
   <p><div style = ""color:lightblue;font-size:25px;"">请您尽可能认真地作答，我们将依据您在各问卷和按键任务中的作答质量发放报酬。</div></p>
   <p> <div style = ""color: green""><按空格键至下页></div> </p>
   "," ","html-keyboard-response","0","973","0.0-0.0","6","5","5","4","2","4","4","5","4","5","4","1","2","0","1","1","0","2","1","5","4","5","4","4","3","5","3","4","5","4","5","4","5","4","4","5","4","5","5","4","5","6","3","2","5","1","6","4","1","5","2","6","4","3","5","5","7","3","5","3","4","3","2","2","6","4","7","6","6","5","5","4","4","2","7","6","5","4","6","797915991576289281","李","175","Male","[""坏我"",""好我"",""坏他"",""好他""]","[""弱我"",""强我"",""弱他"",""强他""]","","","","","","","","","","","","","","","","","","","","","","","","","","","","","","","","","","","","","","",""
"","","","call-function","1","974","0.0-1.0-0.0","6","5","5","4","2","4","4","5","4","5","4","1","2","0","1","1","0","2","1","5","4","5","4","4","3","5","3","4","5","4","5","4","5","4","4","5","4","5","5","4","5","6","3","2","5","1","6","4","1","5","2","6","4","3","5","5","7","3","5","3","4","3","2","2","6","4","7","6","6","5","5","4","4","2","7","6","5","4","6","797915991576289281","李","175","Male","[""坏我"",""好我"",""坏他"",""好他""]","[""弱我"",""强我"",""弱他"",""强他""]","","","","","","","","","","","","","","","","","","","","","","","","","","","","","","","","","","","","","","",""
"10460","","[{""name"":""Sex"",""value"":""0""},{""name"":""friend_name"",""value"":""李""},{""name"":""ParticipantID"",""value"":""175""}]","survey-html-form","2","11435","0.0-1.0-1.0","6","5","5","4","2","4","4","5","4","5","4","1","2","0","1","1","0","2","1","5","4","5","4","4","3","5","3","4","5","4","5","4","5","4","4","5","4","5","5","4","5","6","3","2","5","1","6","4","1","5","2","6","4","3","5","5","7","3","5","3","4","3","2","2","6","4","7","6","6","5","5","4","4","2","7","6","5","4","6","797915991576289281","李","175","Male","[""坏我"",""好我"",""坏他"",""好他""]","[""弱我"",""强我"",""弱他"",""强他""]","","","","","","","","","","","","","","","","","","","","","","","","","","","","","","","","","","","","","","",""
"","","","preload","3","11505","0.0-2.0","6","5","5","4","2","4","4","5","4","5","4","1","2","0","1","1","0","2","1","5","4","5","4","4","3","5","3","4","5","4","5","4","5","4","4","5","4","5","5","4","5","6","3","2","5","1","6","4","1","5","2","6","4","3","5","5","7","3","5","3","4","3","2","2","6","4","7","6","6","5","5","4","4","2","7","6","5","4","6","797915991576289281","李","175","Male","[""坏我"",""好我"",""坏他"",""好他""]","[""弱我"",""强我"",""弱他"",""强他""]","","true","false","[]","[]","[]","","","","","","","","","","","","","","","","","","","","","","","","","","","","","","","","",""
"","","","fullscreen","4","12926","0.0-3.0","6","5","5","4","2","4","4","5","4","5","4","1","2","0","1","1","0","2","1","5","4","5","4","4","3","5","3","4","5","4","5","4","5","4","4","5","4","5","5","4","5","6","3","2","5","1","6","4","1","5","2","6","4","3","5","5","7","3","5","3","4","3","2","2","6","4","7","6","6","5","5","4","4","2","7","6","5","4","6","797915991576289281","李","175","Male","[""坏我"",""好我"",""坏他"",""好他""]","[""弱我"",""强我"",""弱他"",""强他""]","","true","","","","","{}","","","","","","","","","","","","","","","","","","","","","","","","","","","","","","","",""
"8087.300000071526","","{""Q01"":""6"",""Q02"":""5"",""Q03"":""5"",""Q04"":""4"",""Q05"":""2""}","survey-template","5","21017","0.0-4.0","6","5","5","4","2","4","4","5","4","5","4","1","2","0","1","1","0","2","1","5","4","5","4","4","3","5","3","4","5","4","5","4","5","4","4","5","4","5","5","4","5","6","3","2","5","1","6","4","1","5","2","6","4","3","5","5","7","3","5","3","4","3","2","2","6","4","7","6","6","5","5","4","4","2","7","6","5","4","6","797915991576289281","李","175","Male","[""坏我"",""好我"",""坏他"",""好他""]","[""弱我"",""强我"",""弱他"",""强他""]","","","","","","","","{""Q01"":""6"",""Q02"":""5"",""Q03"":""5"",""Q04"":""4"",""Q05"":""2""}","[0,1,2,3,4]","[""Q01"",""Q02"",""Q03"",""Q04"",""Q05""]","[2074.100000023842,3742.5,4438.800000071526,6288.200000047684,7388.200000047684]","[]","[2074.100000023842,3742.5,4438.800000071526,6288.200000047684,7388.200000047684,8086.399999976158]","0.4","0.5","0","","","","","","","","","","","","","","","","","","","","","","",""
"10484.100000023842","","{""Q01"":""4"",""Q02"":""4"",""Q03"":""5"",""Q04"":""4"",""Q05"":""5"",""Q06"":""4""}","survey-template","6","31504","0.0-5.0","6","5","5","4","2","4","4","5","4","5","4","1","2","0","1","1","0","2","1","5","4","5","4","4","3","5","3","4","5","4","5","4","5","4","4","5","4","5","5","4","5","6","3","2","5","1","6","4","1","5","2","6","4","3","5","5","7","3","5","3","4","3","2","2","6","4","7","6","6","5","5","4","4","2","7","6","5","4","6","797915991576289281","李","175","Male","[""坏我"",""好我"",""坏他"",""好他""]","[""弱我"",""强我"",""弱他"",""强他""]","","","","","","","","{""Q01"":""4"",""Q02"":""4"",""Q03"":""5"",""Q04"":""4"",""Q05"":""5"",""Q06"":""4""}","[0,1,2,3,4,5]","[""Q01"",""Q02"",""Q03"",""Q04"",""Q05"",""Q06""]","[1817,3232.2999999523163,5506.100000023842,6908.200000047684,8488.200000047684,9800.200000047684]","[]","[1817,3232.2999999523163,5506.100000023842,6908.200000047684,8488.200000047684,9800.200000047684,10483.5]","0.3333333333333333","0.2","0","","","","","","","","","","","","","","","","","","","","","","",""
"10574.899999976158","","{""Q01"":""1"",""Q02"":""2"",""Q03"":""0"",""Q04"":""1"",""Q05"":""1"",""Q06"":""0"",""Q07"":""2"",""Q08"":""1""}","survey-template","7","42081","0.0-6.0","6","5","5","4","2","4","4","5","4","5","4","1","2","0","1","1","0","2","1","5","4","5","4","4","3","5","3","4","5","4","5","4","5","4","4","5","4","5","5","4","5","6","3","2","5","1","6","4","1","5","2","6","4","3","5","5","7","3","5","3","4","3","2","2","6","4","7","6","6","5","5","4","4","2","7","6","5","4","6","797915991576289281","李","175","Male","[""坏我"",""好我"",""坏他"",""好他""]","[""弱我"",""强我"",""弱他"",""强他""]","","","","","","","","{""Q01"":""1"",""Q02"":""2"",""Q03"":""0"",""Q04"":""1"",""Q05"":""1"",""Q06"":""0"",""Q07"":""2"",""Q08"":""1""}","[0,1,2,3,4,5,6,7]","[""Q01"",""Q02"",""Q03"",""Q04"",""Q05"",""Q06"",""Q07"",""Q08""]","[1984.3999999761581,3078.399999976158,4270.399999976158,5252.599999904633,6150.399999976158,7244,8631.099999904633,9915.299999952316]","[]","[1984.3999999761581,3078.399999976158,4270.399999976158,5252.599999904633,6150.399999976158,7244,8631.099999904633,9915.299999952316,10573.599999904633]","0.5","0.5714285714285714","0","","","","","","","","","","","","","","","","","","","","","","",""
"7305","
    <p><div style='color:white;font-size:35px; line-height:20px;'>词汇评估任务</div></p><br>
    <p><div style='color:white;font-size:25px; line-height:20px;'>请再次回忆该亲密的朋友，你们至少2年前就认识了，并且最近2年经常见面。</div></p>
    <p><div style='color:white;font-size:25px; line-height:20px;'>在本实验中，您将会看到一些形容词。</div></p>
    <p><div style='color:yellow;font-size:25px; line-height:20px;'>您的任务是判断这些形容词是否符合对您自己或您的朋友的描述。</div></p><p style='font-size:35px'>符合按<span style=""color:lightgreen""> j 键</span>，不符合按<span style=""color:red""> f 键</span></p>","0","html-button-response","8","49389","0.0-7.0-0.0","6","5","5","4","2","4","4","5","4","5","4","1","2","0","1","1","0","2","1","5","4","5","4","4","3","5","3","4","5","4","5","4","5","4","4","5","4","5","5","4","5","6","3","2","5","1","6","4","1","5","2","6","4","3","5","5","7","3","5","3","4","3","2","2","6","4","7","6","6","5","5","4","4","2","7","6","5","4","6","797915991576289281","李","175","Male","[""坏我"",""好我"",""坏他"",""好他""]","[""弱我"",""强我"",""弱他"",""强他""]","","","","","","","","","","","","","","","","","SRET_EW","EW_instructions","Tue Jan 16 2024 20:45:05 GMT+0800 (中国标准时间)","","","","","","","","","","","","","","","","","","","",""
"649","","j","psychophysics","9","51043","0.0-7.0-1.0-0.0","6","5","5","4","2","4","4","5","4","5","4","1","2","0","1","1","0","2","1","5","4","5","4","4","3","5","3","4","5","4","5","4","5","4","4","5","4","5","5","4","5","6","3","2","5","1","6","4","1","5","2","6","4","3","5","5","7","3","5","3","4","3","2","2","6","4","7","6","6","5","5","4","4","2","7","6","5","4","6","797915991576289281","李","175","Male","[""坏我"",""好我"",""坏他"",""好他""]","[""弱我"",""强我"",""弱他"",""强他""]","","","","","","","","yes","","","","","","","","","SRET_EW","EW_practice","","key","j","6.972573839662447","768","428","自己","严谨","Positive","ability","","","","","","","","","","",""
"686","","f","psychophysics","10","52732","0.0-7.0-1.0-0.1","6","5","5","4","2","4","4","5","4","5","4","1","2","0","1","1","0","2","1","5","4","5","4","4","3","5","3","4","5","4","5","4","5","4","4","5","4","5","5","4","5","6","3","2","5","1","6","4","1","5","2","6","4","3","5","5","7","3","5","3","4","3","2","2","6","4","7","6","6","5","5","4","4","2","7","6","5","4","6","797915991576289281","李","175","Male","[""坏我"",""好我"",""坏他"",""好他""]","[""弱我"",""强我"",""弱他"",""强他""]","","","","","","","","no","","","","","","","","","SRET_EW","EW_practice","","key","f","6.943801652892538","768","428","朋友","徇私","Negative","morality","","","","","","","","","","",""
"718","","f","psychophysics","11","54451","0.0-7.0-1.0-0.2","6","5","5","4","2","4","4","5","4","5","4","1","2","0","1","1","0","2","1","5","4","5","4","4","3","5","3","4","5","4","5","4","5","4","4","5","4","5","5","4","5","6","3","2","5","1","6","4","1","5","2","6","4","3","5","5","7","3","5","3","4","3","2","2","6","4","7","6","6","5","5","4","4","2","7","6","5","4","6","797915991576289281","李","175","Male","[""坏我"",""好我"",""坏他"",""好他""]","[""弱我"",""强我"",""弱他"",""强他""]","","","","","","","","no","","","","","","","","","SRET_EW","EW_practice","","key","f","6.9441295546558885","768","428","自己","刻板","Negative","ability","","","","","","","","","","",""
"540","","j","psychophysics","12","55993","0.0-7.0-1.0-0.3","6","5","5","4","2","4","4","5","4","5","4","1","2","0","1","1","0","2","1","5","4","5","4","4","3","5","3","4","5","4","5","4","5","4","4","5","4","5","5","4","5","6","3","2","5","1","6","4","1","5","2","6","4","3","5","5","7","3","5","3","4","3","2","2","6","4","7","6","6","5","5","4","4","2","7","6","5","4","6","797915991576289281","李","175","Male","[""坏我"",""好我"",""坏他"",""好他""]","[""弱我"",""强我"",""弱他"",""强他""]","","","","","","","","yes","","","","","","","","","SRET_EW","EW_practice","","key","j","6.943891402714925","768","428","朋友","忠实","Positive","morality","","","","","","","","","","",""
"14690","
    <p><div style='color:white;font-size:35px; line-height:20px;'>请您再次阅读实验要求</div></p><br>
    <p><div style='color:white;font-size:25px; line-height:20px;'>请回忆某一个亲密的朋友，你们至少2年前就认识了，并且最近2年经常见面。</div></p>
    <p><div style='color:white;font-size:25px; line-height:20px;'>在本实验中，您将会看到一些形容词。</div></p>
    <p><div style='color:yellow;font-size:25px; line-height:20px;'>您的任务是判断这些形容词是否符合对您自己或您的朋友的描述。</div></p>
    <p><div class='footer' style='font-size:25px; line-height:20px;'>如果对本实验还有不清楚之处，请立即向实验员咨询。</p><p style='font-size:25px; line-height:20px;'>如果您明白了规则：</p><p style='font-size:22px; line-height:20px;'>请按 继续 进入正式实验</p>
    </div>
    <p style='font-size:35px'>符合按<span style=""color:lightgreen""> j 键</span>，不符合按<span style=""color:red""> f 键</span></p>","0","html-button-response","13","70685","0.0-7.0-2.0","6","5","5","4","2","4","4","5","4","5","4","1","2","0","1","1","0","2","1","5","4","5","4","4","3","5","3","4","5","4","5","4","5","4","4","5","4","5","5","4","5","6","3","2","5","1","6","4","1","5","2","6","4","3","5","5","7","3","5","3","4","3","2","2","6","4","7","6","6","5","5","4","4","2","7","6","5","4","6","797915991576289281","李","175","Male","[""坏我"",""好我"",""坏他"",""好他""]","[""弱我"",""强我"",""弱他"",""强他""]","","","","","","","","","","","","","","","","","SRET_EW","prac_instructions","Tue Jan 16 2024 20:45:05 GMT+0800 (中国标准时间)","","","","","","","","","","","","","","","","","","","",""
"1062","","f","psychophysics","14","72752","0.0-7.0-3.0-0.0","6","5","5","4","2","4","4","5","4","5","4","1","2","0","1","1","0","2","1","5","4","5","4","4","3","5","3","4","5","4","5","4","5","4","4","5","4","5","5","4","5","6","3","2","5","1","6","4","1","5","2","6","4","3","5","5","7","3","5","3","4","3","2","2","6","4","7","6","6","5","5","4","4","2","7","6","5","4","6","797915991576289281","李","175","Male","[""坏我"",""好我"",""坏他"",""好他""]","[""弱我"",""强我"",""弱他"",""强他""]","","","","","","","","no","","","","","","","","","SRET","EW_formal","","key","f","6.944444444444445","768","428","朋友","迷糊","Negative","ability","","","","","","","","","","",""
"608","","j","psychophysics","15","74362","0.0-7.0-3.0-0.1","6","5","5","4","2","4","4","5","4","5","4","1","2","0","1","1","0","2","1","5","4","5","4","4","3","5","3","4","5","4","5","4","5","4","4","5","4","5","5","4","5","6","3","2","5","1","6","4","1","5","2","6","4","3","5","5","7","3","5","3","4","3","2","2","6","4","7","6","6","5","5","4","4","2","7","6","5","4","6","797915991576289281","李","175","Male","[""坏我"",""好我"",""坏他"",""好他""]","[""弱我"",""强我"",""弱他"",""强他""]","","","","","","","","yes","","","","","","","","","SRET","EW_formal","","key","j","6.944588744588795","768","428","自己","坚贞","Positive","morality","","","","","","","","","","",""
"499","","j","psychophysics","16","75864","0.0-7.0-3.0-0.2","6","5","5","4","2","4","4","5","4","5","4","1","2","0","1","1","0","2","1","5","4","5","4","4","3","5","3","4","5","4","5","4","5","4","4","5","4","5","5","4","5","6","3","2","5","1","6","4","1","5","2","6","4","3","5","5","7","3","5","3","4","3","2","2","6","4","7","6","6","5","5","4","4","2","7","6","5","4","6","797915991576289281","李","175","Male","[""坏我"",""好我"",""坏他"",""好他""]","[""弱我"",""强我"",""弱他"",""强他""]","","","","","","","","yes","","","","","","","","","SRET","EW_formal","","key","j","6.94558139534885","768","428","朋友","务实","Positive","ability","","","","","","","","","","",""
"619","","f","psychophysics","17","77484","0.0-7.0-3.0-0.3","6","5","5","4","2","4","4","5","4","5","4","1","2","0","1","1","0","2","1","5","4","5","4","4","3","5","3","4","5","4","5","4","5","4","4","5","4","5","5","4","5","6","3","2","5","1","6","4","1","5","2","6","4","3","5","5","7","3","5","3","4","3","2","2","6","4","7","6","6","5","5","4","4","2","7","6","5","4","6","797915991576289281","李","175","Male","[""坏我"",""好我"",""坏他"",""好他""]","[""弱我"",""强我"",""弱他"",""强他""]","","","","","","","","no","","","","","","","","","SRET","EW_formal","","key","f","6.94377682403431","768","428","自己","说谎","Negative","morality","","","","","","","","","","",""
"649","","f","psychophysics","18","79134","0.0-7.0-3.0-0.4","6","5","5","4","2","4","4","5","4","5","4","1","2","0","1","1","0","2","1","5","4","5","4","4","3","5","3","4","5","4","5","4","5","4","4","5","4","5","5","4","5","6","3","2","5","1","6","4","1","5","2","6","4","3","5","5","7","3","5","3","4","3","2","2","6","4","7","6","6","5","5","4","4","2","7","6","5","4","6","797915991576289281","李","175","Male","[""坏我"",""好我"",""坏他"",""好他""]","[""弱我"",""强我"",""弱他"",""强他""]","","","","","","","","no","","","","","","","","","SRET","EW_formal","","key","f","6.943644067796598","768","428","朋友","拖拉","Negative","ability","","","","","","","","","","",""
"588","","j","psychophysics","19","80724","0.0-7.0-3.0-0.5","6","5","5","4","2","4","4","5","4","5","4","1","2","0","1","1","0","2","1","5","4","5","4","4","3","5","3","4","5","4","5","4","5","4","4","5","4","5","5","4","5","6","3","2","5","1","6","4","1","5","2","6","4","3","5","5","7","3","5","3","4","3","2","2","6","4","7","6","6","5","5","4","4","2","7","6","5","4","6","797915991576289281","李","175","Male","[""坏我"",""好我"",""坏他"",""好他""]","[""弱我"",""强我"",""弱他"",""强他""]","","","","","","","","yes","","","","","","","","","SRET","EW_formal","","key","j","6.944298245614048","768","428","朋友","能干","Positive","ability","","","","","","","","","","",""
"578","","f","psychophysics","20","82304","0.0-7.0-3.0-0.6","6","5","5","4","2","4","4","5","4","5","4","1","2","0","1","1","0","2","1","5","4","5","4","4","3","5","3","4","5","4","5","4","5","4","4","5","4","5","5","4","5","6","3","2","5","1","6","4","1","5","2","6","4","3","5","5","7","3","5","3","4","3","2","2","6","4","7","6","6","5","5","4","4","2","7","6","5","4","6","797915991576289281","李","175","Male","[""坏我"",""好我"",""坏他"",""好他""]","[""弱我"",""强我"",""弱他"",""强他""]","","","","","","","","no","","","","","","","","","SRET","EW_formal","","key","f","6.943612334801814","768","428","朋友","差生","Negative","ability","","","","","","","","","","",""
"527","","j","psychophysics","21","83832","0.0-7.0-3.0-0.7","6","5","5","4","2","4","4","5","4","5","4","1","2","0","1","1","0","2","1","5","4","5","4","4","3","5","3","4","5","4","5","4","5","4","4","5","4","5","5","4","5","6","3","2","5","1","6","4","1","5","2","6","4","3","5","5","7","3","5","3","4","3","2","2","6","4","7","6","6","5","5","4","4","2","7","6","5","4","6","797915991576289281","李","175","Male","[""坏我"",""好我"",""坏他"",""好他""]","[""弱我"",""强我"",""弱他"",""强他""]","","","","","","","","yes","","","","","","","","","SRET","EW_formal","","key","j","6.943835616438343","768","428","自己","仗义","Positive","morality","","","","","","","","","","",""
"688","","f","psychophysics","22","85522","0.0-7.0-3.0-0.8","6","5","5","4","2","4","4","5","4","5","4","1","2","0","1","1","0","2","1","5","4","5","4","4","3","5","3","4","5","4","5","4","5","4","4","5","4","5","5","4","5","6","3","2","5","1","6","4","1","5","2","6","4","3","5","5","7","3","5","3","4","3","2","2","6","4","7","6","6","5","5","4","4","2","7","6","5","4","6","797915991576289281","李","175","Male","[""坏我"",""好我"",""坏他"",""好他""]","[""弱我"",""强我"",""弱他"",""强他""]","","","","","","","","no","","","","","","","","","SRET","EW_formal","","key","f","6.943801652892538","768","428","朋友","毛糙","Negative","ability","","","","","","","","","","",""
"1097","","j","psychophysics","23","87623","0.0-7.0-3.0-0.9","6","5","5","4","2","4","4","5","4","5","4","1","2","0","1","1","0","2","1","5","4","5","4","4","3","5","3","4","5","4","5","4","5","4","4","5","4","5","5","4","5","6","3","2","5","1","6","4","1","5","2","6","4","3","5","5","7","3","5","3","4","3","2","2","6","4","7","6","6","5","5","4","4","2","7","6","5","4","6","797915991576289281","李","175","Male","[""坏我"",""好我"",""坏他"",""好他""]","[""弱我"",""强我"",""弱他"",""强他""]","","","","","","","","yes","","","","","","","","","SRET","EW_formal","","key","j","6.967109634551514","768","428","自己","利己","Negative","morality","","","","","","","","","","",""
"527","","j","psychophysics","24","89152","0.0-7.0-3.0-0.10","6","5","5","4","2","4","4","5","4","5","4","1","2","0","1","1","0","2","1","5","4","5","4","4","3","5","3","4","5","4","5","4","5","4","4","5","4","5","5","4","5","6","3","2","5","1","6","4","1","5","2","6","4","3","5","5","7","3","5","3","4","3","2","2","6","4","7","6","6","5","5","4","4","2","7","6","5","4","6","797915991576289281","李","175","Male","[""坏我"",""好我"",""坏他"",""好他""]","[""弱我"",""强我"",""弱他"",""强他""]","","","","","","","","yes","","","","","","","","","SRET","EW_formal","","key","j","6.944748858447529","768","428","朋友","智慧","Positive","ability","","","","","","","","","","",""
"609","","f","psychophysics","25","90762","0.0-7.0-3.0-0.11","6","5","5","4","2","4","4","5","4","5","4","1","2","0","1","1","0","2","1","5","4","5","4","4","3","5","3","4","5","4","5","4","5","4","4","5","4","5","5","4","5","6","3","2","5","1","6","4","1","5","2","6","4","3","5","5","7","3","5","3","4","3","2","2","6","4","7","6","6","5","5","4","4","2","7","6","5","4","6","797915991576289281","李","175","Male","[""坏我"",""好我"",""坏他"",""好他""]","[""弱我"",""强我"",""弱他"",""强他""]","","","","","","","","no","","","","","","","","","SRET","EW_formal","","key","f","6.944155844155806","768","428","朋友","淫乱","Negative","morality","","","","","","","","","","",""
"587","","f","psychophysics","26","92352","0.0-7.0-3.0-0.12","6","5","5","4","2","4","4","5","4","5","4","1","2","0","1","1","0","2","1","5","4","5","4","4","3","5","3","4","5","4","5","4","5","4","4","5","4","5","5","4","5","6","3","2","5","1","6","4","1","5","2","6","4","3","5","5","7","3","5","3","4","3","2","2","6","4","7","6","6","5","5","4","4","2","7","6","5","4","6","797915991576289281","李","175","Male","[""坏我"",""好我"",""坏他"",""好他""]","[""弱我"",""强我"",""弱他"",""强他""]","","","","","","","","no","","","","","","","","","SRET","EW_formal","","key","f","6.934210526315789","768","428","朋友","廉正","Positive","morality","","","","","","","","","","",""
"548","","j","psychophysics","27","93901","0.0-7.0-3.0-0.13","6","5","5","4","2","4","4","5","4","5","4","1","2","0","1","1","0","2","1","5","4","5","4","4","3","5","3","4","5","4","5","4","5","4","4","5","4","5","5","4","5","6","3","2","5","1","6","4","1","5","2","6","4","3","5","5","7","3","5","3","4","3","2","2","6","4","7","6","6","5","5","4","4","2","7","6","5","4","6","797915991576289281","李","175","Male","[""坏我"",""好我"",""坏他"",""好他""]","[""弱我"",""强我"",""弱他"",""强他""]","","","","","","","","yes","","","","","","","","","SRET","EW_formal","","key","j","6.944594594594581","768","428","自己","博学","Positive","ability","","","","","","","","","","",""
"519","","j","psychophysics","28","95421","0.0-7.0-3.0-0.14","6","5","5","4","2","4","4","5","4","5","4","1","2","0","1","1","0","2","1","5","4","5","4","4","3","5","3","4","5","4","5","4","5","4","4","5","4","5","5","4","5","6","3","2","5","1","6","4","1","5","2","6","4","3","5","5","7","3","5","3","4","3","2","2","6","4","7","6","6","5","5","4","4","2","7","6","5","4","6","797915991576289281","李","175","Male","[""坏我"",""好我"",""坏他"",""好他""]","[""弱我"",""强我"",""弱他"",""强他""]","","","","","","","","yes","","","","","","","","","SRET","EW_formal","","key","j","6.944954128440367","768","428","朋友","沉着","Positive","ability","","","","","","","","","","",""
"638","","j","psychophysics","29","97062","0.0-7.0-3.0-0.15","6","5","5","4","2","4","4","5","4","5","4","1","2","0","1","1","0","2","1","5","4","5","4","4","3","5","3","4","5","4","5","4","5","4","4","5","4","5","5","4","5","6","3","2","5","1","6","4","1","5","2","6","4","3","5","5","7","3","5","3","4","3","2","2","6","4","7","6","6","5","5","4","4","2","7","6","5","4","6","797915991576289281","李","175","Male","[""坏我"",""好我"",""坏他"",""好他""]","[""弱我"",""强我"",""弱他"",""强他""]","","","","","","","","yes","","","","","","","","","SRET","EW_formal","","key","j","6.94468085106383","768","428","自己","忠义","Positive","morality","","","","","","","","","","",""
"867","","f","psychophysics","30","98934","0.0-7.0-3.0-0.16","6","5","5","4","2","4","4","5","4","5","4","1","2","0","1","1","0","2","1","5","4","5","4","4","3","5","3","4","5","4","5","4","5","4","4","5","4","5","5","4","5","6","3","2","5","1","6","4","1","5","2","6","4","3","5","5","7","3","5","3","4","3","2","2","6","4","7","6","6","5","5","4","4","2","7","6","5","4","6","797915991576289281","李","175","Male","[""坏我"",""好我"",""坏他"",""好他""]","[""弱我"",""强我"",""弱他"",""强他""]","","","","","","","","no","","","","","","","","","SRET","EW_formal","","key","f","6.944237918215613","768","428","自己","无耻","Negative","morality","","","","","","","","","","",""
"1677","","f","psychophysics","31","101613","0.0-7.0-3.0-0.17","6","5","5","4","2","4","4","5","4","5","4","1","2","0","1","1","0","2","1","5","4","5","4","4","3","5","3","4","5","4","5","4","5","4","4","5","4","5","5","4","5","6","3","2","5","1","6","4","1","5","2","6","4","3","5","5","7","3","5","3","4","3","2","2","6","4","7","6","6","5","5","4","4","2","7","6","5","4","6","797915991576289281","李","175","Male","[""坏我"",""好我"",""坏他"",""好他""]","[""弱我"",""强我"",""弱他"",""强他""]","","","","","","","","no","","","","","","","","","SRET","EW_formal","","key","f","6.943636363636371","768","428","朋友","新手","Negative","ability","","","","","","","","","","",""
"518","","j","psychophysics","32","103134","0.0-7.0-3.0-0.18","6","5","5","4","2","4","4","5","4","5","4","1","2","0","1","1","0","2","1","5","4","5","4","4","3","5","3","4","5","4","5","4","5","4","4","5","4","5","5","4","5","6","3","2","5","1","6","4","1","5","2","6","4","3","5","5","7","3","5","3","4","3","2","2","6","4","7","6","6","5","5","4","4","2","7","6","5","4","6","797915991576289281","李","175","Male","[""坏我"",""好我"",""坏他"",""好他""]","[""弱我"",""强我"",""弱他"",""强他""]","","","","","","","","yes","","","","","","","","","SRET","EW_formal","","key","j","6.94403669724772","768","428","自己","上进","Positive","ability","","","","","","","","","","",""
"447","","j","psychophysics","33","104582","0.0-7.0-3.0-0.19","6","5","5","4","2","4","4","5","4","5","4","1","2","0","1","1","0","2","1","5","4","5","4","4","3","5","3","4","5","4","5","4","5","4","4","5","4","5","5","4","5","6","3","2","5","1","6","4","1","5","2","6","4","3","5","5","7","3","5","3","4","3","2","2","6","4","7","6","6","5","5","4","4","2","7","6","5","4","6","797915991576289281","李","175","Male","[""坏我"",""好我"",""坏他"",""好他""]","[""弱我"",""强我"",""弱他"",""强他""]","","","","","","","","yes","","","","","","","","","SRET","EW_formal","","key","j","6.943478260869579","768","428","自己","孝顺","Positive","morality","","","","","","","","","","",""
"820","","f","psychophysics","34","106404","0.0-7.0-3.0-0.20","6","5","5","4","2","4","4","5","4","5","4","1","2","0","1","1","0","2","1","5","4","5","4","4","3","5","3","4","5","4","5","4","5","4","4","5","4","5","5","4","5","6","3","2","5","1","6","4","1","5","2","6","4","3","5","5","7","3","5","3","4","3","2","2","6","4","7","6","6","5","5","4","4","2","7","6","5","4","6","797915991576289281","李","175","Male","[""坏我"",""好我"",""坏他"",""好他""]","[""弱我"",""强我"",""弱他"",""强他""]","","","","","","","","no","","","","","","","","","SRET","EW_formal","","key","f","6.943893129771004","768","428","朋友","歹毒","Negative","morality","","","","","","","","","","",""
"619","","j","psychophysics","35","108022","0.0-7.0-3.0-0.21","6","5","5","4","2","4","4","5","4","5","4","1","2","0","1","1","0","2","1","5","4","5","4","4","3","5","3","4","5","4","5","4","5","4","4","5","4","5","5","4","5","6","3","2","5","1","6","4","1","5","2","6","4","3","5","5","7","3","5","3","4","3","2","2","6","4","7","6","6","5","5","4","4","2","7","6","5","4","6","797915991576289281","李","175","Male","[""坏我"",""好我"",""坏他"",""好他""]","[""弱我"",""强我"",""弱他"",""强他""]","","","","","","","","yes","","","","","","","","","SRET","EW_formal","","key","j","6.943965517241379","768","428","朋友","爱国","Positive","morality","","","","","","","","","","",""
"1438","","f","psychophysics","36","110461","0.0-7.0-3.0-0.22","6","5","5","4","2","4","4","5","4","5","4","1","2","0","1","1","0","2","1","5","4","5","4","4","3","5","3","4","5","4","5","4","5","4","4","5","4","5","5","4","5","6","3","2","5","1","6","4","1","5","2","6","4","3","5","5","7","3","5","3","4","3","2","2","6","4","7","6","6","5","5","4","4","2","7","6","5","4","6","797915991576289281","李","175","Male","[""坏我"",""好我"",""坏他"",""好他""]","[""弱我"",""强我"",""弱他"",""强他""]","","","","","","","","no","","","","","","","","","SRET","EW_formal","","key","f","6.944285714285714","768","428","朋友","阴毒","Negative","morality","","","","","","","","","","",""
"714","","j","psychophysics","37","112181","0.0-7.0-3.0-0.23","6","5","5","4","2","4","4","5","4","5","4","1","2","0","1","1","0","2","1","5","4","5","4","4","3","5","3","4","5","4","5","4","5","4","4","5","4","5","5","4","5","6","3","2","5","1","6","4","1","5","2","6","4","3","5","5","7","3","5","3","4","3","2","2","6","4","7","6","6","5","5","4","4","2","7","6","5","4","6","797915991576289281","李","175","Male","[""坏我"",""好我"",""坏他"",""好他""]","[""弱我"",""强我"",""弱他"",""强他""]","","","","","","","","yes","","","","","","","","","SRET","EW_formal","","key","j","6.944129554655858","768","428","自己","娴熟","Positive","ability","","","","","","","","","","",""
"509","","j","psychophysics","38","113692","0.0-7.0-3.0-0.24","6","5","5","4","2","4","4","5","4","5","4","1","2","0","1","1","0","2","1","5","4","5","4","4","3","5","3","4","5","4","5","4","5","4","4","5","4","5","5","4","5","6","3","2","5","1","6","4","1","5","2","6","4","3","5","5","7","3","5","3","4","3","2","2","6","4","7","6","6","5","5","4","4","2","7","6","5","4","6","797915991576289281","李","175","Male","[""坏我"",""好我"",""坏他"",""好他""]","[""弱我"",""强我"",""弱他"",""强他""]","","","","","","","","yes","","","","","","","","","SRET","EW_formal","","key","j","6.943778801843331","768","428","朋友","慈悲","Positive","morality","","","","","","","","","","",""
"607","","f","psychophysics","39","115301","0.0-7.0-3.0-0.25","6","5","5","4","2","4","4","5","4","5","4","1","2","0","1","1","0","2","1","5","4","5","4","4","3","5","3","4","5","4","5","4","5","4","4","5","4","5","5","4","5","6","3","2","5","1","6","4","1","5","2","6","4","3","5","5","7","3","5","3","4","3","2","2","6","4","7","6","6","5","5","4","4","2","7","6","5","4","6","797915991576289281","李","175","Male","[""坏我"",""好我"",""坏他"",""好他""]","[""弱我"",""强我"",""弱他"",""强他""]","","","","","","","","no","","","","","","","","","SRET","EW_formal","","key","f","6.945217391304323","768","428","自己","窝囊","Negative","ability","","","","","","","","","","",""
"788","","f","psychophysics","40","117091","0.0-7.0-3.0-0.26","6","5","5","4","2","4","4","5","4","5","4","1","2","0","1","1","0","2","1","5","4","5","4","4","3","5","3","4","5","4","5","4","5","4","4","5","4","5","5","4","5","6","3","2","5","1","6","4","1","5","2","6","4","3","5","5","7","3","5","3","4","3","2","2","6","4","7","6","6","5","5","4","4","2","7","6","5","4","6","797915991576289281","李","175","Male","[""坏我"",""好我"",""坏他"",""好他""]","[""弱我"",""强我"",""弱他"",""强他""]","","","","","","","","no","","","","","","","","","SRET","EW_formal","","key","f","6.943968871595297","768","428","自己","缺德","Negative","morality","","","","","","","","","","",""
"718","","f","psychophysics","41","118811","0.0-7.0-3.0-0.27","6","5","5","4","2","4","4","5","4","5","4","1","2","0","1","1","0","2","1","5","4","5","4","4","3","5","3","4","5","4","5","4","5","4","4","5","4","5","5","4","5","6","3","2","5","1","6","4","1","5","2","6","4","3","5","5","7","3","5","3","4","3","2","2","6","4","7","6","6","5","5","4","4","2","7","6","5","4","6","797915991576289281","李","175","Male","[""坏我"",""好我"",""坏他"",""好他""]","[""弱我"",""强我"",""弱他"",""强他""]","","","","","","","","no","","","","","","","","","SRET","EW_formal","","key","f","6.944129554655858","768","428","朋友","浅薄","Negative","ability","","","","","","","","","","",""
"559","","j","psychophysics","42","120372","0.0-7.0-3.0-0.28","6","5","5","4","2","4","4","5","4","5","4","1","2","0","1","1","0","2","1","5","4","5","4","4","3","5","3","4","5","4","5","4","5","4","4","5","4","5","5","4","5","6","3","2","5","1","6","4","1","5","2","6","4","3","5","5","7","3","5","3","4","3","2","2","6","4","7","6","6","5","5","4","4","2","7","6","5","4","6","797915991576289281","李","175","Male","[""坏我"",""好我"",""坏他"",""好他""]","[""弱我"",""强我"",""弱他"",""强他""]","","","","","","","","yes","","","","","","","","","SRET","EW_formal","","key","j","6.942410714285676","768","428","自己","博识","Positive","ability","","","","","","","","","","",""
"598","","j","psychophysics","43","121971","0.0-7.0-3.0-0.29","6","5","5","4","2","4","4","5","4","5","4","1","2","0","1","1","0","2","1","5","4","5","4","4","3","5","3","4","5","4","5","4","5","4","4","5","4","5","5","4","5","6","3","2","5","1","6","4","1","5","2","6","4","3","5","5","7","3","5","3","4","3","2","2","6","4","7","6","6","5","5","4","4","2","7","6","5","4","6","797915991576289281","李","175","Male","[""坏我"",""好我"",""坏他"",""好他""]","[""弱我"",""强我"",""弱他"",""强他""]","","","","","","","","yes","","","","","","","","","SRET","EW_formal","","key","j","6.944104803493437","768","428","朋友","高明","Positive","ability","","","","","","","","","","",""
"679","","j","psychophysics","44","123651","0.0-7.0-3.0-0.30","6","5","5","4","2","4","4","5","4","5","4","1","2","0","1","1","0","2","1","5","4","5","4","4","3","5","3","4","5","4","5","4","5","4","4","5","4","5","5","4","5","6","3","2","5","1","6","4","1","5","2","6","4","3","5","5","7","3","5","3","4","3","2","2","6","4","7","6","6","5","5","4","4","2","7","6","5","4","6","797915991576289281","李","175","Male","[""坏我"",""好我"",""坏他"",""好他""]","[""弱我"",""强我"",""弱他"",""强他""]","","","","","","","","yes","","","","","","","","","SRET","EW_formal","","key","j","6.945228215767647","768","428","自己","高效","Positive","ability","","","","","","","","","","",""
"549","","j","psychophysics","45","125201","0.0-7.0-3.0-0.31","6","5","5","4","2","4","4","5","4","5","4","1","2","0","1","1","0","2","1","5","4","5","4","4","3","5","3","4","5","4","5","4","5","4","4","5","4","5","5","4","5","6","3","2","5","1","6","4","1","5","2","6","4","3","5","5","7","3","5","3","4","3","2","2","6","4","7","6","6","5","5","4","4","2","7","6","5","4","6","797915991576289281","李","175","Male","[""坏我"",""好我"",""坏他"",""好他""]","[""弱我"",""强我"",""弱他"",""强他""]","","","","","","","","yes","","","","","","","","","SRET","EW_formal","","key","j","6.945045045044993","768","428","自己","粗心","Negative","ability","","","","","","","","","","",""
"559","","j","psychophysics","46","126762","0.0-7.0-3.0-0.32","6","5","5","4","2","4","4","5","4","5","4","1","2","0","1","1","0","2","1","5","4","5","4","4","3","5","3","4","5","4","5","4","5","4","4","5","4","5","5","4","5","6","3","2","5","1","6","4","1","5","2","6","4","3","5","5","7","3","5","3","4","3","2","2","6","4","7","6","6","5","5","4","4","2","7","6","5","4","6","797915991576289281","李","175","Male","[""坏我"",""好我"",""坏他"",""好他""]","[""弱我"",""强我"",""弱他"",""强他""]","","","","","","","","yes","","","","","","","","","SRET","EW_formal","","key","j","6.943303571428585","768","428","自己","谦逊","Positive","morality","","","","","","","","","","",""
"559","","f","psychophysics","47","128322","0.0-7.0-3.0-0.33","6","5","5","4","2","4","4","5","4","5","4","1","2","0","1","1","0","2","1","5","4","5","4","4","3","5","3","4","5","4","5","4","5","4","4","5","4","5","5","4","5","6","3","2","5","1","6","4","1","5","2","6","4","3","5","5","7","3","5","3","4","3","2","2","6","4","7","6","6","5","5","4","4","2","7","6","5","4","6","797915991576289281","李","175","Male","[""坏我"",""好我"",""坏他"",""好他""]","[""弱我"",""强我"",""弱他"",""强他""]","","","","","","","","no","","","","","","","","","SRET","EW_formal","","key","f","6.944196428571429","768","428","朋友","奸险","Negative","morality","","","","","","","","","","",""
"664","","j","psychophysics","48","129992","0.0-7.0-3.0-0.34","6","5","5","4","2","4","4","5","4","5","4","1","2","0","1","1","0","2","1","5","4","5","4","4","3","5","3","4","5","4","5","4","5","4","4","5","4","5","5","4","5","6","3","2","5","1","6","4","1","5","2","6","4","3","5","5","7","3","5","3","4","3","2","2","6","4","7","6","6","5","5","4","4","2","7","6","5","4","6","797915991576289281","李","175","Male","[""坏我"",""好我"",""坏他"",""好他""]","[""弱我"",""强我"",""弱他"",""强他""]","","","","","","","","yes","","","","","","","","","SRET","EW_formal","","key","j","6.944769874476999","768","428","朋友","顶事","Positive","ability","","","","","","","","","","",""
"568","","f","psychophysics","49","131562","0.0-7.0-3.0-0.35","6","5","5","4","2","4","4","5","4","5","4","1","2","0","1","1","0","2","1","5","4","5","4","4","3","5","3","4","5","4","5","4","5","4","4","5","4","5","5","4","5","6","3","2","5","1","6","4","1","5","2","6","4","3","5","5","7","3","5","3","4","3","2","2","6","4","7","6","6","5","5","4","4","2","7","6","5","4","6","797915991576289281","李","175","Male","[""坏我"",""好我"",""坏他"",""好他""]","[""弱我"",""强我"",""弱他"",""强他""]","","","","","","","","no","","","","","","","","","SRET","EW_formal","","key","f","6.943999999999974","768","428","朋友","短视","Negative","ability","","","","","","","","","","",""
"547","","f","psychophysics","50","133111","0.0-7.0-3.0-0.36","6","5","5","4","2","4","4","5","4","5","4","1","2","0","1","1","0","2","1","5","4","5","4","4","3","5","3","4","5","4","5","4","5","4","4","5","4","5","5","4","5","6","3","2","5","1","6","4","1","5","2","6","4","3","5","5","7","3","5","3","4","3","2","2","6","4","7","6","6","5","5","4","4","2","7","6","5","4","6","797915991576289281","李","175","Male","[""坏我"",""好我"",""坏他"",""好他""]","[""弱我"",""强我"",""弱他"",""强他""]","","","","","","","","no","","","","","","","","","SRET","EW_formal","","key","f","6.9441441441440395","768","428","自己","卑鄙","Negative","morality","","","","","","","","","","",""
"597","","f","psychophysics","51","134713","0.0-7.0-3.0-0.37","6","5","5","4","2","4","4","5","4","5","4","1","2","0","1","1","0","2","1","5","4","5","4","4","3","5","3","4","5","4","5","4","5","4","4","5","4","5","5","4","5","6","3","2","5","1","6","4","1","5","2","6","4","3","5","5","7","3","5","3","4","3","2","2","6","4","7","6","6","5","5","4","4","2","7","6","5","4","6","797915991576289281","李","175","Male","[""坏我"",""好我"",""坏他"",""好他""]","[""弱我"",""强我"",""弱他"",""强他""]","","","","","","","","no","","","","","","","","","SRET","EW_formal","","key","f","6.945217391304323","768","428","自己","怠惰","Negative","ability","","","","","","","","","","",""
"628","","j","psychophysics","52","136342","0.0-7.0-3.0-0.38","6","5","5","4","2","4","4","5","4","5","4","1","2","0","1","1","0","2","1","5","4","5","4","4","3","5","3","4","5","4","5","4","5","4","4","5","4","5","5","4","5","6","3","2","5","1","6","4","1","5","2","6","4","3","5","5","7","3","5","3","4","3","2","2","6","4","7","6","6","5","5","4","4","2","7","6","5","4","6","797915991576289281","李","175","Male","[""坏我"",""好我"",""坏他"",""好他""]","[""弱我"",""强我"",""弱他"",""强他""]","","","","","","","","yes","","","","","","","","","SRET","EW_formal","","key","j","6.944017094017069","768","428","自己","敬业","Positive","morality","","","","","","","","","","",""
"598","","f","psychophysics","53","137941","0.0-7.0-3.0-0.39","6","5","5","4","2","4","4","5","4","5","4","1","2","0","1","1","0","2","1","5","4","5","4","4","3","5","3","4","5","4","5","4","5","4","4","5","4","5","5","4","5","6","3","2","5","1","6","4","1","5","2","6","4","3","5","5","7","3","5","3","4","3","2","2","6","4","7","6","6","5","5","4","4","2","7","6","5","4","6","797915991576289281","李","175","Male","[""坏我"",""好我"",""坏他"",""好他""]","[""弱我"",""强我"",""弱他"",""强他""]","","","","","","","","no","","","","","","","","","SRET","EW_formal","","key","f","6.9441048034933734","768","428","朋友","伪善","Negative","morality","","","","","","","","","","",""
"707","","f","psychophysics","54","139650","0.0-7.0-3.0-0.40","6","5","5","4","2","4","4","5","4","5","4","1","2","0","1","1","0","2","1","5","4","5","4","4","3","5","3","4","5","4","5","4","5","4","4","5","4","5","5","4","5","6","3","2","5","1","6","4","1","5","2","6","4","3","5","5","7","3","5","3","4","3","2","2","6","4","7","6","6","5","5","4","4","2","7","6","5","4","6","797915991576289281","李","175","Male","[""坏我"",""好我"",""坏他"",""好他""]","[""弱我"",""强我"",""弱他"",""强他""]","","","","","","","","no","","","","","","","","","SRET","EW_formal","","key","f","6.943265306122354","768","428","朋友","无能","Negative","ability","","","","","","","","","","",""
"530","","f","psychophysics","55","141182","0.0-7.0-3.0-0.41","6","5","5","4","2","4","4","5","4","5","4","1","2","0","1","1","0","2","1","5","4","5","4","4","3","5","3","4","5","4","5","4","5","4","4","5","4","5","5","4","5","6","3","2","5","1","6","4","1","5","2","6","4","3","5","5","7","3","5","3","4","3","2","2","6","4","7","6","6","5","5","4","4","2","7","6","5","4","6","797915991576289281","李","175","Male","[""坏我"",""好我"",""坏他"",""好他""]","[""弱我"",""强我"",""弱他"",""强他""]","","","","","","","","no","","","","","","","","","SRET","EW_formal","","key","f","6.944545454545534","768","428","朋友","草率","Negative","ability","","","","","","","","","","",""
"549","","j","psychophysics","56","142732","0.0-7.0-3.0-0.42","6","5","5","4","2","4","4","5","4","5","4","1","2","0","1","1","0","2","1","5","4","5","4","4","3","5","3","4","5","4","5","4","5","4","4","5","4","5","5","4","5","6","3","2","5","1","6","4","1","5","2","6","4","3","5","5","7","3","5","3","4","3","2","2","6","4","7","6","6","5","5","4","4","2","7","6","5","4","6","797915991576289281","李","175","Male","[""坏我"",""好我"",""坏他"",""好他""]","[""弱我"",""强我"",""弱他"",""强他""]","","","","","","","","yes","","","","","","","","","SRET","EW_formal","","key","j","6.943243243243348","768","428","自己","守法","Positive","morality","","","","","","","","","","",""
"647","","j","psychophysics","57","144382","0.0-7.0-3.0-0.43","6","5","5","4","2","4","4","5","4","5","4","1","2","0","1","1","0","2","1","5","4","5","4","4","3","5","3","4","5","4","5","4","5","4","4","5","4","5","5","4","5","6","3","2","5","1","6","4","1","5","2","6","4","3","5","5","7","3","5","3","4","3","2","2","6","4","7","6","6","5","5","4","4","2","7","6","5","4","6","797915991576289281","李","175","Male","[""坏我"",""好我"",""坏他"",""好他""]","[""弱我"",""强我"",""弱他"",""强他""]","","","","","","","","yes","","","","","","","","","SRET","EW_formal","","key","j","6.943037974683544","768","428","朋友","果断","Positive","ability","","","","","","","","","","",""
"607","","f","psychophysics","58","145991","0.0-7.0-3.0-0.44","6","5","5","4","2","4","4","5","4","5","4","1","2","0","1","1","0","2","1","5","4","5","4","4","3","5","3","4","5","4","5","4","5","4","4","5","4","5","5","4","5","6","3","2","5","1","6","4","1","5","2","6","4","3","5","5","7","3","5","3","4","3","2","2","6","4","7","6","6","5","5","4","4","2","7","6","5","4","6","797915991576289281","李","175","Male","[""坏我"",""好我"",""坏他"",""好他""]","[""弱我"",""强我"",""弱他"",""强他""]","","","","","","","","no","","","","","","","","","SRET","EW_formal","","key","f","6.94391304347816","768","428","自己","黑心","Negative","morality","","","","","","","","","","",""
"673","","j","psychophysics","59","147670","0.0-7.0-3.0-0.45","6","5","5","4","2","4","4","5","4","5","4","1","2","0","1","1","0","2","1","5","4","5","4","4","3","5","3","4","5","4","5","4","5","4","4","5","4","5","5","4","5","6","3","2","5","1","6","4","1","5","2","6","4","3","5","5","7","3","5","3","4","3","2","2","6","4","7","6","6","5","5","4","4","2","7","6","5","4","6","797915991576289281","李","175","Male","[""坏我"",""好我"",""坏他"",""好他""]","[""弱我"",""强我"",""弱他"",""强他""]","","","","","","","","yes","","","","","","","","","SRET","EW_formal","","key","j","6.943568464730267","768","428","朋友","坦荡","Positive","morality","","","","","","","","","","",""
"557","","j","psychophysics","60","149232","0.0-7.0-3.0-0.46","6","5","5","4","2","4","4","5","4","5","4","1","2","0","1","1","0","2","1","5","4","5","4","4","3","5","3","4","5","4","5","4","5","4","4","5","4","5","5","4","5","6","3","2","5","1","6","4","1","5","2","6","4","3","5","5","7","3","5","3","4","3","2","2","6","4","7","6","6","5","5","4","4","2","7","6","5","4","6","797915991576289281","李","175","Male","[""坏我"",""好我"",""坏他"",""好他""]","[""弱我"",""强我"",""弱他"",""强他""]","","","","","","","","yes","","","","","","","","","SRET","EW_formal","","key","j","6.944196428571429","768","428","朋友","仁爱","Positive","morality","","","","","","","","","","",""
"566","","j","psychophysics","61","150800","0.0-7.0-3.0-0.47","6","5","5","4","2","4","4","5","4","5","4","1","2","0","1","1","0","2","1","5","4","5","4","4","3","5","3","4","5","4","5","4","5","4","4","5","4","5","5","4","5","6","3","2","5","1","6","4","1","5","2","6","4","3","5","5","7","3","5","3","4","3","2","2","6","4","7","6","6","5","5","4","4","2","7","6","5","4","6","797915991576289281","李","175","Male","[""坏我"",""好我"",""坏他"",""好他""]","[""弱我"",""强我"",""弱他"",""强他""]","","","","","","","","yes","","","","","","","","","SRET","EW_formal","","key","j","6.944888888888785","768","428","朋友","奉献","Positive","morality","","","","","","","","","","",""
"529","","j","psychophysics","62","152330","0.0-7.0-3.0-0.48","6","5","5","4","2","4","4","5","4","5","4","1","2","0","1","1","0","2","1","5","4","5","4","4","3","5","3","4","5","4","5","4","5","4","4","5","4","5","5","4","5","6","3","2","5","1","6","4","1","5","2","6","4","3","5","5","7","3","5","3","4","3","2","2","6","4","7","6","6","5","5","4","4","2","7","6","5","4","6","797915991576289281","李","175","Male","[""坏我"",""好我"",""坏他"",""好他""]","[""弱我"",""强我"",""弱他"",""强他""]","","","","","","","","yes","","","","","","","","","SRET","EW_formal","","key","j","6.9447488584475945","768","428","自己","依靠","Negative","ability","","","","","","","","","","",""
"609","","j","psychophysics","63","153941","0.0-7.0-3.0-0.49","6","5","5","4","2","4","4","5","4","5","4","1","2","0","1","1","0","2","1","5","4","5","4","4","3","5","3","4","5","4","5","4","5","4","4","5","4","5","5","4","5","6","3","2","5","1","6","4","1","5","2","6","4","3","5","5","7","3","5","3","4","3","2","2","6","4","7","6","6","5","5","4","4","2","7","6","5","4","6","797915991576289281","李","175","Male","[""坏我"",""好我"",""坏他"",""好他""]","[""弱我"",""强我"",""弱他"",""强他""]","","","","","","","","yes","","","","","","","","","SRET","EW_formal","","key","j","6.945021645021595","768","428","自己","变通","Positive","ability","","","","","","","","","","",""
"549","","f","psychophysics","64","155492","0.0-7.0-3.0-0.50","6","5","5","4","2","4","4","5","4","5","4","1","2","0","1","1","0","2","1","5","4","5","4","4","3","5","3","4","5","4","5","4","5","4","4","5","4","5","5","4","5","6","3","2","5","1","6","4","1","5","2","6","4","3","5","5","7","3","5","3","4","3","2","2","6","4","7","6","6","5","5","4","4","2","7","6","5","4","6","797915991576289281","李","175","Male","[""坏我"",""好我"",""坏他"",""好他""]","[""弱我"",""强我"",""弱他"",""强他""]","","","","","","","","no","","","","","","","","","SRET","EW_formal","","key","f","6.943946188340807","768","428","朋友","驽钝","Negative","ability","","","","","","","","","","",""
"768","","j","psychophysics","65","157262","0.0-7.0-3.0-0.51","6","5","5","4","2","4","4","5","4","5","4","1","2","0","1","1","0","2","1","5","4","5","4","4","3","5","3","4","5","4","5","4","5","4","4","5","4","5","5","4","5","6","3","2","5","1","6","4","1","5","2","6","4","3","5","5","7","3","5","3","4","3","2","2","6","4","7","6","6","5","5","4","4","2","7","6","5","4","6","797915991576289281","李","175","Male","[""坏我"",""好我"",""坏他"",""好他""]","[""弱我"",""强我"",""弱他"",""强他""]","","","","","","","","yes","","","","","","","","","SRET","EW_formal","","key","j","6.943307086614196","768","428","自己","守信","Positive","morality","","","","","","","","","","",""
"568","","f","psychophysics","66","158831","0.0-7.0-3.0-0.52","6","5","5","4","2","4","4","5","4","5","4","1","2","0","1","1","0","2","1","5","4","5","4","4","3","5","3","4","5","4","5","4","5","4","4","5","4","5","5","4","5","6","3","2","5","1","6","4","1","5","2","6","4","3","5","5","7","3","5","3","4","3","2","2","6","4","7","6","6","5","5","4","4","2","7","6","5","4","6","797915991576289281","李","175","Male","[""坏我"",""好我"",""坏他"",""好他""]","[""弱我"",""强我"",""弱他"",""强他""]","","","","","","","","no","","","","","","","","","SRET","EW_formal","","key","f","6.943555555555504","768","428","朋友","失信","Negative","morality","","","","","","","","","","",""
"1188","","j","psychophysics","67","161021","0.0-7.0-3.0-0.53","6","5","5","4","2","4","4","5","4","5","4","1","2","0","1","1","0","2","1","5","4","5","4","4","3","5","3","4","5","4","5","4","5","4","4","5","4","5","5","4","5","6","3","2","5","1","6","4","1","5","2","6","4","3","5","5","7","3","5","3","4","3","2","2","6","4","7","6","6","5","5","4","4","2","7","6","5","4","6","797915991576289281","李","175","Male","[""坏我"",""好我"",""坏他"",""好他""]","[""弱我"",""强我"",""弱他"",""强他""]","","","","","","","","yes","","","","","","","","","SRET","EW_formal","","key","j","6.943949044585969","768","428","自己","毅力","Positive","ability","","","","","","","","","","",""
"719","","f","psychophysics","68","162742","0.0-7.0-3.0-0.54","6","5","5","4","2","4","4","5","4","5","4","1","2","0","1","1","0","2","1","5","4","5","4","4","3","5","3","4","5","4","5","4","5","4","4","5","4","5","5","4","5","6","3","2","5","1","6","4","1","5","2","6","4","3","5","5","7","3","5","3","4","3","2","2","6","4","7","6","6","5","5","4","4","2","7","6","5","4","6","797915991576289281","李","175","Male","[""坏我"",""好我"",""坏他"",""好他""]","[""弱我"",""强我"",""弱他"",""强他""]","","","","","","","","no","","","","","","","","","SRET","EW_formal","","key","f","6.94331983805668","768","428","自己","罪恶","Negative","morality","","","","","","","","","","",""
"998","","j","psychophysics","69","164742","0.0-7.0-3.0-0.55","6","5","5","4","2","4","4","5","4","5","4","1","2","0","1","1","0","2","1","5","4","5","4","4","3","5","3","4","5","4","5","4","5","4","4","5","4","5","5","4","5","6","3","2","5","1","6","4","1","5","2","6","4","3","5","5","7","3","5","3","4","3","2","2","6","4","7","6","6","5","5","4","4","2","7","6","5","4","6","797915991576289281","李","175","Male","[""坏我"",""好我"",""坏他"",""好他""]","[""弱我"",""强我"",""弱他"",""强他""]","","","","","","","","yes","","","","","","","","","SRET","EW_formal","","key","j","6.94390243902437","768","428","自己","敏捷","Positive","ability","","","","","","","","","","",""
"418","","j","psychophysics","70","166161","0.0-7.0-3.0-0.56","6","5","5","4","2","4","4","5","4","5","4","1","2","0","1","1","0","2","1","5","4","5","4","4","3","5","3","4","5","4","5","4","5","4","4","5","4","5","5","4","5","6","3","2","5","1","6","4","1","5","2","6","4","3","5","5","7","3","5","3","4","3","2","2","6","4","7","6","6","5","5","4","4","2","7","6","5","4","6","797915991576289281","李","175","Male","[""坏我"",""好我"",""坏他"",""好他""]","[""弱我"",""强我"",""弱他"",""强他""]","","","","","","","","yes","","","","","","","","","SRET","EW_formal","","key","j","6.943349753694581","768","428","朋友","努力","Positive","ability","","","","","","","","","","",""
"445","","j","psychophysics","71","167612","0.0-7.0-3.0-0.57","6","5","5","4","2","4","4","5","4","5","4","1","2","0","1","1","0","2","1","5","4","5","4","4","3","5","3","4","5","4","5","4","5","4","4","5","4","5","5","4","5","6","3","2","5","1","6","4","1","5","2","6","4","3","5","5","7","3","5","3","4","3","2","2","6","4","7","6","6","5","5","4","4","2","7","6","5","4","6","797915991576289281","李","175","Male","[""坏我"",""好我"",""坏他"",""好他""]","[""弱我"",""强我"",""弱他"",""强他""]","","","","","","","","yes","","","","","","","","","SRET","EW_formal","","key","j","6.9442307692307415","768","428","朋友","宽容","Positive","morality","","","","","","","","","","",""
"559","","j","psychophysics","72","169173","0.0-7.0-3.0-0.58","6","5","5","4","2","4","4","5","4","5","4","1","2","0","1","1","0","2","1","5","4","5","4","4","3","5","3","4","5","4","5","4","5","4","4","5","4","5","5","4","5","6","3","2","5","1","6","4","1","5","2","6","4","3","5","5","7","3","5","3","4","3","2","2","6","4","7","6","6","5","5","4","4","2","7","6","5","4","6","797915991576289281","李","175","Male","[""坏我"",""好我"",""坏他"",""好他""]","[""弱我"",""强我"",""弱他"",""强他""]","","","","","","","","yes","","","","","","","","","SRET","EW_formal","","key","j","6.943749999999974","768","428","自己","稳健","Positive","ability","","","","","","","","","","",""
"568","","f","psychophysics","73","170742","0.0-7.0-3.0-0.59","6","5","5","4","2","4","4","5","4","5","4","1","2","0","1","1","0","2","1","5","4","5","4","4","3","5","3","4","5","4","5","4","5","4","4","5","4","5","5","4","5","6","3","2","5","1","6","4","1","5","2","6","4","3","5","5","7","3","5","3","4","3","2","2","6","4","7","6","6","5","5","4","4","2","7","6","5","4","6","797915991576289281","李","175","Male","[""坏我"",""好我"",""坏他"",""好他""]","[""弱我"",""强我"",""弱他"",""强他""]","","","","","","","","no","","","","","","","","","SRET","EW_formal","","key","f","6.943999999999974","768","428","自己","无助","Negative","ability","","","","","","","","","","",""
"588","","f","psychophysics","74","172332","0.0-7.0-3.0-0.60","6","5","5","4","2","4","4","5","4","5","4","1","2","0","1","1","0","2","1","5","4","5","4","4","3","5","3","4","5","4","5","4","5","4","4","5","4","5","5","4","5","6","3","2","5","1","6","4","1","5","2","6","4","3","5","5","7","3","5","3","4","3","2","2","6","4","7","6","6","5","5","4","4","2","7","6","5","4","6","797915991576289281","李","175","Male","[""坏我"",""好我"",""坏他"",""好他""]","[""弱我"",""强我"",""弱他"",""强他""]","","","","","","","","no","","","","","","","","","SRET","EW_formal","","key","f","6.943859649122858","768","428","朋友","下流","Negative","morality","","","","","","","","","","",""
"528","","f","psychophysics","75","173862","0.0-7.0-3.0-0.61","6","5","5","4","2","4","4","5","4","5","4","1","2","0","1","1","0","2","1","5","4","5","4","4","3","5","3","4","5","4","5","4","5","4","4","5","4","5","5","4","5","6","3","2","5","1","6","4","1","5","2","6","4","3","5","5","7","3","5","3","4","3","2","2","6","4","7","6","6","5","5","4","4","2","7","6","5","4","6","797915991576289281","李","175","Male","[""坏我"",""好我"",""坏他"",""好他""]","[""弱我"",""强我"",""弱他"",""强他""]","","","","","","","","no","","","","","","","","","SRET","EW_formal","","key","f","6.943378995433816","768","428","自己","腐败","Negative","morality","","","","","","","","","","",""
"530","","f","psychophysics","76","175393","0.0-7.0-3.0-0.62","6","5","5","4","2","4","4","5","4","5","4","1","2","0","1","1","0","2","1","5","4","5","4","4","3","5","3","4","5","4","5","4","5","4","4","5","4","5","5","4","5","6","3","2","5","1","6","4","1","5","2","6","4","3","5","5","7","3","5","3","4","3","2","2","6","4","7","6","6","5","5","4","4","2","7","6","5","4","6","797915991576289281","李","175","Male","[""坏我"",""好我"",""坏他"",""好他""]","[""弱我"",""强我"",""弱他"",""强他""]","","","","","","","","no","","","","","","","","","SRET","EW_formal","","key","f","6.943636363636258","768","428","朋友","不孝","Negative","morality","","","","","","","","","","",""
"588","","f","psychophysics","77","176983","0.0-7.0-3.0-0.63","6","5","5","4","2","4","4","5","4","5","4","1","2","0","1","1","0","2","1","5","4","5","4","4","3","5","3","4","5","4","5","4","5","4","4","5","4","5","5","4","5","6","3","2","5","1","6","4","1","5","2","6","4","3","5","5","7","3","5","3","4","3","2","2","6","4","7","6","6","5","5","4","4","2","7","6","5","4","6","797915991576289281","李","175","Male","[""坏我"",""好我"",""坏他"",""好他""]","[""弱我"",""强我"",""弱他"",""强他""]","","","","","","","","no","","","","","","","","","SRET","EW_formal","","key","f","6.944298245613984","768","428","自己","狡狯","Negative","morality","","","","","","","","","","",""
"1038","","f","psychophysics","78","179022","0.0-7.0-3.0-0.64","6","5","5","4","2","4","4","5","4","5","4","1","2","0","1","1","0","2","1","5","4","5","4","4","3","5","3","4","5","4","5","4","5","4","4","5","4","5","5","4","5","6","3","2","5","1","6","4","1","5","2","6","4","3","5","5","7","3","5","3","4","3","2","2","6","4","7","6","6","5","5","4","4","2","7","6","5","4","6","797915991576289281","李","175","Male","[""坏我"",""好我"",""坏他"",""好他""]","[""弱我"",""强我"",""弱他"",""强他""]","","","","","","","","no","","","","","","","","","SRET","EW_formal","","key","f","6.943835616438376","768","428","自己","恶劣","Negative","morality","","","","","","","","","","",""
"545","","f","psychophysics","79","180573","0.0-7.0-3.0-0.65","6","5","5","4","2","4","4","5","4","5","4","1","2","0","1","1","0","2","1","5","4","5","4","4","3","5","3","4","5","4","5","4","5","4","4","5","4","5","5","4","5","6","3","2","5","1","6","4","1","5","2","6","4","3","5","5","7","3","5","3","4","3","2","2","6","4","7","6","6","5","5","4","4","2","7","6","5","4","6","797915991576289281","李","175","Male","[""坏我"",""好我"",""坏他"",""好他""]","[""弱我"",""强我"",""弱他"",""强他""]","","","","","","","","no","","","","","","","","","SRET","EW_formal","","key","f","6.943946188340807","768","428","朋友","蛇蝎","Negative","morality","","","","","","","","","","",""
"587","","j","psychophysics","80","182165","0.0-7.0-3.0-0.66","6","5","5","4","2","4","4","5","4","5","4","1","2","0","1","1","0","2","1","5","4","5","4","4","3","5","3","4","5","4","5","4","5","4","4","5","4","5","5","4","5","6","3","2","5","1","6","4","1","5","2","6","4","3","5","5","7","3","5","3","4","3","2","2","6","4","7","6","6","5","5","4","4","2","7","6","5","4","6","797915991576289281","李","175","Male","[""坏我"",""好我"",""坏他"",""好他""]","[""弱我"",""强我"",""弱他"",""强他""]","","","","","","","","yes","","","","","","","","","SRET","EW_formal","","key","j","6.942105263157844","768","428","朋友","清廉","Positive","morality","","","","","","","","","","",""
"767","","j","psychophysics","81","183933","0.0-7.0-3.0-0.67","6","5","5","4","2","4","4","5","4","5","4","1","2","0","1","1","0","2","1","5","4","5","4","4","3","5","3","4","5","4","5","4","5","4","4","5","4","5","5","4","5","6","3","2","5","1","6","4","1","5","2","6","4","3","5","5","7","3","5","3","4","3","2","2","6","4","7","6","6","5","5","4","4","2","7","6","5","4","6","797915991576289281","李","175","Male","[""坏我"",""好我"",""坏他"",""好他""]","[""弱我"",""强我"",""弱他"",""强他""]","","","","","","","","yes","","","","","","","","","SRET","EW_formal","","key","j","6.943307086614196","768","428","自己","无私","Positive","morality","","","","","","","","","","",""
"778","","f","psychophysics","82","185713","0.0-7.0-3.0-0.68","6","5","5","4","2","4","4","5","4","5","4","1","2","0","1","1","0","2","1","5","4","5","4","4","3","5","3","4","5","4","5","4","5","4","4","5","4","5","5","4","5","6","3","2","5","1","6","4","1","5","2","6","4","3","5","5","7","3","5","3","4","3","2","2","6","4","7","6","6","5","5","4","4","2","7","6","5","4","6","797915991576289281","李","175","Male","[""坏我"",""好我"",""坏他"",""好他""]","[""弱我"",""强我"",""弱他"",""强他""]","","","","","","","","no","","","","","","","","","SRET","EW_formal","","key","f","6.9450980392156865","768","428","朋友","势利","Negative","morality","","","","","","","","","","",""
"799","","j","psychophysics","83","187513","0.0-7.0-3.0-0.69","6","5","5","4","2","4","4","5","4","5","4","1","2","0","1","1","0","2","1","5","4","5","4","4","3","5","3","4","5","4","5","4","5","4","4","5","4","5","5","4","5","6","3","2","5","1","6","4","1","5","2","6","4","3","5","5","7","3","5","3","4","3","2","2","6","4","7","6","6","5","5","4","4","2","7","6","5","4","6","797915991576289281","李","175","Male","[""坏我"",""好我"",""坏他"",""好他""]","[""弱我"",""强我"",""弱他"",""强他""]","","","","","","","","yes","","","","","","","","","SRET","EW_formal","","key","j","6.944961240310145","768","428","朋友","勤奋","Positive","ability","","","","","","","","","","",""
"678","","f","psychophysics","84","189193","0.0-7.0-3.0-0.70","6","5","5","4","2","4","4","5","4","5","4","1","2","0","1","1","0","2","1","5","4","5","4","4","3","5","3","4","5","4","5","4","5","4","4","5","4","5","5","4","5","6","3","2","5","1","6","4","1","5","2","6","4","3","5","5","7","3","5","3","4","3","2","2","6","4","7","6","6","5","5","4","4","2","7","6","5","4","6","797915991576289281","李","175","Male","[""坏我"",""好我"",""坏他"",""好他""]","[""弱我"",""强我"",""弱他"",""强他""]","","","","","","","","no","","","","","","","","","SRET","EW_formal","","key","f","6.943983402489627","768","428","自己","盲目","Negative","ability","","","","","","","","","","",""
"907","","f","psychophysics","85","191102","0.0-7.0-3.0-0.71","6","5","5","4","2","4","4","5","4","5","4","1","2","0","1","1","0","2","1","5","4","5","4","4","3","5","3","4","5","4","5","4","5","4","4","5","4","5","5","4","5","6","3","2","5","1","6","4","1","5","2","6","4","3","5","5","7","3","5","3","4","3","2","2","6","4","7","6","6","5","5","4","4","2","7","6","5","4","6","797915991576289281","李","175","Male","[""坏我"",""好我"",""坏他"",""好他""]","[""弱我"",""强我"",""弱他"",""强他""]","","","","","","","","no","","","","","","","","","SRET","EW_formal","","key","f","6.943430656934306","768","428","朋友","外行","Negative","ability","","","","","","","","","","",""
"540","","j","psychophysics","86","192642","0.0-7.0-3.0-0.72","6","5","5","4","2","4","4","5","4","5","4","1","2","0","1","1","0","2","1","5","4","5","4","4","3","5","3","4","5","4","5","4","5","4","4","5","4","5","5","4","5","6","3","2","5","1","6","4","1","5","2","6","4","3","5","5","7","3","5","3","4","3","2","2","6","4","7","6","6","5","5","4","4","2","7","6","5","4","6","797915991576289281","李","175","Male","[""坏我"",""好我"",""坏他"",""好他""]","[""弱我"",""强我"",""弱他"",""强他""]","","","","","","","","yes","","","","","","","","","SRET","EW_formal","","key","j","6.9443438914027675","768","428","自己","善心","Positive","morality","","","","","","","","","","",""
"518","","j","psychophysics","87","194162","0.0-7.0-3.0-0.73","6","5","5","4","2","4","4","5","4","5","4","1","2","0","1","1","0","2","1","5","4","5","4","4","3","5","3","4","5","4","5","4","5","4","4","5","4","5","5","4","5","6","3","2","5","1","6","4","1","5","2","6","4","3","5","5","7","3","5","3","4","3","2","2","6","4","7","6","6","5","5","4","4","2","7","6","5","4","6","797915991576289281","李","175","Male","[""坏我"",""好我"",""坏他"",""好他""]","[""弱我"",""强我"",""弱他"",""强他""]","","","","","","","","yes","","","","","","","","","SRET","EW_formal","","key","j","6.944036697247653","768","428","朋友","扎实","Positive","ability","","","","","","","","","","",""
"849","","f","psychophysics","88","196012","0.0-7.0-3.0-0.74","6","5","5","4","2","4","4","5","4","5","4","1","2","0","1","1","0","2","1","5","4","5","4","4","3","5","3","4","5","4","5","4","5","4","4","5","4","5","5","4","5","6","3","2","5","1","6","4","1","5","2","6","4","3","5","5","7","3","5","3","4","3","2","2","6","4","7","6","6","5","5","4","4","2","7","6","5","4","6","797915991576289281","李","175","Male","[""坏我"",""好我"",""坏他"",""好他""]","[""弱我"",""强我"",""弱他"",""强他""]","","","","","","","","no","","","","","","","","","SRET","EW_formal","","key","f","6.942641509434028","768","428","自己","畏难","Negative","ability","","","","","","","","","","",""
"870","","f","psychophysics","89","197883","0.0-7.0-3.0-0.75","6","5","5","4","2","4","4","5","4","5","4","1","2","0","1","1","0","2","1","5","4","5","4","4","3","5","3","4","5","4","5","4","5","4","4","5","4","5","5","4","5","6","3","2","5","1","6","4","1","5","2","6","4","3","5","5","7","3","5","3","4","3","2","2","6","4","7","6","6","5","5","4","4","2","7","6","5","4","6","797915991576289281","李","175","Male","[""坏我"",""好我"",""坏他"",""好他""]","[""弱我"",""强我"",""弱他"",""强他""]","","","","","","","","no","","","","","","","","","SRET","EW_formal","","key","f","6.943122676579969","768","428","自己","才尽","Negative","ability","","","","","","","","","","",""
"539","","j","psychophysics","90","199424","0.0-7.0-3.0-0.76","6","5","5","4","2","4","4","5","4","5","4","1","2","0","1","1","0","2","1","5","4","5","4","4","3","5","3","4","5","4","5","4","5","4","4","5","4","5","5","4","5","6","3","2","5","1","6","4","1","5","2","6","4","3","5","5","7","3","5","3","4","3","2","2","6","4","7","6","6","5","5","4","4","2","7","6","5","4","6","797915991576289281","李","175","Male","[""坏我"",""好我"",""坏他"",""好他""]","[""弱我"",""强我"",""弱他"",""强他""]","","","","","","","","yes","","","","","","","","","SRET","EW_formal","","key","j","6.943891402714958","768","428","朋友","远见","Positive","ability","","","","","","","","","","",""
"478","","j","psychophysics","91","200903","0.0-7.0-3.0-0.77","6","5","5","4","2","4","4","5","4","5","4","1","2","0","1","1","0","2","1","5","4","5","4","4","3","5","3","4","5","4","5","4","5","4","4","5","4","5","5","4","5","6","3","2","5","1","6","4","1","5","2","6","4","3","5","5","7","3","5","3","4","3","2","2","6","4","7","6","6","5","5","4","4","2","7","6","5","4","6","797915991576289281","李","175","Male","[""坏我"",""好我"",""坏他"",""好他""]","[""弱我"",""强我"",""弱他"",""强他""]","","","","","","","","yes","","","","","","","","","SRET","EW_formal","","key","j","6.944339622641427","768","428","朋友","守时","Positive","morality","","","","","","","","","","",""
"478","","j","psychophysics","92","202382","0.0-7.0-3.0-0.78","6","5","5","4","2","4","4","5","4","5","4","1","2","0","1","1","0","2","1","5","4","5","4","4","3","5","3","4","5","4","5","4","5","4","4","5","4","5","5","4","5","6","3","2","5","1","6","4","1","5","2","6","4","3","5","5","7","3","5","3","4","3","2","2","6","4","7","6","6","5","5","4","4","2","7","6","5","4","6","797915991576289281","李","175","Male","[""坏我"",""好我"",""坏他"",""好他""]","[""弱我"",""强我"",""弱他"",""强他""]","","","","","","","","yes","","","","","","","","","SRET","EW_formal","","key","j","6.944339622641427","768","428","朋友","文明","Positive","morality","","","","","","","","","","",""
"606","","j","psychophysics","93","203993","0.0-7.0-3.0-0.79","6","5","5","4","2","4","4","5","4","5","4","1","2","0","1","1","0","2","1","5","4","5","4","4","3","5","3","4","5","4","5","4","5","4","4","5","4","5","5","4","5","6","3","2","5","1","6","4","1","5","2","6","4","3","5","5","7","3","5","3","4","3","2","2","6","4","7","6","6","5","5","4","4","2","7","6","5","4","6","797915991576289281","李","175","Male","[""坏我"",""好我"",""坏他"",""好他""]","[""弱我"",""强我"",""弱他"",""强他""]","","","","","","","","yes","","","","","","","","","SRET","EW_formal","","key","j","6.944155844155869","768","428","自己","正气","Positive","morality","","","","","","","","","","",""
"568","","f","psychophysics","94","205562","0.0-7.0-3.0-0.80","6","5","5","4","2","4","4","5","4","5","4","1","2","0","1","1","0","2","1","5","4","5","4","4","3","5","3","4","5","4","5","4","5","4","4","5","4","5","5","4","5","6","3","2","5","1","6","4","1","5","2","6","4","3","5","5","7","3","5","3","4","3","2","2","6","4","7","6","6","5","5","4","4","2","7","6","5","4","6","797915991576289281","李","175","Male","[""坏我"",""好我"",""坏他"",""好他""]","[""弱我"",""强我"",""弱他"",""强他""]","","","","","","","","no","","","","","","","","","SRET","EW_formal","","key","f","6.942222222222222","768","428","自己","虚假","Negative","morality","","","","","","","","","","",""
"637","","f","psychophysics","95","207202","0.0-7.0-3.0-0.81","6","5","5","4","2","4","4","5","4","5","4","1","2","0","1","1","0","2","1","5","4","5","4","4","3","5","3","4","5","4","5","4","5","4","4","5","4","5","5","4","5","6","3","2","5","1","6","4","1","5","2","6","4","3","5","5","7","3","5","3","4","3","2","2","6","4","7","6","6","5","5","4","4","2","7","6","5","4","6","797915991576289281","李","175","Male","[""坏我"",""好我"",""坏他"",""好他""]","[""弱我"",""强我"",""弱他"",""强他""]","","","","","","","","no","","","","","","","","","SRET","EW_formal","","key","f","6.943829787233993","768","428","自己","弱智","Negative","ability","","","","","","","","","","",""
"589","","f","psychophysics","96","208791","0.0-7.0-3.0-0.82","6","5","5","4","2","4","4","5","4","5","4","1","2","0","1","1","0","2","1","5","4","5","4","4","3","5","3","4","5","4","5","4","5","4","4","5","4","5","5","4","5","6","3","2","5","1","6","4","1","5","2","6","4","3","5","5","7","3","5","3","4","3","2","2","6","4","7","6","6","5","5","4","4","2","7","6","5","4","6","797915991576289281","李","175","Male","[""坏我"",""好我"",""坏他"",""好他""]","[""弱我"",""强我"",""弱他"",""强他""]","","","","","","","","no","","","","","","","","","SRET","EW_formal","","key","f","6.944298245614112","768","428","自己","愚钝","Negative","ability","","","","","","","","","","",""
"730","","j","psychophysics","97","210522","0.0-7.0-3.0-0.83","6","5","5","4","2","4","4","5","4","5","4","1","2","0","1","1","0","2","1","5","4","5","4","4","3","5","3","4","5","4","5","4","5","4","4","5","4","5","5","4","5","6","3","2","5","1","6","4","1","5","2","6","4","3","5","5","7","3","5","3","4","3","2","2","6","4","7","6","6","5","5","4","4","2","7","6","5","4","6","797915991576289281","李","175","Male","[""坏我"",""好我"",""坏他"",""好他""]","[""弱我"",""强我"",""弱他"",""强他""]","","","","","","","","yes","","","","","","","","","SRET","EW_formal","","key","j","6.9443548387097245","768","428","自己","刻苦","Positive","ability","","","","","","","","","","",""
"638","","f","psychophysics","98","212161","0.0-7.0-3.0-0.84","6","5","5","4","2","4","4","5","4","5","4","1","2","0","1","1","0","2","1","5","4","5","4","4","3","5","3","4","5","4","5","4","5","4","4","5","4","5","5","4","5","6","3","2","5","1","6","4","1","5","2","6","4","3","5","5","7","3","5","3","4","3","2","2","6","4","7","6","6","5","5","4","4","2","7","6","5","4","6","797915991576289281","李","175","Male","[""坏我"",""好我"",""坏他"",""好他""]","[""弱我"",""强我"",""弱他"",""强他""]","","","","","","","","no","","","","","","","","","SRET","EW_formal","","key","f","6.943829787234117","768","428","朋友","低俗","Negative","morality","","","","","","","","","","",""
"859","","f","psychophysics","99","214022","0.0-7.0-3.0-0.85","6","5","5","4","2","4","4","5","4","5","4","1","2","0","1","1","0","2","1","5","4","5","4","4","3","5","3","4","5","4","5","4","5","4","4","5","4","5","5","4","5","6","3","2","5","1","6","4","1","5","2","6","4","3","5","5","7","3","5","3","4","3","2","2","6","4","7","6","6","5","5","4","4","2","7","6","5","4","6","797915991576289281","李","175","Male","[""坏我"",""好我"",""坏他"",""好他""]","[""弱我"",""强我"",""弱他"",""强他""]","","","","","","","","no","","","","","","","","","SRET","EW_formal","","key","f","6.944569288389557","768","428","自己","缓慢","Negative","ability","","","","","","","","","","",""
"548","","j","psychophysics","100","215571","0.0-7.0-3.0-0.86","6","5","5","4","2","4","4","5","4","5","4","1","2","0","1","1","0","2","1","5","4","5","4","4","3","5","3","4","5","4","5","4","5","4","4","5","4","5","5","4","5","6","3","2","5","1","6","4","1","5","2","6","4","3","5","5","7","3","5","3","4","3","2","2","6","4","7","6","6","5","5","4","4","2","7","6","5","4","6","797915991576289281","李","175","Male","[""坏我"",""好我"",""坏他"",""好他""]","[""弱我"",""强我"",""弱他"",""强他""]","","","","","","","","yes","","","","","","","","","SRET","EW_formal","","key","j","6.944594594594647","768","428","自己","主见","Positive","ability","","","","","","","","","","",""
"517","","j","psychophysics","101","217094","0.0-7.0-3.0-0.87","6","5","5","4","2","4","4","5","4","5","4","1","2","0","1","1","0","2","1","5","4","5","4","4","3","5","3","4","5","4","5","4","5","4","4","5","4","5","5","4","5","6","3","2","5","1","6","4","1","5","2","6","4","3","5","5","7","3","5","3","4","3","2","2","6","4","7","6","6","5","5","4","4","2","7","6","5","4","6","797915991576289281","李","175","Male","[""坏我"",""好我"",""坏他"",""好他""]","[""弱我"",""强我"",""弱他"",""强他""]","","","","","","","","yes","","","","","","","","","SRET","EW_formal","","key","j","6.943378995433684","768","428","朋友","素养","Positive","morality","","","","","","","","","","",""
"5773","
    <p><div style='color:white;font-size:35px; line-height:20px;'>计算任务</div></p><br>
    <p><div style='color:red;font-size:25px; line-height:20px;'>接下来，您将看到一些四则运算题，<b>请从键盘选择 0-9 进行反应。</b></div></p>
    <p><div style='color:red;font-size:25px; line-height:20px;'>请尽可能快地进行计算，计算的速度和正确率将影响报酬的发放。</div></p>
    <p><div class='footer' style='color:white;font-size:25px; line-height:20px;'>如果对本实验还有不清楚之处，请立即向实验员咨询。</p><p style='color:white;font-size:25px; line-height:20px;'>如果您明白了规则：</p><p style='color:white;font-size:22px; line-height:20px;'>请按 继续 进入练习</p>
    </div>
    ","0","html-button-response","102","222868","0.0-7.0-4.0","6","5","5","4","2","4","4","5","4","5","4","1","2","0","1","1","0","2","1","5","4","5","4","4","3","5","3","4","5","4","5","4","5","4","4","5","4","5","5","4","5","6","3","2","5","1","6","4","1","5","2","6","4","3","5","5","7","3","5","3","4","3","2","2","6","4","7","6","6","5","5","4","4","2","7","6","5","4","6","797915991576289281","李","175","Male","[""坏我"",""好我"",""坏他"",""好他""]","[""弱我"",""强我"",""弱他"",""强他""]","","","","","","","","","","","","","","","","","SRET_math","math_instructions","Tue Jan 16 2024 20:45:05 GMT+0800 (中国标准时间)","","","","","","","","","","","","","","","","","","","",""
"1783","","6","psychophysics","103","224653","0.0-7.0-5.0-0.0","6","5","5","4","2","4","4","5","4","5","4","1","2","0","1","1","0","2","1","5","4","5","4","4","3","5","3","4","5","4","5","4","5","4","4","5","4","5","5","4","5","6","3","2","5","1","6","4","1","5","2","6","4","3","5","5","7","3","5","3","4","3","2","2","6","4","7","6","6","5","5","4","4","2","7","6","5","4","6","797915991576289281","李","175","Male","[""坏我"",""好我"",""坏他"",""好他""]","[""弱我"",""强我"",""弱他"",""强他""]","","","","","","","","6","","","","","","","","","SRET","SRET_math_calculate","","key","6","6.9509727626458915","768","428","","","","","9-3= ?","6","1","","","","","","","",""
"2125","","3","psychophysics","104","226781","0.0-7.0-5.0-0.1","6","5","5","4","2","4","4","5","4","5","4","1","2","0","1","1","0","2","1","5","4","5","4","4","3","5","3","4","5","4","5","4","5","4","4","5","4","5","5","4","5","6","3","2","5","1","6","4","1","5","2","6","4","3","5","5","7","3","5","3","4","3","2","2","6","4","7","6","6","5","5","4","4","2","7","6","5","4","6","797915991576289281","李","175","Male","[""坏我"",""好我"",""坏他"",""好他""]","[""弱我"",""强我"",""弱他"",""强他""]","","","","","","","","3","","","","","","","","","SRET","SRET_math_calculate","","key","3","6.943606557377011","768","428","","","","","8-5= ?","3","1","","","","","","","",""
"2030","","2","psychophysics","105","228812","0.0-7.0-5.0-0.2","6","5","5","4","2","4","4","5","4","5","4","1","2","0","1","1","0","2","1","5","4","5","4","4","3","5","3","4","5","4","5","4","5","4","4","5","4","5","5","4","5","6","3","2","5","1","6","4","1","5","2","6","4","3","5","5","7","3","5","3","4","3","2","2","6","4","7","6","6","5","5","4","4","2","7","6","5","4","6","797915991576289281","李","175","Male","[""坏我"",""好我"",""坏他"",""好他""]","[""弱我"",""强我"",""弱他"",""强他""]","","","","","","","","2","","","","","","","","","SRET","SRET_math_calculate","","key","2","6.943835616438276","768","428","","","","","19-17= ?","2","1","","","","","","","",""
"1919","","3","psychophysics","106","230733","0.0-7.0-5.0-0.3","6","5","5","4","2","4","4","5","4","5","4","1","2","0","1","1","0","2","1","5","4","5","4","4","3","5","3","4","5","4","5","4","5","4","4","5","4","5","5","4","5","6","3","2","5","1","6","4","1","5","2","6","4","3","5","5","7","3","5","3","4","3","2","2","6","4","7","6","6","5","5","4","4","2","7","6","5","4","6","797915991576289281","李","175","Male","[""坏我"",""好我"",""坏他"",""好他""]","[""弱我"",""强我"",""弱他"",""强他""]","","","","","","","","3","","","","","","","","","SRET","SRET_math_calculate","","key","3","6.943636363636363","768","428","","","","","1+2= ?","3","1","","","","","","","",""
"1686","","3","psychophysics","107","232423","0.0-7.0-5.0-0.4","6","5","5","4","2","4","4","5","4","5","4","1","2","0","1","1","0","2","1","5","4","5","4","4","3","5","3","4","5","4","5","4","5","4","4","5","4","5","5","4","5","6","3","2","5","1","6","4","1","5","2","6","4","3","5","5","7","3","5","3","4","3","2","2","6","4","7","6","6","5","5","4","4","2","7","6","5","4","6","797915991576289281","李","175","Male","[""坏我"",""好我"",""坏他"",""好他""]","[""弱我"",""强我"",""弱他"",""强他""]","","","","","","","","3","","","","","","","","","SRET","SRET_math_calculate","","key","3","6.944032921810676","768","428","","","","","2+1= ?","3","1","","","","","","","",""
"1786","","3","psychophysics","108","234212","0.0-7.0-5.0-0.5","6","5","5","4","2","4","4","5","4","5","4","1","2","0","1","1","0","2","1","5","4","5","4","4","3","5","3","4","5","4","5","4","5","4","4","5","4","5","5","4","5","6","3","2","5","1","6","4","1","5","2","6","4","3","5","5","7","3","5","3","4","3","2","2","6","4","7","6","6","5","5","4","4","2","7","6","5","4","6","797915991576289281","李","175","Male","[""坏我"",""好我"",""坏他"",""好他""]","[""弱我"",""强我"",""弱他"",""强他""]","","","","","","","","3","","","","","","","","","SRET","SRET_math_calculate","","key","3","6.943749999999909","768","428","","","","","21/7=  ?","3","1","","","","","","","",""
"1906","","8","psychophysics","109","236121","0.0-7.0-5.0-0.6","6","5","5","4","2","4","4","5","4","5","4","1","2","0","1","1","0","2","1","5","4","5","4","4","3","5","3","4","5","4","5","4","5","4","4","5","4","5","5","4","5","6","3","2","5","1","6","4","1","5","2","6","4","3","5","5","7","3","5","3","4","3","2","2","6","4","7","6","6","5","5","4","4","2","7","6","5","4","6","797915991576289281","李","175","Male","[""坏我"",""好我"",""坏他"",""好他""]","[""弱我"",""强我"",""弱他"",""强他""]","","","","","","","","8","","","","","","","","","SRET","SRET_math_calculate","","key","8","6.943430656934306","768","428","","","","","13-5= ?","8","1","","","","","","","",""
"1759","","1","psychophysics","110","237883","0.0-7.0-5.0-0.7","6","5","5","4","2","4","4","5","4","5","4","1","2","0","1","1","0","2","1","5","4","5","4","4","3","5","3","4","5","4","5","4","5","4","4","5","4","5","5","4","5","6","3","2","5","1","6","4","1","5","2","6","4","3","5","5","7","3","5","3","4","3","2","2","6","4","7","6","6","5","5","4","4","2","7","6","5","4","6","797915991576289281","李","175","Male","[""坏我"",""好我"",""坏他"",""好他""]","[""弱我"",""强我"",""弱他"",""强他""]","","","","","","","","1","","","","","","","","","SRET","SRET_math_calculate","","key","1","6.9434782608694965","768","428","","","","","9-8= ?","1","1","","","","","","","",""
"1777","","8","psychophysics","111","239662","0.0-7.0-5.0-0.8","6","5","5","4","2","4","4","5","4","5","4","1","2","0","1","1","0","2","1","5","4","5","4","4","3","5","3","4","5","4","5","4","5","4","4","5","4","5","5","4","5","6","3","2","5","1","6","4","1","5","2","6","4","3","5","5","7","3","5","3","4","3","2","2","6","4","7","6","6","5","5","4","4","2","7","6","5","4","6","797915991576289281","李","175","Male","[""坏我"",""好我"",""坏他"",""好他""]","[""弱我"",""强我"",""弱他"",""强他""]","","","","","","","","8","","","","","","","","","SRET","SRET_math_calculate","","key","8","6.943529411764729","768","428","","","","","6+2= ?","8","1","","","","","","","",""
"1718","","5","psychophysics","112","241383","0.0-7.0-5.0-0.9","6","5","5","4","2","4","4","5","4","5","4","1","2","0","1","1","0","2","1","5","4","5","4","4","3","5","3","4","5","4","5","4","5","4","4","5","4","5","5","4","5","6","3","2","5","1","6","4","1","5","2","6","4","3","5","5","7","3","5","3","4","3","2","2","6","4","7","6","6","5","5","4","4","2","7","6","5","4","6","797915991576289281","李","175","Male","[""坏我"",""好我"",""坏他"",""好他""]","[""弱我"",""强我"",""弱他"",""强他""]","","","","","","","","5","","","","","","","","","SRET","SRET_math_calculate","","key","5","6.942914979757061","768","428","","","","","12-7= ?","5","1","","","","","","","",""
"1926","","9","psychophysics","113","243313","0.0-7.0-5.0-0.10","6","5","5","4","2","4","4","5","4","5","4","1","2","0","1","1","0","2","1","5","4","5","4","4","3","5","3","4","5","4","5","4","5","4","4","5","4","5","5","4","5","6","3","2","5","1","6","4","1","5","2","6","4","3","5","5","7","3","5","3","4","3","2","2","6","4","7","6","6","5","5","4","4","2","7","6","5","4","6","797915991576289281","李","175","Male","[""坏我"",""好我"",""坏他"",""好他""]","[""弱我"",""强我"",""弱他"",""强他""]","","","","","","","","9","","","","","","","","","SRET","SRET_math_calculate","","key","9","6.943321299639052","768","428","","","","","18/2= ?","9","1","","","","","","","",""
"1839","","7","psychophysics","114","245154","0.0-7.0-5.0-0.11","6","5","5","4","2","4","4","5","4","5","4","1","2","0","1","1","0","2","1","5","4","5","4","4","3","5","3","4","5","4","5","4","5","4","4","5","4","5","5","4","5","6","3","2","5","1","6","4","1","5","2","6","4","3","5","5","7","3","5","3","4","3","2","2","6","4","7","6","6","5","5","4","4","2","7","6","5","4","6","797915991576289281","李","175","Male","[""坏我"",""好我"",""坏他"",""好他""]","[""弱我"",""强我"",""弱他"",""强他""]","","","","","","","","7","","","","","","","","","SRET","SRET_math_calculate","","key","7","6.943560606060628","768","428","","","","","11-4= ?","7","1","","","","","","","",""
"1875","","8","psychophysics","115","247033","0.0-7.0-5.0-0.12","6","5","5","4","2","4","4","5","4","5","4","1","2","0","1","1","0","2","1","5","4","5","4","4","3","5","3","4","5","4","5","4","5","4","4","5","4","5","5","4","5","6","3","2","5","1","6","4","1","5","2","6","4","3","5","5","7","3","5","3","4","3","2","2","6","4","7","6","6","5","5","4","4","2","7","6","5","4","6","797915991576289281","李","175","Male","[""坏我"",""好我"",""坏他"",""好他""]","[""弱我"",""强我"",""弱他"",""强他""]","","","","","","","","8","","","","","","","","","SRET","SRET_math_calculate","","key","8","6.942962962962877","768","428","","","","","2*4= ?","8","1","","","","","","","",""
"2177","","3","psychophysics","116","249212","0.0-7.0-5.0-0.13","6","5","5","4","2","4","4","5","4","5","4","1","2","0","1","1","0","2","1","5","4","5","4","4","3","5","3","4","5","4","5","4","5","4","4","5","4","5","5","4","5","6","3","2","5","1","6","4","1","5","2","6","4","3","5","5","7","3","5","3","4","3","2","2","6","4","7","6","6","5","5","4","4","2","7","6","5","4","6","797915991576289281","李","175","Male","[""坏我"",""好我"",""坏他"",""好他""]","[""弱我"",""强我"",""弱他"",""强他""]","","","","","","","","3","","","","","","","","","SRET","SRET_math_calculate","","key","3","6.943769968051193","768","428","","","","","6/2= ?","3","1","","","","","","","",""
"2137","","7","psychophysics","117","251351","0.0-7.0-5.0-0.14","6","5","5","4","2","4","4","5","4","5","4","1","2","0","1","1","0","2","1","5","4","5","4","4","3","5","3","4","5","4","5","4","5","4","4","5","4","5","5","4","5","6","3","2","5","1","6","4","1","5","2","6","4","3","5","5","7","3","5","3","4","3","2","2","6","4","7","6","6","5","5","4","4","2","7","6","5","4","6","797915991576289281","李","175","Male","[""坏我"",""好我"",""坏他"",""好他""]","[""弱我"",""强我"",""弱他"",""强他""]","","","","","","","","7","","","","","","","","","SRET","SRET_math_calculate","","key","7","6.943648208469093","768","428","","","","","1+6= ?","7","1","","","","","","","",""
"1749","","9","psychophysics","118","253103","0.0-7.0-5.0-0.15","6","5","5","4","2","4","4","5","4","5","4","1","2","0","1","1","0","2","1","5","4","5","4","4","3","5","3","4","5","4","5","4","5","4","4","5","4","5","5","4","5","6","3","2","5","1","6","4","1","5","2","6","4","3","5","5","7","3","5","3","4","3","2","2","6","4","7","6","6","5","5","4","4","2","7","6","5","4","6","797915991576289281","李","175","Male","[""坏我"",""好我"",""坏他"",""好他""]","[""弱我"",""强我"",""弱他"",""强他""]","","","","","","","","9","","","","","","","","","SRET","SRET_math_calculate","","key","9","6.943426294820671","768","428","","","","","1*9= ?","9","1","","","","","","","",""
"1928","","2","psychophysics","119","255032","0.0-7.0-5.0-0.16","6","5","5","4","2","4","4","5","4","5","4","1","2","0","1","1","0","2","1","5","4","5","4","4","3","5","3","4","5","4","5","4","5","4","4","5","4","5","5","4","5","6","3","2","5","1","6","4","1","5","2","6","4","3","5","5","7","3","5","3","4","3","2","2","6","4","7","6","6","5","5","4","4","2","7","6","5","4","6","797915991576289281","李","175","Male","[""坏我"",""好我"",""坏他"",""好他""]","[""弱我"",""强我"",""弱他"",""强他""]","","","","","","","","2","","","","","","","","","SRET","SRET_math_calculate","","key","2","6.9436823104693985","768","428","","","","","90/45= ?","2","1","","","","","","","",""
"1818","","4","psychophysics","120","256853","0.0-7.0-5.0-0.17","6","5","5","4","2","4","4","5","4","5","4","1","2","0","1","1","0","2","1","5","4","5","4","4","3","5","3","4","5","4","5","4","5","4","4","5","4","5","5","4","5","6","3","2","5","1","6","4","1","5","2","6","4","3","5","5","7","3","5","3","4","3","2","2","6","4","7","6","6","5","5","4","4","2","7","6","5","4","6","797915991576289281","李","175","Male","[""坏我"",""好我"",""坏他"",""好他""]","[""弱我"",""强我"",""弱他"",""强他""]","","","","","","","","4","","","","","","","","","SRET","SRET_math_calculate","","key","4","6.943295019157021","768","428","","","","","4*1= ?","4","1","","","","","","","",""
"1756","","4","psychophysics","121","258612","0.0-7.0-5.0-0.18","6","5","5","4","2","4","4","5","4","5","4","1","2","0","1","1","0","2","1","5","4","5","4","4","3","5","3","4","5","4","5","4","5","4","4","5","4","5","5","4","5","6","3","2","5","1","6","4","1","5","2","6","4","3","5","5","7","3","5","3","4","3","2","2","6","4","7","6","6","5","5","4","4","2","7","6","5","4","6","797915991576289281","李","175","Male","[""坏我"",""好我"",""坏他"",""好他""]","[""弱我"",""强我"",""弱他"",""强他""]","","","","","","","","4","","","","","","","","","SRET","SRET_math_calculate","","key","4","6.943253968254014","768","428","","","","","2+2= ?","4","1","","","","","","","",""
"1787","","6","psychophysics","122","260401","0.0-7.0-5.0-0.19","6","5","5","4","2","4","4","5","4","5","4","1","2","0","1","1","0","2","1","5","4","5","4","4","3","5","3","4","5","4","5","4","5","4","4","5","4","5","5","4","5","6","3","2","5","1","6","4","1","5","2","6","4","3","5","5","7","3","5","3","4","3","2","2","6","4","7","6","6","5","5","4","4","2","7","6","5","4","6","797915991576289281","李","175","Male","[""坏我"",""好我"",""坏他"",""好他""]","[""弱我"",""强我"",""弱他"",""强他""]","","","","","","","","6","","","","","","","","","SRET","SRET_math_calculate","","key","6","6.943190661478576","768","428","","","","","8-2= ?","6","1","","","","","","","",""
"2007","","3","psychophysics","123","262412","0.0-7.0-5.0-0.20","6","5","5","4","2","4","4","5","4","5","4","1","2","0","1","1","0","2","1","5","4","5","4","4","3","5","3","4","5","4","5","4","5","4","4","5","4","5","5","4","5","6","3","2","5","1","6","4","1","5","2","6","4","3","5","5","7","3","5","3","4","3","2","2","6","4","7","6","6","5","5","4","4","2","7","6","5","4","6","797915991576289281","李","175","Male","[""坏我"",""好我"",""坏他"",""好他""]","[""弱我"",""强我"",""弱他"",""强他""]","","","","","","","","3","","","","","","","","","SRET","SRET_math_calculate","","key","3","6.943252595155831","768","428","","","","","3*1= ?","3","1","","","","","","","",""
"1839","","4","psychophysics","124","264253","0.0-7.0-5.0-0.21","6","5","5","4","2","4","4","5","4","5","4","1","2","0","1","1","0","2","1","5","4","5","4","4","3","5","3","4","5","4","5","4","5","4","4","5","4","5","5","4","5","6","3","2","5","1","6","4","1","5","2","6","4","3","5","5","7","3","5","3","4","3","2","2","6","4","7","6","6","5","5","4","4","2","7","6","5","4","6","797915991576289281","李","175","Male","[""坏我"",""好我"",""坏他"",""好他""]","[""弱我"",""强我"",""弱他"",""强他""]","","","","","","","","4","","","","","","","","","SRET","SRET_math_calculate","","key","4","6.943560606060518","768","428","","","","","9-5= ?","4","1","","","","","","","",""
"1757","","5","psychophysics","125","266012","0.0-7.0-5.0-0.22","6","5","5","4","2","4","4","5","4","5","4","1","2","0","1","1","0","2","1","5","4","5","4","4","3","5","3","4","5","4","5","4","5","4","4","5","4","5","5","4","5","6","3","2","5","1","6","4","1","5","2","6","4","3","5","5","7","3","5","3","4","3","2","2","6","4","7","6","6","5","5","4","4","2","7","6","5","4","6","797915991576289281","李","175","Male","[""坏我"",""好我"",""坏他"",""好他""]","[""弱我"",""强我"",""弱他"",""强他""]","","","","","","","","5","","","","","","","","","SRET","SRET_math_calculate","","key","5","6.943650793650748","768","428","","","","","4+1= ?","5","1","","","","","","","",""
"1816","","5","psychophysics","126","267832","0.0-7.0-5.0-0.23","6","5","5","4","2","4","4","5","4","5","4","1","2","0","1","1","0","2","1","5","4","5","4","4","3","5","3","4","5","4","5","4","5","4","4","5","4","5","5","4","5","6","3","2","5","1","6","4","1","5","2","6","4","3","5","5","7","3","5","3","4","3","2","2","6","4","7","6","6","5","5","4","4","2","7","6","5","4","6","797915991576289281","李","175","Male","[""坏我"",""好我"",""坏他"",""好他""]","[""弱我"",""强我"",""弱他"",""强他""]","","","","","","","","5","","","","","","","","","SRET","SRET_math_calculate","","key","5","6.943295019157133","768","428","","","","","16-11= ?","5","1","","","","","","","",""
"2350","","0","psychophysics","127","270185","0.0-7.0-5.0-0.24","6","5","5","4","2","4","4","5","4","5","4","1","2","0","1","1","0","2","1","5","4","5","4","4","3","5","3","4","5","4","5","4","5","4","4","5","4","5","5","4","5","6","3","2","5","1","6","4","1","5","2","6","4","3","5","5","7","3","5","3","4","3","2","2","6","4","7","6","6","5","5","4","4","2","7","6","5","4","6","797915991576289281","李","175","Male","[""坏我"",""好我"",""坏他"",""好他""]","[""弱我"",""强我"",""弱他"",""强他""]","","","","","","","","0","","","","","","","","","SRET","SRET_math_calculate","","key","0","6.943491124260424","768","428","","","","","32-32= ?","0","1","","","","","","","",""
"1953","","0","psychophysics","128","272141","0.0-7.0-5.0-0.25","6","5","5","4","2","4","4","5","4","5","4","1","2","0","1","1","0","2","1","5","4","5","4","4","3","5","3","4","5","4","5","4","5","4","4","5","4","5","5","4","5","6","3","2","5","1","6","4","1","5","2","6","4","3","5","5","7","3","5","3","4","3","2","2","6","4","7","6","6","5","5","4","4","2","7","6","5","4","6","797915991576289281","李","175","Male","[""坏我"",""好我"",""坏他"",""好他""]","[""弱我"",""强我"",""弱他"",""强他""]","","","","","","","","0","","","","","","","","","SRET","SRET_math_calculate","","key","0","6.942704626334603","768","428","","","","","5*0= ?","0","1","","","","","","","",""
"2429","","8","psychophysics","129","274572","0.0-7.0-5.0-0.26","6","5","5","4","2","4","4","5","4","5","4","1","2","0","1","1","0","2","1","5","4","5","4","4","3","5","3","4","5","4","5","4","5","4","4","5","4","5","5","4","5","6","3","2","5","1","6","4","1","5","2","6","4","3","5","5","7","3","5","3","4","3","2","2","6","4","7","6","6","5","5","4","4","2","7","6","5","4","6","797915991576289281","李","175","Male","[""坏我"",""好我"",""坏他"",""好他""]","[""弱我"",""强我"",""弱他"",""强他""]","","","","","","","","8","","","","","","","","","SRET","SRET_math_calculate","","key","8","6.943553008596122","768","428","","","","","1+7= ?","8","1","","","","","","","",""
"2031","","7","psychophysics","130","276604","0.0-7.0-5.0-0.27","6","5","5","4","2","4","4","5","4","5","4","1","2","0","1","1","0","2","1","5","4","5","4","4","3","5","3","4","5","4","5","4","5","4","4","5","4","5","5","4","5","6","3","2","5","1","6","4","1","5","2","6","4","3","5","5","7","3","5","3","4","3","2","2","6","4","7","6","6","5","5","4","4","2","7","6","5","4","6","797915991576289281","李","175","Male","[""坏我"",""好我"",""坏他"",""好他""]","[""弱我"",""强我"",""弱他"",""强他""]","","","","","","","","7","","","","","","","","","SRET","SRET_math_calculate","","key","7","6.943835616438276","768","428","","","","","7*1=  ?","7","1","","","","","","","",""
"1976","","5","psychophysics","131","278583","0.0-7.0-5.0-0.28","6","5","5","4","2","4","4","5","4","5","4","1","2","0","1","1","0","2","1","5","4","5","4","4","3","5","3","4","5","4","5","4","5","4","4","5","4","5","5","4","5","6","3","2","5","1","6","4","1","5","2","6","4","3","5","5","7","3","5","3","4","3","2","2","6","4","7","6","6","5","5","4","4","2","7","6","5","4","6","797915991576289281","李","175","Male","[""坏我"",""好我"",""坏他"",""好他""]","[""弱我"",""强我"",""弱他"",""强他""]","","","","","","","","5","","","","","","","","","SRET","SRET_math_calculate","","key","5","6.943661971830986","768","428","","","","","8-3= ? ","5","1","","","","","","","",""
"2118","","7","psychophysics","132","280702","0.0-7.0-5.0-0.29","6","5","5","4","2","4","4","5","4","5","4","1","2","0","1","1","0","2","1","5","4","5","4","4","3","5","3","4","5","4","5","4","5","4","4","5","4","5","5","4","5","6","3","2","5","1","6","4","1","5","2","6","4","3","5","5","7","3","5","3","4","3","2","2","6","4","7","6","6","5","5","4","4","2","7","6","5","4","6","797915991576289281","李","175","Male","[""坏我"",""好我"",""坏他"",""好他""]","[""弱我"",""强我"",""弱他"",""强他""]","","","","","","","","7","","","","","","","","","SRET","SRET_math_calculate","","key","7","6.943421052631541","768","428","","","","","49/7 = ?","7","1","","","","","","","",""
"1847","","6","psychophysics","133","282551","0.0-7.0-5.0-0.30","6","5","5","4","2","4","4","5","4","5","4","1","2","0","1","1","0","2","1","5","4","5","4","4","3","5","3","4","5","4","5","4","5","4","4","5","4","5","5","4","5","6","3","2","5","1","6","4","1","5","2","6","4","3","5","5","7","3","5","3","4","3","2","2","6","4","7","6","6","5","5","4","4","2","7","6","5","4","6","797915991576289281","李","175","Male","[""坏我"",""好我"",""坏他"",""好他""]","[""弱我"",""强我"",""弱他"",""强他""]","","","","","","","","6","","","","","","","","","SRET","SRET_math_calculate","","key","6","6.943773584905572","768","428","","","","","4+2= ?","6","1","","","","","","","",""
"1760","","6","psychophysics","134","284314","0.0-7.0-5.0-0.31","6","5","5","4","2","4","4","5","4","5","4","1","2","0","1","1","0","2","1","5","4","5","4","4","3","5","3","4","5","4","5","4","5","4","4","5","4","5","5","4","5","6","3","2","5","1","6","4","1","5","2","6","4","3","5","5","7","3","5","3","4","3","2","2","6","4","7","6","6","5","5","4","4","2","7","6","5","4","6","797915991576289281","李","175","Male","[""坏我"",""好我"",""坏他"",""好他""]","[""弱我"",""强我"",""弱他"",""强他""]","","","","","","","","6","","","","","","","","","SRET","SRET_math_calculate","","key","6","6.943478260869381","768","428","","","","","11-5= ?","6","1","","","","","","","",""
"1945","","9","psychophysics","135","286263","0.0-7.0-5.0-0.32","6","5","5","4","2","4","4","5","4","5","4","1","2","0","1","1","0","2","1","5","4","5","4","4","3","5","3","4","5","4","5","4","5","4","4","5","4","5","5","4","5","6","3","2","5","1","6","4","1","5","2","6","4","3","5","5","7","3","5","3","4","3","2","2","6","4","7","6","6","5","5","4","4","2","7","6","5","4","6","797915991576289281","李","175","Male","[""坏我"",""好我"",""坏他"",""好他""]","[""弱我"",""强我"",""弱他"",""强他""]","","","","","","","","9","","","","","","","","","SRET","SRET_math_calculate","","key","9","6.944285714285797","768","428","","","","","3+6= ?","9","1","","","","","","","",""
"1896","","6","psychophysics","136","288161","0.0-7.0-5.0-0.33","6","5","5","4","2","4","4","5","4","5","4","1","2","0","1","1","0","2","1","5","4","5","4","4","3","5","3","4","5","4","5","4","5","4","4","5","4","5","5","4","5","6","3","2","5","1","6","4","1","5","2","6","4","3","5","5","7","3","5","3","4","3","2","2","6","4","7","6","6","5","5","4","4","2","7","6","5","4","6","797915991576289281","李","175","Male","[""坏我"",""好我"",""坏他"",""好他""]","[""弱我"",""强我"",""弱他"",""强他""]","","","","","","","","6","","","","","","","","","SRET","SRET_math_calculate","","key","6","6.943382352941305","768","428","","","","","3+3= ?","6","1","","","","","","","",""
"2060","","2","psychophysics","137","290224","0.0-7.0-5.0-0.34","6","5","5","4","2","4","4","5","4","5","4","1","2","0","1","1","0","2","1","5","4","5","4","4","3","5","3","4","5","4","5","4","5","4","4","5","4","5","5","4","5","6","3","2","5","1","6","4","1","5","2","6","4","3","5","5","7","3","5","3","4","3","2","2","6","4","7","6","6","5","5","4","4","2","7","6","5","4","6","797915991576289281","李","175","Male","[""坏我"",""好我"",""坏他"",""好他""]","[""弱我"",""强我"",""弱他"",""强他""]","","","","","","","","2","","","","","","","","","SRET","SRET_math_calculate","","key","2","6.943243243243282","768","428","","","","","8/4= ?","2","1","","","","","","","",""
"1894","","2","psychophysics","138","292122","0.0-7.0-5.0-0.35","6","5","5","4","2","4","4","5","4","5","4","1","2","0","1","1","0","2","1","5","4","5","4","4","3","5","3","4","5","4","5","4","5","4","4","5","4","5","5","4","5","6","3","2","5","1","6","4","1","5","2","6","4","3","5","5","7","3","5","3","4","3","2","2","6","4","7","6","6","5","5","4","4","2","7","6","5","4","6","797915991576289281","李","175","Male","[""坏我"",""好我"",""坏他"",""好他""]","[""弱我"",""强我"",""弱他"",""强他""]","","","","","","","","2","","","","","","","","","SRET","SRET_math_calculate","","key","2","6.943223443223443","768","428","","","","","9-7= ?","2","1","","","","","","","",""
"2057","","0","psychophysics","139","294181","0.0-7.0-5.0-0.36","6","5","5","4","2","4","4","5","4","5","4","1","2","0","1","1","0","2","1","5","4","5","4","4","3","5","3","4","5","4","5","4","5","4","4","5","4","5","5","4","5","6","3","2","5","1","6","4","1","5","2","6","4","3","5","5","7","3","5","3","4","3","2","2","6","4","7","6","6","5","5","4","4","2","7","6","5","4","6","797915991576289281","李","175","Male","[""坏我"",""好我"",""坏他"",""好他""]","[""弱我"",""强我"",""弱他"",""强他""]","","","","","","","","0","","","","","","","","","SRET","SRET_math_calculate","","key","0","6.943728813559203","768","428","","","","","22-22= ?","0","1","","","","","","","",""
"2278","","2","psychophysics","140","296462","0.0-7.0-5.0-0.37","6","5","5","4","2","4","4","5","4","5","4","1","2","0","1","1","0","2","1","5","4","5","4","4","3","5","3","4","5","4","5","4","5","4","4","5","4","5","5","4","5","6","3","2","5","1","6","4","1","5","2","6","4","3","5","5","7","3","5","3","4","3","2","2","6","4","7","6","6","5","5","4","4","2","7","6","5","4","6","797915991576289281","李","175","Male","[""坏我"",""好我"",""坏他"",""好他""]","[""弱我"",""强我"",""弱他"",""强他""]","","","","","","","","2","","","","","","","","","SRET","SRET_math_calculate","","key","2","6.943292682926723","768","428","","","","","22/11= ?","2","1","","","","","","","",""
"1878","","8","psychophysics","141","298342","0.0-7.0-5.0-0.38","6","5","5","4","2","4","4","5","4","5","4","1","2","0","1","1","0","2","1","5","4","5","4","4","3","5","3","4","5","4","5","4","5","4","4","5","4","5","5","4","5","6","3","2","5","1","6","4","1","5","2","6","4","3","5","5","7","3","5","3","4","3","2","2","6","4","7","6","6","5","5","4","4","2","7","6","5","4","6","797915991576289281","李","175","Male","[""坏我"",""好我"",""坏他"",""好他""]","[""弱我"",""强我"",""弱他"",""强他""]","","","","","","","","8","","","","","","","","","SRET","SRET_math_calculate","","key","8","6.943866171003588","768","428","","","","","1*8= ?","8","1","","","","","","","",""
"1947","","8","psychophysics","142","300292","0.0-7.0-5.0-0.39","6","5","5","4","2","4","4","5","4","5","4","1","2","0","1","1","0","2","1","5","4","5","4","4","3","5","3","4","5","4","5","4","5","4","4","5","4","5","5","4","5","6","3","2","5","1","6","4","1","5","2","6","4","3","5","5","7","3","5","3","4","3","2","2","6","4","7","6","6","5","5","4","4","2","7","6","5","4","6","797915991576289281","李","175","Male","[""坏我"",""好我"",""坏他"",""好他""]","[""弱我"",""强我"",""弱他"",""强他""]","","","","","","","","8","","","","","","","","","SRET","SRET_math_calculate","","key","8","6.94357142857147","768","428","","","","","7+1= ?","8","1","","","","","","","",""
"2188","","3","psychophysics","143","302483","0.0-7.0-5.0-0.40","6","5","5","4","2","4","4","5","4","5","4","1","2","0","1","1","0","2","1","5","4","5","4","4","3","5","3","4","5","4","5","4","5","4","4","5","4","5","5","4","5","6","3","2","5","1","6","4","1","5","2","6","4","3","5","5","7","3","5","3","4","3","2","2","6","4","7","6","6","5","5","4","4","2","7","6","5","4","6","797915991576289281","李","175","Male","[""坏我"",""好我"",""坏他"",""好他""]","[""弱我"",""强我"",""弱他"",""强他""]","","","","","","","","3","","","","","","","","","SRET","SRET_math_calculate","","key","3","6.944444444444445","768","428","","","","","9/3= ?","3","1","","","","","","","",""
