"rt","stimulus","response","trial_type","trial_index","time_elapsed","internal_node_id","swb_1","swb_2","swb_3","swb_4","swb_5","LOT_1","LOT_2","LOT_3","LOT_4","LOT_5","LOT_6","IPC_1","IPC_2","IPC_3","IPC_4","IPC_5","IPC_6","IPC_7","IPC_8","MorIden_1","MorIden_2","MorIden_3","MorIden_4","MorIden_5","MorIden_6","MorIden_7","MorIden_8","MorIden_9","MorIden_10","moralSeImag_1","moralSeImag_2","moralSeImag_3","moralSeImag_4","moralSeImag_5","moralSeImag_6","moralSeImag_7","moralSeImag_8","moralSeImag_9","sde_1","sde_2","sde_3","sde_4","sde_5","sde_6","sde_7","sde_8","sde_9","sde_10","trap2","sde_11","sde_12","sde_13","sde_14","sde_15","sde_16","sde_17","sde_18","sde_19","sde_20","IM_1","IM_2","IM_3","IM_4","IM_5","IM_6","IM_7","IM_8","IM_9","IM_10","IM_11","IM_12","IM_13","IM_14","IM_15","IM_16","IM_17","IM_18","IM_19","IM_20","subj_idx","friend_name","ParticipantID","Sex","Word","Word2","value","success","timeout","failed_images","failed_audio","failed_video","user_agent","responses","item_order","radio_event_ids","radio_event_times","key_event_times","mouse_event_times","straightlining","zigzagging","honeypot","task_id","screen_id","time_stamp","response_type","key_press","avg_frame_time","center_x","center_y","person","word","valence","domain","math","correct_response","correct","status","view_history","identity","duration","Image","condition","question_order","trap2_item"
"2167","
   <p><div style='color:white; font-size: 25px'>您好，欢迎参加本次实验。</div></p>
   <p><div style='color:white; font-size: 25px'>为充分保障您的权利，请确保您已经知晓并同意《参与实验同意书》以及《数据公开知情同意书》。</div></p>
   <p><div style='color:white; font-size: 25px'>如果您未见过上述内容，请咨询实验员。</div></p>
   <p style='color:white; font-size: 25px'>如果您选择继续实验，则表示您已经清楚两份知情同意书的内容并同意。</p>
   <p><div style = ""color: pink;font-size:30px;"">请确保您记得day0的实验编号，您将在本次实验输入该编号，若您忘记，请咨询实验员后作答。</div></p>
   <p><div style = ""color:lightblue;font-size:25px;"">请您尽可能认真地作答，我们将依据您在各问卷和按键任务中的作答质量发放报酬。</div></p>
   <p> <div style = ""color: green""><按空格键至下页></div> </p>
   "," ","html-keyboard-response","0","2169","0.0-0.0","3","3","2","2","2","4","2","3","4","4","5","1","0","1","1","-1","0","0","1","4","4","4","5","5","5","5","5","5","5","8","7","8","6","6","6","6","8","8","6","2","6","5","4","3","3","2","5","2","1","1","3","6","2","5","5","5","3","6","2","3","6","5","3","3","5","5","5","5","6","5","6","7","7","6","5","5","5","3","6","657657294154104832","李","363","Female","[""好我"",""好她"",""坏她"",""坏我""]","[""强我"",""强她"",""弱她"",""弱我""]","","","","","","","","","","","","","","","","","","","","","","","","","","","","","","","","","","","","","","",""
"","","","call-function","1","2170","0.0-1.0-0.0","3","3","2","2","2","4","2","3","4","4","5","1","0","1","1","-1","0","0","1","4","4","4","5","5","5","5","5","5","5","8","7","8","6","6","6","6","8","8","6","2","6","5","4","3","3","2","5","2","1","1","3","6","2","5","5","5","3","6","2","3","6","5","3","3","5","5","5","5","6","5","6","7","7","6","5","5","5","3","6","657657294154104832","李","363","Female","[""好我"",""好她"",""坏她"",""坏我""]","[""强我"",""强她"",""弱她"",""弱我""]","","","","","","","","","","","","","","","","","","","","","","","","","","","","","","","","","","","","","","",""
"30043","","[{""name"":""Sex"",""value"":""1""},{""name"":""friend_name"",""value"":""李""},{""name"":""ParticipantID"",""value"":""363""}]","survey-html-form","2","32213","0.0-1.0-1.0","3","3","2","2","2","4","2","3","4","4","5","1","0","1","1","-1","0","0","1","4","4","4","5","5","5","5","5","5","5","8","7","8","6","6","6","6","8","8","6","2","6","5","4","3","3","2","5","2","1","1","3","6","2","5","5","5","3","6","2","3","6","5","3","3","5","5","5","5","6","5","6","7","7","6","5","5","5","3","6","657657294154104832","李","363","Female","[""好我"",""好她"",""坏她"",""坏我""]","[""强我"",""强她"",""弱她"",""弱我""]","","","","","","","","","","","","","","","","","","","","","","","","","","","","","","","","","","","","","","",""
"","","","preload","3","32523","0.0-2.0","3","3","2","2","2","4","2","3","4","4","5","1","0","1","1","-1","0","0","1","4","4","4","5","5","5","5","5","5","5","8","7","8","6","6","6","6","8","8","6","2","6","5","4","3","3","2","5","2","1","1","3","6","2","5","5","5","3","6","2","3","6","5","3","3","5","5","5","5","6","5","6","7","7","6","5","5","5","3","6","657657294154104832","李","363","Female","[""好我"",""好她"",""坏她"",""坏我""]","[""强我"",""强她"",""弱她"",""弱我""]","","true","false","[]","[]","[]","","","","","","","","","","","","","","","","","","","","","","","","","","","","","","","","",""
"","","","fullscreen","4","48280","0.0-3.0","3","3","2","2","2","4","2","3","4","4","5","1","0","1","1","-1","0","0","1","4","4","4","5","5","5","5","5","5","5","8","7","8","6","6","6","6","8","8","6","2","6","5","4","3","3","2","5","2","1","1","3","6","2","5","5","5","3","6","2","3","6","5","3","3","5","5","5","5","6","5","6","7","7","6","5","5","5","3","6","657657294154104832","李","363","Female","[""好我"",""好她"",""坏她"",""坏我""]","[""强我"",""强她"",""弱她"",""弱我""]","","true","","","","","{}","","","","","","","","","","","","","","","","","","","","","","","","","","","","","","","",""
"8905.60000000149","","{""Q01"":""3"",""Q02"":""3"",""Q03"":""2"",""Q04"":""2"",""Q05"":""2""}","survey-template","5","57187","0.0-4.0","3","3","2","2","2","4","2","3","4","4","5","1","0","1","1","-1","0","0","1","4","4","4","5","5","5","5","5","5","5","8","7","8","6","6","6","6","8","8","6","2","6","5","4","3","3","2","5","2","1","1","3","6","2","5","5","5","3","6","2","3","6","5","3","3","5","5","5","5","6","5","6","7","7","6","5","5","5","3","6","657657294154104832","李","363","Female","[""好我"",""好她"",""坏她"",""坏我""]","[""强我"",""强她"",""弱她"",""弱我""]","","","","","","","","{""Q01"":""3"",""Q02"":""3"",""Q03"":""2"",""Q04"":""2"",""Q05"":""2""}","[0,1,2,3,4]","[""Q01"",""Q02"",""Q03"",""Q04"",""Q05""]","[2314,4049.800000000745,4962.20000000298,6818.300000000745,7968.300000000745]","[]","[2314,2986.5,4049.800000000745,4962.20000000298,5666.10000000149,6818.300000000745,7968.300000000745,8904.400000002235]","0.6","0.25","0","","","","","","","","","","","","","","","","","","","","","","",""
"12098.199999999255","","{""Q01"":""4"",""Q02"":""2"",""Q03"":""3"",""Q04"":""4"",""Q05"":""4"",""Q06"":""5""}","survey-template","6","69288","0.0-5.0","3","3","2","2","2","4","2","3","4","4","5","1","0","1","1","-1","0","0","1","4","4","4","5","5","5","5","5","5","5","8","7","8","6","6","6","6","8","8","6","2","6","5","4","3","3","2","5","2","1","1","3","6","2","5","5","5","3","6","2","3","6","5","3","3","5","5","5","5","6","5","6","7","7","6","5","5","5","3","6","657657294154104832","李","363","Female","[""好我"",""好她"",""坏她"",""坏我""]","[""强我"",""强她"",""弱她"",""弱我""]","","","","","","","","{""Q01"":""4"",""Q02"":""2"",""Q03"":""3"",""Q04"":""4"",""Q05"":""4"",""Q06"":""5""}","[0,1,2,3,4,5]","[""Q01"",""Q02"",""Q03"",""Q04"",""Q05"",""Q06""]","[2779.199999999255,3894.800000000745,7133.300000000745,8733.5,9601.60000000149,11209.10000000149]","[]","[1771.300000000745,2779.199999999255,3894.800000000745,7133.300000000745,8733.5,9601.60000000149,11209.10000000149,12097.400000002235]","0.3333333333333333","0.4","0","","","","","","","","","","","","","","","","","","","","","","",""
"19924.199999999255","","{""Q01"":""1"",""Q02"":""0"",""Q03"":""1"",""Q04"":""1"",""Q05"":""-1"",""Q06"":""0"",""Q07"":""0"",""Q08"":""1""}","survey-template","7","89215","0.0-6.0","3","3","2","2","2","4","2","3","4","4","5","1","0","1","1","-1","0","0","1","4","4","4","5","5","5","5","5","5","5","8","7","8","6","6","6","6","8","8","6","2","6","5","4","3","3","2","5","2","1","1","3","6","2","5","5","5","3","6","2","3","6","5","3","3","5","5","5","5","6","5","6","7","7","6","5","5","5","3","6","657657294154104832","李","363","Female","[""好我"",""好她"",""坏她"",""坏我""]","[""强我"",""强她"",""弱她"",""弱我""]","","","","","","","","{""Q01"":""1"",""Q02"":""0"",""Q03"":""1"",""Q04"":""1"",""Q05"":""-1"",""Q06"":""0"",""Q07"":""0"",""Q08"":""1""}","[0,1,2,3,4,5,6,7]","[""Q01"",""Q02"",""Q03"",""Q04"",""Q05"",""Q05"",""Q06"",""Q07"",""Q08""]","[6667.10000000149,7739,9048.5,9756.800000000745,10893,12488.199999999255,14592.60000000149,17878.800000000745,18950.800000000745]","[]","[6667.10000000149,7739,9048.5,9756.800000000745,10893,12488.199999999255,14592.60000000149,15613.10000000149,16707,17878.800000000745,18950.800000000745,19923.10000000149]","0.5","0.5714285714285714","0","","","","","","","","","","","","","","","","","","","","","","",""
"4375","
    <p><div style='color:white;font-size:35px; line-height:20px;'>词汇评估任务</div></p><br>
    <p><div style='color:white;font-size:25px; line-height:20px;'>请再次回忆该亲密的朋友，你们至少2年前就认识了，并且最近2年经常见面。</div></p>
    <p><div style='color:white;font-size:25px; line-height:20px;'>在本实验中，您将会看到一些形容词。</div></p>
    <p><div style='color:yellow;font-size:25px; line-height:20px;'>您的任务是判断这些形容词是否符合对您自己或您的朋友的描述。</div></p><p style='font-size:35px'>符合按<span style=""color:lightgreen""> j 键</span>，不符合按<span style=""color:red""> f 键</span></p>","0","html-button-response","8","93592","0.0-7.0-0.0","3","3","2","2","2","4","2","3","4","4","5","1","0","1","1","-1","0","0","1","4","4","4","5","5","5","5","5","5","5","8","7","8","6","6","6","6","8","8","6","2","6","5","4","3","3","2","5","2","1","1","3","6","2","5","5","5","3","6","2","3","6","5","3","3","5","5","5","5","6","5","6","7","7","6","5","5","5","3","6","657657294154104832","李","363","Female","[""好我"",""好她"",""坏她"",""坏我""]","[""强我"",""强她"",""弱她"",""弱我""]","","","","","","","","","","","","","","","","","SRET_EW","EW_instructions","Wed Jan 17 2024 22:15:11 GMT+0800 (中国标准时间)","","","","","","","","","","","","","","","","","","","",""
"943","","f","psychophysics","9","95542","0.0-7.0-1.0-0.0","3","3","2","2","2","4","2","3","4","4","5","1","0","1","1","-1","0","0","1","4","4","4","5","5","5","5","5","5","5","8","7","8","6","6","6","6","8","8","6","2","6","5","4","3","3","2","5","2","1","1","3","6","2","5","5","5","3","6","2","3","6","5","3","3","5","5","5","5","6","5","6","7","7","6","5","5","5","3","6","657657294154104832","李","363","Female","[""好我"",""好她"",""坏她"",""坏我""]","[""强我"",""强她"",""弱她"",""弱我""]","","","","","","","","no","","","","","","","","","SRET_EW","EW_practice","","key","f","16.641880341880267","768","428","朋友","徇私","Negative","morality","","","","","","","","","","",""
"1034","","f","psychophysics","10","97582","0.0-7.0-1.0-0.1","3","3","2","2","2","4","2","3","4","4","5","1","0","1","1","-1","0","0","1","4","4","4","5","5","5","5","5","5","5","8","7","8","6","6","6","6","8","8","6","2","6","5","4","3","3","2","5","2","1","1","3","6","2","5","5","5","3","6","2","3","6","5","3","3","5","5","5","5","6","5","6","7","7","6","5","5","5","3","6","657657294154104832","李","363","Female","[""好我"",""好她"",""坏她"",""坏我""]","[""强我"",""强她"",""弱她"",""弱我""]","","","","","","","","no","","","","","","","","","SRET_EW","EW_practice","","key","f","16.65983606557377","768","428","自己","刻板","Negative","ability","","","","","","","","","","",""
"762","","j","psychophysics","11","99345","0.0-7.0-1.0-0.2","3","3","2","2","2","4","2","3","4","4","5","1","0","1","1","-1","0","0","1","4","4","4","5","5","5","5","5","5","5","8","7","8","6","6","6","6","8","8","6","2","6","5","4","3","3","2","5","2","1","1","3","6","2","5","5","5","3","6","2","3","6","5","3","3","5","5","5","5","6","5","6","7","7","6","5","5","5","3","6","657657294154104832","李","363","Female","[""好我"",""好她"",""坏她"",""坏我""]","[""强我"",""强她"",""弱她"",""弱我""]","","","","","","","","yes","","","","","","","","","SRET_EW","EW_practice","","key","j","16.652884615384558","768","428","朋友","忠实","Positive","morality","","","","","","","","","","",""
"789","","j","psychophysics","12","101136","0.0-7.0-1.0-0.3","3","3","2","2","2","4","2","3","4","4","5","1","0","1","1","-1","0","0","1","4","4","4","5","5","5","5","5","5","5","8","7","8","6","6","6","6","8","8","6","2","6","5","4","3","3","2","5","2","1","1","3","6","2","5","5","5","3","6","2","3","6","5","3","3","5","5","5","5","6","5","6","7","7","6","5","5","5","3","6","657657294154104832","李","363","Female","[""好我"",""好她"",""坏她"",""坏我""]","[""强我"",""强她"",""弱她"",""弱我""]","","","","","","","","yes","","","","","","","","","SRET_EW","EW_practice","","key","j","16.657943925233727","768","428","自己","严谨","Positive","ability","","","","","","","","","","",""
"3689","
    <p><div style='color:white;font-size:35px; line-height:20px;'>请您再次阅读实验要求</div></p><br>
    <p><div style='color:white;font-size:25px; line-height:20px;'>请回忆某一个亲密的朋友，你们至少2年前就认识了，并且最近2年经常见面。</div></p>
    <p><div style='color:white;font-size:25px; line-height:20px;'>在本实验中，您将会看到一些形容词。</div></p>
    <p><div style='color:yellow;font-size:25px; line-height:20px;'>您的任务是判断这些形容词是否符合对您自己或您的朋友的描述。</div></p>
    <p><div class='footer' style='font-size:25px; line-height:20px;'>如果对本实验还有不清楚之处，请立即向实验员咨询。</p><p style='font-size:25px; line-height:20px;'>如果您明白了规则：</p><p style='font-size:22px; line-height:20px;'>请按 继续 进入正式实验</p>
    </div>
    <p style='font-size:35px'>符合按<span style=""color:lightgreen""> j 键</span>，不符合按<span style=""color:red""> f 键</span></p>","0","html-button-response","13","104825","0.0-7.0-2.0","3","3","2","2","2","4","2","3","4","4","5","1","0","1","1","-1","0","0","1","4","4","4","5","5","5","5","5","5","5","8","7","8","6","6","6","6","8","8","6","2","6","5","4","3","3","2","5","2","1","1","3","6","2","5","5","5","3","6","2","3","6","5","3","3","5","5","5","5","6","5","6","7","7","6","5","5","5","3","6","657657294154104832","李","363","Female","[""好我"",""好她"",""坏她"",""坏我""]","[""强我"",""强她"",""弱她"",""弱我""]","","","","","","","","","","","","","","","","","SRET_EW","prac_instructions","Wed Jan 17 2024 22:15:11 GMT+0800 (中国标准时间)","","","","","","","","","","","","","","","","","","","",""
"1136","","f","psychophysics","14","106963","0.0-7.0-3.0-0.0","3","3","2","2","2","4","2","3","4","4","5","1","0","1","1","-1","0","0","1","4","4","4","5","5","5","5","5","5","5","8","7","8","6","6","6","6","8","8","6","2","6","5","4","3","3","2","5","2","1","1","3","6","2","5","5","5","3","6","2","3","6","5","3","3","5","5","5","5","6","5","6","7","7","6","5","5","5","3","6","657657294154104832","李","363","Female","[""好我"",""好她"",""坏她"",""坏我""]","[""强我"",""强她"",""弱她"",""弱我""]","","","","","","","","no","","","","","","","","","SRET","EW_formal","","key","f","16.657812499999977","768","428","朋友","迷糊","Negative","ability","","","","","","","","","","",""
"820","","j","psychophysics","15","108784","0.0-7.0-3.0-0.1","3","3","2","2","2","4","2","3","4","4","5","1","0","1","1","-1","0","0","1","4","4","4","5","5","5","5","5","5","5","8","7","8","6","6","6","6","8","8","6","2","6","5","4","3","3","2","5","2","1","1","3","6","2","5","5","5","3","6","2","3","6","5","3","3","5","5","5","5","6","5","6","7","7","6","5","5","5","3","6","657657294154104832","李","363","Female","[""好我"",""好她"",""坏她"",""坏我""]","[""强我"",""强她"",""弱她"",""弱我""]","","","","","","","","yes","","","","","","","","","SRET","EW_formal","","key","j","16.65833333333339","768","428","朋友","务实","Positive","ability","","","","","","","","","","",""
"893","","f","psychophysics","16","110678","0.0-7.0-3.0-0.2","3","3","2","2","2","4","2","3","4","4","5","1","0","1","1","-1","0","0","1","4","4","4","5","5","5","5","5","5","5","8","7","8","6","6","6","6","8","8","6","2","6","5","4","3","3","2","5","2","1","1","3","6","2","5","5","5","3","6","2","3","6","5","3","3","5","5","5","5","6","5","6","7","7","6","5","5","5","3","6","657657294154104832","李","363","Female","[""好我"",""好她"",""坏她"",""坏我""]","[""强我"",""强她"",""弱她"",""弱我""]","","","","","","","","no","","","","","","","","","SRET","EW_formal","","key","f","16.660176991150365","768","428","自己","说谎","Negative","morality","","","","","","","","","","",""
"633","","j","psychophysics","17","112312","0.0-7.0-3.0-0.3","3","3","2","2","2","4","2","3","4","4","5","1","0","1","1","-1","0","0","1","4","4","4","5","5","5","5","5","5","5","8","7","8","6","6","6","6","8","8","6","2","6","5","4","3","3","2","5","2","1","1","3","6","2","5","5","5","3","6","2","3","6","5","3","3","5","5","5","5","6","5","6","7","7","6","5","5","5","3","6","657657294154104832","李","363","Female","[""好我"",""好她"",""坏她"",""坏我""]","[""强我"",""强她"",""弱她"",""弱我""]","","","","","","","","yes","","","","","","","","","SRET","EW_formal","","key","j","16.65979381443299","768","428","自己","坚贞","Positive","morality","","","","","","","","","","",""
"618","","f","psychophysics","18","113931","0.0-7.0-3.0-0.4","3","3","2","2","2","4","2","3","4","4","5","1","0","1","1","-1","0","0","1","4","4","4","5","5","5","5","5","5","5","8","7","8","6","6","6","6","8","8","6","2","6","5","4","3","3","2","5","2","1","1","3","6","2","5","5","5","3","6","2","3","6","5","3","3","5","5","5","5","6","5","6","7","7","6","5","5","5","3","6","657657294154104832","李","363","Female","[""好我"",""好她"",""坏她"",""坏我""]","[""强我"",""强她"",""弱她"",""弱我""]","","","","","","","","no","","","","","","","","","SRET","EW_formal","","key","f","16.65312500000012","768","428","朋友","虚伪","Negative","morality","","","","","","","","","","",""
"557","","j","psychophysics","19","115490","0.0-7.0-3.0-0.5","3","3","2","2","2","4","2","3","4","4","5","1","0","1","1","-1","0","0","1","4","4","4","5","5","5","5","5","5","5","8","7","8","6","6","6","6","8","8","6","2","6","5","4","3","3","2","5","2","1","1","3","6","2","5","5","5","3","6","2","3","6","5","3","3","5","5","5","5","6","5","6","7","7","6","5","5","5","3","6","657657294154104832","李","363","Female","[""好我"",""好她"",""坏她"",""坏我""]","[""强我"",""强她"",""弱她"",""弱我""]","","","","","","","","yes","","","","","","","","","SRET","EW_formal","","key","j","16.661290322580644","768","428","朋友","守信","Positive","morality","","","","","","","","","","",""
"641","","f","psychophysics","20","117133","0.0-7.0-3.0-0.6","3","3","2","2","2","4","2","3","4","4","5","1","0","1","1","-1","0","0","1","4","4","4","5","5","5","5","5","5","5","8","7","8","6","6","6","6","8","8","6","2","6","5","4","3","3","2","5","2","1","1","3","6","2","5","5","5","3","6","2","3","6","5","3","3","5","5","5","5","6","5","6","7","7","6","5","5","5","3","6","657657294154104832","李","363","Female","[""好我"",""好她"",""坏她"",""坏我""]","[""强我"",""强她"",""弱她"",""弱我""]","","","","","","","","no","","","","","","","","","SRET","EW_formal","","key","f","16.65463917525773","768","428","朋友","毛糙","Negative","ability","","","","","","","","","","",""
"631","","j","psychophysics","21","118765","0.0-7.0-3.0-0.7","3","3","2","2","2","4","2","3","4","4","5","1","0","1","1","-1","0","0","1","4","4","4","5","5","5","5","5","5","5","8","7","8","6","6","6","6","8","8","6","2","6","5","4","3","3","2","5","2","1","1","3","6","2","5","5","5","3","6","2","3","6","5","3","3","5","5","5","5","6","5","6","7","7","6","5","5","5","3","6","657657294154104832","李","363","Female","[""好我"",""好她"",""坏她"",""坏我""]","[""强我"",""强她"",""弱她"",""弱我""]","","","","","","","","yes","","","","","","","","","SRET","EW_formal","","key","j","16.663917525773137","768","428","朋友","诚信","Positive","morality","","","","","","","","","","",""
"827","","j","psychophysics","22","120594","0.0-7.0-3.0-0.8","3","3","2","2","2","4","2","3","4","4","5","1","0","1","1","-1","0","0","1","4","4","4","5","5","5","5","5","5","5","8","7","8","6","6","6","6","8","8","6","2","6","5","4","3","3","2","5","2","1","1","3","6","2","5","5","5","3","6","2","3","6","5","3","3","5","5","5","5","6","5","6","7","7","6","5","5","5","3","6","657657294154104832","李","363","Female","[""好我"",""好她"",""坏她"",""坏我""]","[""强我"",""强她"",""弱她"",""弱我""]","","","","","","","","yes","","","","","","","","","SRET","EW_formal","","key","j","16.65779816513759","768","428","自己","刻苦","Positive","ability","","","","","","","","","","",""
"649","","f","psychophysics","23","122244","0.0-7.0-3.0-0.9","3","3","2","2","2","4","2","3","4","4","5","1","0","1","1","-1","0","0","1","4","4","4","5","5","5","5","5","5","5","8","7","8","6","6","6","6","8","8","6","2","6","5","4","3","3","2","5","2","1","1","3","6","2","5","5","5","3","6","2","3","6","5","3","3","5","5","5","5","6","5","6","7","7","6","5","5","5","3","6","657657294154104832","李","363","Female","[""好我"",""好她"",""坏她"",""坏我""]","[""强我"",""强她"",""弱她"",""弱我""]","","","","","","","","no","","","","","","","","","SRET","EW_formal","","key","f","16.6612244897958","768","428","朋友","畏难","Negative","ability","","","","","","","","","","",""
"804","","f","psychophysics","24","124048","0.0-7.0-3.0-0.10","3","3","2","2","2","4","2","3","4","4","5","1","0","1","1","-1","0","0","1","4","4","4","5","5","5","5","5","5","5","8","7","8","6","6","6","6","8","8","6","2","6","5","4","3","3","2","5","2","1","1","3","6","2","5","5","5","3","6","2","3","6","5","3","3","5","5","5","5","6","5","6","7","7","6","5","5","5","3","6","657657294154104832","李","363","Female","[""好我"",""好她"",""坏她"",""坏我""]","[""强我"",""强她"",""弱她"",""弱我""]","","","","","","","","no","","","","","","","","","SRET","EW_formal","","key","f","16.65740740740741","768","428","自己","弱智","Negative","ability","","","","","","","","","","",""
"762","","f","psychophysics","25","125812","0.0-7.0-3.0-0.11","3","3","2","2","2","4","2","3","4","4","5","1","0","1","1","-1","0","0","1","4","4","4","5","5","5","5","5","5","5","8","7","8","6","6","6","6","8","8","6","2","6","5","4","3","3","2","5","2","1","1","3","6","2","5","5","5","3","6","2","3","6","5","3","3","5","5","5","5","6","5","6","7","7","6","5","5","5","3","6","657657294154104832","李","363","Female","[""好我"",""好她"",""坏她"",""坏我""]","[""强我"",""强她"",""弱她"",""弱我""]","","","","","","","","no","","","","","","","","","SRET","EW_formal","","key","f","16.65769230769225","768","428","自己","无为","Negative","ability","","","","","","","","","","",""
"1091","","f","psychophysics","26","127905","0.0-7.0-3.0-0.12","3","3","2","2","2","4","2","3","4","4","5","1","0","1","1","-1","0","0","1","4","4","4","5","5","5","5","5","5","5","8","7","8","6","6","6","6","8","8","6","2","6","5","4","3","3","2","5","2","1","1","3","6","2","5","5","5","3","6","2","3","6","5","3","3","5","5","5","5","6","5","6","7","7","6","5","5","5","3","6","657657294154104832","李","363","Female","[""好我"",""好她"",""坏她"",""坏我""]","[""强我"",""强她"",""弱她"",""弱我""]","","","","","","","","no","","","","","","","","","SRET","EW_formal","","key","f","16.660800000000048","768","428","朋友","骁勇","Positive","ability","","","","","","","","","","",""
"786","","f","psychophysics","27","129692","0.0-7.0-3.0-0.13","3","3","2","2","2","4","2","3","4","4","5","1","0","1","1","-1","0","0","1","4","4","4","5","5","5","5","5","5","5","8","7","8","6","6","6","6","8","8","6","2","6","5","4","3","3","2","5","2","1","1","3","6","2","5","5","5","3","6","2","3","6","5","3","3","5","5","5","5","6","5","6","7","7","6","5","5","5","3","6","657657294154104832","李","363","Female","[""好我"",""好她"",""坏她"",""坏我""]","[""强我"",""强她"",""弱她"",""弱我""]","","","","","","","","no","","","","","","","","","SRET","EW_formal","","key","f","16.65377358490555","768","428","自己","拙笨","Negative","ability","","","","","","","","","","",""
"561","","j","psychophysics","28","131254","0.0-7.0-3.0-0.14","3","3","2","2","2","4","2","3","4","4","5","1","0","1","1","-1","0","0","1","4","4","4","5","5","5","5","5","5","5","8","7","8","6","6","6","6","8","8","6","2","6","5","4","3","3","2","5","2","1","1","3","6","2","5","5","5","3","6","2","3","6","5","3","3","5","5","5","5","6","5","6","7","7","6","5","5","5","3","6","657657294154104832","李","363","Female","[""好我"",""好她"",""坏她"",""坏我""]","[""强我"",""强她"",""弱她"",""弱我""]","","","","","","","","yes","","","","","","","","","SRET","EW_formal","","key","j","16.661290322580644","768","428","自己","能干","Positive","ability","","","","","","","","","","",""
"567","","j","psychophysics","29","132823","0.0-7.0-3.0-0.15","3","3","2","2","2","4","2","3","4","4","5","1","0","1","1","-1","0","0","1","4","4","4","5","5","5","5","5","5","5","8","7","8","6","6","6","6","8","8","6","2","6","5","4","3","3","2","5","2","1","1","3","6","2","5","5","5","3","6","2","3","6","5","3","3","5","5","5","5","6","5","6","7","7","6","5","5","5","3","6","657657294154104832","李","363","Female","[""好我"",""好她"",""坏她"",""坏我""]","[""强我"",""强她"",""弱她"",""弱我""]","","","","","","","","yes","","","","","","","","","SRET","EW_formal","","key","j","16.65806451612916","768","428","自己","沉着","Positive","ability","","","","","","","","","","",""
"716","","j","psychophysics","30","134540","0.0-7.0-3.0-0.16","3","3","2","2","2","4","2","3","4","4","5","1","0","1","1","-1","0","0","1","4","4","4","5","5","5","5","5","5","5","8","7","8","6","6","6","6","8","8","6","2","6","5","4","3","3","2","5","2","1","1","3","6","2","5","5","5","3","6","2","3","6","5","3","3","5","5","5","5","6","5","6","7","7","6","5","5","5","3","6","657657294154104832","李","363","Female","[""好我"",""好她"",""坏她"",""坏我""]","[""强我"",""强她"",""弱她"",""弱我""]","","","","","","","","yes","","","","","","","","","SRET","EW_formal","","key","j","16.662745098039274","768","428","朋友","慈悲","Positive","morality","","","","","","","","","","",""
"751","","f","psychophysics","31","136292","0.0-7.0-3.0-0.17","3","3","2","2","2","4","2","3","4","4","5","1","0","1","1","-1","0","0","1","4","4","4","5","5","5","5","5","5","5","8","7","8","6","6","6","6","8","8","6","2","6","5","4","3","3","2","5","2","1","1","3","6","2","5","5","5","3","6","2","3","6","5","3","3","5","5","5","5","6","5","6","7","7","6","5","5","5","3","6","657657294154104832","李","363","Female","[""好我"",""好她"",""坏她"",""坏我""]","[""强我"",""强她"",""弱她"",""弱我""]","","","","","","","","no","","","","","","","","","SRET","EW_formal","","key","f","16.658095238095292","768","428","朋友","蛇蝎","Negative","morality","","","","","","","","","","",""
"747","","f","psychophysics","32","138040","0.0-7.0-3.0-0.18","3","3","2","2","2","4","2","3","4","4","5","1","0","1","1","-1","0","0","1","4","4","4","5","5","5","5","5","5","5","8","7","8","6","6","6","6","8","8","6","2","6","5","4","3","3","2","5","2","1","1","3","6","2","5","5","5","3","6","2","3","6","5","3","3","5","5","5","5","6","5","6","7","7","6","5","5","5","3","6","657657294154104832","李","363","Female","[""好我"",""好她"",""坏她"",""坏我""]","[""强我"",""强她"",""弱她"",""弱我""]","","","","","","","","no","","","","","","","","","SRET","EW_formal","","key","f","16.652884615384558","768","428","自己","阴毒","Negative","morality","","","","","","","","","","",""
"877","","f","psychophysics","33","139919","0.0-7.0-3.0-0.19","3","3","2","2","2","4","2","3","4","4","5","1","0","1","1","-1","0","0","1","4","4","4","5","5","5","5","5","5","5","8","7","8","6","6","6","6","8","8","6","2","6","5","4","3","3","2","5","2","1","1","3","6","2","5","5","5","3","6","2","3","6","5","3","3","5","5","5","5","6","5","6","7","7","6","5","5","5","3","6","657657294154104832","李","363","Female","[""好我"",""好她"",""坏她"",""坏我""]","[""强我"",""强她"",""弱她"",""弱我""]","","","","","","","","no","","","","","","","","","SRET","EW_formal","","key","f","16.65765765765766","768","428","朋友","愚痴","Negative","ability","","","","","","","","","","",""
"661","","f","psychophysics","34","141581","0.0-7.0-3.0-0.20","3","3","2","2","2","4","2","3","4","4","5","1","0","1","1","-1","0","0","1","4","4","4","5","5","5","5","5","5","5","8","7","8","6","6","6","6","8","8","6","2","6","5","4","3","3","2","5","2","1","1","3","6","2","5","5","5","3","6","2","3","6","5","3","3","5","5","5","5","6","5","6","7","7","6","5","5","5","3","6","657657294154104832","李","363","Female","[""好我"",""好她"",""坏她"",""坏我""]","[""强我"",""强她"",""弱她"",""弱我""]","","","","","","","","no","","","","","","","","","SRET","EW_formal","","key","f","16.661616161616163","768","428","自己","偏私","Negative","morality","","","","","","","","","","",""
"677","","j","psychophysics","35","143259","0.0-7.0-3.0-0.21","3","3","2","2","2","4","2","3","4","4","5","1","0","1","1","-1","0","0","1","4","4","4","5","5","5","5","5","5","5","8","7","8","6","6","6","6","8","8","6","2","6","5","4","3","3","2","5","2","1","1","3","6","2","5","5","5","3","6","2","3","6","5","3","3","5","5","5","5","6","5","6","7","7","6","5","5","5","3","6","657657294154104832","李","363","Female","[""好我"",""好她"",""坏她"",""坏我""]","[""强我"",""强她"",""弱她"",""弱我""]","","","","","","","","yes","","","","","","","","","SRET","EW_formal","","key","j","16.657000000000117","768","428","自己","细心","Positive","ability","","","","","","","","","","",""
"657","","j","psychophysics","36","144917","0.0-7.0-3.0-0.22","3","3","2","2","2","4","2","3","4","4","5","1","0","1","1","-1","0","0","1","4","4","4","5","5","5","5","5","5","5","8","7","8","6","6","6","6","8","8","6","2","6","5","4","3","3","2","5","2","1","1","3","6","2","5","5","5","3","6","2","3","6","5","3","3","5","5","5","5","6","5","6","7","7","6","5","5","5","3","6","657657294154104832","李","363","Female","[""好我"",""好她"",""坏她"",""坏我""]","[""强我"",""强她"",""弱她"",""弱我""]","","","","","","","","yes","","","","","","","","","SRET","EW_formal","","key","j","16.65612244897977","768","428","自己","善良","Positive","morality","","","","","","","","","","",""
"1005","","j","psychophysics","37","146923","0.0-7.0-3.0-0.23","3","3","2","2","2","4","2","3","4","4","5","1","0","1","1","-1","0","0","1","4","4","4","5","5","5","5","5","5","5","8","7","8","6","6","6","6","8","8","6","2","6","5","4","3","3","2","5","2","1","1","3","6","2","5","5","5","3","6","2","3","6","5","3","3","5","5","5","5","6","5","6","7","7","6","5","5","5","3","6","657657294154104832","李","363","Female","[""好我"",""好她"",""坏她"",""坏我""]","[""强我"",""强她"",""弱她"",""弱我""]","","","","","","","","yes","","","","","","","","","SRET","EW_formal","","key","j","16.66083333333348","768","428","朋友","变通","Positive","ability","","","","","","","","","","",""
"941","","j","psychophysics","38","148865","0.0-7.0-3.0-0.24","3","3","2","2","2","4","2","3","4","4","5","1","0","1","1","-1","0","0","1","4","4","4","5","5","5","5","5","5","5","8","7","8","6","6","6","6","8","8","6","2","6","5","4","3","3","2","5","2","1","1","3","6","2","5","5","5","3","6","2","3","6","5","3","3","5","5","5","5","6","5","6","7","7","6","5","5","5","3","6","657657294154104832","李","363","Female","[""好我"",""好她"",""坏她"",""坏我""]","[""强我"",""强她"",""弱她"",""弱我""]","","","","","","","","yes","","","","","","","","","SRET","EW_formal","","key","j","16.657391304347875","768","428","朋友","淡泊","Positive","morality","","","","","","","","","","",""
"779","","f","psychophysics","39","150645","0.0-7.0-3.0-0.25","3","3","2","2","2","4","2","3","4","4","5","1","0","1","1","-1","0","0","1","4","4","4","5","5","5","5","5","5","5","8","7","8","6","6","6","6","8","8","6","2","6","5","4","3","3","2","5","2","1","1","3","6","2","5","5","5","3","6","2","3","6","5","3","3","5","5","5","5","6","5","6","7","7","6","5","5","5","3","6","657657294154104832","李","363","Female","[""好我"",""好她"",""坏她"",""坏我""]","[""强我"",""强她"",""弱她"",""弱我""]","","","","","","","","no","","","","","","","","","SRET","EW_formal","","key","f","16.658490566037624","768","428","自己","马虎","Negative","ability","","","","","","","","","","",""
"677","","j","psychophysics","40","152324","0.0-7.0-3.0-0.26","3","3","2","2","2","4","2","3","4","4","5","1","0","1","1","-1","0","0","1","4","4","4","5","5","5","5","5","5","5","8","7","8","6","6","6","6","8","8","6","2","6","5","4","3","3","2","5","2","1","1","3","6","2","5","5","5","3","6","2","3","6","5","3","3","5","5","5","5","6","5","6","7","7","6","5","5","5","3","6","657657294154104832","李","363","Female","[""好我"",""好她"",""坏她"",""坏我""]","[""强我"",""强她"",""弱她"",""弱我""]","","","","","","","","yes","","","","","","","","","SRET","EW_formal","","key","j","16.657999999999884","768","428","自己","爱国","Positive","morality","","","","","","","","","","",""
"728","","f","psychophysics","41","154054","0.0-7.0-3.0-0.27","3","3","2","2","2","4","2","3","4","4","5","1","0","1","1","-1","0","0","1","4","4","4","5","5","5","5","5","5","5","8","7","8","6","6","6","6","8","8","6","2","6","5","4","3","3","2","5","2","1","1","3","6","2","5","5","5","3","6","2","3","6","5","3","3","5","5","5","5","6","5","6","7","7","6","5","5","5","3","6","657657294154104832","李","363","Female","[""好我"",""好她"",""坏她"",""坏我""]","[""强我"",""强她"",""弱她"",""弱我""]","","","","","","","","no","","","","","","","","","SRET","EW_formal","","key","f","16.658252427184355","768","428","朋友","黑心","Negative","morality","","","","","","","","","","",""
"733","","j","psychophysics","42","155788","0.0-7.0-3.0-0.28","3","3","2","2","2","4","2","3","4","4","5","1","0","1","1","-1","0","0","1","4","4","4","5","5","5","5","5","5","5","8","7","8","6","6","6","6","8","8","6","2","6","5","4","3","3","2","5","2","1","1","3","6","2","5","5","5","3","6","2","3","6","5","3","3","5","5","5","5","6","5","6","7","7","6","5","5","5","3","6","657657294154104832","李","363","Female","[""好我"",""好她"",""坏她"",""坏我""]","[""强我"",""强她"",""弱她"",""弱我""]","","","","","","","","yes","","","","","","","","","SRET","EW_formal","","key","j","16.662135922329927","768","428","自己","独立","Positive","ability","","","","","","","","","","",""
"609","","f","psychophysics","43","157399","0.0-7.0-3.0-0.29","3","3","2","2","2","4","2","3","4","4","5","1","0","1","1","-1","0","0","1","4","4","4","5","5","5","5","5","5","5","8","7","8","6","6","6","6","8","8","6","2","6","5","4","3","3","2","5","2","1","1","3","6","2","5","5","5","3","6","2","3","6","5","3","3","5","5","5","5","6","5","6","7","7","6","5","5","5","3","6","657657294154104832","李","363","Female","[""好我"",""好她"",""坏她"",""坏我""]","[""强我"",""强她"",""弱她"",""弱我""]","","","","","","","","no","","","","","","","","","SRET","EW_formal","","key","f","16.654166666666544","768","428","自己","淫乱","Negative","morality","","","","","","","","","","",""
"731","","j","psychophysics","44","159131","0.0-7.0-3.0-0.30","3","3","2","2","2","4","2","3","4","4","5","1","0","1","1","-1","0","0","1","4","4","4","5","5","5","5","5","5","5","8","7","8","6","6","6","6","8","8","6","2","6","5","4","3","3","2","5","2","1","1","3","6","2","5","5","5","3","6","2","3","6","5","3","3","5","5","5","5","6","5","6","7","7","6","5","5","5","3","6","657657294154104832","李","363","Female","[""好我"",""好她"",""坏她"",""坏我""]","[""强我"",""强她"",""弱她"",""弱我""]","","","","","","","","yes","","","","","","","","","SRET","EW_formal","","key","j","16.660194174757283","768","428","朋友","高明","Positive","ability","","","","","","","","","","",""
"1100","","j","psychophysics","45","161232","0.0-7.0-3.0-0.31","3","3","2","2","2","4","2","3","4","4","5","1","0","1","1","-1","0","0","1","4","4","4","5","5","5","5","5","5","5","8","7","8","6","6","6","6","8","8","6","2","6","5","4","3","3","2","5","2","1","1","3","6","2","5","5","5","3","6","2","3","6","5","3","3","5","5","5","5","6","5","6","7","7","6","5","5","5","3","6","657657294154104832","李","363","Female","[""好我"",""好她"",""坏她"",""坏我""]","[""强我"",""强她"",""弱她"",""弱我""]","","","","","","","","yes","","","","","","","","","SRET","EW_formal","","key","j","16.65759999999986","768","428","自己","懂行","Positive","ability","","","","","","","","","","",""
"677","","j","psychophysics","46","162917","0.0-7.0-3.0-0.32","3","3","2","2","2","4","2","3","4","4","5","1","0","1","1","-1","0","0","1","4","4","4","5","5","5","5","5","5","5","8","7","8","6","6","6","6","8","8","6","2","6","5","4","3","3","2","5","2","1","1","3","6","2","5","5","5","3","6","2","3","6","5","3","3","5","5","5","5","6","5","6","7","7","6","5","5","5","3","6","657657294154104832","李","363","Female","[""好我"",""好她"",""坏她"",""坏我""]","[""强我"",""强她"",""弱她"",""弱我""]","","","","","","","","yes","","","","","","","","","SRET","EW_formal","","key","j","16.658999999999942","768","428","自己","仁厚","Positive","morality","","","","","","","","","","",""
"568","","j","psychophysics","47","164487","0.0-7.0-3.0-0.33","3","3","2","2","2","4","2","3","4","4","5","1","0","1","1","-1","0","0","1","4","4","4","5","5","5","5","5","5","5","8","7","8","6","6","6","6","8","8","6","2","6","5","4","3","3","2","5","2","1","1","3","6","2","5","5","5","3","6","2","3","6","5","3","3","5","5","5","5","6","5","6","7","7","6","5","5","5","3","6","657657294154104832","李","363","Female","[""好我"",""好她"",""坏她"",""坏我""]","[""强我"",""强她"",""弱她"",""弱我""]","","","","","","","","yes","","","","","","","","","SRET","EW_formal","","key","j","16.652688172043135","768","428","自己","勤奋","Positive","ability","","","","","","","","","","",""
"688","","j","psychophysics","48","166177","0.0-7.0-3.0-0.34","3","3","2","2","2","4","2","3","4","4","5","1","0","1","1","-1","0","0","1","4","4","4","5","5","5","5","5","5","5","8","7","8","6","6","6","6","8","8","6","2","6","5","4","3","3","2","5","2","1","1","3","6","2","5","5","5","3","6","2","3","6","5","3","3","5","5","5","5","6","5","6","7","7","6","5","5","5","3","6","657657294154104832","李","363","Female","[""好我"",""好她"",""坏她"",""坏我""]","[""强我"",""强她"",""弱她"",""弱我""]","","","","","","","","yes","","","","","","","","","SRET","EW_formal","","key","j","16.661386138613747","768","428","朋友","坦荡","Positive","morality","","","","","","","","","","",""
"1295","","j","psychophysics","49","168473","0.0-7.0-3.0-0.35","3","3","2","2","2","4","2","3","4","4","5","1","0","1","1","-1","0","0","1","4","4","4","5","5","5","5","5","5","5","8","7","8","6","6","6","6","8","8","6","2","6","5","4","3","3","2","5","2","1","1","3","6","2","5","5","5","3","6","2","3","6","5","3","3","5","5","5","5","6","5","6","7","7","6","5","5","5","3","6","657657294154104832","李","363","Female","[""好我"",""好她"",""坏她"",""坏我""]","[""强我"",""强她"",""弱她"",""弱我""]","","","","","","","","yes","","","","","","","","","SRET","EW_formal","","key","j","16.654014598539977","768","428","自己","外行","Negative","ability","","","","","","","","","","",""
"772","","j","psychophysics","50","170247","0.0-7.0-3.0-0.36","3","3","2","2","2","4","2","3","4","4","5","1","0","1","1","-1","0","0","1","4","4","4","5","5","5","5","5","5","5","8","7","8","6","6","6","6","8","8","6","2","6","5","4","3","3","2","5","2","1","1","3","6","2","5","5","5","3","6","2","3","6","5","3","3","5","5","5","5","6","5","6","7","7","6","5","5","5","3","6","657657294154104832","李","363","Female","[""好我"",""好她"",""坏她"",""坏我""]","[""强我"",""强她"",""弱她"",""弱我""]","","","","","","","","yes","","","","","","","","","SRET","EW_formal","","key","j","16.65714285714286","768","428","自己","刚正","Positive","morality","","","","","","","","","","",""
"865","","j","psychophysics","51","172112","0.0-7.0-3.0-0.37","3","3","2","2","2","4","2","3","4","4","5","1","0","1","1","-1","0","0","1","4","4","4","5","5","5","5","5","5","5","8","7","8","6","6","6","6","8","8","6","2","6","5","4","3","3","2","5","2","1","1","3","6","2","5","5","5","3","6","2","3","6","5","3","3","5","5","5","5","6","5","6","7","7","6","5","5","5","3","6","657657294154104832","李","363","Female","[""好我"",""好她"",""坏她"",""坏我""]","[""强我"",""强她"",""弱她"",""弱我""]","","","","","","","","yes","","","","","","","","","SRET","EW_formal","","key","j","16.65765765765766","768","428","朋友","稳健","Positive","ability","","","","","","","","","","",""
"568","","j","psychophysics","52","173681","0.0-7.0-3.0-0.38","3","3","2","2","2","4","2","3","4","4","5","1","0","1","1","-1","0","0","1","4","4","4","5","5","5","5","5","5","5","8","7","8","6","6","6","6","8","8","6","2","6","5","4","3","3","2","5","2","1","1","3","6","2","5","5","5","3","6","2","3","6","5","3","3","5","5","5","5","6","5","6","7","7","6","5","5","5","3","6","657657294154104832","李","363","Female","[""好我"",""好她"",""坏她"",""坏我""]","[""强我"",""强她"",""弱她"",""弱我""]","","","","","","","","yes","","","","","","","","","SRET","EW_formal","","key","j","16.65376344086009","768","428","自己","厚道","Positive","morality","","","","","","","","","","",""
"863","","f","psychophysics","53","175546","0.0-7.0-3.0-0.39","3","3","2","2","2","4","2","3","4","4","5","1","0","1","1","-1","0","0","1","4","4","4","5","5","5","5","5","5","5","8","7","8","6","6","6","6","8","8","6","2","6","5","4","3","3","2","5","2","1","1","3","6","2","5","5","5","3","6","2","3","6","5","3","3","5","5","5","5","6","5","6","7","7","6","5","5","5","3","6","657657294154104832","李","363","Female","[""好我"",""好她"",""坏她"",""坏我""]","[""强我"",""强她"",""弱她"",""弱我""]","","","","","","","","no","","","","","","","","","SRET","EW_formal","","key","f","16.66126126126121","768","428","自己","怠惰","Negative","ability","","","","","","","","","","",""
"1137","","j","psychophysics","54","177685","0.0-7.0-3.0-0.40","3","3","2","2","2","4","2","3","4","4","5","1","0","1","1","-1","0","0","1","4","4","4","5","5","5","5","5","5","5","8","7","8","6","6","6","6","8","8","6","2","6","5","4","3","3","2","5","2","1","1","3","6","2","5","5","5","3","6","2","3","6","5","3","3","5","5","5","5","6","5","6","7","7","6","5","5","5","3","6","657657294154104832","李","363","Female","[""好我"",""好她"",""坏她"",""坏我""]","[""强我"",""强她"",""弱她"",""弱我""]","","","","","","","","yes","","","","","","","","","SRET","EW_formal","","key","j","16.657031249999818","768","428","自己","侠义","Positive","morality","","","","","","","","","","",""
"982","","f","psychophysics","55","179668","0.0-7.0-3.0-0.41","3","3","2","2","2","4","2","3","4","4","5","1","0","1","1","-1","0","0","1","4","4","4","5","5","5","5","5","5","5","8","7","8","6","6","6","6","8","8","6","2","6","5","4","3","3","2","5","2","1","1","3","6","2","5","5","5","3","6","2","3","6","5","3","3","5","5","5","5","6","5","6","7","7","6","5","5","5","3","6","657657294154104832","李","363","Female","[""好我"",""好她"",""坏她"",""坏我""]","[""强我"",""强她"",""弱她"",""弱我""]","","","","","","","","no","","","","","","","","","SRET","EW_formal","","key","f","16.656779661016948","768","428","朋友","势利","Negative","morality","","","","","","","","","","",""
"655","","j","psychophysics","56","181325","0.0-7.0-3.0-0.42","3","3","2","2","2","4","2","3","4","4","5","1","0","1","1","-1","0","0","1","4","4","4","5","5","5","5","5","5","5","8","7","8","6","6","6","6","8","8","6","2","6","5","4","3","3","2","5","2","1","1","3","6","2","5","5","5","3","6","2","3","6","5","3","3","5","5","5","5","6","5","6","7","7","6","5","5","5","3","6","657657294154104832","李","363","Female","[""好我"",""好她"",""坏她"",""坏我""]","[""强我"",""强她"",""弱她"",""弱我""]","","","","","","","","yes","","","","","","","","","SRET","EW_formal","","key","j","16.65408163265312","768","428","自己","全才","Positive","ability","","","","","","","","","","",""
"576","","j","psychophysics","57","182902","0.0-7.0-3.0-0.43","3","3","2","2","2","4","2","3","4","4","5","1","0","1","1","-1","0","0","1","4","4","4","5","5","5","5","5","5","5","8","7","8","6","6","6","6","8","8","6","2","6","5","4","3","3","2","5","2","1","1","3","6","2","5","5","5","3","6","2","3","6","5","3","3","5","5","5","5","6","5","6","7","7","6","5","5","5","3","6","657657294154104832","李","363","Female","[""好我"",""好她"",""坏她"",""坏我""]","[""强我"",""强她"",""弱她"",""弱我""]","","","","","","","","yes","","","","","","","","","SRET","EW_formal","","key","j","16.657446808510823","768","428","朋友","热心","Positive","morality","","","","","","","","","","",""
"1069","","f","psychophysics","58","184976","0.0-7.0-3.0-0.44","3","3","2","2","2","4","2","3","4","4","5","1","0","1","1","-1","0","0","1","4","4","4","5","5","5","5","5","5","5","8","7","8","6","6","6","6","8","8","6","2","6","5","4","3","3","2","5","2","1","1","3","6","2","5","5","5","3","6","2","3","6","5","3","3","5","5","5","5","6","5","6","7","7","6","5","5","5","3","6","657657294154104832","李","363","Female","[""好我"",""好她"",""坏她"",""坏我""]","[""强我"",""强她"",""弱她"",""弱我""]","","","","","","","","no","","","","","","","","","SRET","EW_formal","","key","f","16.656097560975468","768","428","朋友","罪恶","Negative","morality","","","","","","","","","","",""
"872","","j","psychophysics","59","186848","0.0-7.0-3.0-0.45","3","3","2","2","2","4","2","3","4","4","5","1","0","1","1","-1","0","0","1","4","4","4","5","5","5","5","5","5","5","8","7","8","6","6","6","6","8","8","6","2","6","5","4","3","3","2","5","2","1","1","3","6","2","5","5","5","3","6","2","3","6","5","3","3","5","5","5","5","6","5","6","7","7","6","5","5","5","3","6","657657294154104832","李","363","Female","[""好我"",""好她"",""坏她"",""坏我""]","[""强我"",""强她"",""弱她"",""弱我""]","","","","","","","","yes","","","","","","","","","SRET","EW_formal","","key","j","16.661607142856933","768","428","自己","谦逊","Positive","morality","","","","","","","","","","",""
"544","","j","psychophysics","60","188395","0.0-7.0-3.0-0.46","3","3","2","2","2","4","2","3","4","4","5","1","0","1","1","-1","0","0","1","4","4","4","5","5","5","5","5","5","5","8","7","8","6","6","6","6","8","8","6","2","6","5","4","3","3","2","5","2","1","1","3","6","2","5","5","5","3","6","2","3","6","5","3","3","5","5","5","5","6","5","6","7","7","6","5","5","5","3","6","657657294154104832","李","363","Female","[""好我"",""好她"",""坏她"",""坏我""]","[""强我"",""强她"",""弱她"",""弱我""]","","","","","","","","yes","","","","","","","","","SRET","EW_formal","","key","j","16.656043956043764","768","428","朋友","礼貌","Positive","morality","","","","","","","","","","",""
"1329","","f","psychophysics","61","190725","0.0-7.0-3.0-0.47","3","3","2","2","2","4","2","3","4","4","5","1","0","1","1","-1","0","0","1","4","4","4","5","5","5","5","5","5","5","8","7","8","6","6","6","6","8","8","6","2","6","5","4","3","3","2","5","2","1","1","3","6","2","5","5","5","3","6","2","3","6","5","3","3","5","5","5","5","6","5","6","7","7","6","5","5","5","3","6","657657294154104832","李","363","Female","[""好我"",""好她"",""坏她"",""坏我""]","[""强我"",""强她"",""弱她"",""弱我""]","","","","","","","","no","","","","","","","","","SRET","EW_formal","","key","f","16.656834532374017","768","428","自己","犹豫","Negative","ability","","","","","","","","","","",""
"750","","j","psychophysics","62","192476","0.0-7.0-3.0-0.48","3","3","2","2","2","4","2","3","4","4","5","1","0","1","1","-1","0","0","1","4","4","4","5","5","5","5","5","5","5","8","7","8","6","6","6","6","8","8","6","2","6","5","4","3","3","2","5","2","1","1","3","6","2","5","5","5","3","6","2","3","6","5","3","3","5","5","5","5","6","5","6","7","7","6","5","5","5","3","6","657657294154104832","李","363","Female","[""好我"",""好她"",""坏她"",""坏我""]","[""强我"",""强她"",""弱她"",""弱我""]","","","","","","","","yes","","","","","","","","","SRET","EW_formal","","key","j","16.660576923076754","768","428","朋友","奉献","Positive","morality","","","","","","","","","","",""
"710","","j","psychophysics","63","194188","0.0-7.0-3.0-0.49","3","3","2","2","2","4","2","3","4","4","5","1","0","1","1","-1","0","0","1","4","4","4","5","5","5","5","5","5","5","8","7","8","6","6","6","6","8","8","6","2","6","5","4","3","3","2","5","2","1","1","3","6","2","5","5","5","3","6","2","3","6","5","3","3","5","5","5","5","6","5","6","7","7","6","5","5","5","3","6","657657294154104832","李","363","Female","[""好我"",""好她"",""坏她"",""坏我""]","[""强我"",""强她"",""弱她"",""弱我""]","","","","","","","","yes","","","","","","","","","SRET","EW_formal","","key","j","16.66176470588235","768","428","自己","宽容","Positive","morality","","","","","","","","","","",""
"1416","","j","psychophysics","64","196605","0.0-7.0-3.0-0.50","3","3","2","2","2","4","2","3","4","4","5","1","0","1","1","-1","0","0","1","4","4","4","5","5","5","5","5","5","5","8","7","8","6","6","6","6","8","8","6","2","6","5","4","3","3","2","5","2","1","1","3","6","2","5","5","5","3","6","2","3","6","5","3","3","5","5","5","5","6","5","6","7","7","6","5","5","5","3","6","657657294154104832","李","363","Female","[""好我"",""好她"",""坏她"",""坏我""]","[""强我"",""强她"",""弱她"",""弱我""]","","","","","","","","yes","","","","","","","","","SRET","EW_formal","","key","j","16.661805555555475","768","428","朋友","扎实","Positive","ability","","","","","","","","","","",""
"1661","","j","psychophysics","65","199267","0.0-7.0-3.0-0.51","3","3","2","2","2","4","2","3","4","4","5","1","0","1","1","-1","0","0","1","4","4","4","5","5","5","5","5","5","5","8","7","8","6","6","6","6","8","8","6","2","6","5","4","3","3","2","5","2","1","1","3","6","2","5","5","5","3","6","2","3","6","5","3","3","5","5","5","5","6","5","6","7","7","6","5","5","5","3","6","657657294154104832","李","363","Female","[""好我"",""好她"",""坏她"",""坏我""]","[""强我"",""强她"",""弱她"",""弱我""]","","","","","","","","yes","","","","","","","","","SRET","EW_formal","","key","j","16.65786163522016","768","428","朋友","屈才","Negative","ability","","","","","","","","","","",""
"580","","f","psychophysics","66","200848","0.0-7.0-3.0-0.52","3","3","2","2","2","4","2","3","4","4","5","1","0","1","1","-1","0","0","1","4","4","4","5","5","5","5","5","5","5","8","7","8","6","6","6","6","8","8","6","2","6","5","4","3","3","2","5","2","1","1","3","6","2","5","5","5","3","6","2","3","6","5","3","3","5","5","5","5","6","5","6","7","7","6","5","5","5","3","6","657657294154104832","李","363","Female","[""好我"",""好她"",""坏她"",""坏我""]","[""强我"",""强她"",""弱她"",""弱我""]","","","","","","","","no","","","","","","","","","SRET","EW_formal","","key","f","16.661702127659698","768","428","自己","不孝","Negative","morality","","","","","","","","","","",""
"727","","f","psychophysics","67","202577","0.0-7.0-3.0-0.53","3","3","2","2","2","4","2","3","4","4","5","1","0","1","1","-1","0","0","1","4","4","4","5","5","5","5","5","5","5","8","7","8","6","6","6","6","8","8","6","2","6","5","4","3","3","2","5","2","1","1","3","6","2","5","5","5","3","6","2","3","6","5","3","3","5","5","5","5","6","5","6","7","7","6","5","5","5","3","6","657657294154104832","李","363","Female","[""好我"",""好她"",""坏她"",""坏我""]","[""强我"",""强她"",""弱她"",""弱我""]","","","","","","","","no","","","","","","","","","SRET","EW_formal","","key","f","16.65436893203878","768","428","朋友","贪污","Negative","morality","","","","","","","","","","",""
"721","","f","psychophysics","68","204298","0.0-7.0-3.0-0.54","3","3","2","2","2","4","2","3","4","4","5","1","0","1","1","-1","0","0","1","4","4","4","5","5","5","5","5","5","5","8","7","8","6","6","6","6","8","8","6","2","6","5","4","3","3","2","5","2","1","1","3","6","2","5","5","5","3","6","2","3","6","5","3","3","5","5","5","5","6","5","6","7","7","6","5","5","5","3","6","657657294154104832","李","363","Female","[""好我"",""好她"",""坏她"",""坏我""]","[""强我"",""强她"",""弱她"",""弱我""]","","","","","","","","no","","","","","","","","","SRET","EW_formal","","key","f","16.660784313725433","768","428","朋友","恶劣","Negative","morality","","","","","","","","","","",""
"874","","j","psychophysics","69","206174","0.0-7.0-3.0-0.55","3","3","2","2","2","4","2","3","4","4","5","1","0","1","1","-1","0","0","1","4","4","4","5","5","5","5","5","5","5","8","7","8","6","6","6","6","8","8","6","2","6","5","4","3","3","2","5","2","1","1","3","6","2","5","5","5","3","6","2","3","6","5","3","3","5","5","5","5","6","5","6","7","7","6","5","5","5","3","6","657657294154104832","李","363","Female","[""好我"",""好她"",""坏她"",""坏我""]","[""强我"",""强她"",""弱她"",""弱我""]","","","","","","","","yes","","","","","","","","","SRET","EW_formal","","key","j","16.662500000000104","768","428","朋友","上进","Positive","ability","","","","","","","","","","",""
"877","","j","psychophysics","70","208053","0.0-7.0-3.0-0.56","3","3","2","2","2","4","2","3","4","4","5","1","0","1","1","-1","0","0","1","4","4","4","5","5","5","5","5","5","5","8","7","8","6","6","6","6","8","8","6","2","6","5","4","3","3","2","5","2","1","1","3","6","2","5","5","5","3","6","2","3","6","5","3","3","5","5","5","5","6","5","6","7","7","6","5","5","5","3","6","657657294154104832","李","363","Female","[""好我"",""好她"",""坏她"",""坏我""]","[""强我"",""强她"",""弱她"",""弱我""]","","","","","","","","yes","","","","","","","","","SRET","EW_formal","","key","j","16.652678571428623","768","428","朋友","廉正","Positive","morality","","","","","","","","","","",""
"836","","f","psychophysics","71","209891","0.0-7.0-3.0-0.57","3","3","2","2","2","4","2","3","4","4","5","1","0","1","1","-1","0","0","1","4","4","4","5","5","5","5","5","5","5","8","7","8","6","6","6","6","8","8","6","2","6","5","4","3","3","2","5","2","1","1","3","6","2","5","5","5","3","6","2","3","6","5","3","3","5","5","5","5","6","5","6","7","7","6","5","5","5","3","6","657657294154104832","李","363","Female","[""好我"",""好她"",""坏她"",""坏我""]","[""强我"",""强她"",""弱她"",""弱我""]","","","","","","","","no","","","","","","","","","SRET","EW_formal","","key","f","16.65688073394501","768","428","朋友","狡诈","Negative","morality","","","","","","","","","","",""
"1070","","f","psychophysics","72","211962","0.0-7.0-3.0-0.58","3","3","2","2","2","4","2","3","4","4","5","1","0","1","1","-1","0","0","1","4","4","4","5","5","5","5","5","5","5","8","7","8","6","6","6","6","8","8","6","2","6","5","4","3","3","2","5","2","1","1","3","6","2","5","5","5","3","6","2","3","6","5","3","3","5","5","5","5","6","5","6","7","7","6","5","5","5","3","6","657657294154104832","李","363","Female","[""好我"",""好她"",""坏她"",""坏我""]","[""强我"",""强她"",""弱她"",""弱我""]","","","","","","","","no","","","","","","","","","SRET","EW_formal","","key","f","16.658536585365855","768","428","自己","差生","Negative","ability","","","","","","","","","","",""
"1036","","f","psychophysics","73","214002","0.0-7.0-3.0-0.59","3","3","2","2","2","4","2","3","4","4","5","1","0","1","1","-1","0","0","1","4","4","4","5","5","5","5","5","5","5","8","7","8","6","6","6","6","8","8","6","2","6","5","4","3","3","2","5","2","1","1","3","6","2","5","5","5","3","6","2","3","6","5","3","3","5","5","5","5","6","5","6","7","7","6","5","5","5","3","6","657657294154104832","李","363","Female","[""好我"",""好她"",""坏她"",""坏我""]","[""强我"",""强她"",""弱她"",""弱我""]","","","","","","","","no","","","","","","","","","SRET","EW_formal","","key","f","16.663114754098313","768","428","自己","失信","Negative","morality","","","","","","","","","","",""
"687","","j","psychophysics","74","215690","0.0-7.0-3.0-0.60","3","3","2","2","2","4","2","3","4","4","5","1","0","1","1","-1","0","0","1","4","4","4","5","5","5","5","5","5","5","8","7","8","6","6","6","6","8","8","6","2","6","5","4","3","3","2","5","2","1","1","3","6","2","5","5","5","3","6","2","3","6","5","3","3","5","5","5","5","6","5","6","7","7","6","5","5","5","3","6","657657294154104832","李","363","Female","[""好我"",""好她"",""坏她"",""坏我""]","[""强我"",""强她"",""弱她"",""弱我""]","","","","","","","","yes","","","","","","","","","SRET","EW_formal","","key","j","16.657999999999884","768","428","朋友","周到","Positive","ability","","","","","","","","","","",""
"627","","f","psychophysics","75","217318","0.0-7.0-3.0-0.61","3","3","2","2","2","4","2","3","4","4","5","1","0","1","1","-1","0","0","1","4","4","4","5","5","5","5","5","5","5","8","7","8","6","6","6","6","8","8","6","2","6","5","4","3","3","2","5","2","1","1","3","6","2","5","5","5","3","6","2","3","6","5","3","3","5","5","5","5","6","5","6","7","7","6","5","5","5","3","6","657657294154104832","李","363","Female","[""好我"",""好她"",""坏她"",""坏我""]","[""强我"",""强她"",""弱她"",""弱我""]","","","","","","","","no","","","","","","","","","SRET","EW_formal","","key","f","16.65979381443299","768","428","自己","废物","Negative","ability","","","","","","","","","","",""
"1079","","f","psychophysics","76","219398","0.0-7.0-3.0-0.62","3","3","2","2","2","4","2","3","4","4","5","1","0","1","1","-1","0","0","1","4","4","4","5","5","5","5","5","5","5","8","7","8","6","6","6","6","8","8","6","2","6","5","4","3","3","2","5","2","1","1","3","6","2","5","5","5","3","6","2","3","6","5","3","3","5","5","5","5","6","5","6","7","7","6","5","5","5","3","6","657657294154104832","李","363","Female","[""好我"",""好她"",""坏她"",""坏我""]","[""强我"",""强她"",""弱她"",""弱我""]","","","","","","","","no","","","","","","","","","SRET","EW_formal","","key","f","16.658064516128846","768","428","朋友","无能","Negative","ability","","","","","","","","","","",""
"698","","f","psychophysics","77","221097","0.0-7.0-3.0-0.63","3","3","2","2","2","4","2","3","4","4","5","1","0","1","1","-1","0","0","1","4","4","4","5","5","5","5","5","5","5","8","7","8","6","6","6","6","8","8","6","2","6","5","4","3","3","2","5","2","1","1","3","6","2","5","5","5","3","6","2","3","6","5","3","3","5","5","5","5","6","5","6","7","7","6","5","5","5","3","6","657657294154104832","李","363","Female","[""好我"",""好她"",""坏她"",""坏我""]","[""强我"",""强她"",""弱她"",""弱我""]","","","","","","","","no","","","","","","","","","SRET","EW_formal","","key","f","16.65643564356424","768","428","朋友","窝囊","Negative","ability","","","","","","","","","","",""
"819","","f","psychophysics","78","222918","0.0-7.0-3.0-0.64","3","3","2","2","2","4","2","3","4","4","5","1","0","1","1","-1","0","0","1","4","4","4","5","5","5","5","5","5","5","8","7","8","6","6","6","6","8","8","6","2","6","5","4","3","3","2","5","2","1","1","3","6","2","5","5","5","3","6","2","3","6","5","3","3","5","5","5","5","6","5","6","7","7","6","5","5","5","3","6","657657294154104832","李","363","Female","[""好我"",""好她"",""坏她"",""坏我""]","[""强我"",""强她"",""弱她"",""弱我""]","","","","","","","","no","","","","","","","","","SRET","EW_formal","","key","f","16.65833333333339","768","428","自己","诡诈","Negative","morality","","","","","","","","","","",""
"1089","","j","psychophysics","79","225007","0.0-7.0-3.0-0.65","3","3","2","2","2","4","2","3","4","4","5","1","0","1","1","-1","0","0","1","4","4","4","5","5","5","5","5","5","5","8","7","8","6","6","6","6","8","8","6","2","6","5","4","3","3","2","5","2","1","1","3","6","2","5","5","5","3","6","2","3","6","5","3","3","5","5","5","5","6","5","6","7","7","6","5","5","5","3","6","657657294154104832","李","363","Female","[""好我"",""好她"",""坏她"",""坏我""]","[""强我"",""强她"",""弱她"",""弱我""]","","","","","","","","yes","","","","","","","","","SRET","EW_formal","","key","j","16.654032258064564","768","428","朋友","坚持","Positive","ability","","","","","","","","","","",""
"982","","f","psychophysics","80","226990","0.0-7.0-3.0-0.66","3","3","2","2","2","4","2","3","4","4","5","1","0","1","1","-1","0","0","1","4","4","4","5","5","5","5","5","5","5","8","7","8","6","6","6","6","8","8","6","2","6","5","4","3","3","2","5","2","1","1","3","6","2","5","5","5","3","6","2","3","6","5","3","3","5","5","5","5","6","5","6","7","7","6","5","5","5","3","6","657657294154104832","李","363","Female","[""好我"",""好她"",""坏她"",""坏我""]","[""强我"",""强她"",""弱她"",""弱我""]","","","","","","","","no","","","","","","","","","SRET","EW_formal","","key","f","16.661016949152543","768","428","朋友","小人","Negative","morality","","","","","","","","","","",""
"812","","j","psychophysics","81","228804","0.0-7.0-3.0-0.67","3","3","2","2","2","4","2","3","4","4","5","1","0","1","1","-1","0","0","1","4","4","4","5","5","5","5","5","5","5","8","7","8","6","6","6","6","8","8","6","2","6","5","4","3","3","2","5","2","1","1","3","6","2","5","5","5","3","6","2","3","6","5","3","3","5","5","5","5","6","5","6","7","7","6","5","5","5","3","6","657657294154104832","李","363","Female","[""好我"",""好她"",""坏她"",""坏我""]","[""强我"",""强她"",""弱她"",""弱我""]","","","","","","","","yes","","","","","","","","","SRET","EW_formal","","key","j","16.662962962963018","768","428","自己","自私","Negative","morality","","","","","","","","","","",""
"895","","f","psychophysics","82","230700","0.0-7.0-3.0-0.68","3","3","2","2","2","4","2","3","4","4","5","1","0","1","1","-1","0","0","1","4","4","4","5","5","5","5","5","5","5","8","7","8","6","6","6","6","8","8","6","2","6","5","4","3","3","2","5","2","1","1","3","6","2","5","5","5","3","6","2","3","6","5","3","3","5","5","5","5","6","5","6","7","7","6","5","5","5","3","6","657657294154104832","李","363","Female","[""好我"",""好她"",""坏她"",""坏我""]","[""强我"",""强她"",""弱她"",""弱我""]","","","","","","","","no","","","","","","","","","SRET","EW_formal","","key","f","16.661946902654766","768","428","朋友","愚钝","Negative","ability","","","","","","","","","","",""
"1307","","f","psychophysics","83","233009","0.0-7.0-3.0-0.69","3","3","2","2","2","4","2","3","4","4","5","1","0","1","1","-1","0","0","1","4","4","4","5","5","5","5","5","5","5","8","7","8","6","6","6","6","8","8","6","2","6","5","4","3","3","2","5","2","1","1","3","6","2","5","5","5","3","6","2","3","6","5","3","3","5","5","5","5","6","5","6","7","7","6","5","5","5","3","6","657657294154104832","李","363","Female","[""好我"",""好她"",""坏她"",""坏我""]","[""强我"",""强她"",""弱她"",""弱我""]","","","","","","","","no","","","","","","","","","SRET","EW_formal","","key","f","16.65797101449267","768","428","自己","伪善","Negative","morality","","","","","","","","","","",""
"767","","f","psychophysics","84","234778","0.0-7.0-3.0-0.70","3","3","2","2","2","4","2","3","4","4","5","1","0","1","1","-1","0","0","1","4","4","4","5","5","5","5","5","5","5","8","7","8","6","6","6","6","8","8","6","2","6","5","4","3","3","2","5","2","1","1","3","6","2","5","5","5","3","6","2","3","6","5","3","3","5","5","5","5","6","5","6","7","7","6","5","5","5","3","6","657657294154104832","李","363","Female","[""好我"",""好她"",""坏她"",""坏我""]","[""强我"",""强她"",""弱她"",""弱我""]","","","","","","","","no","","","","","","","","","SRET","EW_formal","","key","f","16.65904761904773","768","428","朋友","迂拙","Negative","ability","","","","","","","","","","",""
"898","","j","psychophysics","85","236677","0.0-7.0-3.0-0.71","3","3","2","2","2","4","2","3","4","4","5","1","0","1","1","-1","0","0","1","4","4","4","5","5","5","5","5","5","5","8","7","8","6","6","6","6","8","8","6","2","6","5","4","3","3","2","5","2","1","1","3","6","2","5","5","5","3","6","2","3","6","5","3","3","5","5","5","5","6","5","6","7","7","6","5","5","5","3","6","657657294154104832","李","363","Female","[""好我"",""好她"",""坏她"",""坏我""]","[""强我"",""强她"",""弱她"",""弱我""]","","","","","","","","yes","","","","","","","","","SRET","EW_formal","","key","j","16.658407079645965","768","428","朋友","博学","Positive","ability","","","","","","","","","","",""
"906","","f","psychophysics","86","238584","0.0-7.0-3.0-0.72","3","3","2","2","2","4","2","3","4","4","5","1","0","1","1","-1","0","0","1","4","4","4","5","5","5","5","5","5","5","8","7","8","6","6","6","6","8","8","6","2","6","5","4","3","3","2","5","2","1","1","3","6","2","5","5","5","3","6","2","3","6","5","3","3","5","5","5","5","6","5","6","7","7","6","5","5","5","3","6","657657294154104832","李","363","Female","[""好我"",""好她"",""坏她"",""坏我""]","[""强我"",""强她"",""弱她"",""弱我""]","","","","","","","","no","","","","","","","","","SRET","EW_formal","","key","f","16.655263157894584","768","428","自己","粗心","Negative","ability","","","","","","","","","","",""
"1079","","f","psychophysics","87","240666","0.0-7.0-3.0-0.73","3","3","2","2","2","4","2","3","4","4","5","1","0","1","1","-1","0","0","1","4","4","4","5","5","5","5","5","5","5","8","7","8","6","6","6","6","8","8","6","2","6","5","4","3","3","2","5","2","1","1","3","6","2","5","5","5","3","6","2","3","6","5","3","3","5","5","5","5","6","5","6","7","7","6","5","5","5","3","6","657657294154104832","李","363","Female","[""好我"",""好她"",""坏她"",""坏我""]","[""强我"",""强她"",""弱她"",""弱我""]","","","","","","","","no","","","","","","","","","SRET","EW_formal","","key","f","16.657723577235963","768","428","朋友","不良","Negative","morality","","","","","","","","","","",""
"750","","f","psychophysics","88","242416","0.0-7.0-3.0-0.74","3","3","2","2","2","4","2","3","4","4","5","1","0","1","1","-1","0","0","1","4","4","4","5","5","5","5","5","5","5","8","7","8","6","6","6","6","8","8","6","2","6","5","4","3","3","2","5","2","1","1","3","6","2","5","5","5","3","6","2","3","6","5","3","3","5","5","5","5","6","5","6","7","7","6","5","5","5","3","6","657657294154104832","李","363","Female","[""好我"",""好她"",""坏她"",""坏我""]","[""强我"",""强她"",""弱她"",""弱我""]","","","","","","","","no","","","","","","","","","SRET","EW_formal","","key","f","16.65904761904773","768","428","自己","狡狯","Negative","morality","","","","","","","","","","",""
"746","","j","psychophysics","89","244163","0.0-7.0-3.0-0.75","3","3","2","2","2","4","2","3","4","4","5","1","0","1","1","-1","0","0","1","4","4","4","5","5","5","5","5","5","5","8","7","8","6","6","6","6","8","8","6","2","6","5","4","3","3","2","5","2","1","1","3","6","2","5","5","5","3","6","2","3","6","5","3","3","5","5","5","5","6","5","6","7","7","6","5","5","5","3","6","657657294154104832","李","363","Female","[""好我"",""好她"",""坏她"",""坏我""]","[""强我"",""强她"",""弱她"",""弱我""]","","","","","","","","yes","","","","","","","","","SRET","EW_formal","","key","j","16.65728155339817","768","428","朋友","勤恳","Positive","morality","","","","","","","","","","",""
"1107","","f","psychophysics","90","246271","0.0-7.0-3.0-0.76","3","3","2","2","2","4","2","3","4","4","5","1","0","1","1","-1","0","0","1","4","4","4","5","5","5","5","5","5","5","8","7","8","6","6","6","6","8","8","6","2","6","5","4","3","3","2","5","2","1","1","3","6","2","5","5","5","3","6","2","3","6","5","3","3","5","5","5","5","6","5","6","7","7","6","5","5","5","3","6","657657294154104832","李","363","Female","[""好我"",""好她"",""坏她"",""坏我""]","[""强我"",""强她"",""弱她"",""弱我""]","","","","","","","","no","","","","","","","","","SRET","EW_formal","","key","f","16.657142857142997","768","428","朋友","无知","Negative","ability","","","","","","","","","","",""
"800","","f","psychophysics","91","248073","0.0-7.0-3.0-0.77","3","3","2","2","2","4","2","3","4","4","5","1","0","1","1","-1","0","0","1","4","4","4","5","5","5","5","5","5","5","8","7","8","6","6","6","6","8","8","6","2","6","5","4","3","3","2","5","2","1","1","3","6","2","5","5","5","3","6","2","3","6","5","3","3","5","5","5","5","6","5","6","7","7","6","5","5","5","3","6","657657294154104832","李","363","Female","[""好我"",""好她"",""坏她"",""坏我""]","[""强我"",""强她"",""弱她"",""弱我""]","","","","","","","","no","","","","","","","","","SRET","EW_formal","","key","f","16.654205607476637","768","428","朋友","才尽","Negative","ability","","","","","","","","","","",""
"796","","j","psychophysics","92","249869","0.0-7.0-3.0-0.78","3","3","2","2","2","4","2","3","4","4","5","1","0","1","1","-1","0","0","1","4","4","4","5","5","5","5","5","5","5","8","7","8","6","6","6","6","8","8","6","2","6","5","4","3","3","2","5","2","1","1","3","6","2","5","5","5","3","6","2","3","6","5","3","3","5","5","5","5","6","5","6","7","7","6","5","5","5","3","6","657657294154104832","李","363","Female","[""好我"",""好她"",""坏她"",""坏我""]","[""强我"",""强她"",""弱她"",""弱我""]","","","","","","","","yes","","","","","","","","","SRET","EW_formal","","key","j","16.661682242990818","768","428","自己","好心","Positive","morality","","","","","","","","","","",""
"1478","","j","psychophysics","93","252349","0.0-7.0-3.0-0.79","3","3","2","2","2","4","2","3","4","4","5","1","0","1","1","-1","0","0","1","4","4","4","5","5","5","5","5","5","5","8","7","8","6","6","6","6","8","8","6","2","6","5","4","3","3","2","5","2","1","1","3","6","2","5","5","5","3","6","2","3","6","5","3","3","5","5","5","5","6","5","6","7","7","6","5","5","5","3","6","657657294154104832","李","363","Female","[""好我"",""好她"",""坏她"",""坏我""]","[""强我"",""强她"",""弱她"",""弱我""]","","","","","","","","yes","","","","","","","","","SRET","EW_formal","","key","j","16.656081081080924","768","428","朋友","果决","Positive","ability","","","","","","","","","","",""
"1320","","j","psychophysics","94","254670","0.0-7.0-3.0-0.80","3","3","2","2","2","4","2","3","4","4","5","1","0","1","1","-1","0","0","1","4","4","4","5","5","5","5","5","5","5","8","7","8","6","6","6","6","8","8","6","2","6","5","4","3","3","2","5","2","1","1","3","6","2","5","5","5","3","6","2","3","6","5","3","3","5","5","5","5","6","5","6","7","7","6","5","5","5","3","6","657657294154104832","李","363","Female","[""好我"",""好她"",""坏她"",""坏我""]","[""强我"",""强她"",""弱她"",""弱我""]","","","","","","","","yes","","","","","","","","","SRET","EW_formal","","key","j","16.657246376811468","768","428","自己","高尚","Positive","morality","","","","","","","","","","",""
"1008","","j","psychophysics","95","256680","0.0-7.0-3.0-0.81","3","3","2","2","2","4","2","3","4","4","5","1","0","1","1","-1","0","0","1","4","4","4","5","5","5","5","5","5","5","8","7","8","6","6","6","6","8","8","6","2","6","5","4","3","3","2","5","2","1","1","3","6","2","5","5","5","3","6","2","3","6","5","3","3","5","5","5","5","6","5","6","7","7","6","5","5","5","3","6","657657294154104832","李","363","Female","[""好我"",""好她"",""坏她"",""坏我""]","[""强我"",""强她"",""弱她"",""弱我""]","","","","","","","","yes","","","","","","","","","SRET","EW_formal","","key","j","16.659999999999854","768","428","自己","专注","Positive","ability","","","","","","","","","","",""
"796","","j","psychophysics","96","258477","0.0-7.0-3.0-0.82","3","3","2","2","2","4","2","3","4","4","5","1","0","1","1","-1","0","0","1","4","4","4","5","5","5","5","5","5","5","8","7","8","6","6","6","6","8","8","6","2","6","5","4","3","3","2","5","2","1","1","3","6","2","5","5","5","3","6","2","3","6","5","3","3","5","5","5","5","6","5","6","7","7","6","5","5","5","3","6","657657294154104832","李","363","Female","[""好我"",""好她"",""坏她"",""坏我""]","[""强我"",""强她"",""弱她"",""弱我""]","","","","","","","","yes","","","","","","","","","SRET","EW_formal","","key","j","16.657009345794282","768","428","自己","学霸","Positive","ability","","","","","","","","","","",""
"707","","f","psychophysics","97","260185","0.0-7.0-3.0-0.83","3","3","2","2","2","4","2","3","4","4","5","1","0","1","1","-1","0","0","1","4","4","4","5","5","5","5","5","5","5","8","7","8","6","6","6","6","8","8","6","2","6","5","4","3","3","2","5","2","1","1","3","6","2","5","5","5","3","6","2","3","6","5","3","3","5","5","5","5","6","5","6","7","7","6","5","5","5","3","6","657657294154104832","李","363","Female","[""好我"",""好她"",""坏她"",""坏我""]","[""强我"",""强她"",""弱她"",""弱我""]","","","","","","","","no","","","","","","","","","SRET","EW_formal","","key","f","16.663366336633665","768","428","自己","奸险","Negative","morality","","","","","","","","","","",""
"1064","","j","psychophysics","98","262250","0.0-7.0-3.0-0.84","3","3","2","2","2","4","2","3","4","4","5","1","0","1","1","-1","0","0","1","4","4","4","5","5","5","5","5","5","5","8","7","8","6","6","6","6","8","8","6","2","6","5","4","3","3","2","5","2","1","1","3","6","2","5","5","5","3","6","2","3","6","5","3","3","5","5","5","5","6","5","6","7","7","6","5","5","5","3","6","657657294154104832","李","363","Female","[""好我"",""好她"",""坏她"",""坏我""]","[""强我"",""强她"",""弱她"",""弱我""]","","","","","","","","yes","","","","","","","","","SRET","EW_formal","","key","j","16.660975609756004","768","428","自己","主见","Positive","ability","","","","","","","","","","",""
"885","","f","psychophysics","99","264135","0.0-7.0-3.0-0.85","3","3","2","2","2","4","2","3","4","4","5","1","0","1","1","-1","0","0","1","4","4","4","5","5","5","5","5","5","5","8","7","8","6","6","6","6","8","8","6","2","6","5","4","3","3","2","5","2","1","1","3","6","2","5","5","5","3","6","2","3","6","5","3","3","5","5","5","5","6","5","6","7","7","6","5","5","5","3","6","657657294154104832","李","363","Female","[""好我"",""好她"",""坏她"",""坏我""]","[""强我"",""强她"",""弱她"",""弱我""]","","","","","","","","no","","","","","","","","","SRET","EW_formal","","key","f","16.661607142856933","768","428","朋友","低俗","Negative","morality","","","","","","","","","","",""
"1059","","j","psychophysics","100","266195","0.0-7.0-3.0-0.86","3","3","2","2","2","4","2","3","4","4","5","1","0","1","1","-1","0","0","1","4","4","4","5","5","5","5","5","5","5","8","7","8","6","6","6","6","8","8","6","2","6","5","4","3","3","2","5","2","1","1","3","6","2","5","5","5","3","6","2","3","6","5","3","3","5","5","5","5","6","5","6","7","7","6","5","5","5","3","6","657657294154104832","李","363","Female","[""好我"",""好她"",""坏她"",""坏我""]","[""强我"",""强她"",""弱她"",""弱我""]","","","","","","","","yes","","","","","","","","","SRET","EW_formal","","key","j","16.657723577235963","768","428","朋友","素养","Positive","morality","","","","","","","","","","",""
"719","","f","psychophysics","101","267916","0.0-7.0-3.0-0.87","3","3","2","2","2","4","2","3","4","4","5","1","0","1","1","-1","0","0","1","4","4","4","5","5","5","5","5","5","5","8","7","8","6","6","6","6","8","8","6","2","6","5","4","3","3","2","5","2","1","1","3","6","2","5","5","5","3","6","2","3","6","5","3","3","5","5","5","5","6","5","6","7","7","6","5","5","5","3","6","657657294154104832","李","363","Female","[""好我"",""好她"",""坏她"",""坏我""]","[""强我"",""强她"",""弱她"",""弱我""]","","","","","","","","no","","","","","","","","","SRET","EW_formal","","key","f","16.662745098038986","768","428","自己","缓慢","Negative","ability","","","","","","","","","","",""
"3622","
    <p><div style='color:white;font-size:35px; line-height:20px;'>计算任务</div></p><br>
    <p><div style='color:red;font-size:25px; line-height:20px;'>接下来，您将看到一些四则运算题，<b>请从键盘选择 0-9 进行反应。</b></div></p>
    <p><div style='color:red;font-size:25px; line-height:20px;'>请尽可能快地进行计算，计算的速度和正确率将影响报酬的发放。</div></p>
    <p><div class='footer' style='color:white;font-size:25px; line-height:20px;'>如果对本实验还有不清楚之处，请立即向实验员咨询。</p><p style='color:white;font-size:25px; line-height:20px;'>如果您明白了规则：</p><p style='color:white;font-size:22px; line-height:20px;'>请按 继续 进入练习</p>
    </div>
    ","0","html-button-response","102","271539","0.0-7.0-4.0","3","3","2","2","2","4","2","3","4","4","5","1","0","1","1","-1","0","0","1","4","4","4","5","5","5","5","5","5","5","8","7","8","6","6","6","6","8","8","6","2","6","5","4","3","3","2","5","2","1","1","3","6","2","5","5","5","3","6","2","3","6","5","3","3","5","5","5","5","6","5","6","7","7","6","5","5","5","3","6","657657294154104832","李","363","Female","[""好我"",""好她"",""坏她"",""坏我""]","[""强我"",""强她"",""弱她"",""弱我""]","","","","","","","","","","","","","","","","","SRET_math","math_instructions","Wed Jan 17 2024 22:15:11 GMT+0800 (中国标准时间)","","","","","","","","","","","","","","","","","","","",""
"2560","","0","psychophysics","103","274101","0.0-7.0-5.0-0.0","3","3","2","2","2","4","2","3","4","4","5","1","0","1","1","-1","0","0","1","4","4","4","5","5","5","5","5","5","5","8","7","8","6","6","6","6","8","8","6","2","6","5","4","3","3","2","5","2","1","1","3","6","2","5","5","5","3","6","2","3","6","5","3","3","5","5","5","5","6","5","6","7","7","6","5","5","5","3","6","657657294154104832","李","363","Female","[""好我"",""好她"",""坏她"",""坏我""]","[""强我"",""强她"",""弱她"",""弱我""]","","","","","","","","0","","","","","","","","","SRET","SRET_math_calculate","","key","0","16.658441558441332","768","428","","","","","6*0= ?","0","1","","","","","","","",""
"2658","","3","psychophysics","104","276760","0.0-7.0-5.0-0.1","3","3","2","2","2","4","2","3","4","4","5","1","0","1","1","-1","0","0","1","4","4","4","5","5","5","5","5","5","5","8","7","8","6","6","6","6","8","8","6","2","6","5","4","3","3","2","5","2","1","1","3","6","2","5","5","5","3","6","2","3","6","5","3","3","5","5","5","5","6","5","6","7","7","6","5","5","5","3","6","657657294154104832","李","363","Female","[""好我"",""好她"",""坏她"",""坏我""]","[""强我"",""强她"",""弱她"",""弱我""]","","","","","","","","3","","","","","","","","","SRET","SRET_math_calculate","","key","3","16.66012658227841","768","428","","","","","9/3= ?","3","1","","","","","","","",""
"2245","","2","psychophysics","105","279006","0.0-7.0-5.0-0.2","3","3","2","2","2","4","2","3","4","4","5","1","0","1","1","-1","0","0","1","4","4","4","5","5","5","5","5","5","5","8","7","8","6","6","6","6","8","8","6","2","6","5","4","3","3","2","5","2","1","1","3","6","2","5","5","5","3","6","2","3","6","5","3","3","5","5","5","5","6","5","6","7","7","6","5","5","5","3","6","657657294154104832","李","363","Female","[""好我"",""好她"",""坏她"",""坏我""]","[""强我"",""强她"",""弱她"",""弱我""]","","","","","","","","2","","","","","","","","","SRET","SRET_math_calculate","","key","2","16.658208955223966","768","428","","","","","8-6= ?","2","1","","","","","","","",""
"2302","","5","psychophysics","106","281309","0.0-7.0-5.0-0.3","3","3","2","2","2","4","2","3","4","4","5","1","0","1","1","-1","0","0","1","4","4","4","5","5","5","5","5","5","5","8","7","8","6","6","6","6","8","8","6","2","6","5","4","3","3","2","5","2","1","1","3","6","2","5","5","5","3","6","2","3","6","5","3","3","5","5","5","5","6","5","6","7","7","6","5","5","5","3","6","657657294154104832","李","363","Female","[""好我"",""好她"",""坏她"",""坏我""]","[""强我"",""强她"",""弱她"",""弱我""]","","","","","","","","5","","","","","","","","","SRET","SRET_math_calculate","","key","5","16.653284671532848","768","428","","","","","5+1= ?","6","0","","","","","","","",""
"2336","","2","psychophysics","107","283647","0.0-7.0-5.0-0.4","3","3","2","2","2","4","2","3","4","4","5","1","0","1","1","-1","0","0","1","4","4","4","5","5","5","5","5","5","5","8","7","8","6","6","6","6","8","8","6","2","6","5","4","3","3","2","5","2","1","1","3","6","2","5","5","5","3","6","2","3","6","5","3","3","5","5","5","5","6","5","6","7","7","6","5","5","5","3","6","657657294154104832","李","363","Female","[""好我"",""好她"",""坏她"",""坏我""]","[""强我"",""强她"",""弱她"",""弱我""]","","","","","","","","2","","","","","","","","","SRET","SRET_math_calculate","","key","2","16.661428571428406","768","428","","","","","19-17= ?","2","1","","","","","","","",""
"2274","","8","psychophysics","108","285923","0.0-7.0-5.0-0.5","3","3","2","2","2","4","2","3","4","4","5","1","0","1","1","-1","0","0","1","4","4","4","5","5","5","5","5","5","5","8","7","8","6","6","6","6","8","8","6","2","6","5","4","3","3","2","5","2","1","1","3","6","2","5","5","5","3","6","2","3","6","5","3","3","5","5","5","5","6","5","6","7","7","6","5","5","5","3","6","657657294154104832","李","363","Female","[""好我"",""好她"",""坏她"",""坏我""]","[""强我"",""强她"",""弱她"",""弱我""]","","","","","","","","8","","","","","","","","","SRET","SRET_math_calculate","","key","8","16.661481481481395","768","428","","","","","3+5= ?","8","1","","","","","","","",""
"2411","","7","psychophysics","109","288336","0.0-7.0-5.0-0.6","3","3","2","2","2","4","2","3","4","4","5","1","0","1","1","-1","0","0","1","4","4","4","5","5","5","5","5","5","5","8","7","8","6","6","6","6","8","8","6","2","6","5","4","3","3","2","5","2","1","1","3","6","2","5","5","5","3","6","2","3","6","5","3","3","5","5","5","5","6","5","6","7","7","6","5","5","5","3","6","657657294154104832","李","363","Female","[""好我"",""好她"",""坏她"",""坏我""]","[""强我"",""强她"",""弱她"",""弱我""]","","","","","","","","7","","","","","","","","","SRET","SRET_math_calculate","","key","7","16.661111111111193","768","428","","","","","21/3= ? ","7","1","","","","","","","",""
"2353","","5","psychophysics","110","290690","0.0-7.0-5.0-0.7","3","3","2","2","2","4","2","3","4","4","5","1","0","1","1","-1","0","0","1","4","4","4","5","5","5","5","5","5","5","8","7","8","6","6","6","6","8","8","6","2","6","5","4","3","3","2","5","2","1","1","3","6","2","5","5","5","3","6","2","3","6","5","3","3","5","5","5","5","6","5","6","7","7","6","5","5","5","3","6","657657294154104832","李","363","Female","[""好我"",""好她"",""坏她"",""坏我""]","[""强我"",""强她"",""弱她"",""弱我""]","","","","","","","","5","","","","","","","","","SRET","SRET_math_calculate","","key","5","16.65744680851072","768","428","","","","","9-4= ?","5","1","","","","","","","",""
"1985","","3","psychophysics","111","292676","0.0-7.0-5.0-0.8","3","3","2","2","2","4","2","3","4","4","5","1","0","1","1","-1","0","0","1","4","4","4","5","5","5","5","5","5","5","8","7","8","6","6","6","6","8","8","6","2","6","5","4","3","3","2","5","2","1","1","3","6","2","5","5","5","3","6","2","3","6","5","3","3","5","5","5","5","6","5","6","7","7","6","5","5","5","3","6","657657294154104832","李","363","Female","[""好我"",""好她"",""坏她"",""坏我""]","[""强我"",""强她"",""弱她"",""弱我""]","","","","","","","","3","","","","","","","","","SRET","SRET_math_calculate","","key","3","16.65762711864387","768","428","","","","","6/2= ?","3","1","","","","","","","",""
"1880","","2","psychophysics","112","294557","0.0-7.0-5.0-0.9","3","3","2","2","2","4","2","3","4","4","5","1","0","1","1","-1","0","0","1","4","4","4","5","5","5","5","5","5","5","8","7","8","6","6","6","6","8","8","6","2","6","5","4","3","3","2","5","2","1","1","3","6","2","5","5","5","3","6","2","3","6","5","3","3","5","5","5","5","6","5","6","7","7","6","5","5","5","3","6","657657294154104832","李","363","Female","[""好我"",""好她"",""坏她"",""坏我""]","[""强我"",""强她"",""弱她"",""弱我""]","","","","","","","","2","","","","","","","","","SRET","SRET_math_calculate","","key","2","16.661607142856933","768","428","","","","","1+1= ?","2","1","","","","","","","",""
"2225","","4","psychophysics","113","296783","0.0-7.0-5.0-0.10","3","3","2","2","2","4","2","3","4","4","5","1","0","1","1","-1","0","0","1","4","4","4","5","5","5","5","5","5","5","8","7","8","6","6","6","6","8","8","6","2","6","5","4","3","3","2","5","2","1","1","3","6","2","5","5","5","3","6","2","3","6","5","3","3","5","5","5","5","6","5","6","7","7","6","5","5","5","3","6","657657294154104832","李","363","Female","[""好我"",""好她"",""坏她"",""坏我""]","[""强我"",""强她"",""弱她"",""弱我""]","","","","","","","","4","","","","","","","","","SRET","SRET_math_calculate","","key","4","16.65833333333307","768","428","","","","","8-2= ?","6","0","","","","","","","",""
"2244","","4","psychophysics","114","299028","0.0-7.0-5.0-0.11","3","3","2","2","2","4","2","3","4","4","5","1","0","1","1","-1","0","0","1","4","4","4","5","5","5","5","5","5","5","8","7","8","6","6","6","6","8","8","6","2","6","5","4","3","3","2","5","2","1","1","3","6","2","5","5","5","3","6","2","3","6","5","3","3","5","5","5","5","6","5","6","7","7","6","5","5","5","3","6","657657294154104832","李","363","Female","[""好我"",""好她"",""坏她"",""坏我""]","[""强我"",""强她"",""弱她"",""弱我""]","","","","","","","","4","","","","","","","","","SRET","SRET_math_calculate","","key","4","16.655223880596928","768","428","","","","","4*1= ?","4","1","","","","","","","",""
"2372","","8","psychophysics","115","301401","0.0-7.0-5.0-0.12","3","3","2","2","2","4","2","3","4","4","5","1","0","1","1","-1","0","0","1","4","4","4","5","5","5","5","5","5","5","8","7","8","6","6","6","6","8","8","6","2","6","5","4","3","3","2","5","2","1","1","3","6","2","5","5","5","3","6","2","3","6","5","3","3","5","5","5","5","6","5","6","7","7","6","5","5","5","3","6","657657294154104832","李","363","Female","[""好我"",""好她"",""坏她"",""坏我""]","[""强我"",""强她"",""弱她"",""弱我""]","","","","","","","","8","","","","","","","","","SRET","SRET_math_calculate","","key","8","16.65985915492966","768","428","","","","","1+7= ?","8","1","","","","","","","",""
"2237","","9","psychophysics","116","303639","0.0-7.0-5.0-0.13","3","3","2","2","2","4","2","3","4","4","5","1","0","1","1","-1","0","0","1","4","4","4","5","5","5","5","5","5","5","8","7","8","6","6","6","6","8","8","6","2","6","5","4","3","3","2","5","2","1","1","3","6","2","5","5","5","3","6","2","3","6","5","3","3","5","5","5","5","6","5","6","7","7","6","5","5","5","3","6","657657294154104832","李","363","Female","[""好我"",""好她"",""坏她"",""坏我""]","[""强我"",""强她"",""弱她"",""弱我""]","","","","","","","","9","","","","","","","","","SRET","SRET_math_calculate","","key","9","16.66015037593976","768","428","","","","","18/2= ?","9","1","","","","","","","",""
"2414","","3","psychophysics","117","306055","0.0-7.0-5.0-0.14","3","3","2","2","2","4","2","3","4","4","5","1","0","1","1","-1","0","0","1","4","4","4","5","5","5","5","5","5","5","8","7","8","6","6","6","6","8","8","6","2","6","5","4","3","3","2","5","2","1","1","3","6","2","5","5","5","3","6","2","3","6","5","3","3","5","5","5","5","6","5","6","7","7","6","5","5","5","3","6","657657294154104832","李","363","Female","[""好我"",""好她"",""坏她"",""坏我""]","[""强我"",""强她"",""弱她"",""弱我""]","","","","","","","","3","","","","","","","","","SRET","SRET_math_calculate","","key","3","16.656944444444687","768","428","","","","","8-5= ?","3","1","","","","","","","",""
"2391","","1","psychophysics","118","308447","0.0-7.0-5.0-0.15","3","3","2","2","2","4","2","3","4","4","5","1","0","1","1","-1","0","0","1","4","4","4","5","5","5","5","5","5","5","8","7","8","6","6","6","6","8","8","6","2","6","5","4","3","3","2","5","2","1","1","3","6","2","5","5","5","3","6","2","3","6","5","3","3","5","5","5","5","6","5","6","7","7","6","5","5","5","3","6","657657294154104832","李","363","Female","[""好我"",""好她"",""坏她"",""坏我""]","[""强我"",""强她"",""弱她"",""弱我""]","","","","","","","","1","","","","","","","","","SRET","SRET_math_calculate","","key","1","16.65944055944048","768","428","","","","","9-8= ?","1","1","","","","","","","",""
"2050","","1","psychophysics","119","310497","0.0-7.0-5.0-0.16","3","3","2","2","2","4","2","3","4","4","5","1","0","1","1","-1","0","0","1","4","4","4","5","5","5","5","5","5","5","8","7","8","6","6","6","6","8","8","6","2","6","5","4","3","3","2","5","2","1","1","3","6","2","5","5","5","3","6","2","3","6","5","3","3","5","5","5","5","6","5","6","7","7","6","5","5","5","3","6","657657294154104832","李","363","Female","[""好我"",""好她"",""坏她"",""坏我""]","[""强我"",""强她"",""弱她"",""弱我""]","","","","","","","","1","","","","","","","","","SRET","SRET_math_calculate","","key","1","16.65573770491803","768","428","","","","","30-29= ?","1","1","","","","","","","",""
"2231","","2","psychophysics","120","312729","0.0-7.0-5.0-0.17","3","3","2","2","2","4","2","3","4","4","5","1","0","1","1","-1","0","0","1","4","4","4","5","5","5","5","5","5","5","8","7","8","6","6","6","6","8","8","6","2","6","5","4","3","3","2","5","2","1","1","3","6","2","5","5","5","3","6","2","3","6","5","3","3","5","5","5","5","6","5","6","7","7","6","5","5","5","3","6","657657294154104832","李","363","Female","[""好我"",""好她"",""坏她"",""坏我""]","[""强我"",""强她"",""弱她"",""弱我""]","","","","","","","","2","","","","","","","","","SRET","SRET_math_calculate","","key","2","16.654887218044937","768","428","","","","","29-27= ?","2","1","","","","","","","",""
"2382","","3","psychophysics","121","315113","0.0-7.0-5.0-0.18","3","3","2","2","2","4","2","3","4","4","5","1","0","1","1","-1","0","0","1","4","4","4","5","5","5","5","5","5","5","8","7","8","6","6","6","6","8","8","6","2","6","5","4","3","3","2","5","2","1","1","3","6","2","5","5","5","3","6","2","3","6","5","3","3","5","5","5","5","6","5","6","7","7","6","5","5","5","3","6","657657294154104832","李","363","Female","[""好我"",""好她"",""坏她"",""坏我""]","[""强我"",""强她"",""弱她"",""弱我""]","","","","","","","","3","","","","","","","","","SRET","SRET_math_calculate","","key","3","16.656338028169095","768","428","","","","","3+0= ?","3","1","","","","","","","",""
"1977","","9","psychophysics","122","317091","0.0-7.0-5.0-0.19","3","3","2","2","2","4","2","3","4","4","5","1","0","1","1","-1","0","0","1","4","4","4","5","5","5","5","5","5","5","8","7","8","6","6","6","6","8","8","6","2","6","5","4","3","3","2","5","2","1","1","3","6","2","5","5","5","3","6","2","3","6","5","3","3","5","5","5","5","6","5","6","7","7","6","5","5","5","3","6","657657294154104832","李","363","Female","[""好我"",""好她"",""坏她"",""坏我""]","[""强我"",""强她"",""弱她"",""弱我""]","","","","","","","","9","","","","","","","","","SRET","SRET_math_calculate","","key","9","16.655932203390027","768","428","","","","","7+2= ?","9","1","","","","","","","",""
"2315","","3","psychophysics","123","319407","0.0-7.0-5.0-0.20","3","3","2","2","2","4","2","3","4","4","5","1","0","1","1","-1","0","0","1","4","4","4","5","5","5","5","5","5","5","8","7","8","6","6","6","6","8","8","6","2","6","5","4","3","3","2","5","2","1","1","3","6","2","5","5","5","3","6","2","3","6","5","3","3","5","5","5","5","6","5","6","7","7","6","5","5","5","3","6","657657294154104832","李","363","Female","[""好我"",""好她"",""坏她"",""坏我""]","[""强我"",""强她"",""弱她"",""弱我""]","","","","","","","","3","","","","","","","","","SRET","SRET_math_calculate","","key","3","16.65652173913069","768","428","","","","","12/4= ?","3","1","","","","","","","",""
"2124","","2","psychophysics","124","321533","0.0-7.0-5.0-0.21","3","3","2","2","2","4","2","3","4","4","5","1","0","1","1","-1","0","0","1","4","4","4","5","5","5","5","5","5","5","8","7","8","6","6","6","6","8","8","6","2","6","5","4","3","3","2","5","2","1","1","3","6","2","5","5","5","3","6","2","3","6","5","3","3","5","5","5","5","6","5","6","7","7","6","5","5","5","3","6","657657294154104832","李","363","Female","[""好我"",""好她"",""坏她"",""坏我""]","[""强我"",""强她"",""弱她"",""弱我""]","","","","","","","","2","","","","","","","","","SRET","SRET_math_calculate","","key","2","16.658730158730158","768","428","","","","","18/9= ?","2","1","","","","","","","",""
"2145","","9","psychophysics","125","323679","0.0-7.0-5.0-0.22","3","3","2","2","2","4","2","3","4","4","5","1","0","1","1","-1","0","0","1","4","4","4","5","5","5","5","5","5","5","8","7","8","6","6","6","6","8","8","6","2","6","5","4","3","3","2","5","2","1","1","3","6","2","5","5","5","3","6","2","3","6","5","3","3","5","5","5","5","6","5","6","7","7","6","5","5","5","3","6","657657294154104832","李","363","Female","[""好我"",""好她"",""坏她"",""坏我""]","[""强我"",""强她"",""弱她"",""弱我""]","","","","","","","","9","","","","","","","","","SRET","SRET_math_calculate","","key","9","16.66171875000009","768","428","","","","","1+8= ?","9","1","","","","","","","",""
"2329","","7","psychophysics","126","326009","0.0-7.0-5.0-0.23","3","3","2","2","2","4","2","3","4","4","5","1","0","1","1","-1","0","0","1","4","4","4","5","5","5","5","5","5","5","8","7","8","6","6","6","6","8","8","6","2","6","5","4","3","3","2","5","2","1","1","3","6","2","5","5","5","3","6","2","3","6","5","3","3","5","5","5","5","6","5","6","7","7","6","5","5","5","3","6","657657294154104832","李","363","Female","[""好我"",""好她"",""坏她"",""坏我""]","[""强我"",""强她"",""弱她"",""弱我""]","","","","","","","","7","","","","","","","","","SRET","SRET_math_calculate","","key","7","16.65899280575523","768","428","","","","","4+3= ?","7","1","","","","","","","",""
"3592","","9","psychophysics","127","329602","0.0-7.0-5.0-0.24","3","3","2","2","2","4","2","3","4","4","5","1","0","1","1","-1","0","0","1","4","4","4","5","5","5","5","5","5","5","8","7","8","6","6","6","6","8","8","6","2","6","5","4","3","3","2","5","2","1","1","3","6","2","5","5","5","3","6","2","3","6","5","3","3","5","5","5","5","6","5","6","7","7","6","5","5","5","3","6","657657294154104832","李","363","Female","[""好我"",""好她"",""坏她"",""坏我""]","[""强我"",""强她"",""弱她"",""弱我""]","","","","","","","","9","","","","","","","","","SRET","SRET_math_calculate","","key","9","16.659069767441913","768","428","","","","","43-34= ?","9","1","","","","","","","",""
"1973","","2","psychophysics","128","331576","0.0-7.0-5.0-0.25","3","3","2","2","2","4","2","3","4","4","5","1","0","1","1","-1","0","0","1","4","4","4","5","5","5","5","5","5","5","8","7","8","6","6","6","6","8","8","6","2","6","5","4","3","3","2","5","2","1","1","3","6","2","5","5","5","3","6","2","3","6","5","3","3","5","5","5","5","6","5","6","7","7","6","5","5","5","3","6","657657294154104832","李","363","Female","[""好我"",""好她"",""坏她"",""坏我""]","[""强我"",""强她"",""弱她"",""弱我""]","","","","","","","","2","","","","","","","","","SRET","SRET_math_calculate","","key","2","16.656410256410158","768","428","","","","","9-7= ?","2","1","","","","","","","",""
"2380","","6","psychophysics","129","333957","0.0-7.0-5.0-0.26","3","3","2","2","2","4","2","3","4","4","5","1","0","1","1","-1","0","0","1","4","4","4","5","5","5","5","5","5","5","8","7","8","6","6","6","6","8","8","6","2","6","5","4","3","3","2","5","2","1","1","3","6","2","5","5","5","3","6","2","3","6","5","3","3","5","5","5","5","6","5","6","7","7","6","5","5","5","3","6","657657294154104832","李","363","Female","[""好我"",""好她"",""坏她"",""坏我""]","[""强我"",""强她"",""弱她"",""弱我""]","","","","","","","","6","","","","","","","","","SRET","SRET_math_calculate","","key","6","16.657042253521045","768","428","","","","","2+4= ?","6","1","","","","","","","",""
"2030","","5","psychophysics","130","335988","0.0-7.0-5.0-0.27","3","3","2","2","2","4","2","3","4","4","5","1","0","1","1","-1","0","0","1","4","4","4","5","5","5","5","5","5","5","8","7","8","6","6","6","6","8","8","6","2","6","5","4","3","3","2","5","2","1","1","3","6","2","5","5","5","3","6","2","3","6","5","3","3","5","5","5","5","6","5","6","7","7","6","5","5","5","3","6","657657294154104832","李","363","Female","[""好我"",""好她"",""坏她"",""坏我""]","[""强我"",""强她"",""弱她"",""弱我""]","","","","","","","","5","","","","","","","","","SRET","SRET_math_calculate","","key","5","16.66115702479339","768","428","","","","","10-5= ?","5","1","","","","","","","",""
"2532","","4","psychophysics","131","338521","0.0-7.0-5.0-0.28","3","3","2","2","2","4","2","3","4","4","5","1","0","1","1","-1","0","0","1","4","4","4","5","5","5","5","5","5","5","8","7","8","6","6","6","6","8","8","6","2","6","5","4","3","3","2","5","2","1","1","3","6","2","5","5","5","3","6","2","3","6","5","3","3","5","5","5","5","6","5","6","7","7","6","5","5","5","3","6","657657294154104832","李","363","Female","[""好我"",""好她"",""坏她"",""坏我""]","[""强我"",""强她"",""弱她"",""弱我""]","","","","","","","","4","","","","","","","","","SRET","SRET_math_calculate","","key","4","16.657615894039658","768","428","","","","","13-9= ?","4","1","","","","","","","",""
"2523","","5","psychophysics","132","341044","0.0-7.0-5.0-0.29","3","3","2","2","2","4","2","3","4","4","5","1","0","1","1","-1","0","0","1","4","4","4","5","5","5","5","5","5","5","8","7","8","6","6","6","6","8","8","6","2","6","5","4","3","3","2","5","2","1","1","3","6","2","5","5","5","3","6","2","3","6","5","3","3","5","5","5","5","6","5","6","7","7","6","5","5","5","3","6","657657294154104832","李","363","Female","[""好我"",""好她"",""坏她"",""坏我""]","[""强我"",""强她"",""弱她"",""弱我""]","","","","","","","","5","","","","","","","","","SRET","SRET_math_calculate","","key","5","16.656953642384185","768","428","","","","","17-12= ? ","5","1","","","","","","","",""
"2635","","5","psychophysics","133","343680","0.0-7.0-5.0-0.30","3","3","2","2","2","4","2","3","4","4","5","1","0","1","1","-1","0","0","1","4","4","4","5","5","5","5","5","5","5","8","7","8","6","6","6","6","8","8","6","2","6","5","4","3","3","2","5","2","1","1","3","6","2","5","5","5","3","6","2","3","6","5","3","3","5","5","5","5","6","5","6","7","7","6","5","5","5","3","6","657657294154104832","李","363","Female","[""好我"",""好她"",""坏她"",""坏我""]","[""强我"",""强她"",""弱她"",""弱我""]","","","","","","","","5","","","","","","","","","SRET","SRET_math_calculate","","key","5","16.656050955414013","768","428","","","","","5/1= ?","5","1","","","","","","","",""
"2053","","5","psychophysics","134","345734","0.0-7.0-5.0-0.31","3","3","2","2","2","4","2","3","4","4","5","1","0","1","1","-1","0","0","1","4","4","4","5","5","5","5","5","5","5","8","7","8","6","6","6","6","8","8","6","2","6","5","4","3","3","2","5","2","1","1","3","6","2","5","5","5","3","6","2","3","6","5","3","3","5","5","5","5","6","5","6","7","7","6","5","5","5","3","6","657657294154104832","李","363","Female","[""好我"",""好她"",""坏她"",""坏我""]","[""强我"",""强她"",""弱她"",""弱我""]","","","","","","","","5","","","","","","","","","SRET","SRET_math_calculate","","key","5","16.657377049179946","768","428","","","","","4+1= ?","5","1","","","","","","","",""
"2126","","3","psychophysics","135","347861","0.0-7.0-5.0-0.32","3","3","2","2","2","4","2","3","4","4","5","1","0","1","1","-1","0","0","1","4","4","4","5","5","5","5","5","5","5","8","7","8","6","6","6","6","8","8","6","2","6","5","4","3","3","2","5","2","1","1","3","6","2","5","5","5","3","6","2","3","6","5","3","3","5","5","5","5","6","5","6","7","7","6","5","5","5","3","6","657657294154104832","李","363","Female","[""好我"",""好她"",""坏她"",""坏我""]","[""强我"",""强她"",""弱她"",""弱我""]","","","","","","","","3","","","","","","","","","SRET","SRET_math_calculate","","key","3","16.654330708661234","768","428","","","","","1+2= ?","3","1","","","","","","","",""
"2057","","6","psychophysics","136","349919","0.0-7.0-5.0-0.33","3","3","2","2","2","4","2","3","4","4","5","1","0","1","1","-1","0","0","1","4","4","4","5","5","5","5","5","5","5","8","7","8","6","6","6","6","8","8","6","2","6","5","4","3","3","2","5","2","1","1","3","6","2","5","5","5","3","6","2","3","6","5","3","3","5","5","5","5","6","5","6","7","7","6","5","5","5","3","6","657657294154104832","李","363","Female","[""好我"",""好她"",""坏她"",""坏我""]","[""强我"",""强她"",""弱她"",""弱我""]","","","","","","","","6","","","","","","","","","SRET","SRET_math_calculate","","key","6","16.659016393442815","768","428","","","","","9-3= ?","6","1","","","","","","","",""
"2907","","2","psychophysics","137","352827","0.0-7.0-5.0-0.34","3","3","2","2","2","4","2","3","4","4","5","1","0","1","1","-1","0","0","1","4","4","4","5","5","5","5","5","5","5","8","7","8","6","6","6","6","8","8","6","2","6","5","4","3","3","2","5","2","1","1","3","6","2","5","5","5","3","6","2","3","6","5","3","3","5","5","5","5","6","5","6","7","7","6","5","5","5","3","6","657657294154104832","李","363","Female","[""好我"",""好她"",""坏她"",""坏我""]","[""强我"",""强她"",""弱她"",""弱我""]","","","","","","","","2","","","","","","","","","SRET","SRET_math_calculate","","key","2","16.655172413793103","768","428","","","","","22/11= ?","2","1","","","","","","","",""
"3181","","8","psychophysics","138","356010","0.0-7.0-5.0-0.35","3","3","2","2","2","4","2","3","4","4","5","1","0","1","1","-1","0","0","1","4","4","4","5","5","5","5","5","5","5","8","7","8","6","6","6","6","8","8","6","2","6","5","4","3","3","2","5","2","1","1","3","6","2","5","5","5","3","6","2","3","6","5","3","3","5","5","5","5","6","5","6","7","7","6","5","5","5","3","6","657657294154104832","李","363","Female","[""好我"",""好她"",""坏她"",""坏我""]","[""强我"",""强她"",""弱她"",""弱我""]","","","","","","","","8","","","","","","","","","SRET","SRET_math_calculate","","key","8","16.658947368420808","768","428","","","","","4*2= ?","8","1","","","","","","","",""
"2309","","5","psychophysics","139","358319","0.0-7.0-5.0-0.36","3","3","2","2","2","4","2","3","4","4","5","1","0","1","1","-1","0","0","1","4","4","4","5","5","5","5","5","5","5","8","7","8","6","6","6","6","8","8","6","2","6","5","4","3","3","2","5","2","1","1","3","6","2","5","5","5","3","6","2","3","6","5","3","3","5","5","5","5","6","5","6","7","7","6","5","5","5","3","6","657657294154104832","李","363","Female","[""好我"",""好她"",""坏她"",""坏我""]","[""强我"",""强她"",""弱她"",""弱我""]","","","","","","","","5","","","","","","","","","SRET","SRET_math_calculate","","key","5","16.65797101449267","768","428","","","","","8-3= ? ","5","1","","","","","","","",""
"3152","","9","psychophysics","140","361473","0.0-7.0-5.0-0.37","3","3","2","2","2","4","2","3","4","4","5","1","0","1","1","-1","0","0","1","4","4","4","5","5","5","5","5","5","5","8","7","8","6","6","6","6","8","8","6","2","6","5","4","3","3","2","5","2","1","1","3","6","2","5","5","5","3","6","2","3","6","5","3","3","5","5","5","5","6","5","6","7","7","6","5","5","5","3","6","657657294154104832","李","363","Female","[""好我"",""好她"",""坏她"",""坏我""]","[""强我"",""强她"",""弱她"",""弱我""]","","","","","","","","9","","","","","","","","","SRET","SRET_math_calculate","","key","9","16.659574468085108","768","428","","","","","32-23= ?","9","1","","","","","","","",""
"2291","","8","psychophysics","141","363765","0.0-7.0-5.0-0.38","3","3","2","2","2","4","2","3","4","4","5","1","0","1","1","-1","0","0","1","4","4","4","5","5","5","5","5","5","5","8","7","8","6","6","6","6","8","8","6","2","6","5","4","3","3","2","5","2","1","1","3","6","2","5","5","5","3","6","2","3","6","5","3","3","5","5","5","5","6","5","6","7","7","6","5","5","5","3","6","657657294154104832","李","363","Female","[""好我"",""好她"",""坏她"",""坏我""]","[""强我"",""强她"",""弱她"",""弱我""]","","","","","","","","8","","","","","","","","","SRET","SRET_math_calculate","","key","8","16.65985401459871","768","428","","","","","4+4= ?","8","1","","","","","","","",""
"2875","","1","psychophysics","142","366641","0.0-7.0-5.0-0.39","3","3","2","2","2","4","2","3","4","4","5","1","0","1","1","-1","0","0","1","4","4","4","5","5","5","5","5","5","5","8","7","8","6","6","6","6","8","8","6","2","6","5","4","3","3","2","5","2","1","1","3","6","2","5","5","5","3","6","2","3","6","5","3","3","5","5","5","5","6","5","6","7","7","6","5","5","5","3","6","657657294154104832","李","363","Female","[""好我"",""好她"",""坏她"",""坏我""]","[""强我"",""强她"",""弱她"",""弱我""]","","","","","","","","1","","","","","","","","","SRET","SRET_math_calculate","","key","1","16.656140350877262","768","428","","","","","4/4= ?","1","1","","","","","","","",""
