"rt","stimulus","response","trial_type","trial_index","time_elapsed","internal_node_id","swb_1","swb_2","swb_3","swb_4","swb_5","LOT_1","LOT_2","LOT_3","LOT_4","LOT_5","LOT_6","IPC_1","IPC_2","IPC_3","IPC_4","IPC_5","IPC_6","IPC_7","IPC_8","MorIden_1","MorIden_2","MorIden_3","MorIden_4","MorIden_5","MorIden_6","MorIden_7","MorIden_8","MorIden_9","MorIden_10","moralSeImag_1","moralSeImag_2","moralSeImag_3","moralSeImag_4","moralSeImag_5","moralSeImag_6","moralSeImag_7","moralSeImag_8","moralSeImag_9","sde_1","sde_2","sde_3","sde_4","sde_5","sde_6","sde_7","sde_8","sde_9","sde_10","trap2","sde_11","sde_12","sde_13","sde_14","sde_15","sde_16","sde_17","sde_18","sde_19","sde_20","IM_1","IM_2","IM_3","IM_4","IM_5","IM_6","IM_7","IM_8","IM_9","IM_10","IM_11","IM_12","IM_13","IM_14","IM_15","IM_16","IM_17","IM_18","IM_19","IM_20","subj_idx","friend_name","ParticipantID","Sex","Word","Word2","value","success","timeout","failed_images","failed_audio","failed_video","user_agent","responses","item_order","radio_event_ids","radio_event_times","key_event_times","mouse_event_times","straightlining","zigzagging","honeypot","view_history","response_type","key_press","avg_frame_time","center_x","center_y","correct_response","correct","identity","Image","word","condition","task_id","screen_id","time_stamp","person","valence","domain","math","status","duration","question_order","trap2_item"
"5394","
   <p><div style='color:white; font-size: 25px'>您好，欢迎参加本次实验。</div></p>
   <p><div style='color:white; font-size: 25px'>为充分保障您的权利，请确保您已经知晓并同意《参与实验同意书》以及《数据公开知情同意书》。</div></p>
   <p><div style='color:white; font-size: 25px'>如果您未见过上述内容，请咨询实验员。</div></p>
   <p style='color:white; font-size: 25px'>如果您选择继续实验，则表示您已经清楚两份知情同意书的内容并同意。</p>
   <p><div style = ""color: pink;font-size:30px;"">请确保您记得day0的实验编号，您将在本次实验输入该编号，若您忘记，请咨询实验员后作答。</div></p>
   <p><div style = ""color:lightblue;font-size:25px;"">请您尽可能认真地作答，我们将依据您在各问卷和按键任务中的作答质量发放报酬。</div></p>
   <p> <div style = ""color: green""><按空格键至下页></div> </p>
   "," ","html-keyboard-response","0","5395","0.0-0.0","4","3","3","2","5","4","4","4","5","5","4","1","-1","1","1","1","1","1","0","5","5","5","5","4","4","4","3","4","4","6","4","7","7","3","6","7","8","6","2","6","6","7","6","6","6","2","6","5","1","5","2","3","6","1","6","5","2","6","6","2","5","2","4","3","6","5","6","6","5","3","6","6","2","2","5","2","6","3","6","690528419074539520","王","189","Female","[""坏她"",""坏我"",""好她"",""好我""]","[""弱她"",""弱我"",""强她"",""强我""]","","","","","","","","","","","","","","","","","","","","","","","","","","","","","","","","","","","","","","",""
"","","","call-function","1","5397","0.0-1.0-0.0","4","3","3","2","5","4","4","4","5","5","4","1","-1","1","1","1","1","1","0","5","5","5","5","4","4","4","3","4","4","6","4","7","7","3","6","7","8","6","2","6","6","7","6","6","6","2","6","5","1","5","2","3","6","1","6","5","2","6","6","2","5","2","4","3","6","5","6","6","5","3","6","6","2","2","5","2","6","3","6","690528419074539520","王","189","Female","[""坏她"",""坏我"",""好她"",""好我""]","[""弱她"",""弱我"",""强她"",""强我""]","","","","","","","","","","","","","","","","","","","","","","","","","","","","","","","","","","","","","","",""
"36159","","[{""name"":""Sex"",""value"":""1""},{""name"":""friend_name"",""value"":""王""},{""name"":""ParticipantID"",""value"":""189""}]","survey-html-form","2","41556","0.0-1.0-1.0","4","3","3","2","5","4","4","4","5","5","4","1","-1","1","1","1","1","1","0","5","5","5","5","4","4","4","3","4","4","6","4","7","7","3","6","7","8","6","2","6","6","7","6","6","6","2","6","5","1","5","2","3","6","1","6","5","2","6","6","2","5","2","4","3","6","5","6","6","5","3","6","6","2","2","5","2","6","3","6","690528419074539520","王","189","Female","[""坏她"",""坏我"",""好她"",""好我""]","[""弱她"",""弱我"",""强她"",""强我""]","","","","","","","","","","","","","","","","","","","","","","","","","","","","","","","","","","","","","","",""
"","","","preload","3","42093","0.0-2.0","4","3","3","2","5","4","4","4","5","5","4","1","-1","1","1","1","1","1","0","5","5","5","5","4","4","4","3","4","4","6","4","7","7","3","6","7","8","6","2","6","6","7","6","6","6","2","6","5","1","5","2","3","6","1","6","5","2","6","6","2","5","2","4","3","6","5","6","6","5","3","6","6","2","2","5","2","6","3","6","690528419074539520","王","189","Female","[""坏她"",""坏我"",""好她"",""好我""]","[""弱她"",""弱我"",""强她"",""强我""]","","true","false","[]","[]","[]","","","","","","","","","","","","","","","","","","","","","","","","","","","","","","","","",""
"","","","fullscreen","4","48007","0.0-3.0","4","3","3","2","5","4","4","4","5","5","4","1","-1","1","1","1","1","1","0","5","5","5","5","4","4","4","3","4","4","6","4","7","7","3","6","7","8","6","2","6","6","7","6","6","6","2","6","5","1","5","2","3","6","1","6","5","2","6","6","2","5","2","4","3","6","5","6","6","5","3","6","6","2","2","5","2","6","3","6","690528419074539520","王","189","Female","[""坏她"",""坏我"",""好她"",""好我""]","[""弱她"",""弱我"",""强她"",""强我""]","","true","","","","","{}","","","","","","","","","","","","","","","","","","","","","","","","","","","","","","","",""
"21048.79999998212","","{""Q01"":""4"",""Q02"":""3"",""Q03"":""3"",""Q04"":""2"",""Q05"":""5""}","survey-template","5","69058","0.0-4.0","4","3","3","2","5","4","4","4","5","5","4","1","-1","1","1","1","1","1","0","5","5","5","5","4","4","4","3","4","4","6","4","7","7","3","6","7","8","6","2","6","6","7","6","6","6","2","6","5","1","5","2","3","6","1","6","5","2","6","6","2","5","2","4","3","6","5","6","6","5","3","6","6","2","2","5","2","6","3","6","690528419074539520","王","189","Female","[""坏她"",""坏我"",""好她"",""好我""]","[""弱她"",""弱我"",""强她"",""强我""]","","","","","","","","{""Q01"":""4"",""Q02"":""3"",""Q03"":""3"",""Q04"":""2"",""Q05"":""5""}","[0,1,2,3,4]","[""Q01"",""Q02"",""Q03"",""Q04"",""Q05"",""Q05""]","[9506.09999999404,12075.299999982119,12917.799999982119,15902,17689.79999998212,19502.5]","[]","[9506.09999999404,11046.09999999404,11707.799999982119,12075.299999982119,12917.799999982119,14851.399999976158,15902,17689.79999998212,19502.5,21047.69999998808]","0.4","0.5","0","","","","","","","","","","","","","","","","","","","","","","",""
"17112.5","","{""Q01"":""4"",""Q02"":""4"",""Q03"":""4"",""Q04"":""5"",""Q05"":""5"",""Q06"":""4""}","survey-template","6","86174","0.0-5.0","4","3","3","2","5","4","4","4","5","5","4","1","-1","1","1","1","1","1","0","5","5","5","5","4","4","4","3","4","4","6","4","7","7","3","6","7","8","6","2","6","6","7","6","6","6","2","6","5","1","5","2","3","6","1","6","5","2","6","6","2","5","2","4","3","6","5","6","6","5","3","6","6","2","2","5","2","6","3","6","690528419074539520","王","189","Female","[""坏她"",""坏我"",""好她"",""好我""]","[""弱她"",""弱我"",""强她"",""强我""]","","","","","","","","{""Q01"":""4"",""Q02"":""4"",""Q03"":""4"",""Q04"":""5"",""Q05"":""5"",""Q06"":""4""}","[0,1,2,3,4,5]","[""Q01"",""Q02"",""Q03"",""Q04"",""Q05"",""Q06""]","[5166,8265.800000011921,9966.100000023842,12815.90000000596,13949.700000017881,16366]","[]","[5166,8265.800000011921,9966.100000023842,12815.90000000596,13949.700000017881,16366,17112]","0.5","0","0","","","","","","","","","","","","","","","","","","","","","","",""
"27666.20000001788","","{""Q01"":""1"",""Q02"":""-1"",""Q03"":""1"",""Q04"":""1"",""Q05"":""1"",""Q06"":""1"",""Q07"":""1"",""Q08"":""0""}","survey-template","7","113848","0.0-6.0","4","3","3","2","5","4","4","4","5","5","4","1","-1","1","1","1","1","1","0","5","5","5","5","4","4","4","3","4","4","6","4","7","7","3","6","7","8","6","2","6","6","7","6","6","6","2","6","5","1","5","2","3","6","1","6","5","2","6","6","2","5","2","4","3","6","5","6","6","5","3","6","6","2","2","5","2","6","3","6","690528419074539520","王","189","Female","[""坏她"",""坏我"",""好她"",""好我""]","[""弱她"",""弱我"",""强她"",""强我""]","","","","","","","","{""Q01"":""1"",""Q02"":""-1"",""Q03"":""1"",""Q04"":""1"",""Q05"":""1"",""Q06"":""1"",""Q07"":""1"",""Q08"":""0""}","[0,1,2,3,4,5,6,7]","[""Q01"",""Q02"",""Q03"",""Q04"",""Q05"",""Q06"",""Q07"",""Q08""]","[2786.9000000059605,8916.90000000596,10884.800000011921,16260.700000017881,19059.20000001788,20088.70000001788,23016.30000001192,27019]","[]","[2786.9000000059605,8916.90000000596,10884.800000011921,16260.700000017881,19059.20000001788,20088.70000001788,23016.30000001192,27019,27665.20000001788]","0.75","0.14285714285714285","0","","","","","","","","","","","","","","","","","","","","","","",""
"27203","","","instructions","8","141053","0.0-7.0","4","3","3","2","5","4","4","4","5","5","4","1","-1","1","1","1","1","1","0","5","5","5","5","4","4","4","3","4","4","6","4","7","7","3","6","7","8","6","2","6","6","7","6","6","6","2","6","5","1","5","2","3","6","1","6","5","2","6","6","2","5","2","4","3","6","5","6","6","5","3","6","6","2","2","5","2","6","3","6","690528419074539520","王","189","Female","[""坏她"",""坏我"",""好她"",""好我""]","[""弱她"",""弱我"",""强她"",""强我""]","","","","","","","","","","","","","","","","","[{""page_index"":0,""viewing_time"":27203}]","","","","","","","","","","","","","","","","","","","","","",""
"50058","","","instructions","9","191111","0.0-8.0-0.0-0.0","4","3","3","2","5","4","4","4","5","5","4","1","-1","1","1","1","1","1","0","5","5","5","5","4","4","4","3","4","4","6","4","7","7","3","6","7","8","6","2","6","6","7","6","6","6","2","6","5","1","5","2","3","6","1","6","5","2","6","6","2","5","2","4","3","6","5","6","6","5","3","6","6","2","2","5","2","6","3","6","690528419074539520","王","189","Female","[""坏她"",""坏我"",""好她"",""好我""]","[""弱她"",""弱我"",""强她"",""强我""]","","","","","","","","","","","","","","","","","[{""page_index"":0,""viewing_time"":11592},{""page_index"":1,""viewing_time"":28594},{""page_index"":2,""viewing_time"":5224},{""page_index"":3,""viewing_time"":4648}]","","","","","","","","","","","","","","","","","","","","","",""
"822","","f","psychophysics","10","192939","0.0-8.0-0.0-1.0-0.0-0.0","4","3","3","2","5","4","4","4","5","5","4","1","-1","1","1","1","1","1","0","5","5","5","5","4","4","4","3","4","4","6","4","7","7","3","6","7","8","6","2","6","6","7","6","6","6","2","6","5","1","5","2","3","6","1","6","5","2","6","6","2","5","2","4","3","6","5","6","6","5","3","6","6","2","2","5","2","6","3","6","690528419074539520","王","189","Female","[""坏她"",""坏我"",""好她"",""好我""]","[""弱她"",""弱我"",""强她"",""强我""]","","","","","","","","nonmatch","","","","","","","","","","key","f","16.666055045871612","640","356","f","true","nonmatch","img/pentagon.png","好我","好她","prac_ALT2_moral","practice_moral","","","","","","","","",""
"null","<span style='color:GreenYellow; font-size: 70px;'>正确! </span>","null","html-keyboard-response","11","193440","0.0-8.0-0.0-1.0-0.0-1.0","4","3","3","2","5","4","4","4","5","5","4","1","-1","1","1","1","1","1","0","5","5","5","5","4","4","4","3","4","4","6","4","7","7","3","6","7","8","6","2","6","6","7","6","6","6","2","6","5","1","5","2","3","6","1","6","5","2","6","6","2","5","2","4","3","6","5","6","6","5","3","6","6","2","2","5","2","6","3","6","690528419074539520","王","189","Female","[""坏她"",""坏我"",""好她"",""好我""]","[""弱她"",""弱我"",""强她"",""强我""]","","","","","","","","","","","","","","","","","","","","","","","","","","","","","","feedback_test","","","","","","","","",""
"1084","","j","psychophysics","12","195533","0.0-8.0-0.0-1.0-0.0-0.1","4","3","3","2","5","4","4","4","5","5","4","1","-1","1","1","1","1","1","0","5","5","5","5","4","4","4","3","4","4","6","4","7","7","3","6","7","8","6","2","6","6","7","6","6","6","2","6","5","1","5","2","3","6","1","6","5","2","6","6","2","5","2","4","3","6","5","6","6","5","3","6","6","2","2","5","2","6","3","6","690528419074539520","王","189","Female","[""坏她"",""坏我"",""好她"",""好我""]","[""弱她"",""弱我"",""强她"",""强我""]","","","","","","","","match","","","","","","","","","","key","j","16.661600000000092","640","356","j","true","match","img/pentagon.png","好她","好她","prac_ALT2_moral","practice_moral","","","","","","","","",""
"null","<span style='color:GreenYellow; font-size: 70px;'>正确! </span>","null","html-keyboard-response","13","196042","0.0-8.0-0.0-1.0-0.0-1.1","4","3","3","2","5","4","4","4","5","5","4","1","-1","1","1","1","1","1","0","5","5","5","5","4","4","4","3","4","4","6","4","7","7","3","6","7","8","6","2","6","6","7","6","6","6","2","6","5","1","5","2","3","6","1","6","5","2","6","6","2","5","2","4","3","6","5","6","6","5","3","6","6","2","2","5","2","6","3","6","690528419074539520","王","189","Female","[""坏她"",""坏我"",""好她"",""好我""]","[""弱她"",""弱我"",""强她"",""强我""]","","","","","","","","","","","","","","","","","","","","","","","","","","","","","","feedback_test","","","","","","","","",""
"731","","j","psychophysics","14","197780","0.0-8.0-0.0-1.0-0.0-0.2","4","3","3","2","5","4","4","4","5","5","4","1","-1","1","1","1","1","1","0","5","5","5","5","4","4","4","3","4","4","6","4","7","7","3","6","7","8","6","2","6","6","7","6","6","6","2","6","5","1","5","2","3","6","1","6","5","2","6","6","2","5","2","4","3","6","5","6","6","5","3","6","6","2","2","5","2","6","3","6","690528419074539520","王","189","Female","[""坏她"",""坏我"",""好她"",""好我""]","[""弱她"",""弱我"",""强她"",""强我""]","","","","","","","","match","","","","","","","","","","key","j","16.66407766990314","640","356","j","true","match","img/diamond.png","坏她","坏她","prac_ALT2_moral","practice_moral","","","","","","","","",""
"null","<span style='color:GreenYellow; font-size: 70px;'>正确! </span>","null","html-keyboard-response","15","198288","0.0-8.0-0.0-1.0-0.0-1.2","4","3","3","2","5","4","4","4","5","5","4","1","-1","1","1","1","1","1","0","5","5","5","5","4","4","4","3","4","4","6","4","7","7","3","6","7","8","6","2","6","6","7","6","6","6","2","6","5","1","5","2","3","6","1","6","5","2","6","6","2","5","2","4","3","6","5","6","6","5","3","6","6","2","2","5","2","6","3","6","690528419074539520","王","189","Female","[""坏她"",""坏我"",""好她"",""好我""]","[""弱她"",""弱我"",""强她"",""强我""]","","","","","","","","","","","","","","","","","","","","","","","","","","","","","","feedback_test","","","","","","","","",""
"884","","f","psychophysics","16","200180","0.0-8.0-0.0-1.0-0.0-0.3","4","3","3","2","5","4","4","4","5","5","4","1","-1","1","1","1","1","1","0","5","5","5","5","4","4","4","3","4","4","6","4","7","7","3","6","7","8","6","2","6","6","7","6","6","6","2","6","5","1","5","2","3","6","1","6","5","2","6","6","2","5","2","4","3","6","5","6","6","5","3","6","6","2","2","5","2","6","3","6","690528419074539520","王","189","Female","[""坏她"",""坏我"",""好她"",""好我""]","[""弱她"",""弱我"",""强她"",""强我""]","","","","","","","","nonmatch","","","","","","","","","","key","f","16.658928571428728","640","356","f","true","nonmatch","img/trapezoid.png","好我","坏我","prac_ALT2_moral","practice_moral","","","","","","","","",""
"null","<span style='color:GreenYellow; font-size: 70px;'>正确! </span>","null","html-keyboard-response","17","200686","0.0-8.0-0.0-1.0-0.0-1.3","4","3","3","2","5","4","4","4","5","5","4","1","-1","1","1","1","1","1","0","5","5","5","5","4","4","4","3","4","4","6","4","7","7","3","6","7","8","6","2","6","6","7","6","6","6","2","6","5","1","5","2","3","6","1","6","5","2","6","6","2","5","2","4","3","6","5","6","6","5","3","6","6","2","2","5","2","6","3","6","690528419074539520","王","189","Female","[""坏她"",""坏我"",""好她"",""好我""]","[""弱她"",""弱我"",""强她"",""强我""]","","","","","","","","","","","","","","","","","","","","","","","","","","","","","","feedback_test","","","","","","","","",""
"722","","f","psychophysics","18","202414","0.0-8.0-0.0-1.0-0.0-0.4","4","3","3","2","5","4","4","4","5","5","4","1","-1","1","1","1","1","1","0","5","5","5","5","4","4","4","3","4","4","6","4","7","7","3","6","7","8","6","2","6","6","7","6","6","6","2","6","5","1","5","2","3","6","1","6","5","2","6","6","2","5","2","4","3","6","5","6","6","5","3","6","6","2","2","5","2","6","3","6","690528419074539520","王","189","Female","[""坏她"",""坏我"",""好她"",""好我""]","[""弱她"",""弱我"",""强她"",""强我""]","","","","","","","","nonmatch","","","","","","","","","","key","f","16.660194174757283","640","356","f","true","nonmatch","img/circle.png","好她","好我","prac_ALT2_moral","practice_moral","","","","","","","","",""
"null","<span style='color:GreenYellow; font-size: 70px;'>正确! </span>","null","html-keyboard-response","19","202916","0.0-8.0-0.0-1.0-0.0-1.4","4","3","3","2","5","4","4","4","5","5","4","1","-1","1","1","1","1","1","0","5","5","5","5","4","4","4","3","4","4","6","4","7","7","3","6","7","8","6","2","6","6","7","6","6","6","2","6","5","1","5","2","3","6","1","6","5","2","6","6","2","5","2","4","3","6","5","6","6","5","3","6","6","2","2","5","2","6","3","6","690528419074539520","王","189","Female","[""坏她"",""坏我"",""好她"",""好我""]","[""弱她"",""弱我"",""强她"",""强我""]","","","","","","","","","","","","","","","","","","","","","","","","","","","","","","feedback_test","","","","","","","","",""
"754","","f","psychophysics","20","204673","0.0-8.0-0.0-1.0-0.0-0.5","4","3","3","2","5","4","4","4","5","5","4","1","-1","1","1","1","1","1","0","5","5","5","5","4","4","4","3","4","4","6","4","7","7","3","6","7","8","6","2","6","6","7","6","6","6","2","6","5","1","5","2","3","6","1","6","5","2","6","6","2","5","2","4","3","6","5","6","6","5","3","6","6","2","2","5","2","6","3","6","690528419074539520","王","189","Female","[""坏她"",""坏我"",""好她"",""好我""]","[""弱她"",""弱我"",""强她"",""强我""]","","","","","","","","nonmatch","","","","","","","","","","key","f","16.66153846153863","640","356","j","false","match","img/trapezoid.png","坏我","坏我","prac_ALT2_moral","practice_moral","","","","","","","","",""
"null","<span style='color:red; font-size: 70px;'>错误! </span>","null","html-keyboard-response","21","205175","0.0-8.0-0.0-1.0-0.0-1.5","4","3","3","2","5","4","4","4","5","5","4","1","-1","1","1","1","1","1","0","5","5","5","5","4","4","4","3","4","4","6","4","7","7","3","6","7","8","6","2","6","6","7","6","6","6","2","6","5","1","5","2","3","6","1","6","5","2","6","6","2","5","2","4","3","6","5","6","6","5","3","6","6","2","2","5","2","6","3","6","690528419074539520","王","189","Female","[""坏她"",""坏我"",""好她"",""好我""]","[""弱她"",""弱我"",""强她"",""强我""]","","","","","","","","","","","","","","","","","","","","","","","","","","","","","","feedback_test","","","","","","","","",""
"720","","f","psychophysics","22","206900","0.0-8.0-0.0-1.0-0.0-0.6","4","3","3","2","5","4","4","4","5","5","4","1","-1","1","1","1","1","1","0","5","5","5","5","4","4","4","3","4","4","6","4","7","7","3","6","7","8","6","2","6","6","7","6","6","6","2","6","5","1","5","2","3","6","1","6","5","2","6","6","2","5","2","4","3","6","5","6","6","5","3","6","6","2","2","5","2","6","3","6","690528419074539520","王","189","Female","[""坏她"",""坏我"",""好她"",""好我""]","[""弱她"",""弱我"",""强她"",""强我""]","","","","","","","","nonmatch","","","","","","","","","","key","f","16.666990291261968","640","356","f","true","nonmatch","img/circle.png","坏我","好我","prac_ALT2_moral","practice_moral","","","","","","","","",""
"null","<span style='color:GreenYellow; font-size: 70px;'>正确! </span>","null","html-keyboard-response","23","207409","0.0-8.0-0.0-1.0-0.0-1.6","4","3","3","2","5","4","4","4","5","5","4","1","-1","1","1","1","1","1","0","5","5","5","5","4","4","4","3","4","4","6","4","7","7","3","6","7","8","6","2","6","6","7","6","6","6","2","6","5","1","5","2","3","6","1","6","5","2","6","6","2","5","2","4","3","6","5","6","6","5","3","6","6","2","2","5","2","6","3","6","690528419074539520","王","189","Female","[""坏她"",""坏我"",""好她"",""好我""]","[""弱她"",""弱我"",""强她"",""强我""]","","","","","","","","","","","","","","","","","","","","","","","","","","","","","","feedback_test","","","","","","","","",""
"547","","j","psychophysics","24","208958","0.0-8.0-0.0-1.0-0.0-0.7","4","3","3","2","5","4","4","4","5","5","4","1","-1","1","1","1","1","1","0","5","5","5","5","4","4","4","3","4","4","6","4","7","7","3","6","7","8","6","2","6","6","7","6","6","6","2","6","5","1","5","2","3","6","1","6","5","2","6","6","2","5","2","4","3","6","5","6","6","5","3","6","6","2","2","5","2","6","3","6","690528419074539520","王","189","Female","[""坏她"",""坏我"",""好她"",""好我""]","[""弱她"",""弱我"",""强她"",""强我""]","","","","","","","","match","","","","","","","","","","key","j","16.666304347826276","640","356","j","true","match","img/circle.png","好我","好我","prac_ALT2_moral","practice_moral","","","","","","","","",""
"null","<span style='color:GreenYellow; font-size: 70px;'>正确! </span>","null","html-keyboard-response","25","209462","0.0-8.0-0.0-1.0-0.0-1.7","4","3","3","2","5","4","4","4","5","5","4","1","-1","1","1","1","1","1","0","5","5","5","5","4","4","4","3","4","4","6","4","7","7","3","6","7","8","6","2","6","6","7","6","6","6","2","6","5","1","5","2","3","6","1","6","5","2","6","6","2","5","2","4","3","6","5","6","6","5","3","6","6","2","2","5","2","6","3","6","690528419074539520","王","189","Female","[""坏她"",""坏我"",""好她"",""好我""]","[""弱她"",""弱我"",""强她"",""强我""]","","","","","","","","","","","","","","","","","","","","","","","","","","","","","","feedback_test","","","","","","","","",""
"667","","j","psychophysics","26","211134","0.0-8.0-0.0-1.0-0.0-0.8","4","3","3","2","5","4","4","4","5","5","4","1","-1","1","1","1","1","1","0","5","5","5","5","4","4","4","3","4","4","6","4","7","7","3","6","7","8","6","2","6","6","7","6","6","6","2","6","5","1","5","2","3","6","1","6","5","2","6","6","2","5","2","4","3","6","5","6","6","5","3","6","6","2","2","5","2","6","3","6","690528419074539520","王","189","Female","[""坏她"",""坏我"",""好她"",""好我""]","[""弱她"",""弱我"",""强她"",""强我""]","","","","","","","","match","","","","","","","","","","key","j","16.661616161616163","640","356","j","true","match","img/diamond.png","坏她","坏她","prac_ALT2_moral","practice_moral","","","","","","","","",""
"null","<span style='color:GreenYellow; font-size: 70px;'>正确! </span>","null","html-keyboard-response","27","211639","0.0-8.0-0.0-1.0-0.0-1.8","4","3","3","2","5","4","4","4","5","5","4","1","-1","1","1","1","1","1","0","5","5","5","5","4","4","4","3","4","4","6","4","7","7","3","6","7","8","6","2","6","6","7","6","6","6","2","6","5","1","5","2","3","6","1","6","5","2","6","6","2","5","2","4","3","6","5","6","6","5","3","6","6","2","2","5","2","6","3","6","690528419074539520","王","189","Female","[""坏她"",""坏我"",""好她"",""好我""]","[""弱她"",""弱我"",""强她"",""强我""]","","","","","","","","","","","","","","","","","","","","","","","","","","","","","","feedback_test","","","","","","","","",""
"668","","f","psychophysics","28","213310","0.0-8.0-0.0-1.0-0.0-0.9","4","3","3","2","5","4","4","4","5","5","4","1","-1","1","1","1","1","1","0","5","5","5","5","4","4","4","3","4","4","6","4","7","7","3","6","7","8","6","2","6","6","7","6","6","6","2","6","5","1","5","2","3","6","1","6","5","2","6","6","2","5","2","4","3","6","5","6","6","5","3","6","6","2","2","5","2","6","3","6","690528419074539520","王","189","Female","[""坏她"",""坏我"",""好她"",""好我""]","[""弱她"",""弱我"",""强她"",""强我""]","","","","","","","","nonmatch","","","","","","","","","","key","f","16.664000000000232","640","356","f","true","nonmatch","img/pentagon.png","坏她","好她","prac_ALT2_moral","practice_moral","","","","","","","","",""
"null","<span style='color:GreenYellow; font-size: 70px;'>正确! </span>","null","html-keyboard-response","29","213813","0.0-8.0-0.0-1.0-0.0-1.9","4","3","3","2","5","4","4","4","5","5","4","1","-1","1","1","1","1","1","0","5","5","5","5","4","4","4","3","4","4","6","4","7","7","3","6","7","8","6","2","6","6","7","6","6","6","2","6","5","1","5","2","3","6","1","6","5","2","6","6","2","5","2","4","3","6","5","6","6","5","3","6","6","2","2","5","2","6","3","6","690528419074539520","王","189","Female","[""坏她"",""坏我"",""好她"",""好我""]","[""弱她"",""弱我"",""强她"",""强我""]","","","","","","","","","","","","","","","","","","","","","","","","","","","","","","feedback_test","","","","","","","","",""
"686","","j","psychophysics","30","215506","0.0-8.0-0.0-1.0-0.0-0.10","4","3","3","2","5","4","4","4","5","5","4","1","-1","1","1","1","1","1","0","5","5","5","5","4","4","4","3","4","4","6","4","7","7","3","6","7","8","6","2","6","6","7","6","6","6","2","6","5","1","5","2","3","6","1","6","5","2","6","6","2","5","2","4","3","6","5","6","6","5","3","6","6","2","2","5","2","6","3","6","690528419074539520","王","189","Female","[""坏她"",""坏我"",""好她"",""好我""]","[""弱她"",""弱我"",""强她"",""强我""]","","","","","","","","match","","","","","","","","","","key","j","16.662000000000116","640","356","j","true","match","img/diamond.png","坏她","坏她","prac_ALT2_moral","practice_moral","","","","","","","","",""
"null","<span style='color:GreenYellow; font-size: 70px;'>正确! </span>","null","html-keyboard-response","31","216013","0.0-8.0-0.0-1.0-0.0-1.10","4","3","3","2","5","4","4","4","5","5","4","1","-1","1","1","1","1","1","0","5","5","5","5","4","4","4","3","4","4","6","4","7","7","3","6","7","8","6","2","6","6","7","6","6","6","2","6","5","1","5","2","3","6","1","6","5","2","6","6","2","5","2","4","3","6","5","6","6","5","3","6","6","2","2","5","2","6","3","6","690528419074539520","王","189","Female","[""坏她"",""坏我"",""好她"",""好我""]","[""弱她"",""弱我"",""强她"",""强我""]","","","","","","","","","","","","","","","","","","","","","","","","","","","","","","feedback_test","","","","","","","","",""
"643","","f","psychophysics","32","217658","0.0-8.0-0.0-1.0-0.0-0.11","4","3","3","2","5","4","4","4","5","5","4","1","-1","1","1","1","1","1","0","5","5","5","5","4","4","4","3","4","4","6","4","7","7","3","6","7","8","6","2","6","6","7","6","6","6","2","6","5","1","5","2","3","6","1","6","5","2","6","6","2","5","2","4","3","6","5","6","6","5","3","6","6","2","2","5","2","6","3","6","690528419074539520","王","189","Female","[""坏她"",""坏我"",""好她"",""好我""]","[""弱她"",""弱我"",""强她"",""强我""]","","","","","","","","nonmatch","","","","","","","","","","key","f","16.661855670102913","640","356","f","true","nonmatch","img/circle.png","坏她","好我","prac_ALT2_moral","practice_moral","","","","","","","","",""
"null","<span style='color:GreenYellow; font-size: 70px;'>正确! </span>","null","html-keyboard-response","33","218176","0.0-8.0-0.0-1.0-0.0-1.11","4","3","3","2","5","4","4","4","5","5","4","1","-1","1","1","1","1","1","0","5","5","5","5","4","4","4","3","4","4","6","4","7","7","3","6","7","8","6","2","6","6","7","6","6","6","2","6","5","1","5","2","3","6","1","6","5","2","6","6","2","5","2","4","3","6","5","6","6","5","3","6","6","2","2","5","2","6","3","6","690528419074539520","王","189","Female","[""坏她"",""坏我"",""好她"",""好我""]","[""弱她"",""弱我"",""强她"",""强我""]","","","","","","","","","","","","","","","","","","","","","","","","","","","","","","feedback_test","","","","","","","","",""
"1121","","j","psychophysics","34","220301","0.0-8.0-0.0-1.0-0.0-0.12","4","3","3","2","5","4","4","4","5","5","4","1","-1","1","1","1","1","1","0","5","5","5","5","4","4","4","3","4","4","6","4","7","7","3","6","7","8","6","2","6","6","7","6","6","6","2","6","5","1","5","2","3","6","1","6","5","2","6","6","2","5","2","4","3","6","5","6","6","5","3","6","6","2","2","5","2","6","3","6","690528419074539520","王","189","Female","[""坏她"",""坏我"",""好她"",""好我""]","[""弱她"",""弱我"",""强她"",""强我""]","","","","","","","","match","","","","","","","","","","key","j","16.660317460317554","640","356","j","true","match","img/pentagon.png","好她","好她","prac_ALT2_moral","practice_moral","","","","","","","","",""
"null","<span style='color:GreenYellow; font-size: 70px;'>正确! </span>","null","html-keyboard-response","35","220804","0.0-8.0-0.0-1.0-0.0-1.12","4","3","3","2","5","4","4","4","5","5","4","1","-1","1","1","1","1","1","0","5","5","5","5","4","4","4","3","4","4","6","4","7","7","3","6","7","8","6","2","6","6","7","6","6","6","2","6","5","1","5","2","3","6","1","6","5","2","6","6","2","5","2","4","3","6","5","6","6","5","3","6","6","2","2","5","2","6","3","6","690528419074539520","王","189","Female","[""坏她"",""坏我"",""好她"",""好我""]","[""弱她"",""弱我"",""强她"",""强我""]","","","","","","","","","","","","","","","","","","","","","","","","","","","","","","feedback_test","","","","","","","","",""
"715","","f","psychophysics","36","222522","0.0-8.0-0.0-1.0-0.0-0.13","4","3","3","2","5","4","4","4","5","5","4","1","-1","1","1","1","1","1","0","5","5","5","5","4","4","4","3","4","4","6","4","7","7","3","6","7","8","6","2","6","6","7","6","6","6","2","6","5","1","5","2","3","6","1","6","5","2","6","6","2","5","2","4","3","6","5","6","6","5","3","6","6","2","2","5","2","6","3","6","690528419074539520","王","189","Female","[""坏她"",""坏我"",""好她"",""好我""]","[""弱她"",""弱我"",""强她"",""强我""]","","","","","","","","nonmatch","","","","","","","","","","key","f","16.666666666666668","640","356","f","true","nonmatch","img/diamond.png","好她","坏她","prac_ALT2_moral","practice_moral","","","","","","","","",""
"null","<span style='color:GreenYellow; font-size: 70px;'>正确! </span>","null","html-keyboard-response","37","223025","0.0-8.0-0.0-1.0-0.0-1.13","4","3","3","2","5","4","4","4","5","5","4","1","-1","1","1","1","1","1","0","5","5","5","5","4","4","4","3","4","4","6","4","7","7","3","6","7","8","6","2","6","6","7","6","6","6","2","6","5","1","5","2","3","6","1","6","5","2","6","6","2","5","2","4","3","6","5","6","6","5","3","6","6","2","2","5","2","6","3","6","690528419074539520","王","189","Female","[""坏她"",""坏我"",""好她"",""好我""]","[""弱她"",""弱我"",""强她"",""强我""]","","","","","","","","","","","","","","","","","","","","","","","","","","","","","","feedback_test","","","","","","","","",""
"617","","j","psychophysics","38","224648","0.0-8.0-0.0-1.0-0.0-0.14","4","3","3","2","5","4","4","4","5","5","4","1","-1","1","1","1","1","1","0","5","5","5","5","4","4","4","3","4","4","6","4","7","7","3","6","7","8","6","2","6","6","7","6","6","6","2","6","5","1","5","2","3","6","1","6","5","2","6","6","2","5","2","4","3","6","5","6","6","5","3","6","6","2","2","5","2","6","3","6","690528419074539520","王","189","Female","[""坏她"",""坏我"",""好她"",""好我""]","[""弱她"",""弱我"",""强她"",""强我""]","","","","","","","","match","","","","","","","","","","key","j","16.657291666666424","640","356","j","true","match","img/circle.png","好我","好我","prac_ALT2_moral","practice_moral","","","","","","","","",""
"null","<span style='color:GreenYellow; font-size: 70px;'>正确! </span>","null","html-keyboard-response","39","225150","0.0-8.0-0.0-1.0-0.0-1.14","4","3","3","2","5","4","4","4","5","5","4","1","-1","1","1","1","1","1","0","5","5","5","5","4","4","4","3","4","4","6","4","7","7","3","6","7","8","6","2","6","6","7","6","6","6","2","6","5","1","5","2","3","6","1","6","5","2","6","6","2","5","2","4","3","6","5","6","6","5","3","6","6","2","2","5","2","6","3","6","690528419074539520","王","189","Female","[""坏她"",""坏我"",""好她"",""好我""]","[""弱她"",""弱我"",""强她"",""强我""]","","","","","","","","","","","","","","","","","","","","","","","","","","","","","","feedback_test","","","","","","","","",""
"729","","j","psychophysics","40","226885","0.0-8.0-0.0-1.0-0.0-0.15","4","3","3","2","5","4","4","4","5","5","4","1","-1","1","1","1","1","1","0","5","5","5","5","4","4","4","3","4","4","6","4","7","7","3","6","7","8","6","2","6","6","7","6","6","6","2","6","5","1","5","2","3","6","1","6","5","2","6","6","2","5","2","4","3","6","5","6","6","5","3","6","6","2","2","5","2","6","3","6","690528419074539520","王","189","Female","[""坏她"",""坏我"",""好她"",""好我""]","[""弱她"",""弱我"",""强她"",""强我""]","","","","","","","","match","","","","","","","","","","key","j","16.663106796116676","640","356","f","false","nonmatch","img/pentagon.png","坏我","好她","prac_ALT2_moral","practice_moral","","","","","","","","",""
"null","<span style='color:red; font-size: 70px;'>错误! </span>","null","html-keyboard-response","41","227391","0.0-8.0-0.0-1.0-0.0-1.15","4","3","3","2","5","4","4","4","5","5","4","1","-1","1","1","1","1","1","0","5","5","5","5","4","4","4","3","4","4","6","4","7","7","3","6","7","8","6","2","6","6","7","6","6","6","2","6","5","1","5","2","3","6","1","6","5","2","6","6","2","5","2","4","3","6","5","6","6","5","3","6","6","2","2","5","2","6","3","6","690528419074539520","王","189","Female","[""坏她"",""坏我"",""好她"",""好我""]","[""弱她"",""弱我"",""强她"",""强我""]","","","","","","","","","","","","","","","","","","","","","","","","","","","","","","feedback_test","","","","","","","","",""
"747","","f","psychophysics","42","229142","0.0-8.0-0.0-1.0-0.0-0.16","4","3","3","2","5","4","4","4","5","5","4","1","-1","1","1","1","1","1","0","5","5","5","5","4","4","4","3","4","4","6","4","7","7","3","6","7","8","6","2","6","6","7","6","6","6","2","6","5","1","5","2","3","6","1","6","5","2","6","6","2","5","2","4","3","6","5","6","6","5","3","6","6","2","2","5","2","6","3","6","690528419074539520","王","189","Female","[""坏她"",""坏我"",""好她"",""好我""]","[""弱她"",""弱我"",""强她"",""强我""]","","","","","","","","nonmatch","","","","","","","","","","key","f","16.658653846153847","640","356","f","true","nonmatch","img/trapezoid.png","坏她","坏我","prac_ALT2_moral","practice_moral","","","","","","","","",""
"null","<span style='color:GreenYellow; font-size: 70px;'>正确! </span>","null","html-keyboard-response","43","229648","0.0-8.0-0.0-1.0-0.0-1.16","4","3","3","2","5","4","4","4","5","5","4","1","-1","1","1","1","1","1","0","5","5","5","5","4","4","4","3","4","4","6","4","7","7","3","6","7","8","6","2","6","6","7","6","6","6","2","6","5","1","5","2","3","6","1","6","5","2","6","6","2","5","2","4","3","6","5","6","6","5","3","6","6","2","2","5","2","6","3","6","690528419074539520","王","189","Female","[""坏她"",""坏我"",""好她"",""好我""]","[""弱她"",""弱我"",""强她"",""强我""]","","","","","","","","","","","","","","","","","","","","","","","","","","","","","","feedback_test","","","","","","","","",""
"724","","j","psychophysics","44","231374","0.0-8.0-0.0-1.0-0.0-0.17","4","3","3","2","5","4","4","4","5","5","4","1","-1","1","1","1","1","1","0","5","5","5","5","4","4","4","3","4","4","6","4","7","7","3","6","7","8","6","2","6","6","7","6","6","6","2","6","5","1","5","2","3","6","1","6","5","2","6","6","2","5","2","4","3","6","5","6","6","5","3","6","6","2","2","5","2","6","3","6","690528419074539520","王","189","Female","[""坏她"",""坏我"",""好她"",""好我""]","[""弱她"",""弱我"",""强她"",""强我""]","","","","","","","","match","","","","","","","","","","key","j","16.66504854368932","640","356","j","true","match","img/pentagon.png","好她","好她","prac_ALT2_moral","practice_moral","","","","","","","","",""
"null","<span style='color:GreenYellow; font-size: 70px;'>正确! </span>","null","html-keyboard-response","45","231876","0.0-8.0-0.0-1.0-0.0-1.17","4","3","3","2","5","4","4","4","5","5","4","1","-1","1","1","1","1","1","0","5","5","5","5","4","4","4","3","4","4","6","4","7","7","3","6","7","8","6","2","6","6","7","6","6","6","2","6","5","1","5","2","3","6","1","6","5","2","6","6","2","5","2","4","3","6","5","6","6","5","3","6","6","2","2","5","2","6","3","6","690528419074539520","王","189","Female","[""坏她"",""坏我"",""好她"",""好我""]","[""弱她"",""弱我"",""强她"",""强我""]","","","","","","","","","","","","","","","","","","","","","","","","","","","","","","feedback_test","","","","","","","","",""
"862","","j","psychophysics","46","233741","0.0-8.0-0.0-1.0-0.0-0.18","4","3","3","2","5","4","4","4","5","5","4","1","-1","1","1","1","1","1","0","5","5","5","5","4","4","4","3","4","4","6","4","7","7","3","6","7","8","6","2","6","6","7","6","6","6","2","6","5","1","5","2","3","6","1","6","5","2","6","6","2","5","2","4","3","6","5","6","6","5","3","6","6","2","2","5","2","6","3","6","690528419074539520","王","189","Female","[""坏她"",""坏我"",""好她"",""好我""]","[""弱她"",""弱我"",""强她"",""强我""]","","","","","","","","match","","","","","","","","","","key","j","16.660360360360517","640","356","j","true","match","img/trapezoid.png","坏我","坏我","prac_ALT2_moral","practice_moral","","","","","","","","",""
"null","<span style='color:GreenYellow; font-size: 70px;'>正确! </span>","null","html-keyboard-response","47","234248","0.0-8.0-0.0-1.0-0.0-1.18","4","3","3","2","5","4","4","4","5","5","4","1","-1","1","1","1","1","1","0","5","5","5","5","4","4","4","3","4","4","6","4","7","7","3","6","7","8","6","2","6","6","7","6","6","6","2","6","5","1","5","2","3","6","1","6","5","2","6","6","2","5","2","4","3","6","5","6","6","5","3","6","6","2","2","5","2","6","3","6","690528419074539520","王","189","Female","[""坏她"",""坏我"",""好她"",""好我""]","[""弱她"",""弱我"",""强她"",""强我""]","","","","","","","","","","","","","","","","","","","","","","","","","","","","","","feedback_test","","","","","","","","",""
"591","","j","psychophysics","48","235847","0.0-8.0-0.0-1.0-0.0-0.19","4","3","3","2","5","4","4","4","5","5","4","1","-1","1","1","1","1","1","0","5","5","5","5","4","4","4","3","4","4","6","4","7","7","3","6","7","8","6","2","6","6","7","6","6","6","2","6","5","1","5","2","3","6","1","6","5","2","6","6","2","5","2","4","3","6","5","6","6","5","3","6","6","2","2","5","2","6","3","6","690528419074539520","王","189","Female","[""坏她"",""坏我"",""好她"",""好我""]","[""弱她"",""弱我"",""强她"",""强我""]","","","","","","","","match","","","","","","","","","","key","j","16.666315789473867","640","356","j","true","match","img/trapezoid.png","坏我","坏我","prac_ALT2_moral","practice_moral","","","","","","","","",""
"null","<span style='color:GreenYellow; font-size: 70px;'>正确! </span>","null","html-keyboard-response","49","236350","0.0-8.0-0.0-1.0-0.0-1.19","4","3","3","2","5","4","4","4","5","5","4","1","-1","1","1","1","1","1","0","5","5","5","5","4","4","4","3","4","4","6","4","7","7","3","6","7","8","6","2","6","6","7","6","6","6","2","6","5","1","5","2","3","6","1","6","5","2","6","6","2","5","2","4","3","6","5","6","6","5","3","6","6","2","2","5","2","6","3","6","690528419074539520","王","189","Female","[""坏她"",""坏我"",""好她"",""好我""]","[""弱她"",""弱我"",""强她"",""强我""]","","","","","","","","","","","","","","","","","","","","","","","","","","","","","","feedback_test","","","","","","","","",""
"805","","f","psychophysics","50","238159","0.0-8.0-0.0-1.0-0.0-0.20","4","3","3","2","5","4","4","4","5","5","4","1","-1","1","1","1","1","1","0","5","5","5","5","4","4","4","3","4","4","6","4","7","7","3","6","7","8","6","2","6","6","7","6","6","6","2","6","5","1","5","2","3","6","1","6","5","2","6","6","2","5","2","4","3","6","5","6","6","5","3","6","6","2","2","5","2","6","3","6","690528419074539520","王","189","Female","[""坏她"",""坏我"",""好她"",""好我""]","[""弱她"",""弱我"",""强她"",""强我""]","","","","","","","","nonmatch","","","","","","","","","","key","f","16.666666666666668","640","356","f","true","nonmatch","img/trapezoid.png","好她","坏我","prac_ALT2_moral","practice_moral","","","","","","","","",""
"null","<span style='color:GreenYellow; font-size: 70px;'>正确! </span>","null","html-keyboard-response","51","238667","0.0-8.0-0.0-1.0-0.0-1.20","4","3","3","2","5","4","4","4","5","5","4","1","-1","1","1","1","1","1","0","5","5","5","5","4","4","4","3","4","4","6","4","7","7","3","6","7","8","6","2","6","6","7","6","6","6","2","6","5","1","5","2","3","6","1","6","5","2","6","6","2","5","2","4","3","6","5","6","6","5","3","6","6","2","2","5","2","6","3","6","690528419074539520","王","189","Female","[""坏她"",""坏我"",""好她"",""好我""]","[""弱她"",""弱我"",""强她"",""强我""]","","","","","","","","","","","","","","","","","","","","","","","","","","","","","","feedback_test","","","","","","","","",""
"806","","j","psychophysics","52","240476","0.0-8.0-0.0-1.0-0.0-0.21","4","3","3","2","5","4","4","4","5","5","4","1","-1","1","1","1","1","1","0","5","5","5","5","4","4","4","3","4","4","6","4","7","7","3","6","7","8","6","2","6","6","7","6","6","6","2","6","5","1","5","2","3","6","1","6","5","2","6","6","2","5","2","4","3","6","5","6","6","5","3","6","6","2","2","5","2","6","3","6","690528419074539520","王","189","Female","[""坏她"",""坏我"",""好她"",""好我""]","[""弱她"",""弱我"",""强她"",""强我""]","","","","","","","","match","","","","","","","","","","key","j","16.663888888888728","640","356","f","false","nonmatch","img/diamond.png","好我","坏她","prac_ALT2_moral","practice_moral","","","","","","","","",""
"null","<span style='color:red; font-size: 70px;'>错误! </span>","null","html-keyboard-response","53","240989","0.0-8.0-0.0-1.0-0.0-1.21","4","3","3","2","5","4","4","4","5","5","4","1","-1","1","1","1","1","1","0","5","5","5","5","4","4","4","3","4","4","6","4","7","7","3","6","7","8","6","2","6","6","7","6","6","6","2","6","5","1","5","2","3","6","1","6","5","2","6","6","2","5","2","4","3","6","5","6","6","5","3","6","6","2","2","5","2","6","3","6","690528419074539520","王","189","Female","[""坏她"",""坏我"",""好她"",""好我""]","[""弱她"",""弱我"",""强她"",""强我""]","","","","","","","","","","","","","","","","","","","","","","","","","","","","","","feedback_test","","","","","","","","",""
"971","","f","psychophysics","54","242973","0.0-8.0-0.0-1.0-0.0-0.22","4","3","3","2","5","4","4","4","5","5","4","1","-1","1","1","1","1","1","0","5","5","5","5","4","4","4","3","4","4","6","4","7","7","3","6","7","8","6","2","6","6","7","6","6","6","2","6","5","1","5","2","3","6","1","6","5","2","6","6","2","5","2","4","3","6","5","6","6","5","3","6","6","2","2","5","2","6","3","6","690528419074539520","王","189","Female","[""坏她"",""坏我"",""好她"",""好我""]","[""弱她"",""弱我"",""强她"",""强我""]","","","","","","","","nonmatch","","","","","","","","","","key","f","16.661016949152543","640","356","f","true","nonmatch","img/diamond.png","坏我","坏她","prac_ALT2_moral","practice_moral","","","","","","","","",""
"null","<span style='color:GreenYellow; font-size: 70px;'>正确! </span>","null","html-keyboard-response","55","243480","0.0-8.0-0.0-1.0-0.0-1.22","4","3","3","2","5","4","4","4","5","5","4","1","-1","1","1","1","1","1","0","5","5","5","5","4","4","4","3","4","4","6","4","7","7","3","6","7","8","6","2","6","6","7","6","6","6","2","6","5","1","5","2","3","6","1","6","5","2","6","6","2","5","2","4","3","6","5","6","6","5","3","6","6","2","2","5","2","6","3","6","690528419074539520","王","189","Female","[""坏她"",""坏我"",""好她"",""好我""]","[""弱她"",""弱我"",""强她"",""强我""]","","","","","","","","","","","","","","","","","","","","","","","","","","","","","","feedback_test","","","","","","","","",""
"501","","j","psychophysics","56","244983","0.0-8.0-0.0-1.0-0.0-0.23","4","3","3","2","5","4","4","4","5","5","4","1","-1","1","1","1","1","1","0","5","5","5","5","4","4","4","3","4","4","6","4","7","7","3","6","7","8","6","2","6","6","7","6","6","6","2","6","5","1","5","2","3","6","1","6","5","2","6","6","2","5","2","4","3","6","5","6","6","5","3","6","6","2","2","5","2","6","3","6","690528419074539520","王","189","Female","[""坏她"",""坏我"",""好她"",""好我""]","[""弱她"",""弱我"",""强她"",""强我""]","","","","","","","","match","","","","","","","","","","key","j","16.66741573033734","640","356","j","true","match","img/circle.png","好我","好我","prac_ALT2_moral","practice_moral","","","","","","","","",""
"null","<span style='color:GreenYellow; font-size: 70px;'>正确! </span>","null","html-keyboard-response","57","245489","0.0-8.0-0.0-1.0-0.0-1.23","4","3","3","2","5","4","4","4","5","5","4","1","-1","1","1","1","1","1","0","5","5","5","5","4","4","4","3","4","4","6","4","7","7","3","6","7","8","6","2","6","6","7","6","6","6","2","6","5","1","5","2","3","6","1","6","5","2","6","6","2","5","2","4","3","6","5","6","6","5","3","6","6","2","2","5","2","6","3","6","690528419074539520","王","189","Female","[""坏她"",""坏我"",""好她"",""好我""]","[""弱她"",""弱我"",""强她"",""强我""]","","","","","","","","","","","","","","","","","","","","","","","","","","","","","","feedback_test","","","","","","","","",""
"777","","f","psychophysics","58","247268","0.0-8.0-0.0-1.0-0.0-0.24","4","3","3","2","5","4","4","4","5","5","4","1","-1","1","1","1","1","1","0","5","5","5","5","4","4","4","3","4","4","6","4","7","7","3","6","7","8","6","2","6","6","7","6","6","6","2","6","5","1","5","2","3","6","1","6","5","2","6","6","2","5","2","4","3","6","5","6","6","5","3","6","6","2","2","5","2","6","3","6","690528419074539520","王","189","Female","[""坏她"",""坏我"",""好她"",""好我""]","[""弱她"",""弱我"",""强她"",""强我""]","","","","","","","","nonmatch","","","","","","","","","","key","f","16.662264150943507","640","356","f","true","nonmatch","img/trapezoid.png","坏她","坏我","prac_ALT2_moral","practice_moral","","","","","","","","",""
"null","<span style='color:GreenYellow; font-size: 70px;'>正确! </span>","null","html-keyboard-response","59","247778","0.0-8.0-0.0-1.0-0.0-1.24","4","3","3","2","5","4","4","4","5","5","4","1","-1","1","1","1","1","1","0","5","5","5","5","4","4","4","3","4","4","6","4","7","7","3","6","7","8","6","2","6","6","7","6","6","6","2","6","5","1","5","2","3","6","1","6","5","2","6","6","2","5","2","4","3","6","5","6","6","5","3","6","6","2","2","5","2","6","3","6","690528419074539520","王","189","Female","[""坏她"",""坏我"",""好她"",""好我""]","[""弱她"",""弱我"",""强她"",""强我""]","","","","","","","","","","","","","","","","","","","","","","","","","","","","","","feedback_test","","","","","","","","",""
"676","","j","psychophysics","60","249456","0.0-8.0-0.0-1.0-0.0-0.25","4","3","3","2","5","4","4","4","5","5","4","1","-1","1","1","1","1","1","0","5","5","5","5","4","4","4","3","4","4","6","4","7","7","3","6","7","8","6","2","6","6","7","6","6","6","2","6","5","1","5","2","3","6","1","6","5","2","6","6","2","5","2","4","3","6","5","6","6","5","3","6","6","2","2","5","2","6","3","6","690528419074539520","王","189","Female","[""坏她"",""坏我"",""好她"",""好我""]","[""弱她"",""弱我"",""强她"",""强我""]","","","","","","","","match","","","","","","","","","","key","j","16.66399999999994","640","356","j","true","match","img/pentagon.png","好她","好她","prac_ALT2_moral","practice_moral","","","","","","","","",""
"null","<span style='color:GreenYellow; font-size: 70px;'>正确! </span>","null","html-keyboard-response","61","249970","0.0-8.0-0.0-1.0-0.0-1.25","4","3","3","2","5","4","4","4","5","5","4","1","-1","1","1","1","1","1","0","5","5","5","5","4","4","4","3","4","4","6","4","7","7","3","6","7","8","6","2","6","6","7","6","6","6","2","6","5","1","5","2","3","6","1","6","5","2","6","6","2","5","2","4","3","6","5","6","6","5","3","6","6","2","2","5","2","6","3","6","690528419074539520","王","189","Female","[""坏她"",""坏我"",""好她"",""好我""]","[""弱她"",""弱我"",""强她"",""强我""]","","","","","","","","","","","","","","","","","","","","","","","","","","","","","","feedback_test","","","","","","","","",""
"702","","j","psychophysics","62","251677","0.0-8.0-0.0-1.0-0.0-0.26","4","3","3","2","5","4","4","4","5","5","4","1","-1","1","1","1","1","1","0","5","5","5","5","4","4","4","3","4","4","6","4","7","7","3","6","7","8","6","2","6","6","7","6","6","6","2","6","5","1","5","2","3","6","1","6","5","2","6","6","2","5","2","4","3","6","5","6","6","5","3","6","6","2","2","5","2","6","3","6","690528419074539520","王","189","Female","[""坏她"",""坏我"",""好她"",""好我""]","[""弱她"",""弱我"",""强她"",""强我""]","","","","","","","","match","","","","","","","","","","key","j","16.660396039604077","640","356","j","true","match","img/trapezoid.png","坏我","坏我","prac_ALT2_moral","practice_moral","","","","","","","","",""
"null","<span style='color:GreenYellow; font-size: 70px;'>正确! </span>","null","html-keyboard-response","63","252182","0.0-8.0-0.0-1.0-0.0-1.26","4","3","3","2","5","4","4","4","5","5","4","1","-1","1","1","1","1","1","0","5","5","5","5","4","4","4","3","4","4","6","4","7","7","3","6","7","8","6","2","6","6","7","6","6","6","2","6","5","1","5","2","3","6","1","6","5","2","6","6","2","5","2","4","3","6","5","6","6","5","3","6","6","2","2","5","2","6","3","6","690528419074539520","王","189","Female","[""坏她"",""坏我"",""好她"",""好我""]","[""弱她"",""弱我"",""强她"",""强我""]","","","","","","","","","","","","","","","","","","","","","","","","","","","","","","feedback_test","","","","","","","","",""
"733","","f","psychophysics","64","253921","0.0-8.0-0.0-1.0-0.0-0.27","4","3","3","2","5","4","4","4","5","5","4","1","-1","1","1","1","1","1","0","5","5","5","5","4","4","4","3","4","4","6","4","7","7","3","6","7","8","6","2","6","6","7","6","6","6","2","6","5","1","5","2","3","6","1","6","5","2","6","6","2","5","2","4","3","6","5","6","6","5","3","6","6","2","2","5","2","6","3","6","690528419074539520","王","189","Female","[""坏她"",""坏我"",""好她"",""好我""]","[""弱她"",""弱我"",""强她"",""强我""]","","","","","","","","nonmatch","","","","","","","","","","key","f","16.661165048543747","640","356","f","true","nonmatch","img/circle.png","坏她","好我","prac_ALT2_moral","practice_moral","","","","","","","","",""
"null","<span style='color:GreenYellow; font-size: 70px;'>正确! </span>","null","html-keyboard-response","65","254422","0.0-8.0-0.0-1.0-0.0-1.27","4","3","3","2","5","4","4","4","5","5","4","1","-1","1","1","1","1","1","0","5","5","5","5","4","4","4","3","4","4","6","4","7","7","3","6","7","8","6","2","6","6","7","6","6","6","2","6","5","1","5","2","3","6","1","6","5","2","6","6","2","5","2","4","3","6","5","6","6","5","3","6","6","2","2","5","2","6","3","6","690528419074539520","王","189","Female","[""坏她"",""坏我"",""好她"",""好我""]","[""弱她"",""弱我"",""强她"",""强我""]","","","","","","","","","","","","","","","","","","","","","","","","","","","","","","feedback_test","","","","","","","","",""
"785","","j","psychophysics","66","256208","0.0-8.0-0.0-1.0-0.0-0.28","4","3","3","2","5","4","4","4","5","5","4","1","-1","1","1","1","1","1","0","5","5","5","5","4","4","4","3","4","4","6","4","7","7","3","6","7","8","6","2","6","6","7","6","6","6","2","6","5","1","5","2","3","6","1","6","5","2","6","6","2","5","2","4","3","6","5","6","6","5","3","6","6","2","2","5","2","6","3","6","690528419074539520","王","189","Female","[""坏她"",""坏我"",""好她"",""好我""]","[""弱她"",""弱我"",""强她"",""强我""]","","","","","","","","match","","","","","","","","","","key","j","16.662264150943507","640","356","j","true","match","img/pentagon.png","好她","好她","prac_ALT2_moral","practice_moral","","","","","","","","",""
"null","<span style='color:GreenYellow; font-size: 70px;'>正确! </span>","null","html-keyboard-response","67","256717","0.0-8.0-0.0-1.0-0.0-1.28","4","3","3","2","5","4","4","4","5","5","4","1","-1","1","1","1","1","1","0","5","5","5","5","4","4","4","3","4","4","6","4","7","7","3","6","7","8","6","2","6","6","7","6","6","6","2","6","5","1","5","2","3","6","1","6","5","2","6","6","2","5","2","4","3","6","5","6","6","5","3","6","6","2","2","5","2","6","3","6","690528419074539520","王","189","Female","[""坏她"",""坏我"",""好她"",""好我""]","[""弱她"",""弱我"",""强她"",""强我""]","","","","","","","","","","","","","","","","","","","","","","","","","","","","","","feedback_test","","","","","","","","",""
"588","","j","psychophysics","68","258311","0.0-8.0-0.0-1.0-0.0-0.29","4","3","3","2","5","4","4","4","5","5","4","1","-1","1","1","1","1","1","0","5","5","5","5","4","4","4","3","4","4","6","4","7","7","3","6","7","8","6","2","6","6","7","6","6","6","2","6","5","1","5","2","3","6","1","6","5","2","6","6","2","5","2","4","3","6","5","6","6","5","3","6","6","2","2","5","2","6","3","6","690528419074539520","王","189","Female","[""坏她"",""坏我"",""好她"",""好我""]","[""弱她"",""弱我"",""强她"",""强我""]","","","","","","","","match","","","","","","","","","","key","j","16.66170212765939","640","356","j","true","match","img/circle.png","好我","好我","prac_ALT2_moral","practice_moral","","","","","","","","",""
"null","<span style='color:GreenYellow; font-size: 70px;'>正确! </span>","null","html-keyboard-response","69","258818","0.0-8.0-0.0-1.0-0.0-1.29","4","3","3","2","5","4","4","4","5","5","4","1","-1","1","1","1","1","1","0","5","5","5","5","4","4","4","3","4","4","6","4","7","7","3","6","7","8","6","2","6","6","7","6","6","6","2","6","5","1","5","2","3","6","1","6","5","2","6","6","2","5","2","4","3","6","5","6","6","5","3","6","6","2","2","5","2","6","3","6","690528419074539520","王","189","Female","[""坏她"",""坏我"",""好她"",""好我""]","[""弱她"",""弱我"",""强她"",""强我""]","","","","","","","","","","","","","","","","","","","","","","","","","","","","","","feedback_test","","","","","","","","",""
"643","","j","psychophysics","70","260465","0.0-8.0-0.0-1.0-0.0-0.30","4","3","3","2","5","4","4","4","5","5","4","1","-1","1","1","1","1","1","0","5","5","5","5","4","4","4","3","4","4","6","4","7","7","3","6","7","8","6","2","6","6","7","6","6","6","2","6","5","1","5","2","3","6","1","6","5","2","6","6","2","5","2","4","3","6","5","6","6","5","3","6","6","2","2","5","2","6","3","6","690528419074539520","王","189","Female","[""坏她"",""坏我"",""好她"",""好我""]","[""弱她"",""弱我"",""强她"",""强我""]","","","","","","","","match","","","","","","","","","","key","j","16.662244897959123","640","356","j","true","match","img/diamond.png","坏她","坏她","prac_ALT2_moral","practice_moral","","","","","","","","",""
"null","<span style='color:GreenYellow; font-size: 70px;'>正确! </span>","null","html-keyboard-response","71","260976","0.0-8.0-0.0-1.0-0.0-1.30","4","3","3","2","5","4","4","4","5","5","4","1","-1","1","1","1","1","1","0","5","5","5","5","4","4","4","3","4","4","6","4","7","7","3","6","7","8","6","2","6","6","7","6","6","6","2","6","5","1","5","2","3","6","1","6","5","2","6","6","2","5","2","4","3","6","5","6","6","5","3","6","6","2","2","5","2","6","3","6","690528419074539520","王","189","Female","[""坏她"",""坏我"",""好她"",""好我""]","[""弱她"",""弱我"",""强她"",""强我""]","","","","","","","","","","","","","","","","","","","","","","","","","","","","","","feedback_test","","","","","","","","",""
"963","","f","psychophysics","72","262941","0.0-8.0-0.0-1.0-0.0-0.31","4","3","3","2","5","4","4","4","5","5","4","1","-1","1","1","1","1","1","0","5","5","5","5","4","4","4","3","4","4","6","4","7","7","3","6","7","8","6","2","6","6","7","6","6","6","2","6","5","1","5","2","3","6","1","6","5","2","6","6","2","5","2","4","3","6","5","6","6","5","3","6","6","2","2","5","2","6","3","6","690528419074539520","王","189","Female","[""坏她"",""坏我"",""好她"",""好我""]","[""弱她"",""弱我"",""强她"",""强我""]","","","","","","","","nonmatch","","","","","","","","","","key","f","16.666666666666668","640","356","f","true","nonmatch","img/pentagon.png","好我","好她","prac_ALT2_moral","practice_moral","","","","","","","","",""
"null","<span style='color:GreenYellow; font-size: 70px;'>正确! </span>","null","html-keyboard-response","73","263449","0.0-8.0-0.0-1.0-0.0-1.31","4","3","3","2","5","4","4","4","5","5","4","1","-1","1","1","1","1","1","0","5","5","5","5","4","4","4","3","4","4","6","4","7","7","3","6","7","8","6","2","6","6","7","6","6","6","2","6","5","1","5","2","3","6","1","6","5","2","6","6","2","5","2","4","3","6","5","6","6","5","3","6","6","2","2","5","2","6","3","6","690528419074539520","王","189","Female","[""坏她"",""坏我"",""好她"",""好我""]","[""弱她"",""弱我"",""强她"",""强我""]","","","","","","","","","","","","","","","","","","","","","","","","","","","","","","feedback_test","","","","","","","","",""
"663","","f","psychophysics","74","265116","0.0-8.0-0.0-1.0-0.0-0.32","4","3","3","2","5","4","4","4","5","5","4","1","-1","1","1","1","1","1","0","5","5","5","5","4","4","4","3","4","4","6","4","7","7","3","6","7","8","6","2","6","6","7","6","6","6","2","6","5","1","5","2","3","6","1","6","5","2","6","6","2","5","2","4","3","6","5","6","6","5","3","6","6","2","2","5","2","6","3","6","690528419074539520","王","189","Female","[""坏她"",""坏我"",""好她"",""好我""]","[""弱她"",""弱我"",""强她"",""强我""]","","","","","","","","nonmatch","","","","","","","","","","key","f","16.65959595959584","640","356","f","true","nonmatch","img/trapezoid.png","好她","坏我","prac_ALT2_moral","practice_moral","","","","","","","","",""
"null","<span style='color:GreenYellow; font-size: 70px;'>正确! </span>","null","html-keyboard-response","75","265623","0.0-8.0-0.0-1.0-0.0-1.32","4","3","3","2","5","4","4","4","5","5","4","1","-1","1","1","1","1","1","0","5","5","5","5","4","4","4","3","4","4","6","4","7","7","3","6","7","8","6","2","6","6","7","6","6","6","2","6","5","1","5","2","3","6","1","6","5","2","6","6","2","5","2","4","3","6","5","6","6","5","3","6","6","2","2","5","2","6","3","6","690528419074539520","王","189","Female","[""坏她"",""坏我"",""好她"",""好我""]","[""弱她"",""弱我"",""强她"",""强我""]","","","","","","","","","","","","","","","","","","","","","","","","","","","","","","feedback_test","","","","","","","","",""
"661","","j","psychophysics","76","267289","0.0-8.0-0.0-1.0-0.0-0.33","4","3","3","2","5","4","4","4","5","5","4","1","-1","1","1","1","1","1","0","5","5","5","5","4","4","4","3","4","4","6","4","7","7","3","6","7","8","6","2","6","6","7","6","6","6","2","6","5","1","5","2","3","6","1","6","5","2","6","6","2","5","2","4","3","6","5","6","6","5","3","6","6","2","2","5","2","6","3","6","690528419074539520","王","189","Female","[""坏她"",""坏我"",""好她"",""好我""]","[""弱她"",""弱我"",""强她"",""强我""]","","","","","","","","match","","","","","","","","","","key","j","16.65959595959643","640","356","j","true","match","img/diamond.png","坏她","坏她","prac_ALT2_moral","practice_moral","","","","","","","","",""
"null","<span style='color:GreenYellow; font-size: 70px;'>正确! </span>","null","html-keyboard-response","77","267798","0.0-8.0-0.0-1.0-0.0-1.33","4","3","3","2","5","4","4","4","5","5","4","1","-1","1","1","1","1","1","0","5","5","5","5","4","4","4","3","4","4","6","4","7","7","3","6","7","8","6","2","6","6","7","6","6","6","2","6","5","1","5","2","3","6","1","6","5","2","6","6","2","5","2","4","3","6","5","6","6","5","3","6","6","2","2","5","2","6","3","6","690528419074539520","王","189","Female","[""坏她"",""坏我"",""好她"",""好我""]","[""弱她"",""弱我"",""强她"",""强我""]","","","","","","","","","","","","","","","","","","","","","","","","","","","","","","feedback_test","","","","","","","","",""
"1019","","f","psychophysics","78","269823","0.0-8.0-0.0-1.0-0.0-0.34","4","3","3","2","5","4","4","4","5","5","4","1","-1","1","1","1","1","1","0","5","5","5","5","4","4","4","3","4","4","6","4","7","7","3","6","7","8","6","2","6","6","7","6","6","6","2","6","5","1","5","2","3","6","1","6","5","2","6","6","2","5","2","4","3","6","5","6","6","5","3","6","6","2","2","5","2","6","3","6","690528419074539520","王","189","Female","[""坏她"",""坏我"",""好她"",""好我""]","[""弱她"",""弱我"",""强她"",""强我""]","","","","","","","","nonmatch","","","","","","","","","","key","f","16.66166666666686","640","356","f","true","nonmatch","img/pentagon.png","坏我","好她","prac_ALT2_moral","practice_moral","","","","","","","","",""
"null","<span style='color:GreenYellow; font-size: 70px;'>正确! </span>","null","html-keyboard-response","79","270324","0.0-8.0-0.0-1.0-0.0-1.34","4","3","3","2","5","4","4","4","5","5","4","1","-1","1","1","1","1","1","0","5","5","5","5","4","4","4","3","4","4","6","4","7","7","3","6","7","8","6","2","6","6","7","6","6","6","2","6","5","1","5","2","3","6","1","6","5","2","6","6","2","5","2","4","3","6","5","6","6","5","3","6","6","2","2","5","2","6","3","6","690528419074539520","王","189","Female","[""坏她"",""坏我"",""好她"",""好我""]","[""弱她"",""弱我"",""强她"",""强我""]","","","","","","","","","","","","","","","","","","","","","","","","","","","","","","feedback_test","","","","","","","","",""
"677","","f","psychophysics","80","272005","0.0-8.0-0.0-1.0-0.0-0.35","4","3","3","2","5","4","4","4","5","5","4","1","-1","1","1","1","1","1","0","5","5","5","5","4","4","4","3","4","4","6","4","7","7","3","6","7","8","6","2","6","6","7","6","6","6","2","6","5","1","5","2","3","6","1","6","5","2","6","6","2","5","2","4","3","6","5","6","6","5","3","6","6","2","2","5","2","6","3","6","690528419074539520","王","189","Female","[""坏她"",""坏我"",""好她"",""好我""]","[""弱她"",""弱我"",""强她"",""强我""]","","","","","","","","nonmatch","","","","","","","","","","key","f","16.665","640","356","f","true","nonmatch","img/circle.png","好她","好我","prac_ALT2_moral","practice_moral","","","","","","","","",""
"null","<span style='color:GreenYellow; font-size: 70px;'>正确! </span>","null","html-keyboard-response","81","272507","0.0-8.0-0.0-1.0-0.0-1.35","4","3","3","2","5","4","4","4","5","5","4","1","-1","1","1","1","1","1","0","5","5","5","5","4","4","4","3","4","4","6","4","7","7","3","6","7","8","6","2","6","6","7","6","6","6","2","6","5","1","5","2","3","6","1","6","5","2","6","6","2","5","2","4","3","6","5","6","6","5","3","6","6","2","2","5","2","6","3","6","690528419074539520","王","189","Female","[""坏她"",""坏我"",""好她"",""好我""]","[""弱她"",""弱我"",""强她"",""强我""]","","","","","","","","","","","","","","","","","","","","","","","","","","","","","","feedback_test","","","","","","","","",""
"663","","f","psychophysics","82","274173","0.0-8.0-0.0-1.0-0.0-0.36","4","3","3","2","5","4","4","4","5","5","4","1","-1","1","1","1","1","1","0","5","5","5","5","4","4","4","3","4","4","6","4","7","7","3","6","7","8","6","2","6","6","7","6","6","6","2","6","5","1","5","2","3","6","1","6","5","2","6","6","2","5","2","4","3","6","5","6","6","5","3","6","6","2","2","5","2","6","3","6","690528419074539520","王","189","Female","[""坏她"",""坏我"",""好她"",""好我""]","[""弱她"",""弱我"",""强她"",""强我""]","","","","","","","","nonmatch","","","","","","","","","","key","f","16.666666666666668","640","356","f","true","nonmatch","img/circle.png","坏我","好我","prac_ALT2_moral","practice_moral","","","","","","","","",""
"null","<span style='color:GreenYellow; font-size: 70px;'>正确! </span>","null","html-keyboard-response","83","274674","0.0-8.0-0.0-1.0-0.0-1.36","4","3","3","2","5","4","4","4","5","5","4","1","-1","1","1","1","1","1","0","5","5","5","5","4","4","4","3","4","4","6","4","7","7","3","6","7","8","6","2","6","6","7","6","6","6","2","6","5","1","5","2","3","6","1","6","5","2","6","6","2","5","2","4","3","6","5","6","6","5","3","6","6","2","2","5","2","6","3","6","690528419074539520","王","189","Female","[""坏她"",""坏我"",""好她"",""好我""]","[""弱她"",""弱我"",""强她"",""强我""]","","","","","","","","","","","","","","","","","","","","","","","","","","","","","","feedback_test","","","","","","","","",""
"783","","j","psychophysics","84","276459","0.0-8.0-0.0-1.0-0.0-0.37","4","3","3","2","5","4","4","4","5","5","4","1","-1","1","1","1","1","1","0","5","5","5","5","4","4","4","3","4","4","6","4","7","7","3","6","7","8","6","2","6","6","7","6","6","6","2","6","5","1","5","2","3","6","1","6","5","2","6","6","2","5","2","4","3","6","5","6","6","5","3","6","6","2","2","5","2","6","3","6","690528419074539520","王","189","Female","[""坏她"",""坏我"",""好她"",""好我""]","[""弱她"",""弱我"",""强她"",""强我""]","","","","","","","","match","","","","","","","","","","key","j","16.660377358490567","640","356","j","true","match","img/diamond.png","坏她","坏她","prac_ALT2_moral","practice_moral","","","","","","","","",""
"null","<span style='color:GreenYellow; font-size: 70px;'>正确! </span>","null","html-keyboard-response","85","276960","0.0-8.0-0.0-1.0-0.0-1.37","4","3","3","2","5","4","4","4","5","5","4","1","-1","1","1","1","1","1","0","5","5","5","5","4","4","4","3","4","4","6","4","7","7","3","6","7","8","6","2","6","6","7","6","6","6","2","6","5","1","5","2","3","6","1","6","5","2","6","6","2","5","2","4","3","6","5","6","6","5","3","6","6","2","2","5","2","6","3","6","690528419074539520","王","189","Female","[""坏她"",""坏我"",""好她"",""好我""]","[""弱她"",""弱我"",""强她"",""强我""]","","","","","","","","","","","","","","","","","","","","","","","","","","","","","","feedback_test","","","","","","","","",""
"650","","f","psychophysics","86","278616","0.0-8.0-0.0-1.0-0.0-0.38","4","3","3","2","5","4","4","4","5","5","4","1","-1","1","1","1","1","1","0","5","5","5","5","4","4","4","3","4","4","6","4","7","7","3","6","7","8","6","2","6","6","7","6","6","6","2","6","5","1","5","2","3","6","1","6","5","2","6","6","2","5","2","4","3","6","5","6","6","5","3","6","6","2","2","5","2","6","3","6","690528419074539520","王","189","Female","[""坏她"",""坏我"",""好她"",""好我""]","[""弱她"",""弱我"",""强她"",""强我""]","","","","","","","","nonmatch","","","","","","","","","","key","f","16.660204081632177","640","356","f","true","nonmatch","img/diamond.png","坏我","坏她","prac_ALT2_moral","practice_moral","","","","","","","","",""
"null","<span style='color:GreenYellow; font-size: 70px;'>正确! </span>","null","html-keyboard-response","87","279125","0.0-8.0-0.0-1.0-0.0-1.38","4","3","3","2","5","4","4","4","5","5","4","1","-1","1","1","1","1","1","0","5","5","5","5","4","4","4","3","4","4","6","4","7","7","3","6","7","8","6","2","6","6","7","6","6","6","2","6","5","1","5","2","3","6","1","6","5","2","6","6","2","5","2","4","3","6","5","6","6","5","3","6","6","2","2","5","2","6","3","6","690528419074539520","王","189","Female","[""坏她"",""坏我"",""好她"",""好我""]","[""弱她"",""弱我"",""强她"",""强我""]","","","","","","","","","","","","","","","","","","","","","","","","","","","","","","feedback_test","","","","","","","","",""
"677","","f","psychophysics","88","280808","0.0-8.0-0.0-1.0-0.0-0.39","4","3","3","2","5","4","4","4","5","5","4","1","-1","1","1","1","1","1","0","5","5","5","5","4","4","4","3","4","4","6","4","7","7","3","6","7","8","6","2","6","6","7","6","6","6","2","6","5","1","5","2","3","6","1","6","5","2","6","6","2","5","2","4","3","6","5","6","6","5","3","6","6","2","2","5","2","6","3","6","690528419074539520","王","189","Female","[""坏她"",""坏我"",""好她"",""好我""]","[""弱她"",""弱我"",""强她"",""强我""]","","","","","","","","nonmatch","","","","","","","","","","key","f","16.660999999999767","640","356","j","false","match","img/trapezoid.png","坏我","坏我","prac_ALT2_moral","practice_moral","","","","","","","","",""
"null","<span style='color:red; font-size: 70px;'>错误! </span>","null","html-keyboard-response","89","281317","0.0-8.0-0.0-1.0-0.0-1.39","4","3","3","2","5","4","4","4","5","5","4","1","-1","1","1","1","1","1","0","5","5","5","5","4","4","4","3","4","4","6","4","7","7","3","6","7","8","6","2","6","6","7","6","6","6","2","6","5","1","5","2","3","6","1","6","5","2","6","6","2","5","2","4","3","6","5","6","6","5","3","6","6","2","2","5","2","6","3","6","690528419074539520","王","189","Female","[""坏她"",""坏我"",""好她"",""好我""]","[""弱她"",""弱我"",""强她"",""强我""]","","","","","","","","","","","","","","","","","","","","","","","","","","","","","","feedback_test","","","","","","","","",""
"525","","j","psychophysics","90","282849","0.0-8.0-0.0-1.0-0.0-0.40","4","3","3","2","5","4","4","4","5","5","4","1","-1","1","1","1","1","1","0","5","5","5","5","4","4","4","3","4","4","6","4","7","7","3","6","7","8","6","2","6","6","7","6","6","6","2","6","5","1","5","2","3","6","1","6","5","2","6","6","2","5","2","4","3","6","5","6","6","5","3","6","6","2","2","5","2","6","3","6","690528419074539520","王","189","Female","[""坏她"",""坏我"",""好她"",""好我""]","[""弱她"",""弱我"",""强她"",""强我""]","","","","","","","","match","","","","","","","","","","key","j","16.66593406593445","640","356","j","true","match","img/circle.png","好我","好我","prac_ALT2_moral","practice_moral","","","","","","","","",""
"null","<span style='color:GreenYellow; font-size: 70px;'>正确! </span>","null","html-keyboard-response","91","283359","0.0-8.0-0.0-1.0-0.0-1.40","4","3","3","2","5","4","4","4","5","5","4","1","-1","1","1","1","1","1","0","5","5","5","5","4","4","4","3","4","4","6","4","7","7","3","6","7","8","6","2","6","6","7","6","6","6","2","6","5","1","5","2","3","6","1","6","5","2","6","6","2","5","2","4","3","6","5","6","6","5","3","6","6","2","2","5","2","6","3","6","690528419074539520","王","189","Female","[""坏她"",""坏我"",""好她"",""好我""]","[""弱她"",""弱我"",""强她"",""强我""]","","","","","","","","","","","","","","","","","","","","","","","","","","","","","","feedback_test","","","","","","","","",""
"642","","j","psychophysics","92","285007","0.0-8.0-0.0-1.0-0.0-0.41","4","3","3","2","5","4","4","4","5","5","4","1","-1","1","1","1","1","1","0","5","5","5","5","4","4","4","3","4","4","6","4","7","7","3","6","7","8","6","2","6","6","7","6","6","6","2","6","5","1","5","2","3","6","1","6","5","2","6","6","2","5","2","4","3","6","5","6","6","5","3","6","6","2","2","5","2","6","3","6","690528419074539520","王","189","Female","[""坏她"",""坏我"",""好她"",""好我""]","[""弱她"",""弱我"",""强她"",""强我""]","","","","","","","","match","","","","","","","","","","key","j","16.663265306122447","640","356","j","true","match","img/trapezoid.png","坏我","坏我","prac_ALT2_moral","practice_moral","","","","","","","","",""
"null","<span style='color:GreenYellow; font-size: 70px;'>正确! </span>","null","html-keyboard-response","93","285523","0.0-8.0-0.0-1.0-0.0-1.41","4","3","3","2","5","4","4","4","5","5","4","1","-1","1","1","1","1","1","0","5","5","5","5","4","4","4","3","4","4","6","4","7","7","3","6","7","8","6","2","6","6","7","6","6","6","2","6","5","1","5","2","3","6","1","6","5","2","6","6","2","5","2","4","3","6","5","6","6","5","3","6","6","2","2","5","2","6","3","6","690528419074539520","王","189","Female","[""坏她"",""坏我"",""好她"",""好我""]","[""弱她"",""弱我"",""强她"",""强我""]","","","","","","","","","","","","","","","","","","","","","","","","","","","","","","feedback_test","","","","","","","","",""
"743","","j","psychophysics","94","287273","0.0-8.0-0.0-1.0-0.0-0.42","4","3","3","2","5","4","4","4","5","5","4","1","-1","1","1","1","1","1","0","5","5","5","5","4","4","4","3","4","4","6","4","7","7","3","6","7","8","6","2","6","6","7","6","6","6","2","6","5","1","5","2","3","6","1","6","5","2","6","6","2","5","2","4","3","6","5","6","6","5","3","6","6","2","2","5","2","6","3","6","690528419074539520","王","189","Female","[""坏她"",""坏我"",""好她"",""好我""]","[""弱她"",""弱我"",""强她"",""强我""]","","","","","","","","match","","","","","","","","","","key","j","16.66153846153835","640","356","j","true","match","img/circle.png","好我","好我","prac_ALT2_moral","practice_moral","","","","","","","","",""
"null","<span style='color:GreenYellow; font-size: 70px;'>正确! </span>","null","html-keyboard-response","95","287775","0.0-8.0-0.0-1.0-0.0-1.42","4","3","3","2","5","4","4","4","5","5","4","1","-1","1","1","1","1","1","0","5","5","5","5","4","4","4","3","4","4","6","4","7","7","3","6","7","8","6","2","6","6","7","6","6","6","2","6","5","1","5","2","3","6","1","6","5","2","6","6","2","5","2","4","3","6","5","6","6","5","3","6","6","2","2","5","2","6","3","6","690528419074539520","王","189","Female","[""坏她"",""坏我"",""好她"",""好我""]","[""弱她"",""弱我"",""强她"",""强我""]","","","","","","","","","","","","","","","","","","","","","","","","","","","","","","feedback_test","","","","","","","","",""
"664","","j","psychophysics","96","289442","0.0-8.0-0.0-1.0-0.0-0.43","4","3","3","2","5","4","4","4","5","5","4","1","-1","1","1","1","1","1","0","5","5","5","5","4","4","4","3","4","4","6","4","7","7","3","6","7","8","6","2","6","6","7","6","6","6","2","6","5","1","5","2","3","6","1","6","5","2","6","6","2","5","2","4","3","6","5","6","6","5","3","6","6","2","2","5","2","6","3","6","690528419074539520","王","189","Female","[""坏她"",""坏我"",""好她"",""好我""]","[""弱她"",""弱我"",""强她"",""强我""]","","","","","","","","match","","","","","","","","","","key","j","16.661616161616163","640","356","j","true","match","img/pentagon.png","好她","好她","prac_ALT2_moral","practice_moral","","","","","","","","",""
"null","<span style='color:GreenYellow; font-size: 70px;'>正确! </span>","null","html-keyboard-response","97","289958","0.0-8.0-0.0-1.0-0.0-1.43","4","3","3","2","5","4","4","4","5","5","4","1","-1","1","1","1","1","1","0","5","5","5","5","4","4","4","3","4","4","6","4","7","7","3","6","7","8","6","2","6","6","7","6","6","6","2","6","5","1","5","2","3","6","1","6","5","2","6","6","2","5","2","4","3","6","5","6","6","5","3","6","6","2","2","5","2","6","3","6","690528419074539520","王","189","Female","[""坏她"",""坏我"",""好她"",""好我""]","[""弱她"",""弱我"",""强她"",""强我""]","","","","","","","","","","","","","","","","","","","","","","","","","","","","","","feedback_test","","","","","","","","",""
"621","","f","psychophysics","98","291588","0.0-8.0-0.0-1.0-0.0-0.44","4","3","3","2","5","4","4","4","5","5","4","1","-1","1","1","1","1","1","0","5","5","5","5","4","4","4","3","4","4","6","4","7","7","3","6","7","8","6","2","6","6","7","6","6","6","2","6","5","1","5","2","3","6","1","6","5","2","6","6","2","5","2","4","3","6","5","6","6","5","3","6","6","2","2","5","2","6","3","6","690528419074539520","王","189","Female","[""坏她"",""坏我"",""好她"",""好我""]","[""弱她"",""弱我"",""强她"",""强我""]","","","","","","","","nonmatch","","","","","","","","","","key","f","16.65979381443299","640","356","f","true","nonmatch","img/pentagon.png","坏她","好她","prac_ALT2_moral","practice_moral","","","","","","","","",""
"null","<span style='color:GreenYellow; font-size: 70px;'>正确! </span>","null","html-keyboard-response","99","292096","0.0-8.0-0.0-1.0-0.0-1.44","4","3","3","2","5","4","4","4","5","5","4","1","-1","1","1","1","1","1","0","5","5","5","5","4","4","4","3","4","4","6","4","7","7","3","6","7","8","6","2","6","6","7","6","6","6","2","6","5","1","5","2","3","6","1","6","5","2","6","6","2","5","2","4","3","6","5","6","6","5","3","6","6","2","2","5","2","6","3","6","690528419074539520","王","189","Female","[""坏她"",""坏我"",""好她"",""好我""]","[""弱她"",""弱我"",""强她"",""强我""]","","","","","","","","","","","","","","","","","","","","","","","","","","","","","","feedback_test","","","","","","","","",""
"647","","f","psychophysics","100","293751","0.0-8.0-0.0-1.0-0.0-0.45","4","3","3","2","5","4","4","4","5","5","4","1","-1","1","1","1","1","1","0","5","5","5","5","4","4","4","3","4","4","6","4","7","7","3","6","7","8","6","2","6","6","7","6","6","6","2","6","5","1","5","2","3","6","1","6","5","2","6","6","2","5","2","4","3","6","5","6","6","5","3","6","6","2","2","5","2","6","3","6","690528419074539520","王","189","Female","[""坏她"",""坏我"",""好她"",""好我""]","[""弱她"",""弱我"",""强她"",""强我""]","","","","","","","","nonmatch","","","","","","","","","","key","f","16.66224489795883","640","356","f","true","nonmatch","img/diamond.png","好我","坏她","prac_ALT2_moral","practice_moral","","","","","","","","",""
"null","<span style='color:GreenYellow; font-size: 70px;'>正确! </span>","null","html-keyboard-response","101","294256","0.0-8.0-0.0-1.0-0.0-1.45","4","3","3","2","5","4","4","4","5","5","4","1","-1","1","1","1","1","1","0","5","5","5","5","4","4","4","3","4","4","6","4","7","7","3","6","7","8","6","2","6","6","7","6","6","6","2","6","5","1","5","2","3","6","1","6","5","2","6","6","2","5","2","4","3","6","5","6","6","5","3","6","6","2","2","5","2","6","3","6","690528419074539520","王","189","Female","[""坏她"",""坏我"",""好她"",""好我""]","[""弱她"",""弱我"",""强她"",""强我""]","","","","","","","","","","","","","","","","","","","","","","","","","","","","","","feedback_test","","","","","","","","",""
"600","","j","psychophysics","102","295867","0.0-8.0-0.0-1.0-0.0-0.46","4","3","3","2","5","4","4","4","5","5","4","1","-1","1","1","1","1","1","0","5","5","5","5","4","4","4","3","4","4","6","4","7","7","3","6","7","8","6","2","6","6","7","6","6","6","2","6","5","1","5","2","3","6","1","6","5","2","6","6","2","5","2","4","3","6","5","6","6","5","3","6","6","2","2","5","2","6","3","6","690528419074539520","王","189","Female","[""坏她"",""坏我"",""好她"",""好我""]","[""弱她"",""弱我"",""强她"",""强我""]","","","","","","","","match","","","","","","","","","","key","j","16.662500000000364","640","356","f","false","nonmatch","img/diamond.png","好她","坏她","prac_ALT2_moral","practice_moral","","","","","","","","",""
"null","<span style='color:red; font-size: 70px;'>错误! </span>","null","html-keyboard-response","103","296370","0.0-8.0-0.0-1.0-0.0-1.46","4","3","3","2","5","4","4","4","5","5","4","1","-1","1","1","1","1","1","0","5","5","5","5","4","4","4","3","4","4","6","4","7","7","3","6","7","8","6","2","6","6","7","6","6","6","2","6","5","1","5","2","3","6","1","6","5","2","6","6","2","5","2","4","3","6","5","6","6","5","3","6","6","2","2","5","2","6","3","6","690528419074539520","王","189","Female","[""坏她"",""坏我"",""好她"",""好我""]","[""弱她"",""弱我"",""强她"",""强我""]","","","","","","","","","","","","","","","","","","","","","","","","","","","","","","feedback_test","","","","","","","","",""
"695","","f","psychophysics","104","298073","0.0-8.0-0.0-1.0-0.0-0.47","4","3","3","2","5","4","4","4","5","5","4","1","-1","1","1","1","1","1","0","5","5","5","5","4","4","4","3","4","4","6","4","7","7","3","6","7","8","6","2","6","6","7","6","6","6","2","6","5","1","5","2","3","6","1","6","5","2","6","6","2","5","2","4","3","6","5","6","6","5","3","6","6","2","2","5","2","6","3","6","690528419074539520","王","189","Female","[""坏她"",""坏我"",""好她"",""好我""]","[""弱她"",""弱我"",""强她"",""强我""]","","","","","","","","nonmatch","","","","","","","","","","key","f","16.66237623762399","640","356","f","true","nonmatch","img/trapezoid.png","好我","坏我","prac_ALT2_moral","practice_moral","","","","","","","","",""
"null","<span style='color:GreenYellow; font-size: 70px;'>正确! </span>","null","html-keyboard-response","105","298585","0.0-8.0-0.0-1.0-0.0-1.47","4","3","3","2","5","4","4","4","5","5","4","1","-1","1","1","1","1","1","0","5","5","5","5","4","4","4","3","4","4","6","4","7","7","3","6","7","8","6","2","6","6","7","6","6","6","2","6","5","1","5","2","3","6","1","6","5","2","6","6","2","5","2","4","3","6","5","6","6","5","3","6","6","2","2","5","2","6","3","6","690528419074539520","王","189","Female","[""坏她"",""坏我"",""好她"",""好我""]","[""弱她"",""弱我"",""强她"",""强我""]","","","","","","","","","","","","","","","","","","","","","","","","","","","","","","feedback_test","","","","","","","","",""
"3206","<style>.context{color:white; font-size: 35px; line-height:40px}</style>                            <div><p class='context'>您正确回答了90% 的试次。</p><p class='context'>您的平均反应时为729毫秒。</p><p class='context'>恭喜您完成练习。按空格键进入正式实验。</p><p class='footer' style='font-size: 35px; line-height:40px;'>请在进入正式实验实验之前将您的<span style='color: lightgreen;'>食指</span>放在电脑键盘的相应键位上进行按键。</p>"," ","html-keyboard-response","106","301793","0.0-8.0-0.0-2.0","4","3","3","2","5","4","4","4","5","5","4","1","-1","1","1","1","1","1","0","5","5","5","5","4","4","4","3","4","4","6","4","7","7","3","6","7","8","6","2","6","6","7","6","6","6","2","6","5","1","5","2","3","6","1","6","5","2","6","6","2","5","2","4","3","6","5","6","6","5","3","6","6","2","2","5","2","6","3","6","690528419074539520","王","189","Female","[""坏她"",""坏我"",""好她"",""好我""]","[""弱她"",""弱我"",""强她"",""强我""]","","","","","","","","","","","","","","","","","","","","","","","","","","","","","","","","","","","","","","",""
"69373","
    <p style='color: white; font-size: 22px'>请您将手指放在按键上，准备进入正式的匹配任务。</p>
    <p> <div style = ""color: green""><按空格键进入下一阶段的匹配任务></div></p>
    "," ","html-keyboard-response","107","371171","0.0-8.0-0.0-3.0","4","3","3","2","5","4","4","4","5","5","4","1","-1","1","1","1","1","1","0","5","5","5","5","4","4","4","3","4","4","6","4","7","7","3","6","7","8","6","2","6","6","7","6","6","6","2","6","5","1","5","2","3","6","1","6","5","2","6","6","2","5","2","4","3","6","5","6","6","5","3","6","6","2","2","5","2","6","3","6","690528419074539520","王","189","Female","[""坏她"",""坏我"",""好她"",""好我""]","[""弱她"",""弱我"",""强她"",""强我""]","","","","","","","","","","","","","","","","","","","","","","","","","","","","","","","","","","","","","","",""
"694","","f","psychophysics","108","372866","0.0-8.0-0.0-4.0-0.0-0.0","4","3","3","2","5","4","4","4","5","5","4","1","-1","1","1","1","1","1","0","5","5","5","5","4","4","4","3","4","4","6","4","7","7","3","6","7","8","6","2","6","6","7","6","6","6","2","6","5","1","5","2","3","6","1","6","5","2","6","6","2","5","2","4","3","6","5","6","6","5","3","6","6","2","2","5","2","6","3","6","690528419074539520","王","189","Female","[""坏她"",""坏我"",""好她"",""好我""]","[""弱她"",""弱我"",""强她"",""强我""]","","","","","","","","nonmatch","","","","","","","","","","key","f","16.66237623762399","640","356","f","true","nonmatch","img/pentagon.png","坏她","好她","ALT2","moral","","","","","","","","",""
"null","<span style='color:GreenYellow; font-size: 70px;'>正确! </span>","null","html-keyboard-response","109","373376","0.0-8.0-0.0-4.0-0.0-1.0","4","3","3","2","5","4","4","4","5","5","4","1","-1","1","1","1","1","1","0","5","5","5","5","4","4","4","3","4","4","6","4","7","7","3","6","7","8","6","2","6","6","7","6","6","6","2","6","5","1","5","2","3","6","1","6","5","2","6","6","2","5","2","4","3","6","5","6","6","5","3","6","6","2","2","5","2","6","3","6","690528419074539520","王","189","Female","[""坏她"",""坏我"",""好她"",""好我""]","[""弱她"",""弱我"",""强她"",""强我""]","","","","","","","","","","","","","","","","","","","","","","","","","","","","","","feedback_test","","","","","","","","",""
"647","","j","psychophysics","110","375026","0.0-8.0-0.0-4.0-0.0-0.1","4","3","3","2","5","4","4","4","5","5","4","1","-1","1","1","1","1","1","0","5","5","5","5","4","4","4","3","4","4","6","4","7","7","3","6","7","8","6","2","6","6","7","6","6","6","2","6","5","1","5","2","3","6","1","6","5","2","6","6","2","5","2","4","3","6","5","6","6","5","3","6","6","2","2","5","2","6","3","6","690528419074539520","王","189","Female","[""坏她"",""坏我"",""好她"",""好我""]","[""弱她"",""弱我"",""强她"",""强我""]","","","","","","","","match","","","","","","","","","","key","j","16.663265306122447","640","356","j","true","match","img/trapezoid.png","坏我","坏我","ALT2","moral","","","","","","","","",""
"null","<span style='color:GreenYellow; font-size: 70px;'>正确! </span>","null","html-keyboard-response","111","375534","0.0-8.0-0.0-4.0-0.0-1.1","4","3","3","2","5","4","4","4","5","5","4","1","-1","1","1","1","1","1","0","5","5","5","5","4","4","4","3","4","4","6","4","7","7","3","6","7","8","6","2","6","6","7","6","6","6","2","6","5","1","5","2","3","6","1","6","5","2","6","6","2","5","2","4","3","6","5","6","6","5","3","6","6","2","2","5","2","6","3","6","690528419074539520","王","189","Female","[""坏她"",""坏我"",""好她"",""好我""]","[""弱她"",""弱我"",""强她"",""强我""]","","","","","","","","","","","","","","","","","","","","","","","","","","","","","","feedback_test","","","","","","","","",""
"581","","f","psychophysics","112","377121","0.0-8.0-0.0-4.0-0.0-0.2","4","3","3","2","5","4","4","4","5","5","4","1","-1","1","1","1","1","1","0","5","5","5","5","4","4","4","3","4","4","6","4","7","7","3","6","7","8","6","2","6","6","7","6","6","6","2","6","5","1","5","2","3","6","1","6","5","2","6","6","2","5","2","4","3","6","5","6","6","5","3","6","6","2","2","5","2","6","3","6","690528419074539520","王","189","Female","[""坏她"",""坏我"",""好她"",""好我""]","[""弱她"",""弱我"",""强她"",""强我""]","","","","","","","","nonmatch","","","","","","","","","","key","f","16.660638297872094","640","356","f","true","nonmatch","img/circle.png","坏她","好我","ALT2","moral","","","","","","","","",""
"null","<span style='color:GreenYellow; font-size: 70px;'>正确! </span>","null","html-keyboard-response","113","377623","0.0-8.0-0.0-4.0-0.0-1.2","4","3","3","2","5","4","4","4","5","5","4","1","-1","1","1","1","1","1","0","5","5","5","5","4","4","4","3","4","4","6","4","7","7","3","6","7","8","6","2","6","6","7","6","6","6","2","6","5","1","5","2","3","6","1","6","5","2","6","6","2","5","2","4","3","6","5","6","6","5","3","6","6","2","2","5","2","6","3","6","690528419074539520","王","189","Female","[""坏她"",""坏我"",""好她"",""好我""]","[""弱她"",""弱我"",""强她"",""强我""]","","","","","","","","","","","","","","","","","","","","","","","","","","","","","","feedback_test","","","","","","","","",""
"550","","j","psychophysics","114","379178","0.0-8.0-0.0-4.0-0.0-0.3","4","3","3","2","5","4","4","4","5","5","4","1","-1","1","1","1","1","1","0","5","5","5","5","4","4","4","3","4","4","6","4","7","7","3","6","7","8","6","2","6","6","7","6","6","6","2","6","5","1","5","2","3","6","1","6","5","2","6","6","2","5","2","4","3","6","5","6","6","5","3","6","6","2","2","5","2","6","3","6","690528419074539520","王","189","Female","[""坏她"",""坏我"",""好她"",""好我""]","[""弱她"",""弱我"",""强她"",""强我""]","","","","","","","","match","","","","","","","","","","key","j","16.665591397849088","640","356","j","true","match","img/circle.png","好我","好我","ALT2","moral","","","","","","","","",""
"null","<span style='color:GreenYellow; font-size: 70px;'>正确! </span>","null","html-keyboard-response","115","379696","0.0-8.0-0.0-4.0-0.0-1.3","4","3","3","2","5","4","4","4","5","5","4","1","-1","1","1","1","1","1","0","5","5","5","5","4","4","4","3","4","4","6","4","7","7","3","6","7","8","6","2","6","6","7","6","6","6","2","6","5","1","5","2","3","6","1","6","5","2","6","6","2","5","2","4","3","6","5","6","6","5","3","6","6","2","2","5","2","6","3","6","690528419074539520","王","189","Female","[""坏她"",""坏我"",""好她"",""好我""]","[""弱她"",""弱我"",""强她"",""强我""]","","","","","","","","","","","","","","","","","","","","","","","","","","","","","","feedback_test","","","","","","","","",""
"604","","f","psychophysics","116","381304","0.0-8.0-0.0-4.0-0.0-0.4","4","3","3","2","5","4","4","4","5","5","4","1","-1","1","1","1","1","1","0","5","5","5","5","4","4","4","3","4","4","6","4","7","7","3","6","7","8","6","2","6","6","7","6","6","6","2","6","5","1","5","2","3","6","1","6","5","2","6","6","2","5","2","4","3","6","5","6","6","5","3","6","6","2","2","5","2","6","3","6","690528419074539520","王","189","Female","[""坏她"",""坏我"",""好她"",""好我""]","[""弱她"",""弱我"",""强她"",""强我""]","","","","","","","","nonmatch","","","","","","","","","","key","f","16.66000000000012","640","356","f","true","nonmatch","img/trapezoid.png","坏她","坏我","ALT2","moral","","","","","","","","",""
"null","<span style='color:GreenYellow; font-size: 70px;'>正确! </span>","null","html-keyboard-response","117","381805","0.0-8.0-0.0-4.0-0.0-1.4","4","3","3","2","5","4","4","4","5","5","4","1","-1","1","1","1","1","1","0","5","5","5","5","4","4","4","3","4","4","6","4","7","7","3","6","7","8","6","2","6","6","7","6","6","6","2","6","5","1","5","2","3","6","1","6","5","2","6","6","2","5","2","4","3","6","5","6","6","5","3","6","6","2","2","5","2","6","3","6","690528419074539520","王","189","Female","[""坏她"",""坏我"",""好她"",""好我""]","[""弱她"",""弱我"",""强她"",""强我""]","","","","","","","","","","","","","","","","","","","","","","","","","","","","","","feedback_test","","","","","","","","",""
"603","","j","psychophysics","118","383410","0.0-8.0-0.0-4.0-0.0-0.5","4","3","3","2","5","4","4","4","5","5","4","1","-1","1","1","1","1","1","0","5","5","5","5","4","4","4","3","4","4","6","4","7","7","3","6","7","8","6","2","6","6","7","6","6","6","2","6","5","1","5","2","3","6","1","6","5","2","6","6","2","5","2","4","3","6","5","6","6","5","3","6","6","2","2","5","2","6","3","6","690528419074539520","王","189","Female","[""坏她"",""坏我"",""好她"",""好我""]","[""弱她"",""弱我"",""强她"",""强我""]","","","","","","","","match","","","","","","","","","","key","j","16.662500000000364","640","356","j","true","match","img/trapezoid.png","坏我","坏我","ALT2","moral","","","","","","","","",""
"null","<span style='color:GreenYellow; font-size: 70px;'>正确! </span>","null","html-keyboard-response","119","383915","0.0-8.0-0.0-4.0-0.0-1.5","4","3","3","2","5","4","4","4","5","5","4","1","-1","1","1","1","1","1","0","5","5","5","5","4","4","4","3","4","4","6","4","7","7","3","6","7","8","6","2","6","6","7","6","6","6","2","6","5","1","5","2","3","6","1","6","5","2","6","6","2","5","2","4","3","6","5","6","6","5","3","6","6","2","2","5","2","6","3","6","690528419074539520","王","189","Female","[""坏她"",""坏我"",""好她"",""好我""]","[""弱她"",""弱我"",""强她"",""强我""]","","","","","","","","","","","","","","","","","","","","","","","","","","","","","","feedback_test","","","","","","","","",""
"722","","f","psychophysics","120","385644","0.0-8.0-0.0-4.0-0.0-0.6","4","3","3","2","5","4","4","4","5","5","4","1","-1","1","1","1","1","1","0","5","5","5","5","4","4","4","3","4","4","6","4","7","7","3","6","7","8","6","2","6","6","7","6","6","6","2","6","5","1","5","2","3","6","1","6","5","2","6","6","2","5","2","4","3","6","5","6","6","5","3","6","6","2","2","5","2","6","3","6","690528419074539520","王","189","Female","[""坏她"",""坏我"",""好她"",""好我""]","[""弱她"",""弱我"",""强她"",""强我""]","","","","","","","","nonmatch","","","","","","","","","","key","f","16.661165048543463","640","356","f","true","nonmatch","img/pentagon.png","坏我","好她","ALT2","moral","","","","","","","","",""
"null","<span style='color:GreenYellow; font-size: 70px;'>正确! </span>","null","html-keyboard-response","121","386152","0.0-8.0-0.0-4.0-0.0-1.6","4","3","3","2","5","4","4","4","5","5","4","1","-1","1","1","1","1","1","0","5","5","5","5","4","4","4","3","4","4","6","4","7","7","3","6","7","8","6","2","6","6","7","6","6","6","2","6","5","1","5","2","3","6","1","6","5","2","6","6","2","5","2","4","3","6","5","6","6","5","3","6","6","2","2","5","2","6","3","6","690528419074539520","王","189","Female","[""坏她"",""坏我"",""好她"",""好我""]","[""弱她"",""弱我"",""强她"",""强我""]","","","","","","","","","","","","","","","","","","","","","","","","","","","","","","feedback_test","","","","","","","","",""
"749","","f","psychophysics","122","387906","0.0-8.0-0.0-4.0-0.0-0.7","4","3","3","2","5","4","4","4","5","5","4","1","-1","1","1","1","1","1","0","5","5","5","5","4","4","4","3","4","4","6","4","7","7","3","6","7","8","6","2","6","6","7","6","6","6","2","6","5","1","5","2","3","6","1","6","5","2","6","6","2","5","2","4","3","6","5","6","6","5","3","6","6","2","2","5","2","6","3","6","690528419074539520","王","189","Female","[""坏她"",""坏我"",""好她"",""好我""]","[""弱她"",""弱我"",""强她"",""强我""]","","","","","","","","nonmatch","","","","","","","","","","key","f","16.66442307692285","640","356","f","true","nonmatch","img/trapezoid.png","好她","坏我","ALT2","moral","","","","","","","","",""
"null","<span style='color:GreenYellow; font-size: 70px;'>正确! </span>","null","html-keyboard-response","123","388409","0.0-8.0-0.0-4.0-0.0-1.7","4","3","3","2","5","4","4","4","5","5","4","1","-1","1","1","1","1","1","0","5","5","5","5","4","4","4","3","4","4","6","4","7","7","3","6","7","8","6","2","6","6","7","6","6","6","2","6","5","1","5","2","3","6","1","6","5","2","6","6","2","5","2","4","3","6","5","6","6","5","3","6","6","2","2","5","2","6","3","6","690528419074539520","王","189","Female","[""坏她"",""坏我"",""好她"",""好我""]","[""弱她"",""弱我"",""强她"",""强我""]","","","","","","","","","","","","","","","","","","","","","","","","","","","","","","feedback_test","","","","","","","","",""
"735","","j","psychophysics","124","390153","0.0-8.0-0.0-4.0-0.0-0.8","4","3","3","2","5","4","4","4","5","5","4","1","-1","1","1","1","1","1","0","5","5","5","5","4","4","4","3","4","4","6","4","7","7","3","6","7","8","6","2","6","6","7","6","6","6","2","6","5","1","5","2","3","6","1","6","5","2","6","6","2","5","2","4","3","6","5","6","6","5","3","6","6","2","2","5","2","6","3","6","690528419074539520","王","189","Female","[""坏她"",""坏我"",""好她"",""好我""]","[""弱她"",""弱我"",""强她"",""强我""]","","","","","","","","match","","","","","","","","","","key","j","16.66213592233021","640","356","j","true","match","img/diamond.png","坏她","坏她","ALT2","moral","","","","","","","","",""
"null","<span style='color:GreenYellow; font-size: 70px;'>正确! </span>","null","html-keyboard-response","125","390658","0.0-8.0-0.0-4.0-0.0-1.8","4","3","3","2","5","4","4","4","5","5","4","1","-1","1","1","1","1","1","0","5","5","5","5","4","4","4","3","4","4","6","4","7","7","3","6","7","8","6","2","6","6","7","6","6","6","2","6","5","1","5","2","3","6","1","6","5","2","6","6","2","5","2","4","3","6","5","6","6","5","3","6","6","2","2","5","2","6","3","6","690528419074539520","王","189","Female","[""坏她"",""坏我"",""好她"",""好我""]","[""弱她"",""弱我"",""强她"",""强我""]","","","","","","","","","","","","","","","","","","","","","","","","","","","","","","feedback_test","","","","","","","","",""
"768","","f","psychophysics","126","392433","0.0-8.0-0.0-4.0-0.0-0.9","4","3","3","2","5","4","4","4","5","5","4","1","-1","1","1","1","1","1","0","5","5","5","5","4","4","4","3","4","4","6","4","7","7","3","6","7","8","6","2","6","6","7","6","6","6","2","6","5","1","5","2","3","6","1","6","5","2","6","6","2","5","2","4","3","6","5","6","6","5","3","6","6","2","2","5","2","6","3","6","690528419074539520","王","189","Female","[""坏她"",""坏我"",""好她"",""好我""]","[""弱她"",""弱我"",""强她"",""强我""]","","","","","","","","nonmatch","","","","","","","","","","key","f","16.66190476190476","640","356","f","true","nonmatch","img/trapezoid.png","好我","坏我","ALT2","moral","","","","","","","","",""
"null","<span style='color:GreenYellow; font-size: 70px;'>正确! </span>","null","html-keyboard-response","127","392935","0.0-8.0-0.0-4.0-0.0-1.9","4","3","3","2","5","4","4","4","5","5","4","1","-1","1","1","1","1","1","0","5","5","5","5","4","4","4","3","4","4","6","4","7","7","3","6","7","8","6","2","6","6","7","6","6","6","2","6","5","1","5","2","3","6","1","6","5","2","6","6","2","5","2","4","3","6","5","6","6","5","3","6","6","2","2","5","2","6","3","6","690528419074539520","王","189","Female","[""坏她"",""坏我"",""好她"",""好我""]","[""弱她"",""弱我"",""强她"",""强我""]","","","","","","","","","","","","","","","","","","","","","","","","","","","","","","feedback_test","","","","","","","","",""
"690","","j","psychophysics","128","394629","0.0-8.0-0.0-4.0-0.0-0.10","4","3","3","2","5","4","4","4","5","5","4","1","-1","1","1","1","1","1","0","5","5","5","5","4","4","4","3","4","4","6","4","7","7","3","6","7","8","6","2","6","6","7","6","6","6","2","6","5","1","5","2","3","6","1","6","5","2","6","6","2","5","2","4","3","6","5","6","6","5","3","6","6","2","2","5","2","6","3","6","690528419074539520","王","189","Female","[""坏她"",""坏我"",""好她"",""好我""]","[""弱她"",""弱我"",""强她"",""强我""]","","","","","","","","match","","","","","","","","","","key","j","16.667326732673498","640","356","j","true","match","img/diamond.png","坏她","坏她","ALT2","moral","","","","","","","","",""
"null","<span style='color:GreenYellow; font-size: 70px;'>正确! </span>","null","html-keyboard-response","129","395144","0.0-8.0-0.0-4.0-0.0-1.10","4","3","3","2","5","4","4","4","5","5","4","1","-1","1","1","1","1","1","0","5","5","5","5","4","4","4","3","4","4","6","4","7","7","3","6","7","8","6","2","6","6","7","6","6","6","2","6","5","1","5","2","3","6","1","6","5","2","6","6","2","5","2","4","3","6","5","6","6","5","3","6","6","2","2","5","2","6","3","6","690528419074539520","王","189","Female","[""坏她"",""坏我"",""好她"",""好我""]","[""弱她"",""弱我"",""强她"",""强我""]","","","","","","","","","","","","","","","","","","","","","","","","","","","","","","feedback_test","","","","","","","","",""
"874","","j","psychophysics","130","397021","0.0-8.0-0.0-4.0-0.0-0.11","4","3","3","2","5","4","4","4","5","5","4","1","-1","1","1","1","1","1","0","5","5","5","5","4","4","4","3","4","4","6","4","7","7","3","6","7","8","6","2","6","6","7","6","6","6","2","6","5","1","5","2","3","6","1","6","5","2","6","6","2","5","2","4","3","6","5","6","6","5","3","6","6","2","2","5","2","6","3","6","690528419074539520","王","189","Female","[""坏她"",""坏我"",""好她"",""好我""]","[""弱她"",""弱我"",""强她"",""强我""]","","","","","","","","match","","","","","","","","","","key","j","16.663063063062854","640","356","j","true","match","img/pentagon.png","好她","好她","ALT2","moral","","","","","","","","",""
"null","<span style='color:GreenYellow; font-size: 70px;'>正确! </span>","null","html-keyboard-response","131","397525","0.0-8.0-0.0-4.0-0.0-1.11","4","3","3","2","5","4","4","4","5","5","4","1","-1","1","1","1","1","1","0","5","5","5","5","4","4","4","3","4","4","6","4","7","7","3","6","7","8","6","2","6","6","7","6","6","6","2","6","5","1","5","2","3","6","1","6","5","2","6","6","2","5","2","4","3","6","5","6","6","5","3","6","6","2","2","5","2","6","3","6","690528419074539520","王","189","Female","[""坏她"",""坏我"",""好她"",""好我""]","[""弱她"",""弱我"",""强她"",""强我""]","","","","","","","","","","","","","","","","","","","","","","","","","","","","","","feedback_test","","","","","","","","",""
"712","","f","psychophysics","132","399241","0.0-8.0-0.0-4.0-0.0-0.12","4","3","3","2","5","4","4","4","5","5","4","1","-1","1","1","1","1","1","0","5","5","5","5","4","4","4","3","4","4","6","4","7","7","3","6","7","8","6","2","6","6","7","6","6","6","2","6","5","1","5","2","3","6","1","6","5","2","6","6","2","5","2","4","3","6","5","6","6","5","3","6","6","2","2","5","2","6","3","6","690528419074539520","王","189","Female","[""坏她"",""坏我"",""好她"",""好我""]","[""弱她"",""弱我"",""强她"",""强我""]","","","","","","","","nonmatch","","","","","","","","","","key","f","16.662745098039558","640","356","f","true","nonmatch","img/pentagon.png","好我","好她","ALT2","moral","","","","","","","","",""
"null","<span style='color:GreenYellow; font-size: 70px;'>正确! </span>","null","html-keyboard-response","133","399744","0.0-8.0-0.0-4.0-0.0-1.12","4","3","3","2","5","4","4","4","5","5","4","1","-1","1","1","1","1","1","0","5","5","5","5","4","4","4","3","4","4","6","4","7","7","3","6","7","8","6","2","6","6","7","6","6","6","2","6","5","1","5","2","3","6","1","6","5","2","6","6","2","5","2","4","3","6","5","6","6","5","3","6","6","2","2","5","2","6","3","6","690528419074539520","王","189","Female","[""坏她"",""坏我"",""好她"",""好我""]","[""弱她"",""弱我"",""强她"",""强我""]","","","","","","","","","","","","","","","","","","","","","","","","","","","","","","feedback_test","","","","","","","","",""
"648","","f","psychophysics","134","401393","0.0-8.0-0.0-4.0-0.0-0.13","4","3","3","2","5","4","4","4","5","5","4","1","-1","1","1","1","1","1","0","5","5","5","5","4","4","4","3","4","4","6","4","7","7","3","6","7","8","6","2","6","6","7","6","6","6","2","6","5","1","5","2","3","6","1","6","5","2","6","6","2","5","2","4","3","6","5","6","6","5","3","6","6","2","2","5","2","6","3","6","690528419074539520","王","189","Female","[""坏她"",""坏我"",""好她"",""好我""]","[""弱她"",""弱我"",""强她"",""强我""]","","","","","","","","nonmatch","","","","","","","","","","key","f","16.65918367346915","640","356","f","true","nonmatch","img/circle.png","好她","好我","ALT2","moral","","","","","","","","",""
"null","<span style='color:GreenYellow; font-size: 70px;'>正确! </span>","null","html-keyboard-response","135","401900","0.0-8.0-0.0-4.0-0.0-1.13","4","3","3","2","5","4","4","4","5","5","4","1","-1","1","1","1","1","1","0","5","5","5","5","4","4","4","3","4","4","6","4","7","7","3","6","7","8","6","2","6","6","7","6","6","6","2","6","5","1","5","2","3","6","1","6","5","2","6","6","2","5","2","4","3","6","5","6","6","5","3","6","6","2","2","5","2","6","3","6","690528419074539520","王","189","Female","[""坏她"",""坏我"",""好她"",""好我""]","[""弱她"",""弱我"",""强她"",""强我""]","","","","","","","","","","","","","","","","","","","","","","","","","","","","","","feedback_test","","","","","","","","",""
"826","","f","psychophysics","136","403730","0.0-8.0-0.0-4.0-0.0-0.14","4","3","3","2","5","4","4","4","5","5","4","1","-1","1","1","1","1","1","0","5","5","5","5","4","4","4","3","4","4","6","4","7","7","3","6","7","8","6","2","6","6","7","6","6","6","2","6","5","1","5","2","3","6","1","6","5","2","6","6","2","5","2","4","3","6","5","6","6","5","3","6","6","2","2","5","2","6","3","6","690528419074539520","王","189","Female","[""坏她"",""坏我"",""好她"",""好我""]","[""弱她"",""弱我"",""强她"",""强我""]","","","","","","","","nonmatch","","","","","","","","","","key","f","16.665137614678898","640","356","f","true","nonmatch","img/circle.png","坏我","好我","ALT2","moral","","","","","","","","",""
"null","<span style='color:GreenYellow; font-size: 70px;'>正确! </span>","null","html-keyboard-response","137","404231","0.0-8.0-0.0-4.0-0.0-1.14","4","3","3","2","5","4","4","4","5","5","4","1","-1","1","1","1","1","1","0","5","5","5","5","4","4","4","3","4","4","6","4","7","7","3","6","7","8","6","2","6","6","7","6","6","6","2","6","5","1","5","2","3","6","1","6","5","2","6","6","2","5","2","4","3","6","5","6","6","5","3","6","6","2","2","5","2","6","3","6","690528419074539520","王","189","Female","[""坏她"",""坏我"",""好她"",""好我""]","[""弱她"",""弱我"",""强她"",""强我""]","","","","","","","","","","","","","","","","","","","","","","","","","","","","","","feedback_test","","","","","","","","",""
"833","","f","psychophysics","138","406065","0.0-8.0-0.0-4.0-0.0-0.15","4","3","3","2","5","4","4","4","5","5","4","1","-1","1","1","1","1","1","0","5","5","5","5","4","4","4","3","4","4","6","4","7","7","3","6","7","8","6","2","6","6","7","6","6","6","2","6","5","1","5","2","3","6","1","6","5","2","6","6","2","5","2","4","3","6","5","6","6","5","3","6","6","2","2","5","2","6","3","6","690528419074539520","王","189","Female","[""坏她"",""坏我"",""好她"",""好我""]","[""弱她"",""弱我"",""强她"",""强我""]","","","","","","","","nonmatch","","","","","","","","","","key","f","16.665137614678898","640","356","f","true","nonmatch","img/diamond.png","坏我","坏她","ALT2","moral","","","","","","","","",""
