"rt","stimulus","response","trial_type","trial_index","time_elapsed","internal_node_id","swb_1","swb_2","swb_3","swb_4","swb_5","LOT_1","LOT_2","LOT_3","LOT_4","LOT_5","LOT_6","IPC_1","IPC_2","IPC_3","IPC_4","IPC_5","IPC_6","IPC_7","IPC_8","MorIden_1","MorIden_2","MorIden_3","MorIden_4","MorIden_5","MorIden_6","MorIden_7","MorIden_8","MorIden_9","MorIden_10","moralSeImag_1","moralSeImag_2","moralSeImag_3","moralSeImag_4","moralSeImag_5","moralSeImag_6","moralSeImag_7","moralSeImag_8","moralSeImag_9","sde_1","sde_2","sde_3","sde_4","sde_5","sde_6","sde_7","sde_8","sde_9","sde_10","trap2","sde_11","sde_12","sde_13","sde_14","sde_15","sde_16","sde_17","sde_18","sde_19","sde_20","IM_1","IM_2","IM_3","IM_4","IM_5","IM_6","IM_7","IM_8","IM_9","IM_10","IM_11","IM_12","IM_13","IM_14","IM_15","IM_16","IM_17","IM_18","IM_19","IM_20","subj_idx","friend_name","ParticipantID","Sex","Word","Word2","value","success","timeout","failed_images","failed_audio","failed_video","user_agent","responses","item_order","radio_event_ids","radio_event_times","key_event_times","mouse_event_times","straightlining","zigzagging","honeypot","task_id","screen_id","time_stamp","response_type","key_press","avg_frame_time","center_x","center_y","person","word","valence","domain","math","correct_response","correct","status","view_history","identity","duration","Image","condition","question_order","trap2_item"
"33603","
   <p><div style='color:white; font-size: 25px'>您好，欢迎参加本次实验。</div></p>
   <p><div style='color:white; font-size: 25px'>为充分保障您的权利，请确保您已经知晓并同意《参与实验同意书》以及《数据公开知情同意书》。</div></p>
   <p><div style='color:white; font-size: 25px'>如果您未见过上述内容，请咨询实验员。</div></p>
   <p style='color:white; font-size: 25px'>如果您选择继续实验，则表示您已经清楚两份知情同意书的内容并同意。</p>
   <p><div style = ""color: pink;font-size:30px;"">请确保您记得day0的实验编号，您将在本次实验输入该编号，若您忘记，请咨询实验员后作答。</div></p>
   <p><div style = ""color:lightblue;font-size:25px;"">请您尽可能认真地作答，我们将依据您在各问卷和按键任务中的作答质量发放报酬。</div></p>
   <p> <div style = ""color: green""><按空格键至下页></div> </p>
   "," ","html-keyboard-response","0","33605","0.0-0.0","5","5","5","3","5","4","2","5","3","4","5","0","0","-1","1","0","0","1","1","5","4","5","5","5","4","4","3","5","4","4","6","5","7","5","4","4","6","5","5","3","3","3","4","2","6","3","5","2","6","3","1","5","3","3","3","5","6","2","3","3","4","3","6","5","7","3","6","7","6","7","6","5","6","6","7","3","7","3","3","678265376743620608","王","533","Female","[""好我"",""坏她"",""好她"",""坏我""]","[""强我"",""弱她"",""强她"",""弱我""]","","","","","","","","","","","","","","","","","","","","","","","","","","","","","","","","","","","","","","",""
"","","","call-function","1","33607","0.0-1.0-0.0","5","5","5","3","5","4","2","5","3","4","5","0","0","-1","1","0","0","1","1","5","4","5","5","5","4","4","3","5","4","4","6","5","7","5","4","4","6","5","5","3","3","3","4","2","6","3","5","2","6","3","1","5","3","3","3","5","6","2","3","3","4","3","6","5","7","3","6","7","6","7","6","5","6","6","7","3","7","3","3","678265376743620608","王","533","Female","[""好我"",""坏她"",""好她"",""坏我""]","[""强我"",""弱她"",""强她"",""弱我""]","","","","","","","","","","","","","","","","","","","","","","","","","","","","","","","","","","","","","","",""
"35805","","[{""name"":""Sex"",""value"":""1""},{""name"":""friend_name"",""value"":""王""},{""name"":""ParticipantID"",""value"":""533""}]","survey-html-form","2","69414","0.0-1.0-1.0","5","5","5","3","5","4","2","5","3","4","5","0","0","-1","1","0","0","1","1","5","4","5","5","5","4","4","3","5","4","4","6","5","7","5","4","4","6","5","5","3","3","3","4","2","6","3","5","2","6","3","1","5","3","3","3","5","6","2","3","3","4","3","6","5","7","3","6","7","6","7","6","5","6","6","7","3","7","3","3","678265376743620608","王","533","Female","[""好我"",""坏她"",""好她"",""坏我""]","[""强我"",""弱她"",""强她"",""弱我""]","","","","","","","","","","","","","","","","","","","","","","","","","","","","","","","","","","","","","","",""
"","","","preload","3","69761","0.0-2.0","5","5","5","3","5","4","2","5","3","4","5","0","0","-1","1","0","0","1","1","5","4","5","5","5","4","4","3","5","4","4","6","5","7","5","4","4","6","5","5","3","3","3","4","2","6","3","5","2","6","3","1","5","3","3","3","5","6","2","3","3","4","3","6","5","7","3","6","7","6","7","6","5","6","6","7","3","7","3","3","678265376743620608","王","533","Female","[""好我"",""坏她"",""好她"",""坏我""]","[""强我"",""弱她"",""强她"",""弱我""]","","true","false","[]","[]","[]","","","","","","","","","","","","","","","","","","","","","","","","","","","","","","","","",""
"","","","fullscreen","4","81307","0.0-3.0","5","5","5","3","5","4","2","5","3","4","5","0","0","-1","1","0","0","1","1","5","4","5","5","5","4","4","3","5","4","4","6","5","7","5","4","4","6","5","5","3","3","3","4","2","6","3","5","2","6","3","1","5","3","3","3","5","6","2","3","3","4","3","6","5","7","3","6","7","6","7","6","5","6","6","7","3","7","3","3","678265376743620608","王","533","Female","[""好我"",""坏她"",""好她"",""坏我""]","[""强我"",""弱她"",""强她"",""弱我""]","","true","","","","","{}","","","","","","","","","","","","","","","","","","","","","","","","","","","","","","","",""
"43018.799999952316","","{""Q01"":""5"",""Q02"":""5"",""Q03"":""5"",""Q04"":""3"",""Q05"":""5""}","survey-template","5","124329","0.0-4.0","5","5","5","3","5","4","2","5","3","4","5","0","0","-1","1","0","0","1","1","5","4","5","5","5","4","4","3","5","4","4","6","5","7","5","4","4","6","5","5","3","3","3","4","2","6","3","5","2","6","3","1","5","3","3","3","5","6","2","3","3","4","3","6","5","7","3","6","7","6","7","6","5","6","6","7","3","7","3","3","678265376743620608","王","533","Female","[""好我"",""坏她"",""好她"",""坏我""]","[""强我"",""弱她"",""强她"",""弱我""]","","","","","","","","{""Q01"":""5"",""Q02"":""5"",""Q03"":""5"",""Q04"":""3"",""Q05"":""5""}","[0,1,2,3,4]","[""Q01"",""Q02"",""Q03"",""Q04"",""Q05""]","[10010,14920.799999952316,20777.5,32593.799999952316,40448.799999952316]","[]","[9217.299999952316,10010,14920.799999952316,20777.5,32593.799999952316,40448.799999952316,43016.799999952316]","0.8","0","0","","","","","","","","","","","","","","","","","","","","","","",""
"44903.40000009537","","{""Q01"":""4"",""Q02"":""2"",""Q03"":""5"",""Q04"":""3"",""Q05"":""4"",""Q06"":""5""}","survey-template","6","169240","0.0-5.0","5","5","5","3","5","4","2","5","3","4","5","0","0","-1","1","0","0","1","1","5","4","5","5","5","4","4","3","5","4","4","6","5","7","5","4","4","6","5","5","3","3","3","4","2","6","3","5","2","6","3","1","5","3","3","3","5","6","2","3","3","4","3","6","5","7","3","6","7","6","7","6","5","6","6","7","3","7","3","3","678265376743620608","王","533","Female","[""好我"",""坏她"",""好她"",""坏我""]","[""强我"",""弱她"",""强她"",""弱我""]","","","","","","","","{""Q01"":""4"",""Q02"":""2"",""Q03"":""5"",""Q04"":""3"",""Q05"":""4"",""Q06"":""5""}","[0,1,2,3,4,5]","[""Q01"",""Q02"",""Q03"",""Q04"",""Q05"",""Q06""]","[9358.200000047684,17470.100000023842,21085.700000047684,29981.100000023842,38109.200000047684,44262.60000002384]","[]","[9358.200000047684,17470.100000023842,21085.700000047684,29981.100000023842,38109.200000047684,44262.60000002384,44902]","0.3333333333333333","0.4","0","","","","","","","","","","","","","","","","","","","","","","",""
"51657.299999952316","","{""Q01"":""0"",""Q02"":""0"",""Q03"":""-1"",""Q04"":""1"",""Q05"":""0"",""Q06"":""0"",""Q07"":""1"",""Q08"":""1""}","survey-template","7","220905","0.0-6.0","5","5","5","3","5","4","2","5","3","4","5","0","0","-1","1","0","0","1","1","5","4","5","5","5","4","4","3","5","4","4","6","5","7","5","4","4","6","5","5","3","3","3","4","2","6","3","5","2","6","3","1","5","3","3","3","5","6","2","3","3","4","3","6","5","7","3","6","7","6","7","6","5","6","6","7","3","7","3","3","678265376743620608","王","533","Female","[""好我"",""坏她"",""好她"",""坏我""]","[""强我"",""弱她"",""强她"",""弱我""]","","","","","","","","{""Q01"":""0"",""Q02"":""0"",""Q03"":""-1"",""Q04"":""1"",""Q05"":""0"",""Q06"":""0"",""Q07"":""1"",""Q08"":""1""}","[0,1,2,3,4,5,6,7]","[""Q01"",""Q02"",""Q03"",""Q04"",""Q05"",""Q06"",""Q07"",""Q08""]","[9239.200000047684,15455.100000023842,19830.899999976158,27342.799999952316,32239.100000023842,40998.60000002384,47239.200000047684,50974.700000047684]","[]","[9239.200000047684,15455.100000023842,19830.899999976158,26502.899999976158,27342.799999952316,32239.100000023842,40998.60000002384,47239.200000047684,50974.700000047684,51655.10000002384]","0.5","0.42857142857142855","0","","","","","","","","","","","","","","","","","","","","","","",""
"23680","
    <p><div style='color:white;font-size:35px; line-height:20px;'>词汇评估任务</div></p><br>
    <p><div style='color:white;font-size:25px; line-height:20px;'>请再次回忆该亲密的朋友，你们至少2年前就认识了，并且最近2年经常见面。</div></p>
    <p><div style='color:white;font-size:25px; line-height:20px;'>在本实验中，您将会看到一些形容词。</div></p>
    <p><div style='color:yellow;font-size:25px; line-height:20px;'>您的任务是判断这些形容词是否符合对您自己或您的朋友的描述。</div></p><p style='font-size:35px'>符合按<span style=""color:lightgreen""> j 键</span>，不符合按<span style=""color:red""> f 键</span></p>","0","html-button-response","8","244590","0.0-7.0-0.0","5","5","5","3","5","4","2","5","3","4","5","0","0","-1","1","0","0","1","1","5","4","5","5","5","4","4","3","5","4","4","6","5","7","5","4","4","6","5","5","3","3","3","4","2","6","3","5","2","6","3","1","5","3","3","3","5","6","2","3","3","4","3","6","5","7","3","6","7","6","7","6","5","6","6","7","3","7","3","3","678265376743620608","王","533","Female","[""好我"",""坏她"",""好她"",""坏我""]","[""强我"",""弱她"",""强她"",""弱我""]","","","","","","","","","","","","","","","","","SRET_EW","EW_instructions","Wed Jan 17 2024 15:14:52 GMT+0800 (中国标准时间)","","","","","","","","","","","","","","","","","","","",""
"1797","","j","psychophysics","9","247396","0.0-7.0-1.0-0.0","5","5","5","3","5","4","2","5","3","4","5","0","0","-1","1","0","0","1","1","5","4","5","5","5","4","4","3","5","4","4","6","5","7","5","4","4","6","5","5","3","3","3","4","2","6","3","5","2","6","3","1","5","3","3","3","5","6","2","3","3","4","3","6","5","7","3","6","7","6","7","6","5","6","6","7","3","7","3","3","678265376743620608","王","533","Female","[""好我"",""坏她"",""好她"",""坏我""]","[""强我"",""弱她"",""强她"",""弱我""]","","","","","","","","yes","","","","","","","","","SRET_EW","EW_practice","","key","j","16.65595238095228","581.2120876189673","322.7272540741398","自己","刻板","Negative","ability","","","","","","","","","","",""
"1934","","j","psychophysics","10","250334","0.0-7.0-1.0-0.1","5","5","5","3","5","4","2","5","3","4","5","0","0","-1","1","0","0","1","1","5","4","5","5","5","4","4","3","5","4","4","6","5","7","5","4","4","6","5","5","3","3","3","4","2","6","3","5","2","6","3","1","5","3","3","3","5","6","2","3","3","4","3","6","5","7","3","6","7","6","7","6","5","6","6","7","3","7","3","3","678265376743620608","王","533","Female","[""好我"",""坏她"",""好她"",""坏我""]","[""强我"",""弱她"",""强她"",""弱我""]","","","","","","","","yes","","","","","","","","","SRET_EW","EW_practice","","key","j","16.657714285714153","581.2120876189673","322.7272540741398","朋友","徇私","Negative","morality","","","","","","","","","","",""
"794","","j","psychophysics","11","252132","0.0-7.0-1.0-0.2","5","5","5","3","5","4","2","5","3","4","5","0","0","-1","1","0","0","1","1","5","4","5","5","5","4","4","3","5","4","4","6","5","7","5","4","4","6","5","5","3","3","3","4","2","6","3","5","2","6","3","1","5","3","3","3","5","6","2","3","3","4","3","6","5","7","3","6","7","6","7","6","5","6","6","7","3","7","3","3","678265376743620608","王","533","Female","[""好我"",""坏她"",""好她"",""坏我""]","[""强我"",""弱她"",""强她"",""弱我""]","","","","","","","","yes","","","","","","","","","SRET_EW","EW_practice","","key","j","16.630841121495326","581.2120876189673","322.7272540741398","朋友","忠实","Positive","morality","","","","","","","","","","",""
"795","","j","psychophysics","12","253929","0.0-7.0-1.0-0.3","5","5","5","3","5","4","2","5","3","4","5","0","0","-1","1","0","0","1","1","5","4","5","5","5","4","4","3","5","4","4","6","5","7","5","4","4","6","5","5","3","3","3","4","2","6","3","5","2","6","3","1","5","3","3","3","5","6","2","3","3","4","3","6","5","7","3","6","7","6","7","6","5","6","6","7","3","7","3","3","678265376743620608","王","533","Female","[""好我"",""坏她"",""好她"",""坏我""]","[""强我"",""弱她"",""强她"",""弱我""]","","","","","","","","yes","","","","","","","","","SRET_EW","EW_practice","","key","j","16.66074766355151","581.2120876189673","322.7272540741398","自己","严谨","Positive","ability","","","","","","","","","","",""
"10635","
    <p><div style='color:white;font-size:35px; line-height:20px;'>请您再次阅读实验要求</div></p><br>
    <p><div style='color:white;font-size:25px; line-height:20px;'>请回忆某一个亲密的朋友，你们至少2年前就认识了，并且最近2年经常见面。</div></p>
    <p><div style='color:white;font-size:25px; line-height:20px;'>在本实验中，您将会看到一些形容词。</div></p>
    <p><div style='color:yellow;font-size:25px; line-height:20px;'>您的任务是判断这些形容词是否符合对您自己或您的朋友的描述。</div></p>
    <p><div class='footer' style='font-size:25px; line-height:20px;'>如果对本实验还有不清楚之处，请立即向实验员咨询。</p><p style='font-size:25px; line-height:20px;'>如果您明白了规则：</p><p style='font-size:22px; line-height:20px;'>请按 继续 进入正式实验</p>
    </div>
    <p style='font-size:35px'>符合按<span style=""color:lightgreen""> j 键</span>，不符合按<span style=""color:red""> f 键</span></p>","0","html-button-response","13","264566","0.0-7.0-2.0","5","5","5","3","5","4","2","5","3","4","5","0","0","-1","1","0","0","1","1","5","4","5","5","5","4","4","3","5","4","4","6","5","7","5","4","4","6","5","5","3","3","3","4","2","6","3","5","2","6","3","1","5","3","3","3","5","6","2","3","3","4","3","6","5","7","3","6","7","6","7","6","5","6","6","7","3","7","3","3","678265376743620608","王","533","Female","[""好我"",""坏她"",""好她"",""坏我""]","[""强我"",""弱她"",""强她"",""弱我""]","","","","","","","","","","","","","","","","","SRET_EW","prac_instructions","Wed Jan 17 2024 15:14:52 GMT+0800 (中国标准时间)","","","","","","","","","","","","","","","","","","","",""
"896","","f","psychophysics","14","266465","0.0-7.0-3.0-0.0","5","5","5","3","5","4","2","5","3","4","5","0","0","-1","1","0","0","1","1","5","4","5","5","5","4","4","3","5","4","4","6","5","7","5","4","4","6","5","5","3","3","3","4","2","6","3","5","2","6","3","1","5","3","3","3","5","6","2","3","3","4","3","6","5","7","3","6","7","6","7","6","5","6","6","7","3","7","3","3","678265376743620608","王","533","Female","[""好我"",""坏她"",""好她"",""坏我""]","[""强我"",""弱她"",""强她"",""弱我""]","","","","","","","","no","","","","","","","","","SRET","EW_formal","","key","f","16.657522123893703","581.2120876189673","322.7272540741398","自己","说谎","Negative","morality","","","","","","","","","","",""
"864","","j","psychophysics","15","268333","0.0-7.0-3.0-0.1","5","5","5","3","5","4","2","5","3","4","5","0","0","-1","1","0","0","1","1","5","4","5","5","5","4","4","3","5","4","4","6","5","7","5","4","4","6","5","5","3","3","3","4","2","6","3","5","2","6","3","1","5","3","3","3","5","6","2","3","3","4","3","6","5","7","3","6","7","6","7","6","5","6","6","7","3","7","3","3","678265376743620608","王","533","Female","[""好我"",""坏她"",""好她"",""坏我""]","[""强我"",""弱她"",""强她"",""弱我""]","","","","","","","","yes","","","","","","","","","SRET","EW_formal","","key","j","16.662500000000104","581.2120876189673","322.7272540741398","朋友","务实","Positive","ability","","","","","","","","","","",""
"839","","j","psychophysics","16","270177","0.0-7.0-3.0-0.2","5","5","5","3","5","4","2","5","3","4","5","0","0","-1","1","0","0","1","1","5","4","5","5","5","4","4","3","5","4","4","6","5","7","5","4","4","6","5","5","3","3","3","4","2","6","3","5","2","6","3","1","5","3","3","3","5","6","2","3","3","4","3","6","5","7","3","6","7","6","7","6","5","6","6","7","3","7","3","3","678265376743620608","王","533","Female","[""好我"",""坏她"",""好她"",""坏我""]","[""强我"",""弱她"",""强她"",""弱我""]","","","","","","","","yes","","","","","","","","","SRET","EW_formal","","key","j","16.660550458715598","581.2120876189673","322.7272540741398","自己","坚贞","Positive","morality","","","","","","","","","","",""
"1198","","j","psychophysics","17","272378","0.0-7.0-3.0-0.3","5","5","5","3","5","4","2","5","3","4","5","0","0","-1","1","0","0","1","1","5","4","5","5","5","4","4","3","5","4","4","6","5","7","5","4","4","6","5","5","3","3","3","4","2","6","3","5","2","6","3","1","5","3","3","3","5","6","2","3","3","4","3","6","5","7","3","6","7","6","7","6","5","6","6","7","3","7","3","3","678265376743620608","王","533","Female","[""好我"",""坏她"",""好她"",""坏我""]","[""强我"",""弱她"",""强她"",""弱我""]","","","","","","","","yes","","","","","","","","","SRET","EW_formal","","key","j","16.663358778626133","581.2120876189673","322.7272540741398","朋友","迷糊","Negative","ability","","","","","","","","","","",""
"952","","f","psychophysics","18","274332","0.0-7.0-3.0-0.4","5","5","5","3","5","4","2","5","3","4","5","0","0","-1","1","0","0","1","1","5","4","5","5","5","4","4","3","5","4","4","6","5","7","5","4","4","6","5","5","3","3","3","4","2","6","3","5","2","6","3","1","5","3","3","3","5","6","2","3","3","4","3","6","5","7","3","6","7","6","7","6","5","6","6","7","3","7","3","3","678265376743620608","王","533","Female","[""好我"",""坏她"",""好她"",""坏我""]","[""强我"",""弱她"",""强她"",""弱我""]","","","","","","","","no","","","","","","","","","SRET","EW_formal","","key","f","16.65982905982916","581.2120876189673","322.7272540741398","朋友","无能","Negative","ability","","","","","","","","","","",""
"925","","f","psychophysics","19","276259","0.0-7.0-3.0-0.5","5","5","5","3","5","4","2","5","3","4","5","0","0","-1","1","0","0","1","1","5","4","5","5","5","4","4","3","5","4","4","6","5","7","5","4","4","6","5","5","3","3","3","4","2","6","3","5","2","6","3","1","5","3","3","3","5","6","2","3","3","4","3","6","5","7","3","6","7","6","7","6","5","6","6","7","3","7","3","3","678265376743620608","王","533","Female","[""好我"",""坏她"",""好她"",""坏我""]","[""强我"",""弱她"",""强她"",""弱我""]","","","","","","","","no","","","","","","","","","SRET","EW_formal","","key","f","16.657017543859855","581.2120876189673","322.7272540741398","朋友","利己","Negative","morality","","","","","","","","","","",""
"963","","j","psychophysics","20","278225","0.0-7.0-3.0-0.6","5","5","5","3","5","4","2","5","3","4","5","0","0","-1","1","0","0","1","1","5","4","5","5","5","4","4","3","5","4","4","6","5","7","5","4","4","6","5","5","3","3","3","4","2","6","3","5","2","6","3","1","5","3","3","3","5","6","2","3","3","4","3","6","5","7","3","6","7","6","7","6","5","6","6","7","3","7","3","3","678265376743620608","王","533","Female","[""好我"",""坏她"",""好她"",""坏我""]","[""强我"",""弱她"",""强她"",""弱我""]","","","","","","","","yes","","","","","","","","","SRET","EW_formal","","key","j","16.658974358974657","581.2120876189673","322.7272540741398","朋友","高效","Positive","ability","","","","","","","","","","",""
"930","","f","psychophysics","21","280157","0.0-7.0-3.0-0.7","5","5","5","3","5","4","2","5","3","4","5","0","0","-1","1","0","0","1","1","5","4","5","5","5","4","4","3","5","4","4","6","5","7","5","4","4","6","5","5","3","3","3","4","2","6","3","5","2","6","3","1","5","3","3","3","5","6","2","3","3","4","3","6","5","7","3","6","7","6","7","6","5","6","6","7","3","7","3","3","678265376743620608","王","533","Female","[""好我"",""坏她"",""好她"",""坏我""]","[""强我"",""弱她"",""强她"",""弱我""]","","","","","","","","no","","","","","","","","","SRET","EW_formal","","key","f","16.659130434782508","581.2120876189673","322.7272540741398","朋友","失信","Negative","morality","","","","","","","","","","",""
"1121","","f","psychophysics","22","282280","0.0-7.0-3.0-0.8","5","5","5","3","5","4","2","5","3","4","5","0","0","-1","1","0","0","1","1","5","4","5","5","5","4","4","3","5","4","4","6","5","7","5","4","4","6","5","5","3","3","3","4","2","6","3","5","2","6","3","1","5","3","3","3","5","6","2","3","3","4","3","6","5","7","3","6","7","6","7","6","5","6","6","7","3","7","3","3","678265376743620608","王","533","Female","[""好我"",""坏她"",""好她"",""坏我""]","[""强我"",""弱她"",""强她"",""弱我""]","","","","","","","","no","","","","","","","","","SRET","EW_formal","","key","f","16.66377952755896","581.2120876189673","322.7272540741398","自己","笨蛋","Negative","ability","","","","","","","","","","",""
"754","","f","psychophysics","23","284037","0.0-7.0-3.0-0.9","5","5","5","3","5","4","2","5","3","4","5","0","0","-1","1","0","0","1","1","5","4","5","5","5","4","4","3","5","4","4","6","5","7","5","4","4","6","5","5","3","3","3","4","2","6","3","5","2","6","3","1","5","3","3","3","5","6","2","3","3","4","3","6","5","7","3","6","7","6","7","6","5","6","6","7","3","7","3","3","678265376743620608","王","533","Female","[""好我"",""坏她"",""好她"",""坏我""]","[""强我"",""弱她"",""强她"",""弱我""]","","","","","","","","no","","","","","","","","","SRET","EW_formal","","key","f","16.62115384615362","581.2120876189673","322.7272540741398","自己","不孝","Negative","morality","","","","","","","","","","",""
"825","","j","psychophysics","24","285865","0.0-7.0-3.0-0.10","5","5","5","3","5","4","2","5","3","4","5","0","0","-1","1","0","0","1","1","5","4","5","5","5","4","4","3","5","4","4","6","5","7","5","4","4","6","5","5","3","3","3","4","2","6","3","5","2","6","3","1","5","3","3","3","5","6","2","3","3","4","3","6","5","7","3","6","7","6","7","6","5","6","6","7","3","7","3","3","678265376743620608","王","533","Female","[""好我"",""坏她"",""好她"",""坏我""]","[""强我"",""弱她"",""强她"",""弱我""]","","","","","","","","yes","","","","","","","","","SRET","EW_formal","","key","j","16.665137614678898","581.2120876189673","322.7272540741398","自己","刚正","Positive","morality","","","","","","","","","","",""
"784","","j","psychophysics","25","287651","0.0-7.0-3.0-0.11","5","5","5","3","5","4","2","5","3","4","5","0","0","-1","1","0","0","1","1","5","4","5","5","5","4","4","3","5","4","4","6","5","7","5","4","4","6","5","5","3","3","3","4","2","6","3","5","2","6","3","1","5","3","3","3","5","6","2","3","3","4","3","6","5","7","3","6","7","6","7","6","5","6","6","7","3","7","3","3","678265376743620608","王","533","Female","[""好我"",""坏她"",""好她"",""坏我""]","[""强我"",""弱她"",""强她"",""弱我""]","","","","","","","","yes","","","","","","","","","SRET","EW_formal","","key","j","16.6632075471697","581.2120876189673","322.7272540741398","自己","刻苦","Positive","ability","","","","","","","","","","",""
"744","","f","psychophysics","26","289398","0.0-7.0-3.0-0.12","5","5","5","3","5","4","2","5","3","4","5","0","0","-1","1","0","0","1","1","5","4","5","5","5","4","4","3","5","4","4","6","5","7","5","4","4","6","5","5","3","3","3","4","2","6","3","5","2","6","3","1","5","3","3","3","5","6","2","3","3","4","3","6","5","7","3","6","7","6","7","6","5","6","6","7","3","7","3","3","678265376743620608","王","533","Female","[""好我"",""坏她"",""好她"",""坏我""]","[""强我"",""弱她"",""强她"",""弱我""]","","","","","","","","no","","","","","","","","","SRET","EW_formal","","key","f","16.66153846153891","581.2120876189673","322.7272540741398","朋友","窝囊","Negative","ability","","","","","","","","","","",""
"927","","f","psychophysics","27","291328","0.0-7.0-3.0-0.13","5","5","5","3","5","4","2","5","3","4","5","0","0","-1","1","0","0","1","1","5","4","5","5","5","4","4","3","5","4","4","6","5","7","5","4","4","6","5","5","3","3","3","4","2","6","3","5","2","6","3","1","5","3","3","3","5","6","2","3","3","4","3","6","5","7","3","6","7","6","7","6","5","6","6","7","3","7","3","3","678265376743620608","王","533","Female","[""好我"",""坏她"",""好她"",""坏我""]","[""强我"",""弱她"",""强她"",""弱我""]","","","","","","","","no","","","","","","","","","SRET","EW_formal","","key","f","16.66173913043458","581.2120876189673","322.7272540741398","朋友","怠惰","Negative","ability","","","","","","","","","","",""
"644","","j","psychophysics","28","292975","0.0-7.0-3.0-0.14","5","5","5","3","5","4","2","5","3","4","5","0","0","-1","1","0","0","1","1","5","4","5","5","5","4","4","3","5","4","4","6","5","7","5","4","4","6","5","5","3","3","3","4","2","6","3","5","2","6","3","1","5","3","3","3","5","6","2","3","3","4","3","6","5","7","3","6","7","6","7","6","5","6","6","7","3","7","3","3","678265376743620608","王","533","Female","[""好我"",""坏她"",""好她"",""坏我""]","[""强我"",""弱她"",""强她"",""弱我""]","","","","","","","","yes","","","","","","","","","SRET","EW_formal","","key","j","16.663265306122447","581.2120876189673","322.7272540741398","自己","正气","Positive","morality","","","","","","","","","","",""
"814","","f","psychophysics","29","294792","0.0-7.0-3.0-0.15","5","5","5","3","5","4","2","5","3","4","5","0","0","-1","1","0","0","1","1","5","4","5","5","5","4","4","3","5","4","4","6","5","7","5","4","4","6","5","5","3","3","3","4","2","6","3","5","2","6","3","1","5","3","3","3","5","6","2","3","3","4","3","6","5","7","3","6","7","6","7","6","5","6","6","7","3","7","3","3","678265376743620608","王","533","Female","[""好我"",""坏她"",""好她"",""坏我""]","[""强我"",""弱她"",""强她"",""弱我""]","","","","","","","","no","","","","","","","","","SRET","EW_formal","","key","f","16.662962962962748","581.2120876189673","322.7272540741398","自己","蛇蝎","Negative","morality","","","","","","","","","","",""
"871","","f","psychophysics","30","296666","0.0-7.0-3.0-0.16","5","5","5","3","5","4","2","5","3","4","5","0","0","-1","1","0","0","1","1","5","4","5","5","5","4","4","3","5","4","4","6","5","7","5","4","4","6","5","5","3","3","3","4","2","6","3","5","2","6","3","1","5","3","3","3","5","6","2","3","3","4","3","6","5","7","3","6","7","6","7","6","5","6","6","7","3","7","3","3","678265376743620608","王","533","Female","[""好我"",""坏她"",""好她"",""坏我""]","[""强我"",""弱她"",""强她"",""弱我""]","","","","","","","","no","","","","","","","","","SRET","EW_formal","","key","f","16.66396396396407","581.2120876189673","322.7272540741398","自己","昏庸","Negative","ability","","","","","","","","","","",""
"695","","j","psychophysics","31","298364","0.0-7.0-3.0-0.17","5","5","5","3","5","4","2","5","3","4","5","0","0","-1","1","0","0","1","1","5","4","5","5","5","4","4","3","5","4","4","6","5","7","5","4","4","6","5","5","3","3","3","4","2","6","3","5","2","6","3","1","5","3","3","3","5","6","2","3","3","4","3","6","5","7","3","6","7","6","7","6","5","6","6","7","3","7","3","3","678265376743620608","王","533","Female","[""好我"",""坏她"",""好她"",""坏我""]","[""强我"",""弱她"",""强她"",""弱我""]","","","","","","","","yes","","","","","","","","","SRET","EW_formal","","key","j","16.662376237623416","581.2120876189673","322.7272540741398","自己","独立","Positive","ability","","","","","","","","","","",""
"655","","j","psychophysics","32","300022","0.0-7.0-3.0-0.18","5","5","5","3","5","4","2","5","3","4","5","0","0","-1","1","0","0","1","1","5","4","5","5","5","4","4","3","5","4","4","6","5","7","5","4","4","6","5","5","3","3","3","4","2","6","3","5","2","6","3","1","5","3","3","3","5","6","2","3","3","4","3","6","5","7","3","6","7","6","7","6","5","6","6","7","3","7","3","3","678265376743620608","王","533","Female","[""好我"",""坏她"",""好她"",""坏我""]","[""强我"",""弱她"",""强她"",""弱我""]","","","","","","","","yes","","","","","","","","","SRET","EW_formal","","key","j","16.66060606060571","581.2120876189673","322.7272540741398","朋友","毅力","Positive","ability","","","","","","","","","","",""
"777","","f","psychophysics","33","301803","0.0-7.0-3.0-0.19","5","5","5","3","5","4","2","5","3","4","5","0","0","-1","1","0","0","1","1","5","4","5","5","5","4","4","3","5","4","4","6","5","7","5","4","4","6","5","5","3","3","3","4","2","6","3","5","2","6","3","1","5","3","3","3","5","6","2","3","3","4","3","6","5","7","3","6","7","6","7","6","5","6","6","7","3","7","3","3","678265376743620608","王","533","Female","[""好我"",""坏她"",""好她"",""坏我""]","[""强我"",""弱她"",""强她"",""弱我""]","","","","","","","","no","","","","","","","","","SRET","EW_formal","","key","f","16.6632075471697","581.2120876189673","322.7272540741398","朋友","拖拉","Negative","ability","","","","","","","","","","",""
"842","","f","psychophysics","34","303649","0.0-7.0-3.0-0.20","5","5","5","3","5","4","2","5","3","4","5","0","0","-1","1","0","0","1","1","5","4","5","5","5","4","4","3","5","4","4","6","5","7","5","4","4","6","5","5","3","3","3","4","2","6","3","5","2","6","3","1","5","3","3","3","5","6","2","3","3","4","3","6","5","7","3","6","7","6","7","6","5","6","6","7","3","7","3","3","678265376743620608","王","533","Female","[""好我"",""坏她"",""好她"",""坏我""]","[""强我"",""弱她"",""强她"",""弱我""]","","","","","","","","no","","","","","","","","","SRET","EW_formal","","key","f","16.609174311926818","581.2120876189673","322.7272540741398","自己","愚蠢","Negative","ability","","","","","","","","","","",""
"891","","f","psychophysics","35","305544","0.0-7.0-3.0-0.21","5","5","5","3","5","4","2","5","3","4","5","0","0","-1","1","0","0","1","1","5","4","5","5","5","4","4","3","5","4","4","6","5","7","5","4","4","6","5","5","3","3","3","4","2","6","3","5","2","6","3","1","5","3","3","3","5","6","2","3","3","4","3","6","5","7","3","6","7","6","7","6","5","6","6","7","3","7","3","3","678265376743620608","王","533","Female","[""好我"",""坏她"",""好她"",""坏我""]","[""强我"",""弱她"",""强她"",""弱我""]","","","","","","","","no","","","","","","","","","SRET","EW_formal","","key","f","16.661946902654766","581.2120876189673","322.7272540741398","朋友","驽钝","Negative","ability","","","","","","","","","","",""
"757","","j","psychophysics","36","307303","0.0-7.0-3.0-0.22","5","5","5","3","5","4","2","5","3","4","5","0","0","-1","1","0","0","1","1","5","4","5","5","5","4","4","3","5","4","4","6","5","7","5","4","4","6","5","5","3","3","3","4","2","6","3","5","2","6","3","1","5","3","3","3","5","6","2","3","3","4","3","6","5","7","3","6","7","6","7","6","5","6","6","7","3","7","3","3","678265376743620608","王","533","Female","[""好我"",""坏她"",""好她"",""坏我""]","[""强我"",""弱她"",""强她"",""弱我""]","","","","","","","","yes","","","","","","","","","SRET","EW_formal","","key","j","16.65999999999989","581.2120876189673","322.7272540741398","自己","热心","Positive","morality","","","","","","","","","","",""
"668","","f","psychophysics","37","308974","0.0-7.0-3.0-0.23","5","5","5","3","5","4","2","5","3","4","5","0","0","-1","1","0","0","1","1","5","4","5","5","5","4","4","3","5","4","4","6","5","7","5","4","4","6","5","5","3","3","3","4","2","6","3","5","2","6","3","1","5","3","3","3","5","6","2","3","3","4","3","6","5","7","3","6","7","6","7","6","5","6","6","7","3","7","3","3","678265376743620608","王","533","Female","[""好我"",""坏她"",""好她"",""坏我""]","[""强我"",""弱她"",""强她"",""弱我""]","","","","","","","","no","","","","","","","","","SRET","EW_formal","","key","f","16.66363636363648","581.2120876189673","322.7272540741398","自己","不良","Negative","morality","","","","","","","","","","",""
"1151","","j","psychophysics","38","311128","0.0-7.0-3.0-0.24","5","5","5","3","5","4","2","5","3","4","5","0","0","-1","1","0","0","1","1","5","4","5","5","5","4","4","3","5","4","4","6","5","7","5","4","4","6","5","5","3","3","3","4","2","6","3","5","2","6","3","1","5","3","3","3","5","6","2","3","3","4","3","6","5","7","3","6","7","6","7","6","5","6","6","7","3","7","3","3","678265376743620608","王","533","Female","[""好我"",""坏她"",""好她"",""坏我""]","[""强我"",""弱她"",""强她"",""弱我""]","","","","","","","","yes","","","","","","","","","SRET","EW_formal","","key","j","16.66249999999991","581.2120876189673","322.7272540741398","朋友","畏难","Negative","ability","","","","","","","","","","",""
"1011","","f","psychophysics","39","313141","0.0-7.0-3.0-0.25","5","5","5","3","5","4","2","5","3","4","5","0","0","-1","1","0","0","1","1","5","4","5","5","5","4","4","3","5","4","4","6","5","7","5","4","4","6","5","5","3","3","3","4","2","6","3","5","2","6","3","1","5","3","3","3","5","6","2","3","3","4","3","6","5","7","3","6","7","6","7","6","5","6","6","7","3","7","3","3","678265376743620608","王","533","Female","[""好我"",""坏她"",""好她"",""坏我""]","[""强我"",""弱她"",""强她"",""弱我""]","","","","","","","","no","","","","","","","","","SRET","EW_formal","","key","f","16.660000000000096","581.2120876189673","322.7272540741398","朋友","伪善","Negative","morality","","","","","","","","","","",""
"842","","j","psychophysics","40","314986","0.0-7.0-3.0-0.26","5","5","5","3","5","4","2","5","3","4","5","0","0","-1","1","0","0","1","1","5","4","5","5","5","4","4","3","5","4","4","6","5","7","5","4","4","6","5","5","3","3","3","4","2","6","3","5","2","6","3","1","5","3","3","3","5","6","2","3","3","4","3","6","5","7","3","6","7","6","7","6","5","6","6","7","3","7","3","3","678265376743620608","王","533","Female","[""好我"",""坏她"",""好她"",""坏我""]","[""强我"",""弱她"",""强她"",""弱我""]","","","","","","","","yes","","","","","","","","","SRET","EW_formal","","key","j","16.661818181818077","581.2120876189673","322.7272540741398","朋友","奉献","Positive","morality","","","","","","","","","","",""
"648","","f","psychophysics","41","316637","0.0-7.0-3.0-0.27","5","5","5","3","5","4","2","5","3","4","5","0","0","-1","1","0","0","1","1","5","4","5","5","5","4","4","3","5","4","4","6","5","7","5","4","4","6","5","5","3","3","3","4","2","6","3","5","2","6","3","1","5","3","3","3","5","6","2","3","3","4","3","6","5","7","3","6","7","6","7","6","5","6","6","7","3","7","3","3","678265376743620608","王","533","Female","[""好我"",""坏她"",""好她"",""坏我""]","[""强我"",""弱她"",""强她"",""弱我""]","","","","","","","","no","","","","","","","","","SRET","EW_formal","","key","f","16.66020408163277","581.2120876189673","322.7272540741398","自己","歹毒","Negative","morality","","","","","","","","","","",""
"764","","f","psychophysics","42","318404","0.0-7.0-3.0-0.28","5","5","5","3","5","4","2","5","3","4","5","0","0","-1","1","0","0","1","1","5","4","5","5","5","4","4","3","5","4","4","6","5","7","5","4","4","6","5","5","3","3","3","4","2","6","3","5","2","6","3","1","5","3","3","3","5","6","2","3","3","4","3","6","5","7","3","6","7","6","7","6","5","6","6","7","3","7","3","3","678265376743620608","王","533","Female","[""好我"",""坏她"",""好她"",""坏我""]","[""强我"",""弱她"",""强她"",""弱我""]","","","","","","","","no","","","","","","","","","SRET","EW_formal","","key","f","16.66285714285692","581.2120876189673","322.7272540741398","自己","腐败","Negative","morality","","","","","","","","","","",""
"669","","f","psychophysics","43","320076","0.0-7.0-3.0-0.29","5","5","5","3","5","4","2","5","3","4","5","0","0","-1","1","0","0","1","1","5","4","5","5","5","4","4","3","5","4","4","6","5","7","5","4","4","6","5","5","3","3","3","4","2","6","3","5","2","6","3","1","5","3","3","3","5","6","2","3","3","4","3","6","5","7","3","6","7","6","7","6","5","6","6","7","3","7","3","3","678265376743620608","王","533","Female","[""好我"",""坏她"",""好她"",""坏我""]","[""强我"",""弱她"",""强她"",""弱我""]","","","","","","","","no","","","","","","","","","SRET","EW_formal","","key","f","16.657999999999884","581.2120876189673","322.7272540741398","朋友","自私","Negative","morality","","","","","","","","","","",""
"810","","f","psychophysics","44","321887","0.0-7.0-3.0-0.30","5","5","5","3","5","4","2","5","3","4","5","0","0","-1","1","0","0","1","1","5","4","5","5","5","4","4","3","5","4","4","6","5","7","5","4","4","6","5","5","3","3","3","4","2","6","3","5","2","6","3","1","5","3","3","3","5","6","2","3","3","4","3","6","5","7","3","6","7","6","7","6","5","6","6","7","3","7","3","3","678265376743620608","王","533","Female","[""好我"",""坏她"",""好她"",""坏我""]","[""强我"",""弱她"",""强她"",""弱我""]","","","","","","","","no","","","","","","","","","SRET","EW_formal","","key","f","16.662616822430124","581.2120876189673","322.7272540741398","自己","拖延","Negative","ability","","","","","","","","","","",""
"929","","f","psychophysics","45","323818","0.0-7.0-3.0-0.31","5","5","5","3","5","4","2","5","3","4","5","0","0","-1","1","0","0","1","1","5","4","5","5","5","4","4","3","5","4","4","6","5","7","5","4","4","6","5","5","3","3","3","4","2","6","3","5","2","6","3","1","5","3","3","3","5","6","2","3","3","4","3","6","5","7","3","6","7","6","7","6","5","6","6","7","3","7","3","3","678265376743620608","王","533","Female","[""好我"",""坏她"",""好她"",""坏我""]","[""强我"",""弱她"",""强她"",""弱我""]","","","","","","","","no","","","","","","","","","SRET","EW_formal","","key","f","16.658260869565318","581.2120876189673","322.7272540741398","朋友","差生","Negative","ability","","","","","","","","","","",""
"691","","f","psychophysics","46","325510","0.0-7.0-3.0-0.32","5","5","5","3","5","4","2","5","3","4","5","0","0","-1","1","0","0","1","1","5","4","5","5","5","4","4","3","5","4","4","6","5","7","5","4","4","6","5","5","3","3","3","4","2","6","3","5","2","6","3","1","5","3","3","3","5","6","2","3","3","4","3","6","5","7","3","6","7","6","7","6","5","6","6","7","3","7","3","3","678265376743620608","王","533","Female","[""好我"",""坏她"",""好她"",""坏我""]","[""强我"",""弱她"",""强她"",""弱我""]","","","","","","","","no","","","","","","","","","SRET","EW_formal","","key","f","16.661386138613747","581.2120876189673","322.7272540741398","朋友","奸险","Negative","morality","","","","","","","","","","",""
"837","","j","psychophysics","47","327349","0.0-7.0-3.0-0.33","5","5","5","3","5","4","2","5","3","4","5","0","0","-1","1","0","0","1","1","5","4","5","5","5","4","4","3","5","4","4","6","5","7","5","4","4","6","5","5","3","3","3","4","2","6","3","5","2","6","3","1","5","3","3","3","5","6","2","3","3","4","3","6","5","7","3","6","7","6","7","6","5","6","6","7","3","7","3","3","678265376743620608","王","533","Female","[""好我"",""坏她"",""好她"",""坏我""]","[""强我"",""弱她"",""强她"",""弱我""]","","","","","","","","yes","","","","","","","","","SRET","EW_formal","","key","j","16.664220183486453","581.2120876189673","322.7272540741398","自己","思辨","Positive","ability","","","","","","","","","","",""
"1032","","j","psychophysics","48","329385","0.0-7.0-3.0-0.34","5","5","5","3","5","4","2","5","3","4","5","0","0","-1","1","0","0","1","1","5","4","5","5","5","4","4","3","5","4","4","6","5","7","5","4","4","6","5","5","3","3","3","4","2","6","3","5","2","6","3","1","5","3","3","3","5","6","2","3","3","4","3","6","5","7","3","6","7","6","7","6","5","6","6","7","3","7","3","3","678265376743620608","王","533","Female","[""好我"",""坏她"",""好她"",""坏我""]","[""强我"",""弱她"",""强她"",""弱我""]","","","","","","","","yes","","","","","","","","","SRET","EW_formal","","key","j","16.662809917355467","581.2120876189673","322.7272540741398","自己","中用","Positive","ability","","","","","","","","","","",""
"702","","j","psychophysics","49","331099","0.0-7.0-3.0-0.35","5","5","5","3","5","4","2","5","3","4","5","0","0","-1","1","0","0","1","1","5","4","5","5","5","4","4","3","5","4","4","6","5","7","5","4","4","6","5","5","3","3","3","4","2","6","3","5","2","6","3","1","5","3","3","3","5","6","2","3","3","4","3","6","5","7","3","6","7","6","7","6","5","6","6","7","3","7","3","3","678265376743620608","王","533","Female","[""好我"",""坏她"",""好她"",""坏我""]","[""强我"",""弱她"",""强她"",""弱我""]","","","","","","","","yes","","","","","","","","","SRET","EW_formal","","key","j","16.663725490196192","581.2120876189673","322.7272540741398","朋友","清廉","Positive","morality","","","","","","","","","","",""
"726","","j","psychophysics","50","332828","0.0-7.0-3.0-0.36","5","5","5","3","5","4","2","5","3","4","5","0","0","-1","1","0","0","1","1","5","4","5","5","5","4","4","3","5","4","4","6","5","7","5","4","4","6","5","5","3","3","3","4","2","6","3","5","2","6","3","1","5","3","3","3","5","6","2","3","3","4","3","6","5","7","3","6","7","6","7","6","5","6","6","7","3","7","3","3","678265376743620608","王","533","Female","[""好我"",""坏她"",""好她"",""坏我""]","[""强我"",""弱她"",""强她"",""弱我""]","","","","","","","","yes","","","","","","","","","SRET","EW_formal","","key","j","16.6592233009711","581.2120876189673","322.7272540741398","自己","廉明","Positive","morality","","","","","","","","","","",""
"680","","j","psychophysics","51","334511","0.0-7.0-3.0-0.37","5","5","5","3","5","4","2","5","3","4","5","0","0","-1","1","0","0","1","1","5","4","5","5","5","4","4","3","5","4","4","6","5","7","5","4","4","6","5","5","3","3","3","4","2","6","3","5","2","6","3","1","5","3","3","3","5","6","2","3","3","4","3","6","5","7","3","6","7","6","7","6","5","6","6","7","3","7","3","3","678265376743620608","王","533","Female","[""好我"",""坏她"",""好她"",""坏我""]","[""强我"",""弱她"",""强她"",""弱我""]","","","","","","","","yes","","","","","","","","","SRET","EW_formal","","key","j","16.662000000000116","581.2120876189673","322.7272540741398","朋友","高洁","Positive","morality","","","","","","","","","","",""
"704","","j","psychophysics","52","336218","0.0-7.0-3.0-0.38","5","5","5","3","5","4","2","5","3","4","5","0","0","-1","1","0","0","1","1","5","4","5","5","5","4","4","3","5","4","4","6","5","7","5","4","4","6","5","5","3","3","3","4","2","6","3","5","2","6","3","1","5","3","3","3","5","6","2","3","3","4","3","6","5","7","3","6","7","6","7","6","5","6","6","7","3","7","3","3","678265376743620608","王","533","Female","[""好我"",""坏她"",""好她"",""坏我""]","[""强我"",""弱她"",""强她"",""弱我""]","","","","","","","","yes","","","","","","","","","SRET","EW_formal","","key","j","16.662745098039558","581.2120876189673","322.7272540741398","朋友","干练","Positive","ability","","","","","","","","","","",""
"1123","","j","psychophysics","53","338343","0.0-7.0-3.0-0.39","5","5","5","3","5","4","2","5","3","4","5","0","0","-1","1","0","0","1","1","5","4","5","5","5","4","4","3","5","4","4","6","5","7","5","4","4","6","5","5","3","3","3","4","2","6","3","5","2","6","3","1","5","3","3","3","5","6","2","3","3","4","3","6","5","7","3","6","7","6","7","6","5","6","6","7","3","7","3","3","678265376743620608","王","533","Female","[""好我"",""坏她"",""好她"",""坏我""]","[""强我"",""弱她"",""强她"",""弱我""]","","","","","","","","yes","","","","","","","","","SRET","EW_formal","","key","j","16.660317460317554","581.2120876189673","322.7272540741398","自己","忠良","Positive","morality","","","","","","","","","","",""
"738","","j","psychophysics","54","340085","0.0-7.0-3.0-0.40","5","5","5","3","5","4","2","5","3","4","5","0","0","-1","1","0","0","1","1","5","4","5","5","5","4","4","3","5","4","4","6","5","7","5","4","4","6","5","5","3","3","3","4","2","6","3","5","2","6","3","1","5","3","3","3","5","6","2","3","3","4","3","6","5","7","3","6","7","6","7","6","5","6","6","7","3","7","3","3","678265376743620608","王","533","Female","[""好我"",""坏她"",""好她"",""坏我""]","[""强我"",""弱她"",""强她"",""弱我""]","","","","","","","","yes","","","","","","","","","SRET","EW_formal","","key","j","16.658653846153847","581.2120876189673","322.7272540741398","朋友","孝顺","Positive","morality","","","","","","","","","","",""
"799","","j","psychophysics","55","341886","0.0-7.0-3.0-0.41","5","5","5","3","5","4","2","5","3","4","5","0","0","-1","1","0","0","1","1","5","4","5","5","5","4","4","3","5","4","4","6","5","7","5","4","4","6","5","5","3","3","3","4","2","6","3","5","2","6","3","1","5","3","3","3","5","6","2","3","3","4","3","6","5","7","3","6","7","6","7","6","5","6","6","7","3","7","3","3","678265376743620608","王","533","Female","[""好我"",""坏她"",""好她"",""坏我""]","[""强我"",""弱她"",""强她"",""弱我""]","","","","","","","","yes","","","","","","","","","SRET","EW_formal","","key","j","16.66355140186916","581.2120876189673","322.7272540741398","朋友","才尽","Negative","ability","","","","","","","","","","",""
"1043","","f","psychophysics","56","343933","0.0-7.0-3.0-0.42","5","5","5","3","5","4","2","5","3","4","5","0","0","-1","1","0","0","1","1","5","4","5","5","5","4","4","3","5","4","4","6","5","7","5","4","4","6","5","5","3","3","3","4","2","6","3","5","2","6","3","1","5","3","3","3","5","6","2","3","3","4","3","6","5","7","3","6","7","6","7","6","5","6","6","7","3","7","3","3","678265376743620608","王","533","Female","[""好我"",""坏她"",""好她"",""坏我""]","[""强我"",""弱她"",""强她"",""弱我""]","","","","","","","","no","","","","","","","","","SRET","EW_formal","","key","f","16.662295081967596","581.2120876189673","322.7272540741398","朋友","阴毒","Negative","morality","","","","","","","","","","",""
"910","","f","psychophysics","57","345845","0.0-7.0-3.0-0.43","5","5","5","3","5","4","2","5","3","4","5","0","0","-1","1","0","0","1","1","5","4","5","5","5","4","4","3","5","4","4","6","5","7","5","4","4","6","5","5","3","3","3","4","2","6","3","5","2","6","3","1","5","3","3","3","5","6","2","3","3","4","3","6","5","7","3","6","7","6","7","6","5","6","6","7","3","7","3","3","678265376743620608","王","533","Female","[""好我"",""坏她"",""好她"",""坏我""]","[""强我"",""弱她"",""强她"",""弱我""]","","","","","","","","no","","","","","","","","","SRET","EW_formal","","key","f","16.662831858407287","581.2120876189673","322.7272540741398","自己","贪腐","Negative","morality","","","","","","","","","","",""
"817","","j","psychophysics","58","347675","0.0-7.0-3.0-0.44","5","5","5","3","5","4","2","5","3","4","5","0","0","-1","1","0","0","1","1","5","4","5","5","5","4","4","3","5","4","4","6","5","7","5","4","4","6","5","5","3","3","3","4","2","6","3","5","2","6","3","1","5","3","3","3","5","6","2","3","3","4","3","6","5","7","3","6","7","6","7","6","5","6","6","7","3","7","3","3","678265376743620608","王","533","Female","[""好我"",""坏她"",""好她"",""坏我""]","[""强我"",""弱她"",""强她"",""弱我""]","","","","","","","","yes","","","","","","","","","SRET","EW_formal","","key","j","16.663302752293472","581.2120876189673","322.7272540741398","朋友","学霸","Positive","ability","","","","","","","","","","",""
"653","","j","psychophysics","59","349332","0.0-7.0-3.0-0.45","5","5","5","3","5","4","2","5","3","4","5","0","0","-1","1","0","0","1","1","5","4","5","5","5","4","4","3","5","4","4","6","5","7","5","4","4","6","5","5","3","3","3","4","2","6","3","5","2","6","3","1","5","3","3","3","5","6","2","3","3","4","3","6","5","7","3","6","7","6","7","6","5","6","6","7","3","7","3","3","678265376743620608","王","533","Female","[""好我"",""坏她"",""好她"",""坏我""]","[""强我"",""弱她"",""强她"",""弱我""]","","","","","","","","yes","","","","","","","","","SRET","EW_formal","","key","j","16.660606060606295","581.2120876189673","322.7272540741398","自己","好心","Positive","morality","","","","","","","","","","",""
"663","","f","psychophysics","60","350997","0.0-7.0-3.0-0.46","5","5","5","3","5","4","2","5","3","4","5","0","0","-1","1","0","0","1","1","5","4","5","5","5","4","4","3","5","4","4","6","5","7","5","4","4","6","5","5","3","3","3","4","2","6","3","5","2","6","3","1","5","3","3","3","5","6","2","3","3","4","3","6","5","7","3","6","7","6","7","6","5","6","6","7","3","7","3","3","678265376743620608","王","533","Female","[""好我"",""坏她"",""好她"",""坏我""]","[""强我"",""弱她"",""强她"",""弱我""]","","","","","","","","no","","","","","","","","","SRET","EW_formal","","key","f","16.662626262626617","581.2120876189673","322.7272540741398","自己","淫乱","Negative","morality","","","","","","","","","","",""
"817","","j","psychophysics","61","352817","0.0-7.0-3.0-0.47","5","5","5","3","5","4","2","5","3","4","5","0","0","-1","1","0","0","1","1","5","4","5","5","5","4","4","3","5","4","4","6","5","7","5","4","4","6","5","5","3","3","3","4","2","6","3","5","2","6","3","1","5","3","3","3","5","6","2","3","3","4","3","6","5","7","3","6","7","6","7","6","5","6","6","7","3","7","3","3","678265376743620608","王","533","Female","[""好我"",""坏她"",""好她"",""坏我""]","[""强我"",""弱她"",""强她"",""弱我""]","","","","","","","","yes","","","","","","","","","SRET","EW_formal","","key","j","16.662962962963288","581.2120876189673","322.7272540741398","自己","廉正","Positive","morality","","","","","","","","","","",""
"787","","f","psychophysics","62","354606","0.0-7.0-3.0-0.48","5","5","5","3","5","4","2","5","3","4","5","0","0","-1","1","0","0","1","1","5","4","5","5","5","4","4","3","5","4","4","6","5","7","5","4","4","6","5","5","3","3","3","4","2","6","3","5","2","6","3","1","5","3","3","3","5","6","2","3","3","4","3","6","5","7","3","6","7","6","7","6","5","6","6","7","3","7","3","3","678265376743620608","王","533","Female","[""好我"",""坏她"",""好她"",""坏我""]","[""强我"",""弱她"",""强她"",""弱我""]","","","","","","","","no","","","","","","","","","SRET","EW_formal","","key","f","16.664150943395896","581.2120876189673","322.7272540741398","朋友","偏私","Negative","morality","","","","","","","","","","",""
"837","","j","psychophysics","63","356446","0.0-7.0-3.0-0.49","5","5","5","3","5","4","2","5","3","4","5","0","0","-1","1","0","0","1","1","5","4","5","5","5","4","4","3","5","4","4","6","5","7","5","4","4","6","5","5","3","3","3","4","2","6","3","5","2","6","3","1","5","3","3","3","5","6","2","3","3","4","3","6","5","7","3","6","7","6","7","6","5","6","6","7","3","7","3","3","678265376743620608","王","533","Female","[""好我"",""坏她"",""好她"",""坏我""]","[""强我"",""弱她"",""强她"",""弱我""]","","","","","","","","yes","","","","","","","","","SRET","EW_formal","","key","j","16.661818181818077","581.2120876189673","322.7272540741398","朋友","博识","Positive","ability","","","","","","","","","","",""
"847","","j","psychophysics","64","358297","0.0-7.0-3.0-0.50","5","5","5","3","5","4","2","5","3","4","5","0","0","-1","1","0","0","1","1","5","4","5","5","5","4","4","3","5","4","4","6","5","7","5","4","4","6","5","5","3","3","3","4","2","6","3","5","2","6","3","1","5","3","3","3","5","6","2","3","3","4","3","6","5","7","3","6","7","6","7","6","5","6","6","7","3","7","3","3","678265376743620608","王","533","Female","[""好我"",""坏她"",""好她"",""坏我""]","[""强我"",""弱她"",""强她"",""弱我""]","","","","","","","","yes","","","","","","","","","SRET","EW_formal","","key","j","16.663636363636364","581.2120876189673","322.7272540741398","自己","变通","Positive","ability","","","","","","","","","","",""
"662","","j","psychophysics","65","359961","0.0-7.0-3.0-0.51","5","5","5","3","5","4","2","5","3","4","5","0","0","-1","1","0","0","1","1","5","4","5","5","5","4","4","3","5","4","4","6","5","7","5","4","4","6","5","5","3","3","3","4","2","6","3","5","2","6","3","1","5","3","3","3","5","6","2","3","3","4","3","6","5","7","3","6","7","6","7","6","5","6","6","7","3","7","3","3","678265376743620608","王","533","Female","[""好我"",""坏她"",""好她"",""坏我""]","[""强我"",""弱她"",""强她"",""弱我""]","","","","","","","","yes","","","","","","","","","SRET","EW_formal","","key","j","16.6656565656568","581.2120876189673","322.7272540741398","自己","坚持","Positive","ability","","","","","","","","","","",""
"759","","f","psychophysics","66","361725","0.0-7.0-3.0-0.52","5","5","5","3","5","4","2","5","3","4","5","0","0","-1","1","0","0","1","1","5","4","5","5","5","4","4","3","5","4","4","6","5","7","5","4","4","6","5","5","3","3","3","4","2","6","3","5","2","6","3","1","5","3","3","3","5","6","2","3","3","4","3","6","5","7","3","6","7","6","7","6","5","6","6","7","3","7","3","3","678265376743620608","王","533","Female","[""好我"",""坏她"",""好她"",""坏我""]","[""强我"",""弱她"",""强她"",""弱我""]","","","","","","","","no","","","","","","","","","SRET","EW_formal","","key","f","16.65999999999989","581.2120876189673","322.7272540741398","朋友","下流","Negative","morality","","","","","","","","","","",""
"931","","j","psychophysics","67","363659","0.0-7.0-3.0-0.53","5","5","5","3","5","4","2","5","3","4","5","0","0","-1","1","0","0","1","1","5","4","5","5","5","4","4","3","5","4","4","6","5","7","5","4","4","6","5","5","3","3","3","4","2","6","3","5","2","6","3","1","5","3","3","3","5","6","2","3","3","4","3","6","5","7","3","6","7","6","7","6","5","6","6","7","3","7","3","3","678265376743620608","王","533","Female","[""好我"",""坏她"",""好她"",""坏我""]","[""强我"",""弱她"",""强她"",""弱我""]","","","","","","","","yes","","","","","","","","","SRET","EW_formal","","key","j","16.660869565217393","581.2120876189673","322.7272540741398","自己","果决","Positive","ability","","","","","","","","","","",""
"857","","j","psychophysics","68","365529","0.0-7.0-3.0-0.54","5","5","5","3","5","4","2","5","3","4","5","0","0","-1","1","0","0","1","1","5","4","5","5","5","4","4","3","5","4","4","6","5","7","5","4","4","6","5","5","3","3","3","4","2","6","3","5","2","6","3","1","5","3","3","3","5","6","2","3","3","4","3","6","5","7","3","6","7","6","7","6","5","6","6","7","3","7","3","3","678265376743620608","王","533","Female","[""好我"",""坏她"",""好她"",""坏我""]","[""强我"",""弱她"",""强她"",""弱我""]","","","","","","","","yes","","","","","","","","","SRET","EW_formal","","key","j","16.66216216216216","581.2120876189673","322.7272540741398","朋友","爱国","Positive","morality","","","","","","","","","","",""
"983","","j","psychophysics","69","367515","0.0-7.0-3.0-0.55","5","5","5","3","5","4","2","5","3","4","5","0","0","-1","1","0","0","1","1","5","4","5","5","5","4","4","3","5","4","4","6","5","7","5","4","4","6","5","5","3","3","3","4","2","6","3","5","2","6","3","1","5","3","3","3","5","6","2","3","3","4","3","6","5","7","3","6","7","6","7","6","5","6","6","7","3","7","3","3","678265376743620608","王","533","Female","[""好我"",""坏她"",""好她"",""坏我""]","[""强我"",""弱她"",""强她"",""弱我""]","","","","","","","","yes","","","","","","","","","SRET","EW_formal","","key","j","16.662711864406386","581.2120876189673","322.7272540741398","朋友","无私","Positive","morality","","","","","","","","","","",""
"872","","f","psychophysics","70","369390","0.0-7.0-3.0-0.56","5","5","5","3","5","4","2","5","3","4","5","0","0","-1","1","0","0","1","1","5","4","5","5","5","4","4","3","5","4","4","6","5","7","5","4","4","6","5","5","3","3","3","4","2","6","3","5","2","6","3","1","5","3","3","3","5","6","2","3","3","4","3","6","5","7","3","6","7","6","7","6","5","6","6","7","3","7","3","3","678265376743620608","王","533","Female","[""好我"",""坏她"",""好她"",""坏我""]","[""强我"",""弱她"",""强她"",""弱我""]","","","","","","","","no","","","","","","","","","SRET","EW_formal","","key","f","16.664285714285402","581.2120876189673","322.7272540741398","自己","废物","Negative","ability","","","","","","","","","","",""
"745","","j","psychophysics","71","371138","0.0-7.0-3.0-0.57","5","5","5","3","5","4","2","5","3","4","5","0","0","-1","1","0","0","1","1","5","4","5","5","5","4","4","3","5","4","4","6","5","7","5","4","4","6","5","5","3","3","3","4","2","6","3","5","2","6","3","1","5","3","3","3","5","6","2","3","3","4","3","6","5","7","3","6","7","6","7","6","5","6","6","7","3","7","3","3","678265376743620608","王","533","Female","[""好我"",""坏她"",""好她"",""坏我""]","[""强我"",""弱她"",""强她"",""弱我""]","","","","","","","","yes","","","","","","","","","SRET","EW_formal","","key","j","16.65961538461572","581.2120876189673","322.7272540741398","自己","敬业","Positive","morality","","","","","","","","","","",""
"899","","j","psychophysics","72","373040","0.0-7.0-3.0-0.58","5","5","5","3","5","4","2","5","3","4","5","0","0","-1","1","0","0","1","1","5","4","5","5","5","4","4","3","5","4","4","6","5","7","5","4","4","6","5","5","3","3","3","4","2","6","3","5","2","6","3","1","5","3","3","3","5","6","2","3","3","4","3","6","5","7","3","6","7","6","7","6","5","6","6","7","3","7","3","3","678265376743620608","王","533","Female","[""好我"",""坏她"",""好她"",""坏我""]","[""强我"",""弱她"",""强她"",""弱我""]","","","","","","","","yes","","","","","","","","","SRET","EW_formal","","key","j","16.634513274336385","581.2120876189673","322.7272540741398","朋友","忠诚","Positive","morality","","","","","","","","","","",""
"625","","f","psychophysics","73","374675","0.0-7.0-3.0-0.59","5","5","5","3","5","4","2","5","3","4","5","0","0","-1","1","0","0","1","1","5","4","5","5","5","4","4","3","5","4","4","6","5","7","5","4","4","6","5","5","3","3","3","4","2","6","3","5","2","6","3","1","5","3","3","3","5","6","2","3","3","4","3","6","5","7","3","6","7","6","7","6","5","6","6","7","3","7","3","3","678265376743620608","王","533","Female","[""好我"",""坏她"",""好她"",""坏我""]","[""强我"",""弱她"",""强她"",""弱我""]","","","","","","","","no","","","","","","","","","SRET","EW_formal","","key","f","16.664948453608247","581.2120876189673","322.7272540741398","自己","邪恶","Negative","morality","","","","","","","","","","",""
"857","","j","psychophysics","74","376535","0.0-7.0-3.0-0.60","5","5","5","3","5","4","2","5","3","4","5","0","0","-1","1","0","0","1","1","5","4","5","5","5","4","4","3","5","4","4","6","5","7","5","4","4","6","5","5","3","3","3","4","2","6","3","5","2","6","3","1","5","3","3","3","5","6","2","3","3","4","3","6","5","7","3","6","7","6","7","6","5","6","6","7","3","7","3","3","678265376743620608","王","533","Female","[""好我"",""坏她"",""好她"",""坏我""]","[""强我"",""弱她"",""强她"",""弱我""]","","","","","","","","yes","","","","","","","","","SRET","EW_formal","","key","j","16.604504504504295","581.2120876189673","322.7272540741398","朋友","君子","Positive","morality","","","","","","","","","","",""
"901","","j","psychophysics","75","378438","0.0-7.0-3.0-0.61","5","5","5","3","5","4","2","5","3","4","5","0","0","-1","1","0","0","1","1","5","4","5","5","5","4","4","3","5","4","4","6","5","7","5","4","4","6","5","5","3","3","3","4","2","6","3","5","2","6","3","1","5","3","3","3","5","6","2","3","3","4","3","6","5","7","3","6","7","6","7","6","5","6","6","7","3","7","3","3","678265376743620608","王","533","Female","[""好我"",""坏她"",""好她"",""坏我""]","[""强我"",""弱她"",""强她"",""弱我""]","","","","","","","","yes","","","","","","","","","SRET","EW_formal","","key","j","16.663716814159294","581.2120876189673","322.7272540741398","自己","远见","Positive","ability","","","","","","","","","","",""
"788","","j","psychophysics","76","380230","0.0-7.0-3.0-0.62","5","5","5","3","5","4","2","5","3","4","5","0","0","-1","1","0","0","1","1","5","4","5","5","5","4","4","3","5","4","4","6","5","7","5","4","4","6","5","5","3","3","3","4","2","6","3","5","2","6","3","1","5","3","3","3","5","6","2","3","3","4","3","6","5","7","3","6","7","6","7","6","5","6","6","7","3","7","3","3","678265376743620608","王","533","Female","[""好我"",""坏她"",""好她"",""坏我""]","[""强我"",""弱她"",""强她"",""弱我""]","","","","","","","","yes","","","","","","","","","SRET","EW_formal","","key","j","16.659433962263822","581.2120876189673","322.7272540741398","朋友","懂行","Positive","ability","","","","","","","","","","",""
"855","","f","psychophysics","77","382089","0.0-7.0-3.0-0.63","5","5","5","3","5","4","2","5","3","4","5","0","0","-1","1","0","0","1","1","5","4","5","5","5","4","4","3","5","4","4","6","5","7","5","4","4","6","5","5","3","3","3","4","2","6","3","5","2","6","3","1","5","3","3","3","5","6","2","3","3","4","3","6","5","7","3","6","7","6","7","6","5","6","6","7","3","7","3","3","678265376743620608","王","533","Female","[""好我"",""坏她"",""好她"",""坏我""]","[""强我"",""弱她"",""强她"",""弱我""]","","","","","","","","no","","","","","","","","","SRET","EW_formal","","key","f","16.661261261261473","581.2120876189673","322.7272540741398","朋友","短浅","Negative","ability","","","","","","","","","","",""
"715","","f","psychophysics","78","383806","0.0-7.0-3.0-0.64","5","5","5","3","5","4","2","5","3","4","5","0","0","-1","1","0","0","1","1","5","4","5","5","5","4","4","3","5","4","4","6","5","7","5","4","4","6","5","5","3","3","3","4","2","6","3","5","2","6","3","1","5","3","3","3","5","6","2","3","3","4","3","6","5","7","3","6","7","6","7","6","5","6","6","7","3","7","3","3","678265376743620608","王","533","Female","[""好我"",""坏她"",""好她"",""坏我""]","[""强我"",""弱她"",""强她"",""弱我""]","","","","","","","","no","","","","","","","","","SRET","EW_formal","","key","f","16.66078431372515","581.2120876189673","322.7272540741398","朋友","奸诈","Negative","morality","","","","","","","","","","",""
"811","","j","psychophysics","79","385620","0.0-7.0-3.0-0.65","5","5","5","3","5","4","2","5","3","4","5","0","0","-1","1","0","0","1","1","5","4","5","5","5","4","4","3","5","4","4","6","5","7","5","4","4","6","5","5","3","3","3","4","2","6","3","5","2","6","3","1","5","3","3","3","5","6","2","3","3","4","3","6","5","7","3","6","7","6","7","6","5","6","6","7","3","7","3","3","678265376743620608","王","533","Female","[""好我"",""坏她"",""好她"",""坏我""]","[""强我"",""弱她"",""强她"",""弱我""]","","","","","","","","yes","","","","","","","","","SRET","EW_formal","","key","j","16.662037037037038","581.2120876189673","322.7272540741398","朋友","侠义","Positive","morality","","","","","","","","","","",""
"724","","f","psychophysics","80","387348","0.0-7.0-3.0-0.66","5","5","5","3","5","4","2","5","3","4","5","0","0","-1","1","0","0","1","1","5","4","5","5","5","4","4","3","5","4","4","6","5","7","5","4","4","6","5","5","3","3","3","4","2","6","3","5","2","6","3","1","5","3","3","3","5","6","2","3","3","4","3","6","5","7","3","6","7","6","7","6","5","6","6","7","3","7","3","3","678265376743620608","王","533","Female","[""好我"",""坏她"",""好她"",""坏我""]","[""强我"",""弱她"",""强她"",""弱我""]","","","","","","","","no","","","","","","","","","SRET","EW_formal","","key","f","16.66310679611639","581.2120876189673","322.7272540741398","自己","虚伪","Negative","morality","","","","","","","","","","",""
"764","","j","psychophysics","81","389121","0.0-7.0-3.0-0.67","5","5","5","3","5","4","2","5","3","4","5","0","0","-1","1","0","0","1","1","5","4","5","5","5","4","4","3","5","4","4","6","5","7","5","4","4","6","5","5","3","3","3","4","2","6","3","5","2","6","3","1","5","3","3","3","5","6","2","3","3","4","3","6","5","7","3","6","7","6","7","6","5","6","6","7","3","7","3","3","678265376743620608","王","533","Female","[""好我"",""坏她"",""好她"",""坏我""]","[""强我"",""弱她"",""强她"",""弱我""]","","","","","","","","yes","","","","","","","","","SRET","EW_formal","","key","j","16.6609523809526","581.2120876189673","322.7272540741398","自己","犹豫","Negative","ability","","","","","","","","","","",""
"1152","","f","psychophysics","82","391276","0.0-7.0-3.0-0.68","5","5","5","3","5","4","2","5","3","4","5","0","0","-1","1","0","0","1","1","5","4","5","5","5","4","4","3","5","4","4","6","5","7","5","4","4","6","5","5","3","3","3","4","2","6","3","5","2","6","3","1","5","3","3","3","5","6","2","3","3","4","3","6","5","7","3","6","7","6","7","6","5","6","6","7","3","7","3","3","678265376743620608","王","533","Female","[""好我"",""坏她"",""好她"",""坏我""]","[""强我"",""弱她"",""强她"",""弱我""]","","","","","","","","no","","","","","","","","","SRET","EW_formal","","key","f","16.65891472868217","581.2120876189673","322.7272540741398","朋友","无敌","Positive","ability","","","","","","","","","","",""
"1151","","j","psychophysics","83","393429","0.0-7.0-3.0-0.69","5","5","5","3","5","4","2","5","3","4","5","0","0","-1","1","0","0","1","1","5","4","5","5","5","4","4","3","5","4","4","6","5","7","5","4","4","6","5","5","3","3","3","4","2","6","3","5","2","6","3","1","5","3","3","3","5","6","2","3","3","4","3","6","5","7","3","6","7","6","7","6","5","6","6","7","3","7","3","3","678265376743620608","王","533","Female","[""好我"",""坏她"",""好她"",""坏我""]","[""强我"",""弱她"",""强她"",""弱我""]","","","","","","","","yes","","","","","","","","","SRET","EW_formal","","key","j","16.66171875000009","581.2120876189673","322.7272540741398","朋友","稳健","Positive","ability","","","","","","","","","","",""
"900","","j","psychophysics","84","395332","0.0-7.0-3.0-0.70","5","5","5","3","5","4","2","5","3","4","5","0","0","-1","1","0","0","1","1","5","4","5","5","5","4","4","3","5","4","4","6","5","7","5","4","4","6","5","5","3","3","3","4","2","6","3","5","2","6","3","1","5","3","3","3","5","6","2","3","3","4","3","6","5","7","3","6","7","6","7","6","5","6","6","7","3","7","3","3","678265376743620608","王","533","Female","[""好我"",""坏她"",""好她"",""坏我""]","[""强我"",""弱她"",""强她"",""弱我""]","","","","","","","","yes","","","","","","","","","SRET","EW_formal","","key","j","16.60884955752202","581.2120876189673","322.7272540741398","自己","勤奋","Positive","ability","","","","","","","","","","",""
"883","","f","psychophysics","85","397221","0.0-7.0-3.0-0.71","5","5","5","3","5","4","2","5","3","4","5","0","0","-1","1","0","0","1","1","5","4","5","5","5","4","4","3","5","4","4","6","5","7","5","4","4","6","5","5","3","3","3","4","2","6","3","5","2","6","3","1","5","3","3","3","5","6","2","3","3","4","3","6","5","7","3","6","7","6","7","6","5","6","6","7","3","7","3","3","678265376743620608","王","533","Female","[""好我"",""坏她"",""好她"",""坏我""]","[""强我"",""弱她"",""强她"",""弱我""]","","","","","","","","no","","","","","","","","","SRET","EW_formal","","key","f","16.659821428571636","581.2120876189673","322.7272540741398","自己","狡狯","Negative","morality","","","","","","","","","","",""
"1322","","f","psychophysics","86","399547","0.0-7.0-3.0-0.72","5","5","5","3","5","4","2","5","3","4","5","0","0","-1","1","0","0","1","1","5","4","5","5","5","4","4","3","5","4","4","6","5","7","5","4","4","6","5","5","3","3","3","4","2","6","3","5","2","6","3","1","5","3","3","3","5","6","2","3","3","4","3","6","5","7","3","6","7","6","7","6","5","6","6","7","3","7","3","3","678265376743620608","王","533","Female","[""好我"",""坏她"",""好她"",""坏我""]","[""强我"",""弱她"",""强她"",""弱我""]","","","","","","","","no","","","","","","","","","SRET","EW_formal","","key","f","16.660431654676174","581.2120876189673","322.7272540741398","自己","毛糙","Negative","ability","","","","","","","","","","",""
"897","","j","psychophysics","87","401447","0.0-7.0-3.0-0.73","5","5","5","3","5","4","2","5","3","4","5","0","0","-1","1","0","0","1","1","5","4","5","5","5","4","4","3","5","4","4","6","5","7","5","4","4","6","5","5","3","3","3","4","2","6","3","5","2","6","3","1","5","3","3","3","5","6","2","3","3","4","3","6","5","7","3","6","7","6","7","6","5","6","6","7","3","7","3","3","678265376743620608","王","533","Female","[""好我"",""坏她"",""好她"",""坏我""]","[""强我"",""弱她"",""强她"",""弱我""]","","","","","","","","yes","","","","","","","","","SRET","EW_formal","","key","j","16.658407079646224","581.2120876189673","322.7272540741398","朋友","智慧","Positive","ability","","","","","","","","","","",""
"693","","j","psychophysics","88","403143","0.0-7.0-3.0-0.74","5","5","5","3","5","4","2","5","3","4","5","0","0","-1","1","0","0","1","1","5","4","5","5","5","4","4","3","5","4","4","6","5","7","5","4","4","6","5","5","3","3","3","4","2","6","3","5","2","6","3","1","5","3","3","3","5","6","2","3","3","4","3","6","5","7","3","6","7","6","7","6","5","6","6","7","3","7","3","3","678265376743620608","王","533","Female","[""好我"",""坏她"",""好她"",""坏我""]","[""强我"",""弱她"",""强她"",""弱我""]","","","","","","","","yes","","","","","","","","","SRET","EW_formal","","key","j","16.66534653465358","581.2120876189673","322.7272540741398","自己","努力","Positive","ability","","","","","","","","","","",""
"839","","f","psychophysics","89","404985","0.0-7.0-3.0-0.75","5","5","5","3","5","4","2","5","3","4","5","0","0","-1","1","0","0","1","1","5","4","5","5","5","4","4","3","5","4","4","6","5","7","5","4","4","6","5","5","3","3","3","4","2","6","3","5","2","6","3","1","5","3","3","3","5","6","2","3","3","4","3","6","5","7","3","6","7","6","7","6","5","6","6","7","3","7","3","3","678265376743620608","王","533","Female","[""好我"",""坏她"",""好她"",""坏我""]","[""强我"",""弱她"",""强她"",""弱我""]","","","","","","","","no","","","","","","","","","SRET","EW_formal","","key","f","16.659633027522617","581.2120876189673","322.7272540741398","朋友","无赖","Negative","morality","","","","","","","","","","",""
"902","","f","psychophysics","90","406890","0.0-7.0-3.0-0.76","5","5","5","3","5","4","2","5","3","4","5","0","0","-1","1","0","0","1","1","5","4","5","5","5","4","4","3","5","4","4","6","5","7","5","4","4","6","5","5","3","3","3","4","2","6","3","5","2","6","3","1","5","3","3","3","5","6","2","3","3","4","3","6","5","7","3","6","7","6","7","6","5","6","6","7","3","7","3","3","678265376743620608","王","533","Female","[""好我"",""坏她"",""好她"",""坏我""]","[""强我"",""弱她"",""强她"",""弱我""]","","","","","","","","no","","","","","","","","","SRET","EW_formal","","key","f","16.657894736842106","581.2120876189673","322.7272540741398","朋友","迟钝","Negative","ability","","","","","","","","","","",""
"788","","f","psychophysics","91","408681","0.0-7.0-3.0-0.77","5","5","5","3","5","4","2","5","3","4","5","0","0","-1","1","0","0","1","1","5","4","5","5","5","4","4","3","5","4","4","6","5","7","5","4","4","6","5","5","3","3","3","4","2","6","3","5","2","6","3","1","5","3","3","3","5","6","2","3","3","4","3","6","5","7","3","6","7","6","7","6","5","6","6","7","3","7","3","3","678265376743620608","王","533","Female","[""好我"",""坏她"",""好她"",""坏我""]","[""强我"",""弱她"",""强她"",""弱我""]","","","","","","","","no","","","","","","","","","SRET","EW_formal","","key","f","16.65754716981143","581.2120876189673","322.7272540741398","自己","愚痴","Negative","ability","","","","","","","","","","",""
"839","","j","psychophysics","92","410524","0.0-7.0-3.0-0.78","5","5","5","3","5","4","2","5","3","4","5","0","0","-1","1","0","0","1","1","5","4","5","5","5","4","4","3","5","4","4","6","5","7","5","4","4","6","5","5","3","3","3","4","2","6","3","5","2","6","3","1","5","3","3","3","5","6","2","3","3","4","3","6","5","7","3","6","7","6","7","6","5","6","6","7","3","7","3","3","678265376743620608","王","533","Female","[""好我"",""坏她"",""好她"",""坏我""]","[""强我"",""弱她"",""强她"",""弱我""]","","","","","","","","yes","","","","","","","","","SRET","EW_formal","","key","j","16.660000000000316","581.2120876189673","322.7272540741398","朋友","守时","Positive","morality","","","","","","","","","","",""
"646","","j","psychophysics","93","412172","0.0-7.0-3.0-0.79","5","5","5","3","5","4","2","5","3","4","5","0","0","-1","1","0","0","1","1","5","4","5","5","5","4","4","3","5","4","4","6","5","7","5","4","4","6","5","5","3","3","3","4","2","6","3","5","2","6","3","1","5","3","3","3","5","6","2","3","3","4","3","6","5","7","3","6","7","6","7","6","5","6","6","7","3","7","3","3","678265376743620608","王","533","Female","[""好我"",""坏她"",""好她"",""坏我""]","[""强我"",""弱她"",""强她"",""弱我""]","","","","","","","","yes","","","","","","","","","SRET","EW_formal","","key","j","16.664285714285477","581.2120876189673","322.7272540741398","朋友","沉着","Positive","ability","","","","","","","","","","",""
"684","","f","psychophysics","94","413860","0.0-7.0-3.0-0.80","5","5","5","3","5","4","2","5","3","4","5","0","0","-1","1","0","0","1","1","5","4","5","5","5","4","4","3","5","4","4","6","5","7","5","4","4","6","5","5","3","3","3","4","2","6","3","5","2","6","3","1","5","3","3","3","5","6","2","3","3","4","3","6","5","7","3","6","7","6","7","6","5","6","6","7","3","7","3","3","678265376743620608","王","533","Female","[""好我"",""坏她"",""好她"",""坏我""]","[""强我"",""弱她"",""强她"",""弱我""]","","","","","","","","no","","","","","","","","","SRET","EW_formal","","key","f","16.62","581.2120876189673","322.7272540741398","自己","愚钝","Negative","ability","","","","","","","","","","",""
"740","","j","psychophysics","95","415602","0.0-7.0-3.0-0.81","5","5","5","3","5","4","2","5","3","4","5","0","0","-1","1","0","0","1","1","5","4","5","5","5","4","4","3","5","4","4","6","5","7","5","4","4","6","5","5","3","3","3","4","2","6","3","5","2","6","3","1","5","3","3","3","5","6","2","3","3","4","3","6","5","7","3","6","7","6","7","6","5","6","6","7","3","7","3","3","678265376743620608","王","533","Female","[""好我"",""坏她"",""好她"",""坏我""]","[""强我"",""弱她"",""强她"",""弱我""]","","","","","","","","yes","","","","","","","","","SRET","EW_formal","","key","j","16.65961538461572","581.2120876189673","322.7272540741398","自己","仁爱","Positive","morality","","","","","","","","","","",""
"698","","f","psychophysics","96","417303","0.0-7.0-3.0-0.82","5","5","5","3","5","4","2","5","3","4","5","0","0","-1","1","0","0","1","1","5","4","5","5","5","4","4","3","5","4","4","6","5","7","5","4","4","6","5","5","3","3","3","4","2","6","3","5","2","6","3","1","5","3","3","3","5","6","2","3","3","4","3","6","5","7","3","6","7","6","7","6","5","6","6","7","3","7","3","3","678265376743620608","王","533","Female","[""好我"",""坏她"",""好她"",""坏我""]","[""强我"",""弱她"",""强她"",""弱我""]","","","","","","","","no","","","","","","","","","SRET","EW_formal","","key","f","16.66534653465358","581.2120876189673","322.7272540741398","自己","弱智","Negative","ability","","","","","","","","","","",""
"697","","j","psychophysics","97","419003","0.0-7.0-3.0-0.83","5","5","5","3","5","4","2","5","3","4","5","0","0","-1","1","0","0","1","1","5","4","5","5","5","4","4","3","5","4","4","6","5","7","5","4","4","6","5","5","3","3","3","4","2","6","3","5","2","6","3","1","5","3","3","3","5","6","2","3","3","4","3","6","5","7","3","6","7","6","7","6","5","6","6","7","3","7","3","3","678265376743620608","王","533","Female","[""好我"",""坏她"",""好她"",""坏我""]","[""强我"",""弱她"",""强她"",""弱我""]","","","","","","","","yes","","","","","","","","","SRET","EW_formal","","key","j","16.663366336633665","581.2120876189673","322.7272540741398","自己","义气","Positive","morality","","","","","","","","","","",""
"922","","j","psychophysics","98","420928","0.0-7.0-3.0-0.84","5","5","5","3","5","4","2","5","3","4","5","0","0","-1","1","0","0","1","1","5","4","5","5","5","4","4","3","5","4","4","6","5","7","5","4","4","6","5","5","3","3","3","4","2","6","3","5","2","6","3","1","5","3","3","3","5","6","2","3","3","4","3","6","5","7","3","6","7","6","7","6","5","6","6","7","3","7","3","3","678265376743620608","王","533","Female","[""好我"",""坏她"",""好她"",""坏我""]","[""强我"",""弱她"",""强她"",""弱我""]","","","","","","","","yes","","","","","","","","","SRET","EW_formal","","key","j","16.66315789473664","581.2120876189673","322.7272540741398","朋友","素养","Positive","morality","","","","","","","","","","",""
"787","","f","psychophysics","99","422718","0.0-7.0-3.0-0.85","5","5","5","3","5","4","2","5","3","4","5","0","0","-1","1","0","0","1","1","5","4","5","5","5","4","4","3","5","4","4","6","5","7","5","4","4","6","5","5","3","3","3","4","2","6","3","5","2","6","3","1","5","3","3","3","5","6","2","3","3","4","3","6","5","7","3","6","7","6","7","6","5","6","6","7","3","7","3","3","678265376743620608","王","533","Female","[""好我"",""坏她"",""好她"",""坏我""]","[""强我"",""弱她"",""强她"",""弱我""]","","","","","","","","no","","","","","","","","","SRET","EW_formal","","key","f","16.662616822430124","581.2120876189673","322.7272540741398","自己","缓慢","Negative","ability","","","","","","","","","","",""
"765","","j","psychophysics","100","424485","0.0-7.0-3.0-0.86","5","5","5","3","5","4","2","5","3","4","5","0","0","-1","1","0","0","1","1","5","4","5","5","5","4","4","3","5","4","4","6","5","7","5","4","4","6","5","5","3","3","3","4","2","6","3","5","2","6","3","1","5","3","3","3","5","6","2","3","3","4","3","6","5","7","3","6","7","6","7","6","5","6","6","7","3","7","3","3","678265376743620608","王","533","Female","[""好我"",""坏她"",""好她"",""坏我""]","[""强我"",""弱她"",""强她"",""弱我""]","","","","","","","","yes","","","","","","","","","SRET","EW_formal","","key","j","16.612380952380843","581.2120876189673","322.7272540741398","自己","主见","Positive","ability","","","","","","","","","","",""
"635","","f","psychophysics","101","426124","0.0-7.0-3.0-0.87","5","5","5","3","5","4","2","5","3","4","5","0","0","-1","1","0","0","1","1","5","4","5","5","5","4","4","3","5","4","4","6","5","7","5","4","4","6","5","5","3","3","3","4","2","6","3","5","2","6","3","1","5","3","3","3","5","6","2","3","3","4","3","6","5","7","3","6","7","6","7","6","5","6","6","7","3","7","3","3","678265376743620608","王","533","Female","[""好我"",""坏她"",""好她"",""坏我""]","[""强我"",""弱她"",""强她"",""弱我""]","","","","","","","","no","","","","","","","","","SRET","EW_formal","","key","f","16.66185567010321","581.2120876189673","322.7272540741398","朋友","低俗","Negative","morality","","","","","","","","","","",""
"19263","
    <p><div style='color:white;font-size:35px; line-height:20px;'>计算任务</div></p><br>
    <p><div style='color:red;font-size:25px; line-height:20px;'>接下来，您将看到一些四则运算题，<b>请从键盘选择 0-9 进行反应。</b></div></p>
    <p><div style='color:red;font-size:25px; line-height:20px;'>请尽可能快地进行计算，计算的速度和正确率将影响报酬的发放。</div></p>
    <p><div class='footer' style='color:white;font-size:25px; line-height:20px;'>如果对本实验还有不清楚之处，请立即向实验员咨询。</p><p style='color:white;font-size:25px; line-height:20px;'>如果您明白了规则：</p><p style='color:white;font-size:22px; line-height:20px;'>请按 继续 进入练习</p>
    </div>
    ","0","html-button-response","102","445391","0.0-7.0-4.0","5","5","5","3","5","4","2","5","3","4","5","0","0","-1","1","0","0","1","1","5","4","5","5","5","4","4","3","5","4","4","6","5","7","5","4","4","6","5","5","3","3","3","4","2","6","3","5","2","6","3","1","5","3","3","3","5","6","2","3","3","4","3","6","5","7","3","6","7","6","7","6","5","6","6","7","3","7","3","3","678265376743620608","王","533","Female","[""好我"",""坏她"",""好她"",""坏我""]","[""强我"",""弱她"",""强她"",""弱我""]","","","","","","","","","","","","","","","","","SRET_math","math_instructions","Wed Jan 17 2024 15:14:52 GMT+0800 (中国标准时间)","","","","","","","","","","","","","","","","","","","",""
"4902","","9","psychophysics","103","450297","0.0-7.0-5.0-0.0","5","5","5","3","5","4","2","5","3","4","5","0","0","-1","1","0","0","1","1","5","4","5","5","5","4","4","3","5","4","4","6","5","7","5","4","4","6","5","5","3","3","3","4","2","6","3","5","2","6","3","1","5","3","3","3","5","6","2","3","3","4","3","6","5","7","3","6","7","6","7","6","5","6","6","7","3","7","3","3","678265376743620608","王","533","Female","[""好我"",""坏她"",""好她"",""坏我""]","[""强我"",""弱她"",""强她"",""弱我""]","","","","","","","","9","","","","","","","","","SRET","SRET_math_calculate","","key","9","16.65850340136066","581.2120876189673","322.7272540741398","","","","","4+5= ?","9","1","","","","","","","",""
"2778","","9","psychophysics","104","453083","0.0-7.0-5.0-0.1","5","5","5","3","5","4","2","5","3","4","5","0","0","-1","1","0","0","1","1","5","4","5","5","5","4","4","3","5","4","4","6","5","7","5","4","4","6","5","5","3","3","3","4","2","6","3","5","2","6","3","1","5","3","3","3","5","6","2","3","3","4","3","6","5","7","3","6","7","6","7","6","5","6","6","7","3","7","3","3","678265376743620608","王","533","Female","[""好我"",""坏她"",""好她"",""坏我""]","[""强我"",""弱她"",""强她"",""弱我""]","","","","","","","","9","","","","","","","","","SRET","SRET_math_calculate","","key","9","16.65868263473054","581.2120876189673","322.7272540741398","","","","","6+3= ?","9","1","","","","","","","",""
"2265","","5","psychophysics","105","455352","0.0-7.0-5.0-0.2","5","5","5","3","5","4","2","5","3","4","5","0","0","-1","1","0","0","1","1","5","4","5","5","5","4","4","3","5","4","4","6","5","7","5","4","4","6","5","5","3","3","3","4","2","6","3","5","2","6","3","1","5","3","3","3","5","6","2","3","3","4","3","6","5","7","3","6","7","6","7","6","5","6","6","7","3","7","3","3","678265376743620608","王","533","Female","[""好我"",""坏她"",""好她"",""坏我""]","[""强我"",""弱她"",""强她"",""弱我""]","","","","","","","","5","","","","","","","","","SRET","SRET_math_calculate","","key","5","16.661481481481395","581.2120876189673","322.7272540741398","","","","","3+2= ?","5","1","","","","","","","",""
"2207","","6","psychophysics","106","457565","0.0-7.0-5.0-0.3","5","5","5","3","5","4","2","5","3","4","5","0","0","-1","1","0","0","1","1","5","4","5","5","5","4","4","3","5","4","4","6","5","7","5","4","4","6","5","5","3","3","3","4","2","6","3","5","2","6","3","1","5","3","3","3","5","6","2","3","3","4","3","6","5","7","3","6","7","6","7","6","5","6","6","7","3","7","3","3","678265376743620608","王","533","Female","[""好我"",""坏她"",""好她"",""坏我""]","[""强我"",""弱她"",""强她"",""弱我""]","","","","","","","","6","","","","","","","","","SRET","SRET_math_calculate","","key","6","16.66287878787879","581.2120876189673","322.7272540741398","","","","","2+4= ?","6","1","","","","","","","",""
"2146","","7","psychophysics","107","459715","0.0-7.0-5.0-0.4","5","5","5","3","5","4","2","5","3","4","5","0","0","-1","1","0","0","1","1","5","4","5","5","5","4","4","3","5","4","4","6","5","7","5","4","4","6","5","5","3","3","3","4","2","6","3","5","2","6","3","1","5","3","3","3","5","6","2","3","3","4","3","6","5","7","3","6","7","6","7","6","5","6","6","7","3","7","3","3","678265376743620608","王","533","Female","[""好我"",""坏她"",""好她"",""坏我""]","[""强我"",""弱她"",""强她"",""弱我""]","","","","","","","","7","","","","","","","","","SRET","SRET_math_calculate","","key","7","16.64609375000009","581.2120876189673","322.7272540741398","","","","","6+1= ?","7","1","","","","","","","",""
"2485","","9","psychophysics","108","462204","0.0-7.0-5.0-0.5","5","5","5","3","5","4","2","5","3","4","5","0","0","-1","1","0","0","1","1","5","4","5","5","5","4","4","3","5","4","4","6","5","7","5","4","4","6","5","5","3","3","3","4","2","6","3","5","2","6","3","1","5","3","3","3","5","6","2","3","3","4","3","6","5","7","3","6","7","6","7","6","5","6","6","7","3","7","3","3","678265376743620608","王","533","Female","[""好我"",""坏她"",""好她"",""坏我""]","[""强我"",""弱她"",""强她"",""弱我""]","","","","","","","","9","","","","","","","","","SRET","SRET_math_calculate","","key","9","16.661486486486645","581.2120876189673","322.7272540741398","","","","","1+8= ?","9","1","","","","","","","",""
"2780","","2","psychophysics","109","464988","0.0-7.0-5.0-0.6","5","5","5","3","5","4","2","5","3","4","5","0","0","-1","1","0","0","1","1","5","4","5","5","5","4","4","3","5","4","4","6","5","7","5","4","4","6","5","5","3","3","3","4","2","6","3","5","2","6","3","1","5","3","3","3","5","6","2","3","3","4","3","6","5","7","3","6","7","6","7","6","5","6","6","7","3","7","3","3","678265376743620608","王","533","Female","[""好我"",""坏她"",""好她"",""坏我""]","[""强我"",""弱她"",""强她"",""弱我""]","","","","","","","","2","","","","","","","","","SRET","SRET_math_calculate","","key","2","16.660843373494046","581.2120876189673","322.7272540741398","","","","","8/4= ?","2","1","","","","","","","",""
"2672","","2","psychophysics","110","467664","0.0-7.0-5.0-0.7","5","5","5","3","5","4","2","5","3","4","5","0","0","-1","1","0","0","1","1","5","4","5","5","5","4","4","3","5","4","4","6","5","7","5","4","4","6","5","5","3","3","3","4","2","6","3","5","2","6","3","1","5","3","3","3","5","6","2","3","3","4","3","6","5","7","3","6","7","6","7","6","5","6","6","7","3","7","3","3","678265376743620608","王","533","Female","[""好我"",""坏她"",""好她"",""坏我""]","[""强我"",""弱她"",""强她"",""弱我""]","","","","","","","","2","","","","","","","","","SRET","SRET_math_calculate","","key","2","16.653749999999853","581.2120876189673","322.7272540741398","","","","","12/6= ?","2","1","","","","","","","",""
"3108","","1","psychophysics","111","470776","0.0-7.0-5.0-0.8","5","5","5","3","5","4","2","5","3","4","5","0","0","-1","1","0","0","1","1","5","4","5","5","5","4","4","3","5","4","4","6","5","7","5","4","4","6","5","5","3","3","3","4","2","6","3","5","2","6","3","1","5","3","3","3","5","6","2","3","3","4","3","6","5","7","3","6","7","6","7","6","5","6","6","7","3","7","3","3","678265376743620608","王","533","Female","[""好我"",""坏她"",""好她"",""坏我""]","[""强我"",""弱她"",""强她"",""弱我""]","","","","","","","","1","","","","","","","","","SRET","SRET_math_calculate","","key","1","16.660752688172167","581.2120876189673","322.7272540741398","","","","","30-29= ?","1","1","","","","","","","",""
"2623","","0","psychophysics","112","473405","0.0-7.0-5.0-0.9","5","5","5","3","5","4","2","5","3","4","5","0","0","-1","1","0","0","1","1","5","4","5","5","5","4","4","3","5","4","4","6","5","7","5","4","4","6","5","5","3","3","3","4","2","6","3","5","2","6","3","1","5","3","3","3","5","6","2","3","3","4","3","6","5","7","3","6","7","6","7","6","5","6","6","7","3","7","3","3","678265376743620608","王","533","Female","[""好我"",""坏她"",""好她"",""坏我""]","[""强我"",""弱她"",""强她"",""弱我""]","","","","","","","","0","","","","","","","","","SRET","SRET_math_calculate","","key","0","16.661538461538537","581.2120876189673","322.7272540741398","","","","","1-1= ?","0","1","","","","","","","",""
"2253","","3","psychophysics","113","475666","0.0-7.0-5.0-0.10","5","5","5","3","5","4","2","5","3","4","5","0","0","-1","1","0","0","1","1","5","4","5","5","5","4","4","3","5","4","4","6","5","7","5","4","4","6","5","5","3","3","3","4","2","6","3","5","2","6","3","1","5","3","3","3","5","6","2","3","3","4","3","6","5","7","3","6","7","6","7","6","5","6","6","7","3","7","3","3","678265376743620608","王","533","Female","[""好我"",""坏她"",""好她"",""坏我""]","[""强我"",""弱她"",""强她"",""弱我""]","","","","","","","","3","","","","","","","","","SRET","SRET_math_calculate","","key","3","16.661481481481395","581.2120876189673","322.7272540741398","","","","","8-5= ?","3","1","","","","","","","",""
"2225","","0","psychophysics","114","477899","0.0-7.0-5.0-0.11","5","5","5","3","5","4","2","5","3","4","5","0","0","-1","1","0","0","1","1","5","4","5","5","5","4","4","3","5","4","4","6","5","7","5","4","4","6","5","5","3","3","3","4","2","6","3","5","2","6","3","1","5","3","3","3","5","6","2","3","3","4","3","6","5","7","3","6","7","6","7","6","5","6","6","7","3","7","3","3","678265376743620608","王","533","Female","[""好我"",""坏她"",""好她"",""坏我""]","[""强我"",""弱她"",""强她"",""弱我""]","","","","","","","","0","","","","","","","","","SRET","SRET_math_calculate","","key","0","16.65939849624025","581.2120876189673","322.7272540741398","","","","","9-9= ?","0","1","","","","","","","",""
"3180","","9","psychophysics","115","481083","0.0-7.0-5.0-0.12","5","5","5","3","5","4","2","5","3","4","5","0","0","-1","1","0","0","1","1","5","4","5","5","5","4","4","3","5","4","4","6","5","7","5","4","4","6","5","5","3","3","3","4","2","6","3","5","2","6","3","1","5","3","3","3","5","6","2","3","3","4","3","6","5","7","3","6","7","6","7","6","5","6","6","7","3","7","3","3","678265376743620608","王","533","Female","[""好我"",""坏她"",""好她"",""坏我""]","[""强我"",""弱她"",""强她"",""弱我""]","","","","","","","","9","","","","","","","","","SRET","SRET_math_calculate","","key","9","16.660526315789475","581.2120876189673","322.7272540741398","","","","","1*9= ?","9","1","","","","","","","",""
"2666","","7","psychophysics","116","483757","0.0-7.0-5.0-0.13","5","5","5","3","5","4","2","5","3","4","5","0","0","-1","1","0","0","1","1","5","4","5","5","5","4","4","3","5","4","4","6","5","7","5","4","4","6","5","5","3","3","3","4","2","6","3","5","2","6","3","1","5","3","3","3","5","6","2","3","3","4","3","6","5","7","3","6","7","6","7","6","5","6","6","7","3","7","3","3","678265376743620608","王","533","Female","[""好我"",""坏她"",""好她"",""坏我""]","[""强我"",""弱她"",""强她"",""弱我""]","","","","","","","","7","","","","","","","","","SRET","SRET_math_calculate","","key","7","16.659375","581.2120876189673","322.7272540741398","","","","","3+4= ?","7","1","","","","","","","",""
"2448","","4","psychophysics","117","486209","0.0-7.0-5.0-0.14","5","5","5","3","5","4","2","5","3","4","5","0","0","-1","1","0","0","1","1","5","4","5","5","5","4","4","3","5","4","4","6","5","7","5","4","4","6","5","5","3","3","3","4","2","6","3","5","2","6","3","1","5","3","3","3","5","6","2","3","3","4","3","6","5","7","3","6","7","6","7","6","5","6","6","7","3","7","3","3","678265376743620608","王","533","Female","[""好我"",""坏她"",""好她"",""坏我""]","[""强我"",""弱她"",""强她"",""弱我""]","","","","","","","","4","","","","","","","","","SRET","SRET_math_calculate","","key","4","16.636301369862775","581.2120876189673","322.7272540741398","","","","","8-4= ?","4","1","","","","","","","",""
"2007","","7","psychophysics","118","488219","0.0-7.0-5.0-0.15","5","5","5","3","5","4","2","5","3","4","5","0","0","-1","1","0","0","1","1","5","4","5","5","5","4","4","3","5","4","4","6","5","7","5","4","4","6","5","5","3","3","3","4","2","6","3","5","2","6","3","1","5","3","3","3","5","6","2","3","3","4","3","6","5","7","3","6","7","6","7","6","5","6","6","7","3","7","3","3","678265376743620608","王","533","Female","[""好我"",""坏她"",""好她"",""坏我""]","[""强我"",""弱她"",""强她"",""弱我""]","","","","","","","","7","","","","","","","","","SRET","SRET_math_calculate","","key","7","16.664166666666762","581.2120876189673","322.7272540741398","","","","","1+6= ?","7","1","","","","","","","",""
"2140","","4","psychophysics","119","490363","0.0-7.0-5.0-0.16","5","5","5","3","5","4","2","5","3","4","5","0","0","-1","1","0","0","1","1","5","4","5","5","5","4","4","3","5","4","4","6","5","7","5","4","4","6","5","5","3","3","3","4","2","6","3","5","2","6","3","1","5","3","3","3","5","6","2","3","3","4","3","6","5","7","3","6","7","6","7","6","5","6","6","7","3","7","3","3","678265376743620608","王","533","Female","[""好我"",""坏她"",""好她"",""坏我""]","[""强我"",""弱她"",""强她"",""弱我""]","","","","","","","","4","","","","","","","","","SRET","SRET_math_calculate","","key","4","16.659055118110327","581.2120876189673","322.7272540741398","","","","","3+1= ?","4","1","","","","","","","",""
"2029","","5","psychophysics","120","492400","0.0-7.0-5.0-0.17","5","5","5","3","5","4","2","5","3","4","5","0","0","-1","1","0","0","1","1","5","4","5","5","5","4","4","3","5","4","4","6","5","7","5","4","4","6","5","5","3","3","3","4","2","6","3","5","2","6","3","1","5","3","3","3","5","6","2","3","3","4","3","6","5","7","3","6","7","6","7","6","5","6","6","7","3","7","3","3","678265376743620608","王","533","Female","[""好我"",""坏她"",""好她"",""坏我""]","[""强我"",""弱她"",""强她"",""弱我""]","","","","","","","","5","","","","","","","","","SRET","SRET_math_calculate","","key","5","16.66311475409855","581.2120876189673","322.7272540741398","","","","","2+3= ?","5","1","","","","","","","",""
"3164","","7","psychophysics","121","495569","0.0-7.0-5.0-0.18","5","5","5","3","5","4","2","5","3","4","5","0","0","-1","1","0","0","1","1","5","4","5","5","5","4","4","3","5","4","4","6","5","7","5","4","4","6","5","5","3","3","3","4","2","6","3","5","2","6","3","1","5","3","3","3","5","6","2","3","3","4","3","6","5","7","3","6","7","6","7","6","5","6","6","7","3","7","3","3","678265376743620608","王","533","Female","[""好我"",""坏她"",""好她"",""坏我""]","[""强我"",""弱她"",""强她"",""弱我""]","","","","","","","","7","","","","","","","","","SRET","SRET_math_calculate","","key","7","16.661904761904946","581.2120876189673","322.7272540741398","","","","","11-3= ?","8","0","","","","","","","",""
"2394","","3","psychophysics","122","497968","0.0-7.0-5.0-0.19","5","5","5","3","5","4","2","5","3","4","5","0","0","-1","1","0","0","1","1","5","4","5","5","5","4","4","3","5","4","4","6","5","7","5","4","4","6","5","5","3","3","3","4","2","6","3","5","2","6","3","1","5","3","3","3","5","6","2","3","3","4","3","6","5","7","3","6","7","6","7","6","5","6","6","7","3","7","3","3","678265376743620608","王","533","Female","[""好我"",""坏她"",""好她"",""坏我""]","[""强我"",""弱她"",""强她"",""弱我""]","","","","","","","","3","","","","","","","","","SRET","SRET_math_calculate","","key","3","16.653846153846153","581.2120876189673","322.7272540741398","","","","","1+2= ?","3","1","","","","","","","",""
"2995","","7","psychophysics","123","500968","0.0-7.0-5.0-0.20","5","5","5","3","5","4","2","5","3","4","5","0","0","-1","1","0","0","1","1","5","4","5","5","5","4","4","3","5","4","4","6","5","7","5","4","4","6","5","5","3","3","3","4","2","6","3","5","2","6","3","1","5","3","3","3","5","6","2","3","3","4","3","6","5","7","3","6","7","6","7","6","5","6","6","7","3","7","3","3","678265376743620608","王","533","Female","[""好我"",""坏她"",""好她"",""坏我""]","[""强我"",""弱她"",""强她"",""弱我""]","","","","","","","","7","","","","","","","","","SRET","SRET_math_calculate","","key","7","16.660893854748863","581.2120876189673","322.7272540741398","","","","","9-2= ?","7","1","","","","","","","",""
"3475","","8","psychophysics","124","504447","0.0-7.0-5.0-0.21","5","5","5","3","5","4","2","5","3","4","5","0","0","-1","1","0","0","1","1","5","4","5","5","5","4","4","3","5","4","4","6","5","7","5","4","4","6","5","5","3","3","3","4","2","6","3","5","2","6","3","1","5","3","3","3","5","6","2","3","3","4","3","6","5","7","3","6","7","6","7","6","5","6","6","7","3","7","3","3","678265376743620608","王","533","Female","[""好我"",""坏她"",""好她"",""坏我""]","[""强我"",""弱她"",""强她"",""弱我""]","","","","","","","","8","","","","","","","","","SRET","SRET_math_calculate","","key","8","16.661057692307693","581.2120876189673","322.7272540741398","","","","","56/7= ?","8","1","","","","","","","",""
"3904","","7","psychophysics","125","508355","0.0-7.0-5.0-0.22","5","5","5","3","5","4","2","5","3","4","5","0","0","-1","1","0","0","1","1","5","4","5","5","5","4","4","3","5","4","4","6","5","7","5","4","4","6","5","5","3","3","3","4","2","6","3","5","2","6","3","1","5","3","3","3","5","6","2","3","3","4","3","6","5","7","3","6","7","6","7","6","5","6","6","7","3","7","3","3","678265376743620608","王","533","Female","[""好我"",""坏她"",""好她"",""坏我""]","[""强我"",""弱她"",""强她"",""弱我""]","","","","","","","","7","","","","","","","","","SRET","SRET_math_calculate","","key","7","16.659656652360564","581.2120876189673","322.7272540741398","","","","","11-4= ?","7","1","","","","","","","",""
"2507","","8","psychophysics","126","510866","0.0-7.0-5.0-0.23","5","5","5","3","5","4","2","5","3","4","5","0","0","-1","1","0","0","1","1","5","4","5","5","5","4","4","3","5","4","4","6","5","7","5","4","4","6","5","5","3","3","3","4","2","6","3","5","2","6","3","1","5","3","3","3","5","6","2","3","3","4","3","6","5","7","3","6","7","6","7","6","5","6","6","7","3","7","3","3","678265376743620608","王","533","Female","[""好我"",""坏她"",""好她"",""坏我""]","[""强我"",""弱她"",""强她"",""弱我""]","","","","","","","","8","","","","","","","","","SRET","SRET_math_calculate","","key","8","16.662666666666823","581.2120876189673","322.7272540741398","","","","","3+5= ?","8","1","","","","","","","",""
"3109","","8","psychophysics","127","513980","0.0-7.0-5.0-0.24","5","5","5","3","5","4","2","5","3","4","5","0","0","-1","1","0","0","1","1","5","4","5","5","5","4","4","3","5","4","4","6","5","7","5","4","4","6","5","5","3","3","3","4","2","6","3","5","2","6","3","1","5","3","3","3","5","6","2","3","3","4","3","6","5","7","3","6","7","6","7","6","5","6","6","7","3","7","3","3","678265376743620608","王","533","Female","[""好我"",""坏她"",""好她"",""坏我""]","[""强我"",""弱她"",""强她"",""弱我""]","","","","","","","","8","","","","","","","","","SRET","SRET_math_calculate","","key","8","16.660752688171854","581.2120876189673","322.7272540741398","","","","","72/9= ?","8","1","","","","","","","",""
"2700","","1","psychophysics","128","516685","0.0-7.0-5.0-0.25","5","5","5","3","5","4","2","5","3","4","5","0","0","-1","1","0","0","1","1","5","4","5","5","5","4","4","3","5","4","4","6","5","7","5","4","4","6","5","5","3","3","3","4","2","6","3","5","2","6","3","1","5","3","3","3","5","6","2","3","3","4","3","6","5","7","3","6","7","6","7","6","5","6","6","7","3","7","3","3","678265376743620608","王","533","Female","[""好我"",""坏她"",""好她"",""坏我""]","[""强我"",""弱她"",""强她"",""弱我""]","","","","","","","","1","","","","","","","","","SRET","SRET_math_calculate","","key","1","16.660248447204896","581.2120876189673","322.7272540741398","","","","","10-9= ?","1","1","","","","","","","",""
"4977","","5","psychophysics","129","521670","0.0-7.0-5.0-0.26","5","5","5","3","5","4","2","5","3","4","5","0","0","-1","1","0","0","1","1","5","4","5","5","5","4","4","3","5","4","4","6","5","7","5","4","4","6","5","5","3","3","3","4","2","6","3","5","2","6","3","1","5","3","3","3","5","6","2","3","3","4","3","6","5","7","3","6","7","6","7","6","5","6","6","7","3","7","3","3","678265376743620608","王","533","Female","[""好我"",""坏她"",""好她"",""坏我""]","[""强我"",""弱她"",""强她"",""弱我""]","","","","","","","","5","","","","","","","","","SRET","SRET_math_calculate","","key","5","16.659197324414638","581.2120876189673","322.7272540741398","","","","","12-7= ?","5","1","","","","","","","",""
"2637","","9","psychophysics","130","524312","0.0-7.0-5.0-0.27","5","5","5","3","5","4","2","5","3","4","5","0","0","-1","1","0","0","1","1","5","4","5","5","5","4","4","3","5","4","4","6","5","7","5","4","4","6","5","5","3","3","3","4","2","6","3","5","2","6","3","1","5","3","3","3","5","6","2","3","3","4","3","6","5","7","3","6","7","6","7","6","5","6","6","7","3","7","3","3","678265376743620608","王","533","Female","[""好我"",""坏她"",""好她"",""坏我""]","[""强我"",""弱她"",""强她"",""弱我""]","","","","","","","","9","","","","","","","","","SRET","SRET_math_calculate","","key","9","16.661146496815213","581.2120876189673","322.7272540741398","","","","","2+7= ?","9","1","","","","","","","",""
"2340","","6","psychophysics","131","526659","0.0-7.0-5.0-0.28","5","5","5","3","5","4","2","5","3","4","5","0","0","-1","1","0","0","1","1","5","4","5","5","5","4","4","3","5","4","4","6","5","7","5","4","4","6","5","5","3","3","3","4","2","6","3","5","2","6","3","1","5","3","3","3","5","6","2","3","3","4","3","6","5","7","3","6","7","6","7","6","5","6","6","7","3","7","3","3","678265376743620608","王","533","Female","[""好我"",""坏她"",""好她"",""坏我""]","[""强我"",""弱她"",""强她"",""弱我""]","","","","","","","","6","","","","","","","","","SRET","SRET_math_calculate","","key","6","16.65857142857193","581.2120876189673","322.7272540741398","","","","","11-5= ?","6","1","","","","","","","",""
"2277","","4","psychophysics","132","528939","0.0-7.0-5.0-0.29","5","5","5","3","5","4","2","5","3","4","5","0","0","-1","1","0","0","1","1","5","4","5","5","5","4","4","3","5","4","4","6","5","7","5","4","4","6","5","5","3","3","3","4","2","6","3","5","2","6","3","1","5","3","3","3","5","6","2","3","3","4","3","6","5","7","3","6","7","6","7","6","5","6","6","7","3","7","3","3","678265376743620608","王","533","Female","[""好我"",""坏她"",""好她"",""坏我""]","[""强我"",""弱她"",""强她"",""弱我""]","","","","","","","","4","","","","","","","","","SRET","SRET_math_calculate","","key","4","16.6602941176474","581.2120876189673","322.7272540741398","","","","","2+2= ?","4","1","","","","","","","",""
"4546","","9","psychophysics","133","533488","0.0-7.0-5.0-0.30","5","5","5","3","5","4","2","5","3","4","5","0","0","-1","1","0","0","1","1","5","4","5","5","5","4","4","3","5","4","4","6","5","7","5","4","4","6","5","5","3","3","3","4","2","6","3","5","2","6","3","1","5","3","3","3","5","6","2","3","3","4","3","6","5","7","3","6","7","6","7","6","5","6","6","7","3","7","3","3","678265376743620608","王","533","Female","[""好我"",""坏她"",""好她"",""坏我""]","[""强我"",""弱她"",""强她"",""弱我""]","","","","","","","","9","","","","","","","","","SRET","SRET_math_calculate","","key","9","16.65625","581.2120876189673","322.7272540741398","","","","","43-34= ?","9","1","","","","","","","",""
"2575","","9","psychophysics","134","536068","0.0-7.0-5.0-0.31","5","5","5","3","5","4","2","5","3","4","5","0","0","-1","1","0","0","1","1","5","4","5","5","5","4","4","3","5","4","4","6","5","7","5","4","4","6","5","5","3","3","3","4","2","6","3","5","2","6","3","1","5","3","3","3","5","6","2","3","3","4","3","6","5","7","3","6","7","6","7","6","5","6","6","7","3","7","3","3","678265376743620608","王","533","Female","[""好我"",""坏她"",""好她"",""坏我""]","[""强我"",""弱她"",""强她"",""弱我""]","","","","","","","","9","","","","","","","","","SRET","SRET_math_calculate","","key","9","16.64999999999985","581.2120876189673","322.7272540741398","","","","","81/9= ?","9","1","","","","","","","",""
"2149","","8","psychophysics","135","538222","0.0-7.0-5.0-0.32","5","5","5","3","5","4","2","5","3","4","5","0","0","-1","1","0","0","1","1","5","4","5","5","5","4","4","3","5","4","4","6","5","7","5","4","4","6","5","5","3","3","3","4","2","6","3","5","2","6","3","1","5","3","3","3","5","6","2","3","3","4","3","6","5","7","3","6","7","6","7","6","5","6","6","7","3","7","3","3","678265376743620608","王","533","Female","[""好我"",""坏她"",""好她"",""坏我""]","[""强我"",""弱她"",""强她"",""弱我""]","","","","","","","","8","","","","","","","","","SRET","SRET_math_calculate","","key","8","16.607812499999454","581.2120876189673","322.7272540741398","","","","","5+3= ?","8","1","","","","","","","",""
"2739","","2","psychophysics","136","540965","0.0-7.0-5.0-0.33","5","5","5","3","5","4","2","5","3","4","5","0","0","-1","1","0","0","1","1","5","4","5","5","5","4","4","3","5","4","4","6","5","7","5","4","4","6","5","5","3","3","3","4","2","6","3","5","2","6","3","1","5","3","3","3","5","6","2","3","3","4","3","6","5","7","3","6","7","6","7","6","5","6","6","7","3","7","3","3","678265376743620608","王","533","Female","[""好我"",""坏她"",""好她"",""坏我""]","[""强我"",""弱她"",""强她"",""弱我""]","","","","","","","","2","","","","","","","","","SRET","SRET_math_calculate","","key","2","16.646951219512054","581.2120876189673","322.7272540741398","","","","","5-3= ?","2","1","","","","","","","",""
"2020","","2","psychophysics","137","542989","0.0-7.0-5.0-0.34","5","5","5","3","5","4","2","5","3","4","5","0","0","-1","1","0","0","1","1","5","4","5","5","5","4","4","3","5","4","4","6","5","7","5","4","4","6","5","5","3","3","3","4","2","6","3","5","2","6","3","1","5","3","3","3","5","6","2","3","3","4","3","6","5","7","3","6","7","6","7","6","5","6","6","7","3","7","3","3","678265376743620608","王","533","Female","[""好我"",""坏她"",""好她"",""坏我""]","[""强我"",""弱她"",""强她"",""弱我""]","","","","","","","","2","","","","","","","","","SRET","SRET_math_calculate","","key","2","16.66333333333411","581.2120876189673","322.7272540741398","","","","","1+1= ?","2","1","","","","","","","",""
