"rt","stimulus","response","trial_type","trial_index","time_elapsed","internal_node_id","swb_1","swb_2","swb_3","swb_4","swb_5","LOT_1","LOT_2","LOT_3","LOT_4","LOT_5","LOT_6","IPC_1","IPC_2","IPC_3","IPC_4","IPC_5","IPC_6","IPC_7","IPC_8","MorIden_1","MorIden_2","MorIden_3","MorIden_4","MorIden_5","MorIden_6","MorIden_7","MorIden_8","MorIden_9","MorIden_10","moralSeImag_1","moralSeImag_2","moralSeImag_3","moralSeImag_4","moralSeImag_5","moralSeImag_6","moralSeImag_7","moralSeImag_8","moralSeImag_9","sde_1","sde_2","sde_3","sde_4","sde_5","sde_6","sde_7","sde_8","sde_9","sde_10","sde_11","sde_12","sde_13","sde_14","sde_15","sde_16","sde_17","sde_18","sde_19","sde_20","IM_1","IM_2","IM_3","IM_4","IM_5","IM_6","IM_7","IM_8","IM_9","IM_10","IM_11","IM_12","IM_13","IM_14","IM_15","IM_16","IM_17","IM_18","IM_19","IM_20","subj_idx","friend_name","ParticipantID","Sex","Word","Word2","value","success","timeout","failed_images","failed_audio","failed_video","user_agent","responses","item_order","radio_event_ids","radio_event_times","key_event_times","mouse_event_times","straightlining","zigzagging","honeypot","view_history","response_type","key_press","avg_frame_time","center_x","center_y","correct_response","correct","identity","Image","word","condition","task_id","screen_id","time_stamp","person","valence","domain","math","status","duration","question_order"
"18968","
   <p><div style='color:white; font-size: 25px'>您好，欢迎参加本次实验。</div></p>
   <p><div style='color:white; font-size: 25px'>为充分保障您的权利，请确保您已经知晓并同意《参与实验同意书》以及《数据公开知情同意书》。</div></p>
   <p><div style='color:white; font-size: 25px'>如果您未见过上述内容，请咨询实验员。</div></p>
   <p style='color:white; font-size: 25px'>如果您选择继续实验，则表示您已经清楚两份知情同意书的内容并同意。</p>
   <p><div style = ""color: red;font-size:30px;"">请确保您记得day0的实验编号，您将在本次实验输入该编号，若您忘记，请咨询实验员后作答。</div></p>
   <p> <div style = ""color: green""><按空格键至下页></div> </p>
   "," ","html-keyboard-response","0","18970","0.0-0.0","4","4","3","3","3","4","3","3","5","5","4","-1","-1","-1","0","-1","-1","0","0","4","5","5","5","4","4","4","4","5","4","6","7","6","6","6","6","7","7","8","5","4","2","5","5","2","6","4","4","3","3","3","5","3","4","5","5","2","3","3","4","5","4","6","3","7","4","6","5","6","5","5","5","5","5","5","5","5","3","5","644523506599460864","郭","208","Female","[""好她"",""坏她"",""好我"",""坏我""]","[""强她"",""弱她"",""强我"",""弱我""]","","","","","","","","","","","","","","","","","","","","","","","","","","","","","","","","","","","","","",""
"","","","call-function","1","18970","0.0-1.0-0.0","4","4","3","3","3","4","3","3","5","5","4","-1","-1","-1","0","-1","-1","0","0","4","5","5","5","4","4","4","4","5","4","6","7","6","6","6","6","7","7","8","5","4","2","5","5","2","6","4","4","3","3","3","5","3","4","5","5","2","3","3","4","5","4","6","3","7","4","6","5","6","5","5","5","5","5","5","5","5","3","5","644523506599460864","郭","208","Female","[""好她"",""坏她"",""好我"",""坏我""]","[""强她"",""弱她"",""强我"",""弱我""]","","","","","","","","","","","","","","","","","","","","","","","","","","","","","","","","","","","","","",""
"22911","","[{""name"":""Sex"",""value"":""1""},{""name"":""friend_name"",""value"":""郭""},{""name"":""ParticipantID"",""value"":""208""}]","survey-html-form","2","41882","0.0-1.0-1.0","4","4","3","3","3","4","3","3","5","5","4","-1","-1","-1","0","-1","-1","0","0","4","5","5","5","4","4","4","4","5","4","6","7","6","6","6","6","7","7","8","5","4","2","5","5","2","6","4","4","3","3","3","5","3","4","5","5","2","3","3","4","5","4","6","3","7","4","6","5","6","5","5","5","5","5","5","5","5","3","5","644523506599460864","郭","208","Female","[""好她"",""坏她"",""好我"",""坏我""]","[""强她"",""弱她"",""强我"",""弱我""]","","","","","","","","","","","","","","","","","","","","","","","","","","","","","","","","","","","","","",""
"","","","preload","3","42153","0.0-2.0","4","4","3","3","3","4","3","3","5","5","4","-1","-1","-1","0","-1","-1","0","0","4","5","5","5","4","4","4","4","5","4","6","7","6","6","6","6","7","7","8","5","4","2","5","5","2","6","4","4","3","3","3","5","3","4","5","5","2","3","3","4","5","4","6","3","7","4","6","5","6","5","5","5","5","5","5","5","5","3","5","644523506599460864","郭","208","Female","[""好她"",""坏她"",""好我"",""坏我""]","[""强她"",""弱她"",""强我"",""弱我""]","","true","false","[]","[]","[]","","","","","","","","","","","","","","","","","","","","","","","","","","","","","","","",""
"","","","fullscreen","4","44231","0.0-3.0","4","4","3","3","3","4","3","3","5","5","4","-1","-1","-1","0","-1","-1","0","0","4","5","5","5","4","4","4","4","5","4","6","7","6","6","6","6","7","7","8","5","4","2","5","5","2","6","4","4","3","3","3","5","3","4","5","5","2","3","3","4","5","4","6","3","7","4","6","5","6","5","5","5","5","5","5","5","5","3","5","644523506599460864","郭","208","Female","[""好她"",""坏她"",""好我"",""坏我""]","[""强她"",""弱她"",""强我"",""弱我""]","","true","","","","","{}","","","","","","","","","","","","","","","","","","","","","","","","","","","","","","",""
"11466.600000000093","","{""Q01"":""4"",""Q02"":""4"",""Q03"":""3"",""Q04"":""3"",""Q05"":""3""}","survey-template","5","55700","0.0-4.0","4","4","3","3","3","4","3","3","5","5","4","-1","-1","-1","0","-1","-1","0","0","4","5","5","5","4","4","4","4","5","4","6","7","6","6","6","6","7","7","8","5","4","2","5","5","2","6","4","4","3","3","3","5","3","4","5","5","2","3","3","4","5","4","6","3","7","4","6","5","6","5","5","5","5","5","5","5","5","3","5","644523506599460864","郭","208","Female","[""好她"",""坏她"",""好我"",""坏我""]","[""强她"",""弱她"",""强我"",""弱我""]","","","","","","","","{""Q01"":""4"",""Q02"":""4"",""Q03"":""3"",""Q04"":""3"",""Q05"":""3""}","[0,1,2,3,4]","[""Q01"",""Q02"",""Q03"",""Q04"",""Q05""]","[2649.7000000001863,3577.5,6937.40000000014,7553.5,8969.5]","[]","[2649.7000000001863,3577.5,5201.40000000014,6937.40000000014,7553.5,8969.5,10025.5,11465.600000000093]","0.6","0.25","0","","","","","","","","","","","","","","","","","","","","","",""
"19164.700000000186","","{""Q01"":""4"",""Q02"":""3"",""Q03"":""3"",""Q04"":""5"",""Q05"":""5"",""Q06"":""4""}","survey-template","6","74868","0.0-5.0","4","4","3","3","3","4","3","3","5","5","4","-1","-1","-1","0","-1","-1","0","0","4","5","5","5","4","4","4","4","5","4","6","7","6","6","6","6","7","7","8","5","4","2","5","5","2","6","4","4","3","3","3","5","3","4","5","5","2","3","3","4","5","4","6","3","7","4","6","5","6","5","5","5","5","5","5","5","5","3","5","644523506599460864","郭","208","Female","[""好她"",""坏她"",""好我"",""坏我""]","[""强她"",""弱她"",""强我"",""弱我""]","","","","","","","","{""Q01"":""4"",""Q02"":""3"",""Q03"":""3"",""Q04"":""5"",""Q05"":""5"",""Q06"":""4""}","[0,1,2,3,4,5]","[""Q01"",""Q02"",""Q03"",""Q04"",""Q05"",""Q06""]","[3340.2000000001863,8804.100000000093,10283.90000000014,15005,16116.100000000093,17867.90000000014]","[]","[3340.2000000001863,8804.100000000093,10283.90000000014,13685.100000000093,15005,16116.100000000093,17867.90000000014,19164]","0.3333333333333333","0.2","0","","","","","","","","","","","","","","","","","","","","","",""
"26663.399999999907","","{""Q01"":""-1"",""Q02"":""-1"",""Q03"":""-1"",""Q04"":""0"",""Q05"":""-1"",""Q06"":""-1"",""Q07"":""0"",""Q08"":""0""}","survey-template","7","101534","0.0-6.0","4","4","3","3","3","4","3","3","5","5","4","-1","-1","-1","0","-1","-1","0","0","4","5","5","5","4","4","4","4","5","4","6","7","6","6","6","6","7","7","8","5","4","2","5","5","2","6","4","4","3","3","3","5","3","4","5","5","2","3","3","4","5","4","6","3","7","4","6","5","6","5","5","5","5","5","5","5","5","3","5","644523506599460864","郭","208","Female","[""好她"",""坏她"",""好我"",""坏我""]","[""强她"",""弱她"",""强我"",""弱我""]","","","","","","","","{""Q01"":""-1"",""Q02"":""-1"",""Q03"":""-1"",""Q04"":""0"",""Q05"":""-1"",""Q06"":""-1"",""Q07"":""0"",""Q08"":""0""}","[0,1,2,3,4,5,6,7]","[""Q01"",""Q02"",""Q03"",""Q04"",""Q05"",""Q06"",""Q07"",""Q08""]","[4982.100000000093,7804.800000000047,10181,14580.800000000047,17212.899999999907,19004.800000000047,22932.899999999907,25924.899999999907]","[]","[4982.100000000093,7804.800000000047,10181,14580.800000000047,17212.899999999907,19004.800000000047,22932.899999999907,25301.100000000093,25924.899999999907,26662.5]","0.625","0.42857142857142855","0","","","","","","","","","","","","","","","","","","","","","",""
"35269","","","instructions","8","136808","0.0-7.0","4","4","3","3","3","4","3","3","5","5","4","-1","-1","-1","0","-1","-1","0","0","4","5","5","5","4","4","4","4","5","4","6","7","6","6","6","6","7","7","8","5","4","2","5","5","2","6","4","4","3","3","3","5","3","4","5","5","2","3","3","4","5","4","6","3","7","4","6","5","6","5","5","5","5","5","5","5","5","3","5","644523506599460864","郭","208","Female","[""好她"",""坏她"",""好我"",""坏我""]","[""强她"",""弱她"",""强我"",""弱我""]","","","","","","","","","","","","","","","","","[{""page_index"":0,""viewing_time"":35268}]","","","","","","","","","","","","","","","","","","","","",""
"63438","","","instructions","9","200253","0.0-8.0-1.0-0.0","4","4","3","3","3","4","3","3","5","5","4","-1","-1","-1","0","-1","-1","0","0","4","5","5","5","4","4","4","4","5","4","6","7","6","6","6","6","7","7","8","5","4","2","5","5","2","6","4","4","3","3","3","5","3","4","5","5","2","3","3","4","5","4","6","3","7","4","6","5","6","5","5","5","5","5","5","5","5","3","5","644523506599460864","郭","208","Female","[""好她"",""坏她"",""好我"",""坏我""]","[""强她"",""弱她"",""强我"",""弱我""]","","","","","","","","","","","","","","","","","[{""page_index"":0,""viewing_time"":17614},{""page_index"":1,""viewing_time"":39464},{""page_index"":2,""viewing_time"":4536},{""page_index"":3,""viewing_time"":1824}]","","","","","","","","","","","","","","","","","","","","",""
"null","","null","psychophysics","10","202458","0.0-8.0-1.0-1.0-0.0-0.0","4","4","3","3","3","4","3","3","5","5","4","-1","-1","-1","0","-1","-1","0","0","4","5","5","5","4","4","4","4","5","4","6","7","6","6","6","6","7","7","8","5","4","2","5","5","2","6","4","4","3","3","3","5","3","4","5","5","2","3","3","4","5","4","6","3","7","4","6","5","6","5","5","5","5","5","5","5","5","3","5","644523506599460864","郭","208","Female","[""好她"",""坏她"",""好我"",""坏我""]","[""强她"",""弱她"",""强我"",""弱我""]","","","","","","","","null","","","","","","","","","","key","null","16.68438931297709","960","536","j","false","nonmatch","img/square.png","弱我","强我","prac_ALT2_ability","practice_ability","","","","","","","",""
"null","<span class='add_' style='color:yellow; font-size: 70px;'> 太慢! </span>","null","html-keyboard-response","11","202959","0.0-8.0-1.0-1.0-0.0-1.0","4","4","3","3","3","4","3","3","5","5","4","-1","-1","-1","0","-1","-1","0","0","4","5","5","5","4","4","4","4","5","4","6","7","6","6","6","6","7","7","8","5","4","2","5","5","2","6","4","4","3","3","3","5","3","4","5","5","2","3","3","4","5","4","6","3","7","4","6","5","6","5","5","5","5","5","5","5","5","3","5","644523506599460864","郭","208","Female","[""好她"",""坏她"",""好我"",""坏我""]","[""强她"",""弱她"",""强我"",""弱我""]","","","","","","","","","","","","","","","","","","","","","","","","","","","","","","feedback_test","","","","","","","",""
"973","","j","psychophysics","12","204933","0.0-8.0-1.0-1.0-0.0-0.1","4","4","3","3","3","4","3","3","5","5","4","-1","-1","-1","0","-1","-1","0","0","4","5","5","5","4","4","4","4","5","4","6","7","6","6","6","6","7","7","8","5","4","2","5","5","2","6","4","4","3","3","3","5","3","4","5","5","2","3","3","4","5","4","6","3","7","4","6","5","6","5","5","5","5","5","5","5","5","3","5","644523506599460864","郭","208","Female","[""好她"",""坏她"",""好我"",""坏我""]","[""强她"",""弱她"",""强我"",""弱我""]","","","","","","","","nonmatch","","","","","","","","","","key","j","16.684508474576248","960","536","j","true","nonmatch","img/hexagon.png","弱我","强她","prac_ALT2_ability","practice_ability","","","","","","","",""
"null","<span style='color:GreenYellow; font-size: 70px;'>正确! </span>","null","html-keyboard-response","13","205435","0.0-8.0-1.0-1.0-0.0-1.1","4","4","3","3","3","4","3","3","5","5","4","-1","-1","-1","0","-1","-1","0","0","4","5","5","5","4","4","4","4","5","4","6","7","6","6","6","6","7","7","8","5","4","2","5","5","2","6","4","4","3","3","3","5","3","4","5","5","2","3","3","4","5","4","6","3","7","4","6","5","6","5","5","5","5","5","5","5","5","3","5","644523506599460864","郭","208","Female","[""好她"",""坏她"",""好我"",""坏我""]","[""强她"",""弱她"",""强我"",""弱我""]","","","","","","","","","","","","","","","","","","","","","","","","","","","","","","feedback_test","","","","","","","",""
"882","","j","psychophysics","14","207333","0.0-8.0-1.0-1.0-0.0-0.2","4","4","3","3","3","4","3","3","5","5","4","-1","-1","-1","0","-1","-1","0","0","4","5","5","5","4","4","4","4","5","4","6","7","6","6","6","6","7","7","8","5","4","2","5","5","2","6","4","4","3","3","3","5","3","4","5","5","2","3","3","4","5","4","6","3","7","4","6","5","6","5","5","5","5","5","5","5","5","3","5","644523506599460864","郭","208","Female","[""好她"",""坏她"",""好我"",""坏我""]","[""强她"",""弱她"",""强我"",""弱我""]","","","","","","","","nonmatch","","","","","","","","","","key","j","16.683785714285737","960","536","f","false","match","img/trapezoid.png","弱我","弱我","prac_ALT2_ability","practice_ability","","","","","","","",""
"null","<span style='color:red; font-size: 70px;'>错误! </span>","null","html-keyboard-response","15","207834","0.0-8.0-1.0-1.0-0.0-1.2","4","4","3","3","3","4","3","3","5","5","4","-1","-1","-1","0","-1","-1","0","0","4","5","5","5","4","4","4","4","5","4","6","7","6","6","6","6","7","7","8","5","4","2","5","5","2","6","4","4","3","3","3","5","3","4","5","5","2","3","3","4","5","4","6","3","7","4","6","5","6","5","5","5","5","5","5","5","5","3","5","644523506599460864","郭","208","Female","[""好她"",""坏她"",""好我"",""坏我""]","[""强她"",""弱她"",""强我"",""弱我""]","","","","","","","","","","","","","","","","","","","","","","","","","","","","","","feedback_test","","","","","","","",""
"1066","","f","psychophysics","16","209901","0.0-8.0-1.0-1.0-0.0-0.3","4","4","3","3","3","4","3","3","5","5","4","-1","-1","-1","0","-1","-1","0","0","4","5","5","5","4","4","4","4","5","4","6","7","6","6","6","6","7","7","8","5","4","2","5","5","2","6","4","4","3","3","3","5","3","4","5","5","2","3","3","4","5","4","6","3","7","4","6","5","6","5","5","5","5","5","5","5","5","3","5","644523506599460864","郭","208","Female","[""好她"",""坏她"",""好我"",""坏我""]","[""强她"",""弱她"",""强我"",""弱我""]","","","","","","","","match","","","","","","","","","","key","f","16.682598360655753","960","536","j","false","nonmatch","img/hexagon.png","强我","强她","prac_ALT2_ability","practice_ability","","","","","","","",""
"null","<span style='color:red; font-size: 70px;'>错误! </span>","null","html-keyboard-response","17","210402","0.0-8.0-1.0-1.0-0.0-1.3","4","4","3","3","3","4","3","3","5","5","4","-1","-1","-1","0","-1","-1","0","0","4","5","5","5","4","4","4","4","5","4","6","7","6","6","6","6","7","7","8","5","4","2","5","5","2","6","4","4","3","3","3","5","3","4","5","5","2","3","3","4","5","4","6","3","7","4","6","5","6","5","5","5","5","5","5","5","5","3","5","644523506599460864","郭","208","Female","[""好她"",""坏她"",""好我"",""坏我""]","[""强她"",""弱她"",""强我"",""弱我""]","","","","","","","","","","","","","","","","","","","","","","","","","","","","","","feedback_test","","","","","","","",""
"882","","f","psychophysics","18","212285","0.0-8.0-1.0-1.0-0.0-0.4","4","4","3","3","3","4","3","3","5","5","4","-1","-1","-1","0","-1","-1","0","0","4","5","5","5","4","4","4","4","5","4","6","7","6","6","6","6","7","7","8","5","4","2","5","5","2","6","4","4","3","3","3","5","3","4","5","5","2","3","3","4","5","4","6","3","7","4","6","5","6","5","5","5","5","5","5","5","5","3","5","644523506599460864","郭","208","Female","[""好她"",""坏她"",""好我"",""坏我""]","[""强她"",""弱她"",""强我"",""弱我""]","","","","","","","","match","","","","","","","","","","key","f","16.68407142857125","960","536","f","true","match","img/square.png","强我","强我","prac_ALT2_ability","practice_ability","","","","","","","",""
"null","<span style='color:GreenYellow; font-size: 70px;'>正确! </span>","null","html-keyboard-response","19","212786","0.0-8.0-1.0-1.0-0.0-1.4","4","4","3","3","3","4","3","3","5","5","4","-1","-1","-1","0","-1","-1","0","0","4","5","5","5","4","4","4","4","5","4","6","7","6","6","6","6","7","7","8","5","4","2","5","5","2","6","4","4","3","3","3","5","3","4","5","5","2","3","3","4","5","4","6","3","7","4","6","5","6","5","5","5","5","5","5","5","5","3","5","644523506599460864","郭","208","Female","[""好她"",""坏她"",""好我"",""坏我""]","[""强她"",""弱她"",""强我"",""弱我""]","","","","","","","","","","","","","","","","","","","","","","","","","","","","","","feedback_test","","","","","","","",""
"898","","j","psychophysics","20","214685","0.0-8.0-1.0-1.0-0.0-0.5","4","4","3","3","3","4","3","3","5","5","4","-1","-1","-1","0","-1","-1","0","0","4","5","5","5","4","4","4","4","5","4","6","7","6","6","6","6","7","7","8","5","4","2","5","5","2","6","4","4","3","3","3","5","3","4","5","5","2","3","3","4","5","4","6","3","7","4","6","5","6","5","5","5","5","5","5","5","5","3","5","644523506599460864","郭","208","Female","[""好她"",""坏她"",""好我"",""坏我""]","[""强她"",""弱她"",""强我"",""弱我""]","","","","","","","","nonmatch","","","","","","","","","","key","j","16.68420353982303","960","536","j","true","nonmatch","img/ellipse.png","弱我","弱她","prac_ALT2_ability","practice_ability","","","","","","","",""
"null","<span style='color:GreenYellow; font-size: 70px;'>正确! </span>","null","html-keyboard-response","21","215186","0.0-8.0-1.0-1.0-0.0-1.5","4","4","3","3","3","4","3","3","5","5","4","-1","-1","-1","0","-1","-1","0","0","4","5","5","5","4","4","4","4","5","4","6","7","6","6","6","6","7","7","8","5","4","2","5","5","2","6","4","4","3","3","3","5","3","4","5","5","2","3","3","4","5","4","6","3","7","4","6","5","6","5","5","5","5","5","5","5","5","3","5","644523506599460864","郭","208","Female","[""好她"",""坏她"",""好我"",""坏我""]","[""强她"",""弱她"",""强我"",""弱我""]","","","","","","","","","","","","","","","","","","","","","","","","","","","","","","feedback_test","","","","","","","",""
"1193","","j","psychophysics","22","217381","0.0-8.0-1.0-1.0-0.0-0.6","4","4","3","3","3","4","3","3","5","5","4","-1","-1","-1","0","-1","-1","0","0","4","5","5","5","4","4","4","4","5","4","6","7","6","6","6","6","7","7","8","5","4","2","5","5","2","6","4","4","3","3","3","5","3","4","5","5","2","3","3","4","5","4","6","3","7","4","6","5","6","5","5","5","5","5","5","5","5","3","5","644523506599460864","郭","208","Female","[""好她"",""坏她"",""好我"",""坏我""]","[""强她"",""弱她"",""强我"",""弱我""]","","","","","","","","nonmatch","","","","","","","","","","key","j","16.68375572519073","960","536","f","false","match","img/ellipse.png","弱她","弱她","prac_ALT2_ability","practice_ability","","","","","","","",""
"null","<span style='color:red; font-size: 70px;'>错误! </span>","null","html-keyboard-response","23","217883","0.0-8.0-1.0-1.0-0.0-1.6","4","4","3","3","3","4","3","3","5","5","4","-1","-1","-1","0","-1","-1","0","0","4","5","5","5","4","4","4","4","5","4","6","7","6","6","6","6","7","7","8","5","4","2","5","5","2","6","4","4","3","3","3","5","3","4","5","5","2","3","3","4","5","4","6","3","7","4","6","5","6","5","5","5","5","5","5","5","5","3","5","644523506599460864","郭","208","Female","[""好她"",""坏她"",""好我"",""坏我""]","[""强她"",""弱她"",""强我"",""弱我""]","","","","","","","","","","","","","","","","","","","","","","","","","","","","","","feedback_test","","","","","","","",""
"null","","null","psychophysics","24","220085","0.0-8.0-1.0-1.0-0.0-0.7","4","4","3","3","3","4","3","3","5","5","4","-1","-1","-1","0","-1","-1","0","0","4","5","5","5","4","4","4","4","5","4","6","7","6","6","6","6","7","7","8","5","4","2","5","5","2","6","4","4","3","3","3","5","3","4","5","5","2","3","3","4","5","4","6","3","7","4","6","5","6","5","5","5","5","5","5","5","5","3","5","644523506599460864","郭","208","Female","[""好她"",""坏她"",""好我"",""坏我""]","[""强她"",""弱她"",""强我"",""弱我""]","","","","","","","","null","","","","","","","","","","key","null","16.682999999999986","960","536","j","false","nonmatch","img/ellipse.png","强我","弱她","prac_ALT2_ability","practice_ability","","","","","","","",""
"null","<span class='add_' style='color:yellow; font-size: 70px;'> 太慢! </span>","null","html-keyboard-response","25","220586","0.0-8.0-1.0-1.0-0.0-1.7","4","4","3","3","3","4","3","3","5","5","4","-1","-1","-1","0","-1","-1","0","0","4","5","5","5","4","4","4","4","5","4","6","7","6","6","6","6","7","7","8","5","4","2","5","5","2","6","4","4","3","3","3","5","3","4","5","5","2","3","3","4","5","4","6","3","7","4","6","5","6","5","5","5","5","5","5","5","5","3","5","644523506599460864","郭","208","Female","[""好她"",""坏她"",""好我"",""坏我""]","[""强她"",""弱她"",""强我"",""弱我""]","","","","","","","","","","","","","","","","","","","","","","","","","","","","","","feedback_test","","","","","","","",""
"977","","j","psychophysics","26","222565","0.0-8.0-1.0-1.0-0.0-0.8","4","4","3","3","3","4","3","3","5","5","4","-1","-1","-1","0","-1","-1","0","0","4","5","5","5","4","4","4","4","5","4","6","7","6","6","6","6","7","7","8","5","4","2","5","5","2","6","4","4","3","3","3","5","3","4","5","5","2","3","3","4","5","4","6","3","7","4","6","5","6","5","5","5","5","5","5","5","5","3","5","644523506599460864","郭","208","Female","[""好她"",""坏她"",""好我"",""坏我""]","[""强她"",""弱她"",""强我"",""弱我""]","","","","","","","","nonmatch","","","","","","","","","","key","j","16.68320512820536","960","536","j","true","nonmatch","img/ellipse.png","强她","弱她","prac_ALT2_ability","practice_ability","","","","","","","",""
"null","<span style='color:GreenYellow; font-size: 70px;'>正确! </span>","null","html-keyboard-response","27","223075","0.0-8.0-1.0-1.0-0.0-1.8","4","4","3","3","3","4","3","3","5","5","4","-1","-1","-1","0","-1","-1","0","0","4","5","5","5","4","4","4","4","5","4","6","7","6","6","6","6","7","7","8","5","4","2","5","5","2","6","4","4","3","3","3","5","3","4","5","5","2","3","3","4","5","4","6","3","7","4","6","5","6","5","5","5","5","5","5","5","5","3","5","644523506599460864","郭","208","Female","[""好她"",""坏她"",""好我"",""坏我""]","[""强她"",""弱她"",""强我"",""弱我""]","","","","","","","","","","","","","","","","","","","","","","","","","","","","","","feedback_test","","","","","","","",""
"null","","null","psychophysics","28","225279","0.0-8.0-1.0-1.0-0.0-0.9","4","4","3","3","3","4","3","3","5","5","4","-1","-1","-1","0","-1","-1","0","0","4","5","5","5","4","4","4","4","5","4","6","7","6","6","6","6","7","7","8","5","4","2","5","5","2","6","4","4","3","3","3","5","3","4","5","5","2","3","3","4","5","4","6","3","7","4","6","5","6","5","5","5","5","5","5","5","5","3","5","644523506599460864","郭","208","Female","[""好她"",""坏她"",""好我"",""坏我""]","[""强她"",""弱她"",""强我"",""弱我""]","","","","","","","","null","","","","","","","","","","key","null","16.683259541984828","960","536","f","false","match","img/trapezoid.png","弱我","弱我","prac_ALT2_ability","practice_ability","","","","","","","",""
"null","<span class='add_' style='color:yellow; font-size: 70px;'> 太慢! </span>","null","html-keyboard-response","29","225780","0.0-8.0-1.0-1.0-0.0-1.9","4","4","3","3","3","4","3","3","5","5","4","-1","-1","-1","0","-1","-1","0","0","4","5","5","5","4","4","4","4","5","4","6","7","6","6","6","6","7","7","8","5","4","2","5","5","2","6","4","4","3","3","3","5","3","4","5","5","2","3","3","4","5","4","6","3","7","4","6","5","6","5","5","5","5","5","5","5","5","3","5","644523506599460864","郭","208","Female","[""好她"",""坏她"",""好我"",""坏我""]","[""强她"",""弱她"",""强我"",""弱我""]","","","","","","","","","","","","","","","","","","","","","","","","","","","","","","feedback_test","","","","","","","",""
"null","","null","psychophysics","30","227982","0.0-8.0-1.0-1.0-0.0-0.10","4","4","3","3","3","4","3","3","5","5","4","-1","-1","-1","0","-1","-1","0","0","4","5","5","5","4","4","4","4","5","4","6","7","6","6","6","6","7","7","8","5","4","2","5","5","2","6","4","4","3","3","3","5","3","4","5","5","2","3","3","4","5","4","6","3","7","4","6","5","6","5","5","5","5","5","5","5","5","3","5","644523506599460864","郭","208","Female","[""好她"",""坏她"",""好我"",""坏我""]","[""强她"",""弱她"",""强我"",""弱我""]","","","","","","","","null","","","","","","","","","","key","null","16.68341221374047","960","536","j","false","nonmatch","img/square.png","强她","强我","prac_ALT2_ability","practice_ability","","","","","","","",""
"null","<span class='add_' style='color:yellow; font-size: 70px;'> 太慢! </span>","null","html-keyboard-response","31","228483","0.0-8.0-1.0-1.0-0.0-1.10","4","4","3","3","3","4","3","3","5","5","4","-1","-1","-1","0","-1","-1","0","0","4","5","5","5","4","4","4","4","5","4","6","7","6","6","6","6","7","7","8","5","4","2","5","5","2","6","4","4","3","3","3","5","3","4","5","5","2","3","3","4","5","4","6","3","7","4","6","5","6","5","5","5","5","5","5","5","5","3","5","644523506599460864","郭","208","Female","[""好她"",""坏她"",""好我"",""坏我""]","[""强她"",""弱她"",""强我"",""弱我""]","","","","","","","","","","","","","","","","","","","","","","","","","","","","","","feedback_test","","","","","","","",""
"1194","","f","psychophysics","32","230679","0.0-8.0-1.0-1.0-0.0-0.11","4","4","3","3","3","4","3","3","5","5","4","-1","-1","-1","0","-1","-1","0","0","4","5","5","5","4","4","4","4","5","4","6","7","6","6","6","6","7","7","8","5","4","2","5","5","2","6","4","4","3","3","3","5","3","4","5","5","2","3","3","4","5","4","6","3","7","4","6","5","6","5","5","5","5","5","5","5","5","3","5","644523506599460864","郭","208","Female","[""好她"",""坏她"",""好我"",""坏我""]","[""强她"",""弱她"",""强我"",""弱我""]","","","","","","","","match","","","","","","","","","","key","f","16.683832061068664","960","536","j","false","nonmatch","img/trapezoid.png","弱她","弱我","prac_ALT2_ability","practice_ability","","","","","","","",""
"null","<span style='color:red; font-size: 70px;'>错误! </span>","null","html-keyboard-response","33","231180","0.0-8.0-1.0-1.0-0.0-1.11","4","4","3","3","3","4","3","3","5","5","4","-1","-1","-1","0","-1","-1","0","0","4","5","5","5","4","4","4","4","5","4","6","7","6","6","6","6","7","7","8","5","4","2","5","5","2","6","4","4","3","3","3","5","3","4","5","5","2","3","3","4","5","4","6","3","7","4","6","5","6","5","5","5","5","5","5","5","5","3","5","644523506599460864","郭","208","Female","[""好她"",""坏她"",""好我"",""坏我""]","[""强她"",""弱她"",""强我"",""弱我""]","","","","","","","","","","","","","","","","","","","","","","","","","","","","","","feedback_test","","","","","","","",""
"null","","null","psychophysics","34","233381","0.0-8.0-1.0-1.0-0.0-0.12","4","4","3","3","3","4","3","3","5","5","4","-1","-1","-1","0","-1","-1","0","0","4","5","5","5","4","4","4","4","5","4","6","7","6","6","6","6","7","7","8","5","4","2","5","5","2","6","4","4","3","3","3","5","3","4","5","5","2","3","3","4","5","4","6","3","7","4","6","5","6","5","5","5","5","5","5","5","5","3","5","644523506599460864","郭","208","Female","[""好她"",""坏她"",""好我"",""坏我""]","[""强她"",""弱她"",""强我"",""弱我""]","","","","","","","","null","","","","","","","","","","key","null","16.68344274809151","960","536","f","false","match","img/trapezoid.png","弱我","弱我","prac_ALT2_ability","practice_ability","","","","","","","",""
"null","<span class='add_' style='color:yellow; font-size: 70px;'> 太慢! </span>","null","html-keyboard-response","35","233883","0.0-8.0-1.0-1.0-0.0-1.12","4","4","3","3","3","4","3","3","5","5","4","-1","-1","-1","0","-1","-1","0","0","4","5","5","5","4","4","4","4","5","4","6","7","6","6","6","6","7","7","8","5","4","2","5","5","2","6","4","4","3","3","3","5","3","4","5","5","2","3","3","4","5","4","6","3","7","4","6","5","6","5","5","5","5","5","5","5","5","3","5","644523506599460864","郭","208","Female","[""好她"",""坏她"",""好我"",""坏我""]","[""强她"",""弱她"",""强我"",""弱我""]","","","","","","","","","","","","","","","","","","","","","","","","","","","","","","feedback_test","","","","","","","",""
"null","","null","psychophysics","36","236084","0.0-8.0-1.0-1.0-0.0-0.13","4","4","3","3","3","4","3","3","5","5","4","-1","-1","-1","0","-1","-1","0","0","4","5","5","5","4","4","4","4","5","4","6","7","6","6","6","6","7","7","8","5","4","2","5","5","2","6","4","4","3","3","3","5","3","4","5","5","2","3","3","4","5","4","6","3","7","4","6","5","6","5","5","5","5","5","5","5","5","3","5","644523506599460864","郭","208","Female","[""好她"",""坏她"",""好我"",""坏我""]","[""强她"",""弱她"",""强我"",""弱我""]","","","","","","","","null","","","","","","","","","","key","null","16.683183206106893","960","536","f","false","match","img/hexagon.png","强她","强她","prac_ALT2_ability","practice_ability","","","","","","","",""
"null","<span class='add_' style='color:yellow; font-size: 70px;'> 太慢! </span>","null","html-keyboard-response","37","236585","0.0-8.0-1.0-1.0-0.0-1.13","4","4","3","3","3","4","3","3","5","5","4","-1","-1","-1","0","-1","-1","0","0","4","5","5","5","4","4","4","4","5","4","6","7","6","6","6","6","7","7","8","5","4","2","5","5","2","6","4","4","3","3","3","5","3","4","5","5","2","3","3","4","5","4","6","3","7","4","6","5","6","5","5","5","5","5","5","5","5","3","5","644523506599460864","郭","208","Female","[""好她"",""坏她"",""好我"",""坏我""]","[""强她"",""弱她"",""强我"",""弱我""]","","","","","","","","","","","","","","","","","","","","","","","","","","","","","","feedback_test","","","","","","","",""
"null","","null","psychophysics","38","238787","0.0-8.0-1.0-1.0-0.0-0.14","4","4","3","3","3","4","3","3","5","5","4","-1","-1","-1","0","-1","-1","0","0","4","5","5","5","4","4","4","4","5","4","6","7","6","6","6","6","7","7","8","5","4","2","5","5","2","6","4","4","3","3","3","5","3","4","5","5","2","3","3","4","5","4","6","3","7","4","6","5","6","5","5","5","5","5","5","5","5","3","5","644523506599460864","郭","208","Female","[""好她"",""坏她"",""好我"",""坏我""]","[""强她"",""弱她"",""强我"",""弱我""]","","","","","","","","null","","","","","","","","","","key","null","16.683114503816665","960","536","f","false","match","img/hexagon.png","强她","强她","prac_ALT2_ability","practice_ability","","","","","","","",""
"null","<span class='add_' style='color:yellow; font-size: 70px;'> 太慢! </span>","null","html-keyboard-response","39","239293","0.0-8.0-1.0-1.0-0.0-1.14","4","4","3","3","3","4","3","3","5","5","4","-1","-1","-1","0","-1","-1","0","0","4","5","5","5","4","4","4","4","5","4","6","7","6","6","6","6","7","7","8","5","4","2","5","5","2","6","4","4","3","3","3","5","3","4","5","5","2","3","3","4","5","4","6","3","7","4","6","5","6","5","5","5","5","5","5","5","5","3","5","644523506599460864","郭","208","Female","[""好她"",""坏她"",""好我"",""坏我""]","[""强她"",""弱她"",""强我"",""弱我""]","","","","","","","","","","","","","","","","","","","","","","","","","","","","","","feedback_test","","","","","","","",""
"824","","f","psychophysics","40","241119","0.0-8.0-1.0-1.0-0.0-0.15","4","4","3","3","3","4","3","3","5","5","4","-1","-1","-1","0","-1","-1","0","0","4","5","5","5","4","4","4","4","5","4","6","7","6","6","6","6","7","7","8","5","4","2","5","5","2","6","4","4","3","3","3","5","3","4","5","5","2","3","3","4","5","4","6","3","7","4","6","5","6","5","5","5","5","5","5","5","5","3","5","644523506599460864","郭","208","Female","[""好她"",""坏她"",""好我"",""坏我""]","[""强她"",""弱她"",""强我"",""弱我""]","","","","","","","","match","","","","","","","","","","key","f","16.683128440367067","960","536","j","false","nonmatch","img/hexagon.png","弱她","强她","prac_ALT2_ability","practice_ability","","","","","","","",""
"null","<span style='color:red; font-size: 70px;'>错误! </span>","null","html-keyboard-response","41","241620","0.0-8.0-1.0-1.0-0.0-1.15","4","4","3","3","3","4","3","3","5","5","4","-1","-1","-1","0","-1","-1","0","0","4","5","5","5","4","4","4","4","5","4","6","7","6","6","6","6","7","7","8","5","4","2","5","5","2","6","4","4","3","3","3","5","3","4","5","5","2","3","3","4","5","4","6","3","7","4","6","5","6","5","5","5","5","5","5","5","5","3","5","644523506599460864","郭","208","Female","[""好她"",""坏她"",""好我"",""坏我""]","[""强她"",""弱她"",""强我"",""弱我""]","","","","","","","","","","","","","","","","","","","","","","","","","","","","","","feedback_test","","","","","","","",""
"null","","null","psychophysics","42","243821","0.0-8.0-1.0-1.0-0.0-0.16","4","4","3","3","3","4","3","3","5","5","4","-1","-1","-1","0","-1","-1","0","0","4","5","5","5","4","4","4","4","5","4","6","7","6","6","6","6","7","7","8","5","4","2","5","5","2","6","4","4","3","3","3","5","3","4","5","5","2","3","3","4","5","4","6","3","7","4","6","5","6","5","5","5","5","5","5","5","5","3","5","644523506599460864","郭","208","Female","[""好她"",""坏她"",""好我"",""坏我""]","[""强她"",""弱她"",""强我"",""弱我""]","","","","","","","","null","","","","","","","","","","key","null","16.68286259541975","960","536","f","false","match","img/square.png","强我","强我","prac_ALT2_ability","practice_ability","","","","","","","",""
"null","<span class='add_' style='color:yellow; font-size: 70px;'> 太慢! </span>","null","html-keyboard-response","43","244322","0.0-8.0-1.0-1.0-0.0-1.16","4","4","3","3","3","4","3","3","5","5","4","-1","-1","-1","0","-1","-1","0","0","4","5","5","5","4","4","4","4","5","4","6","7","6","6","6","6","7","7","8","5","4","2","5","5","2","6","4","4","3","3","3","5","3","4","5","5","2","3","3","4","5","4","6","3","7","4","6","5","6","5","5","5","5","5","5","5","5","3","5","644523506599460864","郭","208","Female","[""好她"",""坏她"",""好我"",""坏我""]","[""强她"",""弱她"",""强我"",""弱我""]","","","","","","","","","","","","","","","","","","","","","","","","","","","","","","feedback_test","","","","","","","",""
"889","","f","psychophysics","44","246213","0.0-8.0-1.0-1.0-0.0-0.17","4","4","3","3","3","4","3","3","5","5","4","-1","-1","-1","0","-1","-1","0","0","4","5","5","5","4","4","4","4","5","4","6","7","6","6","6","6","7","7","8","5","4","2","5","5","2","6","4","4","3","3","3","5","3","4","5","5","2","3","3","4","5","4","6","3","7","4","6","5","6","5","5","5","5","5","5","5","5","3","5","644523506599460864","郭","208","Female","[""好她"",""坏她"",""好我"",""坏我""]","[""强她"",""弱她"",""强我"",""弱我""]","","","","","","","","match","","","","","","","","","","key","f","16.683062499999973","960","536","f","true","match","img/hexagon.png","强她","强她","prac_ALT2_ability","practice_ability","","","","","","","",""
"null","<span style='color:GreenYellow; font-size: 70px;'>正确! </span>","null","html-keyboard-response","45","246715","0.0-8.0-1.0-1.0-0.0-1.17","4","4","3","3","3","4","3","3","5","5","4","-1","-1","-1","0","-1","-1","0","0","4","5","5","5","4","4","4","4","5","4","6","7","6","6","6","6","7","7","8","5","4","2","5","5","2","6","4","4","3","3","3","5","3","4","5","5","2","3","3","4","5","4","6","3","7","4","6","5","6","5","5","5","5","5","5","5","5","3","5","644523506599460864","郭","208","Female","[""好她"",""坏她"",""好我"",""坏我""]","[""强她"",""弱她"",""强我"",""弱我""]","","","","","","","","","","","","","","","","","","","","","","","","","","","","","","feedback_test","","","","","","","",""
"481","","f","psychophysics","46","248197","0.0-8.0-1.0-1.0-0.0-0.18","4","4","3","3","3","4","3","3","5","5","4","-1","-1","-1","0","-1","-1","0","0","4","5","5","5","4","4","4","4","5","4","6","7","6","6","6","6","7","7","8","5","4","2","5","5","2","6","4","4","3","3","3","5","3","4","5","5","2","3","3","4","5","4","6","3","7","4","6","5","6","5","5","5","5","5","5","5","5","3","5","644523506599460864","郭","208","Female","[""好她"",""坏她"",""好我"",""坏我""]","[""强她"",""弱她"",""强我"",""弱我""]","","","","","","","","match","","","","","","","","","","key","f","16.68320454545458","960","536","f","true","match","img/ellipse.png","弱她","弱她","prac_ALT2_ability","practice_ability","","","","","","","",""
"null","<span style='color:GreenYellow; font-size: 70px;'>正确! </span>","null","html-keyboard-response","47","248701","0.0-8.0-1.0-1.0-0.0-1.18","4","4","3","3","3","4","3","3","5","5","4","-1","-1","-1","0","-1","-1","0","0","4","5","5","5","4","4","4","4","5","4","6","7","6","6","6","6","7","7","8","5","4","2","5","5","2","6","4","4","3","3","3","5","3","4","5","5","2","3","3","4","5","4","6","3","7","4","6","5","6","5","5","5","5","5","5","5","5","3","5","644523506599460864","郭","208","Female","[""好她"",""坏她"",""好我"",""坏我""]","[""强她"",""弱她"",""强我"",""弱我""]","","","","","","","","","","","","","","","","","","","","","","","","","","","","","","feedback_test","","","","","","","",""
"896","","f","psychophysics","48","250597","0.0-8.0-1.0-1.0-0.0-0.19","4","4","3","3","3","4","3","3","5","5","4","-1","-1","-1","0","-1","-1","0","0","4","5","5","5","4","4","4","4","5","4","6","7","6","6","6","6","7","7","8","5","4","2","5","5","2","6","4","4","3","3","3","5","3","4","5","5","2","3","3","4","5","4","6","3","7","4","6","5","6","5","5","5","5","5","5","5","5","3","5","644523506599460864","郭","208","Female","[""好她"",""坏她"",""好我"",""坏我""]","[""强她"",""弱她"",""强我"",""弱我""]","","","","","","","","match","","","","","","","","","","key","f","16.684008849557568","960","536","j","false","nonmatch","img/trapezoid.png","强她","弱我","prac_ALT2_ability","practice_ability","","","","","","","",""
"null","<span style='color:red; font-size: 70px;'>错误! </span>","null","html-keyboard-response","49","251098","0.0-8.0-1.0-1.0-0.0-1.19","4","4","3","3","3","4","3","3","5","5","4","-1","-1","-1","0","-1","-1","0","0","4","5","5","5","4","4","4","4","5","4","6","7","6","6","6","6","7","7","8","5","4","2","5","5","2","6","4","4","3","3","3","5","3","4","5","5","2","3","3","4","5","4","6","3","7","4","6","5","6","5","5","5","5","5","5","5","5","3","5","644523506599460864","郭","208","Female","[""好她"",""坏她"",""好我"",""坏我""]","[""强她"",""弱她"",""强我"",""弱我""]","","","","","","","","","","","","","","","","","","","","","","","","","","","","","","feedback_test","","","","","","","",""
"769","","j","psychophysics","50","252873","0.0-8.0-1.0-1.0-0.0-0.20","4","4","3","3","3","4","3","3","5","5","4","-1","-1","-1","0","-1","-1","0","0","4","5","5","5","4","4","4","4","5","4","6","7","6","6","6","6","7","7","8","5","4","2","5","5","2","6","4","4","3","3","3","5","3","4","5","5","2","3","3","4","5","4","6","3","7","4","6","5","6","5","5","5","5","5","5","5","5","3","5","644523506599460864","郭","208","Female","[""好她"",""坏她"",""好我"",""坏我""]","[""强她"",""弱她"",""强我"",""弱我""]","","","","","","","","nonmatch","","","","","","","","","","key","j","16.68306666666675","960","536","f","false","match","img/ellipse.png","弱她","弱她","prac_ALT2_ability","practice_ability","","","","","","","",""
"null","<span style='color:red; font-size: 70px;'>错误! </span>","null","html-keyboard-response","51","253374","0.0-8.0-1.0-1.0-0.0-1.20","4","4","3","3","3","4","3","3","5","5","4","-1","-1","-1","0","-1","-1","0","0","4","5","5","5","4","4","4","4","5","4","6","7","6","6","6","6","7","7","8","5","4","2","5","5","2","6","4","4","3","3","3","5","3","4","5","5","2","3","3","4","5","4","6","3","7","4","6","5","6","5","5","5","5","5","5","5","5","3","5","644523506599460864","郭","208","Female","[""好她"",""坏她"",""好我"",""坏我""]","[""强她"",""弱她"",""强我"",""弱我""]","","","","","","","","","","","","","","","","","","","","","","","","","","","","","","feedback_test","","","","","","","",""
"602","","f","psychophysics","52","254977","0.0-8.0-1.0-1.0-0.0-0.21","4","4","3","3","3","4","3","3","5","5","4","-1","-1","-1","0","-1","-1","0","0","4","5","5","5","4","4","4","4","5","4","6","7","6","6","6","6","7","7","8","5","4","2","5","5","2","6","4","4","3","3","3","5","3","4","5","5","2","3","3","4","5","4","6","3","7","4","6","5","6","5","5","5","5","5","5","5","5","3","5","644523506599460864","郭","208","Female","[""好她"",""坏她"",""好我"",""坏我""]","[""强她"",""弱她"",""强我"",""弱我""]","","","","","","","","match","","","","","","","","","","key","f","16.683663157894777","960","536","j","false","nonmatch","img/trapezoid.png","强我","弱我","prac_ALT2_ability","practice_ability","","","","","","","",""
"null","<span style='color:red; font-size: 70px;'>错误! </span>","null","html-keyboard-response","53","255478","0.0-8.0-1.0-1.0-0.0-1.21","4","4","3","3","3","4","3","3","5","5","4","-1","-1","-1","0","-1","-1","0","0","4","5","5","5","4","4","4","4","5","4","6","7","6","6","6","6","7","7","8","5","4","2","5","5","2","6","4","4","3","3","3","5","3","4","5","5","2","3","3","4","5","4","6","3","7","4","6","5","6","5","5","5","5","5","5","5","5","3","5","644523506599460864","郭","208","Female","[""好她"",""坏她"",""好我"",""坏我""]","[""强她"",""弱她"",""强我"",""弱我""]","","","","","","","","","","","","","","","","","","","","","","","","","","","","","","feedback_test","","","","","","","",""
"642","","j","psychophysics","54","257121","0.0-8.0-1.0-1.0-0.0-0.22","4","4","3","3","3","4","3","3","5","5","4","-1","-1","-1","0","-1","-1","0","0","4","5","5","5","4","4","4","4","5","4","6","7","6","6","6","6","7","7","8","5","4","2","5","5","2","6","4","4","3","3","3","5","3","4","5","5","2","3","3","4","5","4","6","3","7","4","6","5","6","5","5","5","5","5","5","5","5","3","5","644523506599460864","郭","208","Female","[""好她"",""坏她"",""好我"",""坏我""]","[""强她"",""弱她"",""强我"",""弱我""]","","","","","","","","nonmatch","","","","","","","","","","key","j","16.683484536082275","960","536","f","false","match","img/square.png","强我","强我","prac_ALT2_ability","practice_ability","","","","","","","",""
"null","<span style='color:red; font-size: 70px;'>错误! </span>","null","html-keyboard-response","55","257622","0.0-8.0-1.0-1.0-0.0-1.22","4","4","3","3","3","4","3","3","5","5","4","-1","-1","-1","0","-1","-1","0","0","4","5","5","5","4","4","4","4","5","4","6","7","6","6","6","6","7","7","8","5","4","2","5","5","2","6","4","4","3","3","3","5","3","4","5","5","2","3","3","4","5","4","6","3","7","4","6","5","6","5","5","5","5","5","5","5","5","3","5","644523506599460864","郭","208","Female","[""好她"",""坏她"",""好我"",""坏我""]","[""强她"",""弱她"",""强我"",""弱我""]","","","","","","","","","","","","","","","","","","","","","","","","","","","","","","feedback_test","","","","","","","",""
"731","","f","psychophysics","56","259353","0.0-8.0-1.0-1.0-0.0-0.23","4","4","3","3","3","4","3","3","5","5","4","-1","-1","-1","0","-1","-1","0","0","4","5","5","5","4","4","4","4","5","4","6","7","6","6","6","6","7","7","8","5","4","2","5","5","2","6","4","4","3","3","3","5","3","4","5","5","2","3","3","4","5","4","6","3","7","4","6","5","6","5","5","5","5","5","5","5","5","3","5","644523506599460864","郭","208","Female","[""好她"",""坏她"",""好我"",""坏我""]","[""强她"",""弱她"",""强我"",""弱我""]","","","","","","","","match","","","","","","","","","","key","f","16.684882352941248","960","536","j","false","nonmatch","img/square.png","弱她","强我","prac_ALT2_ability","practice_ability","","","","","","","",""
"null","<span style='color:red; font-size: 70px;'>错误! </span>","null","html-keyboard-response","57","259854","0.0-8.0-1.0-1.0-0.0-1.23","4","4","3","3","3","4","3","3","5","5","4","-1","-1","-1","0","-1","-1","0","0","4","5","5","5","4","4","4","4","5","4","6","7","6","6","6","6","7","7","8","5","4","2","5","5","2","6","4","4","3","3","3","5","3","4","5","5","2","3","3","4","5","4","6","3","7","4","6","5","6","5","5","5","5","5","5","5","5","3","5","644523506599460864","郭","208","Female","[""好她"",""坏她"",""好我"",""坏我""]","[""强她"",""弱她"",""强我"",""弱我""]","","","","","","","","","","","","","","","","","","","","","","","","","","","","","","feedback_test","","","","","","","",""
"769","","j","psychophysics","58","261625","0.0-8.0-1.0-1.0-0.0-0.24","4","4","3","3","3","4","3","3","5","5","4","-1","-1","-1","0","-1","-1","0","0","4","5","5","5","4","4","4","4","5","4","6","7","6","6","6","6","7","7","8","5","4","2","5","5","2","6","4","4","3","3","3","5","3","4","5","5","2","3","3","4","5","4","6","3","7","4","6","5","6","5","5","5","5","5","5","5","5","3","5","644523506599460864","郭","208","Female","[""好她"",""坏她"",""好我"",""坏我""]","[""强她"",""弱她"",""强我"",""弱我""]","","","","","","","","nonmatch","","","","","","","","","","key","j","16.68393333333356","960","536","f","false","match","img/square.png","强我","强我","prac_ALT2_ability","practice_ability","","","","","","","",""
"null","<span style='color:red; font-size: 70px;'>错误! </span>","null","html-keyboard-response","59","262126","0.0-8.0-1.0-1.0-0.0-1.24","4","4","3","3","3","4","3","3","5","5","4","-1","-1","-1","0","-1","-1","0","0","4","5","5","5","4","4","4","4","5","4","6","7","6","6","6","6","7","7","8","5","4","2","5","5","2","6","4","4","3","3","3","5","3","4","5","5","2","3","3","4","5","4","6","3","7","4","6","5","6","5","5","5","5","5","5","5","5","3","5","644523506599460864","郭","208","Female","[""好她"",""坏她"",""好我"",""坏我""]","[""强她"",""弱她"",""强我"",""弱我""]","","","","","","","","","","","","","","","","","","","","","","","","","","","","","","feedback_test","","","","","","","",""
"874","","f","psychophysics","60","264001","0.0-8.0-1.0-1.0-0.0-0.25","4","4","3","3","3","4","3","3","5","5","4","-1","-1","-1","0","-1","-1","0","0","4","5","5","5","4","4","4","4","5","4","6","7","6","6","6","6","7","7","8","5","4","2","5","5","2","6","4","4","3","3","3","5","3","4","5","5","2","3","3","4","5","4","6","3","7","4","6","5","6","5","5","5","5","5","5","5","5","3","5","644523506599460864","郭","208","Female","[""好她"",""坏她"",""好我"",""坏我""]","[""强她"",""弱她"",""强我"",""弱我""]","","","","","","","","match","","","","","","","","","","key","f","16.682837837837692","960","536","j","false","nonmatch","img/trapezoid.png","强她","弱我","prac_ALT2_ability","practice_ability","","","","","","","",""
"null","<span style='color:red; font-size: 70px;'>错误! </span>","null","html-keyboard-response","61","264503","0.0-8.0-1.0-1.0-0.0-1.25","4","4","3","3","3","4","3","3","5","5","4","-1","-1","-1","0","-1","-1","0","0","4","5","5","5","4","4","4","4","5","4","6","7","6","6","6","6","7","7","8","5","4","2","5","5","2","6","4","4","3","3","3","5","3","4","5","5","2","3","3","4","5","4","6","3","7","4","6","5","6","5","5","5","5","5","5","5","5","3","5","644523506599460864","郭","208","Female","[""好她"",""坏她"",""好我"",""坏我""]","[""强她"",""弱她"",""强我"",""弱我""]","","","","","","","","","","","","","","","","","","","","","","","","","","","","","","feedback_test","","","","","","","",""
"506","","j","psychophysics","62","266009","0.0-8.0-1.0-1.0-0.0-0.26","4","4","3","3","3","4","3","3","5","5","4","-1","-1","-1","0","-1","-1","0","0","4","5","5","5","4","4","4","4","5","4","6","7","6","6","6","6","7","7","8","5","4","2","5","5","2","6","4","4","3","3","3","5","3","4","5","5","2","3","3","4","5","4","6","3","7","4","6","5","6","5","5","5","5","5","5","5","5","3","5","644523506599460864","郭","208","Female","[""好她"",""坏她"",""好我"",""坏我""]","[""强她"",""弱她"",""强我"",""弱我""]","","","","","","","","nonmatch","","","","","","","","","","key","j","16.682741573033333","960","536","f","false","match","img/square.png","强我","强我","prac_ALT2_ability","practice_ability","","","","","","","",""
"null","<span style='color:red; font-size: 70px;'>错误! </span>","null","html-keyboard-response","63","266510","0.0-8.0-1.0-1.0-0.0-1.26","4","4","3","3","3","4","3","3","5","5","4","-1","-1","-1","0","-1","-1","0","0","4","5","5","5","4","4","4","4","5","4","6","7","6","6","6","6","7","7","8","5","4","2","5","5","2","6","4","4","3","3","3","5","3","4","5","5","2","3","3","4","5","4","6","3","7","4","6","5","6","5","5","5","5","5","5","5","5","3","5","644523506599460864","郭","208","Female","[""好她"",""坏她"",""好我"",""坏我""]","[""强她"",""弱她"",""强我"",""弱我""]","","","","","","","","","","","","","","","","","","","","","","","","","","","","","","feedback_test","","","","","","","",""
"514","","j","psychophysics","64","268025","0.0-8.0-1.0-1.0-0.0-0.27","4","4","3","3","3","4","3","3","5","5","4","-1","-1","-1","0","-1","-1","0","0","4","5","5","5","4","4","4","4","5","4","6","7","6","6","6","6","7","7","8","5","4","2","5","5","2","6","4","4","3","3","3","5","3","4","5","5","2","3","3","4","5","4","6","3","7","4","6","5","6","5","5","5","5","5","5","5","5","3","5","644523506599460864","郭","208","Female","[""好她"",""坏她"",""好我"",""坏我""]","[""强她"",""弱她"",""强我"",""弱我""]","","","","","","","","nonmatch","","","","","","","","","","key","j","16.684444444444832","960","536","f","false","match","img/ellipse.png","弱她","弱她","prac_ALT2_ability","practice_ability","","","","","","","",""
"null","<span style='color:red; font-size: 70px;'>错误! </span>","null","html-keyboard-response","65","268526","0.0-8.0-1.0-1.0-0.0-1.27","4","4","3","3","3","4","3","3","5","5","4","-1","-1","-1","0","-1","-1","0","0","4","5","5","5","4","4","4","4","5","4","6","7","6","6","6","6","7","7","8","5","4","2","5","5","2","6","4","4","3","3","3","5","3","4","5","5","2","3","3","4","5","4","6","3","7","4","6","5","6","5","5","5","5","5","5","5","5","3","5","644523506599460864","郭","208","Female","[""好她"",""坏她"",""好我"",""坏我""]","[""强她"",""弱她"",""强我"",""弱我""]","","","","","","","","","","","","","","","","","","","","","","","","","","","","","","feedback_test","","","","","","","",""
"531","","f","psychophysics","66","270057","0.0-8.0-1.0-1.0-0.0-0.28","4","4","3","3","3","4","3","3","5","5","4","-1","-1","-1","0","-1","-1","0","0","4","5","5","5","4","4","4","4","5","4","6","7","6","6","6","6","7","7","8","5","4","2","5","5","2","6","4","4","3","3","3","5","3","4","5","5","2","3","3","4","5","4","6","3","7","4","6","5","6","5","5","5","5","5","5","5","5","3","5","644523506599460864","郭","208","Female","[""好她"",""坏她"",""好我"",""坏我""]","[""强她"",""弱她"",""强我"",""弱我""]","","","","","","","","match","","","","","","","","","","key","f","16.683824175824206","960","536","j","false","nonmatch","img/ellipse.png","强我","弱她","prac_ALT2_ability","practice_ability","","","","","","","",""
"null","<span style='color:red; font-size: 70px;'>错误! </span>","null","html-keyboard-response","67","270558","0.0-8.0-1.0-1.0-0.0-1.28","4","4","3","3","3","4","3","3","5","5","4","-1","-1","-1","0","-1","-1","0","0","4","5","5","5","4","4","4","4","5","4","6","7","6","6","6","6","7","7","8","5","4","2","5","5","2","6","4","4","3","3","3","5","3","4","5","5","2","3","3","4","5","4","6","3","7","4","6","5","6","5","5","5","5","5","5","5","5","3","5","644523506599460864","郭","208","Female","[""好她"",""坏她"",""好我"",""坏我""]","[""强她"",""弱她"",""强我"",""弱我""]","","","","","","","","","","","","","","","","","","","","","","","","","","","","","","feedback_test","","","","","","","",""
"850","","j","psychophysics","68","272409","0.0-8.0-1.0-1.0-0.0-0.29","4","4","3","3","3","4","3","3","5","5","4","-1","-1","-1","0","-1","-1","0","0","4","5","5","5","4","4","4","4","5","4","6","7","6","6","6","6","7","7","8","5","4","2","5","5","2","6","4","4","3","3","3","5","3","4","5","5","2","3","3","4","5","4","6","3","7","4","6","5","6","5","5","5","5","5","5","5","5","3","5","644523506599460864","郭","208","Female","[""好她"",""坏她"",""好我"",""坏我""]","[""强她"",""弱她"",""强我"",""弱我""]","","","","","","","","nonmatch","","","","","","","","","","key","j","16.683499999999977","960","536","j","true","nonmatch","img/hexagon.png","弱她","强她","prac_ALT2_ability","practice_ability","","","","","","","",""
"null","<span style='color:GreenYellow; font-size: 70px;'>正确! </span>","null","html-keyboard-response","69","272910","0.0-8.0-1.0-1.0-0.0-1.29","4","4","3","3","3","4","3","3","5","5","4","-1","-1","-1","0","-1","-1","0","0","4","5","5","5","4","4","4","4","5","4","6","7","6","6","6","6","7","7","8","5","4","2","5","5","2","6","4","4","3","3","3","5","3","4","5","5","2","3","3","4","5","4","6","3","7","4","6","5","6","5","5","5","5","5","5","5","5","3","5","644523506599460864","郭","208","Female","[""好她"",""坏她"",""好我"",""坏我""]","[""强她"",""弱她"",""强我"",""弱我""]","","","","","","","","","","","","","","","","","","","","","","","","","","","","","","feedback_test","","","","","","","",""
"602","","j","psychophysics","70","274513","0.0-8.0-1.0-1.0-0.0-0.30","4","4","3","3","3","4","3","3","5","5","4","-1","-1","-1","0","-1","-1","0","0","4","5","5","5","4","4","4","4","5","4","6","7","6","6","6","6","7","7","8","5","4","2","5","5","2","6","4","4","3","3","3","5","3","4","5","5","2","3","3","4","5","4","6","3","7","4","6","5","6","5","5","5","5","5","5","5","5","3","5","644523506599460864","郭","208","Female","[""好她"",""坏她"",""好我"",""坏我""]","[""强她"",""弱她"",""强我"",""弱我""]","","","","","","","","nonmatch","","","","","","","","","","key","j","16.68230526315808","960","536","j","true","nonmatch","img/ellipse.png","强她","弱她","prac_ALT2_ability","practice_ability","","","","","","","",""
"null","<span style='color:GreenYellow; font-size: 70px;'>正确! </span>","null","html-keyboard-response","71","275014","0.0-8.0-1.0-1.0-0.0-1.30","4","4","3","3","3","4","3","3","5","5","4","-1","-1","-1","0","-1","-1","0","0","4","5","5","5","4","4","4","4","5","4","6","7","6","6","6","6","7","7","8","5","4","2","5","5","2","6","4","4","3","3","3","5","3","4","5","5","2","3","3","4","5","4","6","3","7","4","6","5","6","5","5","5","5","5","5","5","5","3","5","644523506599460864","郭","208","Female","[""好她"",""坏她"",""好我"",""坏我""]","[""强她"",""弱她"",""强我"",""弱我""]","","","","","","","","","","","","","","","","","","","","","","","","","","","","","","feedback_test","","","","","","","",""
"1050","","j","psychophysics","72","277065","0.0-8.0-1.0-1.0-0.0-0.31","4","4","3","3","3","4","3","3","5","5","4","-1","-1","-1","0","-1","-1","0","0","4","5","5","5","4","4","4","4","5","4","6","7","6","6","6","6","7","7","8","5","4","2","5","5","2","6","4","4","3","3","3","5","3","4","5","5","2","3","3","4","5","4","6","3","7","4","6","5","6","5","5","5","5","5","5","5","5","3","5","644523506599460864","郭","208","Female","[""好她"",""坏她"",""好我"",""坏我""]","[""强她"",""弱她"",""强我"",""弱我""]","","","","","","","","nonmatch","","","","","","","","","","key","j","16.683040983606602","960","536","j","true","nonmatch","img/square.png","弱她","强我","prac_ALT2_ability","practice_ability","","","","","","","",""
"null","<span style='color:GreenYellow; font-size: 70px;'>正确! </span>","null","html-keyboard-response","73","277566","0.0-8.0-1.0-1.0-0.0-1.31","4","4","3","3","3","4","3","3","5","5","4","-1","-1","-1","0","-1","-1","0","0","4","5","5","5","4","4","4","4","5","4","6","7","6","6","6","6","7","7","8","5","4","2","5","5","2","6","4","4","3","3","3","5","3","4","5","5","2","3","3","4","5","4","6","3","7","4","6","5","6","5","5","5","5","5","5","5","5","3","5","644523506599460864","郭","208","Female","[""好她"",""坏她"",""好我"",""坏我""]","[""强她"",""弱她"",""强我"",""弱我""]","","","","","","","","","","","","","","","","","","","","","","","","","","","","","","feedback_test","","","","","","","",""
"786","","f","psychophysics","74","279353","0.0-8.0-1.0-1.0-0.0-0.32","4","4","3","3","3","4","3","3","5","5","4","-1","-1","-1","0","-1","-1","0","0","4","5","5","5","4","4","4","4","5","4","6","7","6","6","6","6","7","7","8","5","4","2","5","5","2","6","4","4","3","3","3","5","3","4","5","5","2","3","3","4","5","4","6","3","7","4","6","5","6","5","5","5","5","5","5","5","5","3","5","644523506599460864","郭","208","Female","[""好她"",""坏她"",""好我"",""坏我""]","[""强她"",""弱她"",""强我"",""弱我""]","","","","","","","","match","","","","","","","","","","key","f","16.68286792452794","960","536","f","true","match","img/hexagon.png","强她","强她","prac_ALT2_ability","practice_ability","","","","","","","",""
"null","<span style='color:GreenYellow; font-size: 70px;'>正确! </span>","null","html-keyboard-response","75","279854","0.0-8.0-1.0-1.0-0.0-1.32","4","4","3","3","3","4","3","3","5","5","4","-1","-1","-1","0","-1","-1","0","0","4","5","5","5","4","4","4","4","5","4","6","7","6","6","6","6","7","7","8","5","4","2","5","5","2","6","4","4","3","3","3","5","3","4","5","5","2","3","3","4","5","4","6","3","7","4","6","5","6","5","5","5","5","5","5","5","5","3","5","644523506599460864","郭","208","Female","[""好她"",""坏她"",""好我"",""坏我""]","[""强她"",""弱她"",""强我"",""弱我""]","","","","","","","","","","","","","","","","","","","","","","","","","","","","","","feedback_test","","","","","","","",""
"827","","j","psychophysics","76","281682","0.0-8.0-1.0-1.0-0.0-0.33","4","4","3","3","3","4","3","3","5","5","4","-1","-1","-1","0","-1","-1","0","0","4","5","5","5","4","4","4","4","5","4","6","7","6","6","6","6","7","7","8","5","4","2","5","5","2","6","4","4","3","3","3","5","3","4","5","5","2","3","3","4","5","4","6","3","7","4","6","5","6","5","5","5","5","5","5","5","5","3","5","644523506599460864","郭","208","Female","[""好她"",""坏她"",""好我"",""坏我""]","[""强她"",""弱她"",""强我"",""弱我""]","","","","","","","","nonmatch","","","","","","","","","","key","j","16.68401834862403","960","536","j","true","nonmatch","img/hexagon.png","弱我","强她","prac_ALT2_ability","practice_ability","","","","","","","",""
"null","<span style='color:GreenYellow; font-size: 70px;'>正确! </span>","null","html-keyboard-response","77","282193","0.0-8.0-1.0-1.0-0.0-1.33","4","4","3","3","3","4","3","3","5","5","4","-1","-1","-1","0","-1","-1","0","0","4","5","5","5","4","4","4","4","5","4","6","7","6","6","6","6","7","7","8","5","4","2","5","5","2","6","4","4","3","3","3","5","3","4","5","5","2","3","3","4","5","4","6","3","7","4","6","5","6","5","5","5","5","5","5","5","5","3","5","644523506599460864","郭","208","Female","[""好她"",""坏她"",""好我"",""坏我""]","[""强她"",""弱她"",""强我"",""弱我""]","","","","","","","","","","","","","","","","","","","","","","","","","","","","","","feedback_test","","","","","","","",""
"951","","j","psychophysics","78","284145","0.0-8.0-1.0-1.0-0.0-0.34","4","4","3","3","3","4","3","3","5","5","4","-1","-1","-1","0","-1","-1","0","0","4","5","5","5","4","4","4","4","5","4","6","7","6","6","6","6","7","7","8","5","4","2","5","5","2","6","4","4","3","3","3","5","3","4","5","5","2","3","3","4","5","4","6","3","7","4","6","5","6","5","5","5","5","5","5","5","5","3","5","644523506599460864","郭","208","Female","[""好她"",""坏她"",""好我"",""坏我""]","[""强她"",""弱她"",""强我"",""弱我""]","","","","","","","","nonmatch","","","","","","","","","","key","j","16.682810344827633","960","536","f","false","match","img/ellipse.png","弱她","弱她","prac_ALT2_ability","practice_ability","","","","","","","",""
"null","<span style='color:red; font-size: 70px;'>错误! </span>","null","html-keyboard-response","79","284646","0.0-8.0-1.0-1.0-0.0-1.34","4","4","3","3","3","4","3","3","5","5","4","-1","-1","-1","0","-1","-1","0","0","4","5","5","5","4","4","4","4","5","4","6","7","6","6","6","6","7","7","8","5","4","2","5","5","2","6","4","4","3","3","3","5","3","4","5","5","2","3","3","4","5","4","6","3","7","4","6","5","6","5","5","5","5","5","5","5","5","3","5","644523506599460864","郭","208","Female","[""好她"",""坏她"",""好我"",""坏我""]","[""强她"",""弱她"",""强我"",""弱我""]","","","","","","","","","","","","","","","","","","","","","","","","","","","","","","feedback_test","","","","","","","",""
"572","","f","psychophysics","80","286219","0.0-8.0-1.0-1.0-0.0-0.35","4","4","3","3","3","4","3","3","5","5","4","-1","-1","-1","0","-1","-1","0","0","4","5","5","5","4","4","4","4","5","4","6","7","6","6","6","6","7","7","8","5","4","2","5","5","2","6","4","4","3","3","3","5","3","4","5","5","2","3","3","4","5","4","6","3","7","4","6","5","6","5","5","5","5","5","5","5","5","3","5","644523506599460864","郭","208","Female","[""好她"",""坏她"",""好我"",""坏我""]","[""强她"",""弱她"",""强我"",""弱我""]","","","","","","","","match","","","","","","","","","","key","f","16.68431914893618","960","536","j","false","nonmatch","img/hexagon.png","强我","强她","prac_ALT2_ability","practice_ability","","","","","","","",""
"null","<span style='color:red; font-size: 70px;'>错误! </span>","null","html-keyboard-response","81","286720","0.0-8.0-1.0-1.0-0.0-1.35","4","4","3","3","3","4","3","3","5","5","4","-1","-1","-1","0","-1","-1","0","0","4","5","5","5","4","4","4","4","5","4","6","7","6","6","6","6","7","7","8","5","4","2","5","5","2","6","4","4","3","3","3","5","3","4","5","5","2","3","3","4","5","4","6","3","7","4","6","5","6","5","5","5","5","5","5","5","5","3","5","644523506599460864","郭","208","Female","[""好她"",""坏她"",""好我"",""坏我""]","[""强她"",""弱她"",""强我"",""弱我""]","","","","","","","","","","","","","","","","","","","","","","","","","","","","","","feedback_test","","","","","","","",""
"896","","f","psychophysics","82","288617","0.0-8.0-1.0-1.0-0.0-0.36","4","4","3","3","3","4","3","3","5","5","4","-1","-1","-1","0","-1","-1","0","0","4","5","5","5","4","4","4","4","5","4","6","7","6","6","6","6","7","7","8","5","4","2","5","5","2","6","4","4","3","3","3","5","3","4","5","5","2","3","3","4","5","4","6","3","7","4","6","5","6","5","5","5","5","5","5","5","5","3","5","644523506599460864","郭","208","Female","[""好她"",""坏她"",""好我"",""坏我""]","[""强她"",""弱她"",""强我"",""弱我""]","","","","","","","","match","","","","","","","","","","key","f","16.682875000000163","960","536","f","true","match","img/trapezoid.png","弱我","弱我","prac_ALT2_ability","practice_ability","","","","","","","",""
"null","<span style='color:GreenYellow; font-size: 70px;'>正确! </span>","null","html-keyboard-response","83","289118","0.0-8.0-1.0-1.0-0.0-1.36","4","4","3","3","3","4","3","3","5","5","4","-1","-1","-1","0","-1","-1","0","0","4","5","5","5","4","4","4","4","5","4","6","7","6","6","6","6","7","7","8","5","4","2","5","5","2","6","4","4","3","3","3","5","3","4","5","5","2","3","3","4","5","4","6","3","7","4","6","5","6","5","5","5","5","5","5","5","5","3","5","644523506599460864","郭","208","Female","[""好她"",""坏她"",""好我"",""坏我""]","[""强她"",""弱她"",""强我"",""弱我""]","","","","","","","","","","","","","","","","","","","","","","","","","","","","","","feedback_test","","","","","","","",""
"586","","j","psychophysics","84","290705","0.0-8.0-1.0-1.0-0.0-0.37","4","4","3","3","3","4","3","3","5","5","4","-1","-1","-1","0","-1","-1","0","0","4","5","5","5","4","4","4","4","5","4","6","7","6","6","6","6","7","7","8","5","4","2","5","5","2","6","4","4","3","3","3","5","3","4","5","5","2","3","3","4","5","4","6","3","7","4","6","5","6","5","5","5","5","5","5","5","5","3","5","644523506599460864","郭","208","Female","[""好她"",""坏她"",""好我"",""坏我""]","[""强她"",""弱她"",""强我"",""弱我""]","","","","","","","","nonmatch","","","","","","","","","","key","j","16.68485263157881","960","536","j","true","nonmatch","img/square.png","强她","强我","prac_ALT2_ability","practice_ability","","","","","","","",""
"null","<span style='color:GreenYellow; font-size: 70px;'>正确! </span>","null","html-keyboard-response","85","291206","0.0-8.0-1.0-1.0-0.0-1.37","4","4","3","3","3","4","3","3","5","5","4","-1","-1","-1","0","-1","-1","0","0","4","5","5","5","4","4","4","4","5","4","6","7","6","6","6","6","7","7","8","5","4","2","5","5","2","6","4","4","3","3","3","5","3","4","5","5","2","3","3","4","5","4","6","3","7","4","6","5","6","5","5","5","5","5","5","5","5","3","5","644523506599460864","郭","208","Female","[""好她"",""坏她"",""好我"",""坏我""]","[""强她"",""弱她"",""强我"",""弱我""]","","","","","","","","","","","","","","","","","","","","","","","","","","","","","","feedback_test","","","","","","","",""
"738","","j","psychophysics","86","292945","0.0-8.0-1.0-1.0-0.0-0.38","4","4","3","3","3","4","3","3","5","5","4","-1","-1","-1","0","-1","-1","0","0","4","5","5","5","4","4","4","4","5","4","6","7","6","6","6","6","7","7","8","5","4","2","5","5","2","6","4","4","3","3","3","5","3","4","5","5","2","3","3","4","5","4","6","3","7","4","6","5","6","5","5","5","5","5","5","5","5","3","5","644523506599460864","郭","208","Female","[""好她"",""坏她"",""好我"",""坏我""]","[""强她"",""弱她"",""强我"",""弱我""]","","","","","","","","nonmatch","","","","","","","","","","key","j","16.683514563106815","960","536","f","false","match","img/trapezoid.png","弱我","弱我","prac_ALT2_ability","practice_ability","","","","","","","",""
"null","<span style='color:red; font-size: 70px;'>错误! </span>","null","html-keyboard-response","87","293446","0.0-8.0-1.0-1.0-0.0-1.38","4","4","3","3","3","4","3","3","5","5","4","-1","-1","-1","0","-1","-1","0","0","4","5","5","5","4","4","4","4","5","4","6","7","6","6","6","6","7","7","8","5","4","2","5","5","2","6","4","4","3","3","3","5","3","4","5","5","2","3","3","4","5","4","6","3","7","4","6","5","6","5","5","5","5","5","5","5","5","3","5","644523506599460864","郭","208","Female","[""好她"",""坏她"",""好我"",""坏我""]","[""强她"",""弱她"",""强我"",""弱我""]","","","","","","","","","","","","","","","","","","","","","","","","","","","","","","feedback_test","","","","","","","",""
"730","","j","psychophysics","88","295177","0.0-8.0-1.0-1.0-0.0-0.39","4","4","3","3","3","4","3","3","5","5","4","-1","-1","-1","0","-1","-1","0","0","4","5","5","5","4","4","4","4","5","4","6","7","6","6","6","6","7","7","8","5","4","2","5","5","2","6","4","4","3","3","3","5","3","4","5","5","2","3","3","4","5","4","6","3","7","4","6","5","6","5","5","5","5","5","5","5","5","3","5","644523506599460864","郭","208","Female","[""好她"",""坏她"",""好我"",""坏我""]","[""强她"",""弱她"",""强我"",""弱我""]","","","","","","","","nonmatch","","","","","","","","","","key","j","16.6835339805829","960","536","f","false","match","img/ellipse.png","弱她","弱她","prac_ALT2_ability","practice_ability","","","","","","","",""
"null","<span style='color:red; font-size: 70px;'>错误! </span>","null","html-keyboard-response","89","295678","0.0-8.0-1.0-1.0-0.0-1.39","4","4","3","3","3","4","3","3","5","5","4","-1","-1","-1","0","-1","-1","0","0","4","5","5","5","4","4","4","4","5","4","6","7","6","6","6","6","7","7","8","5","4","2","5","5","2","6","4","4","3","3","3","5","3","4","5","5","2","3","3","4","5","4","6","3","7","4","6","5","6","5","5","5","5","5","5","5","5","3","5","644523506599460864","郭","208","Female","[""好她"",""坏她"",""好我"",""坏我""]","[""强她"",""弱她"",""强我"",""弱我""]","","","","","","","","","","","","","","","","","","","","","","","","","","","","","","feedback_test","","","","","","","",""
"801","","f","psychophysics","90","297481","0.0-8.0-1.0-1.0-0.0-0.40","4","4","3","3","3","4","3","3","5","5","4","-1","-1","-1","0","-1","-1","0","0","4","5","5","5","4","4","4","4","5","4","6","7","6","6","6","6","7","7","8","5","4","2","5","5","2","6","4","4","3","3","3","5","3","4","5","5","2","3","3","4","5","4","6","3","7","4","6","5","6","5","5","5","5","5","5","5","5","3","5","644523506599460864","郭","208","Female","[""好她"",""坏她"",""好我"",""坏我""]","[""强她"",""弱她"",""强我"",""弱我""]","","","","","","","","match","","","","","","","","","","key","f","16.68333644859839","960","536","f","true","match","img/hexagon.png","强她","强她","prac_ALT2_ability","practice_ability","","","","","","","",""
"null","<span style='color:GreenYellow; font-size: 70px;'>正确! </span>","null","html-keyboard-response","91","297982","0.0-8.0-1.0-1.0-0.0-1.40","4","4","3","3","3","4","3","3","5","5","4","-1","-1","-1","0","-1","-1","0","0","4","5","5","5","4","4","4","4","5","4","6","7","6","6","6","6","7","7","8","5","4","2","5","5","2","6","4","4","3","3","3","5","3","4","5","5","2","3","3","4","5","4","6","3","7","4","6","5","6","5","5","5","5","5","5","5","5","3","5","644523506599460864","郭","208","Female","[""好她"",""坏她"",""好我"",""坏我""]","[""强她"",""弱她"",""强我"",""弱我""]","","","","","","","","","","","","","","","","","","","","","","","","","","","","","","feedback_test","","","","","","","",""
"945","","f","psychophysics","92","299929","0.0-8.0-1.0-1.0-0.0-0.41","4","4","3","3","3","4","3","3","5","5","4","-1","-1","-1","0","-1","-1","0","0","4","5","5","5","4","4","4","4","5","4","6","7","6","6","6","6","7","7","8","5","4","2","5","5","2","6","4","4","3","3","3","5","3","4","5","5","2","3","3","4","5","4","6","3","7","4","6","5","6","5","5","5","5","5","5","5","5","3","5","644523506599460864","郭","208","Female","[""好她"",""坏她"",""好我"",""坏我""]","[""强她"",""弱她"",""强我"",""弱我""]","","","","","","","","match","","","","","","","","","","key","f","16.683608695652094","960","536","f","true","match","img/hexagon.png","强她","强她","prac_ALT2_ability","practice_ability","","","","","","","",""
"null","<span style='color:GreenYellow; font-size: 70px;'>正确! </span>","null","html-keyboard-response","93","300430","0.0-8.0-1.0-1.0-0.0-1.41","4","4","3","3","3","4","3","3","5","5","4","-1","-1","-1","0","-1","-1","0","0","4","5","5","5","4","4","4","4","5","4","6","7","6","6","6","6","7","7","8","5","4","2","5","5","2","6","4","4","3","3","3","5","3","4","5","5","2","3","3","4","5","4","6","3","7","4","6","5","6","5","5","5","5","5","5","5","5","3","5","644523506599460864","郭","208","Female","[""好她"",""坏她"",""好我"",""坏我""]","[""强她"",""弱她"",""强我"",""弱我""]","","","","","","","","","","","","","","","","","","","","","","","","","","","","","","feedback_test","","","","","","","",""
"914","","f","psychophysics","94","302345","0.0-8.0-1.0-1.0-0.0-0.42","4","4","3","3","3","4","3","3","5","5","4","-1","-1","-1","0","-1","-1","0","0","4","5","5","5","4","4","4","4","5","4","6","7","6","6","6","6","7","7","8","5","4","2","5","5","2","6","4","4","3","3","3","5","3","4","5","5","2","3","3","4","5","4","6","3","7","4","6","5","6","5","5","5","5","5","5","5","5","3","5","644523506599460864","郭","208","Female","[""好她"",""坏她"",""好我"",""坏我""]","[""强她"",""弱她"",""强我"",""弱我""]","","","","","","","","match","","","","","","","","","","key","f","16.672946902654914","960","536","j","false","nonmatch","img/trapezoid.png","弱她","弱我","prac_ALT2_ability","practice_ability","","","","","","","",""
"null","<span style='color:red; font-size: 70px;'>错误! </span>","null","html-keyboard-response","95","302846","0.0-8.0-1.0-1.0-0.0-1.42","4","4","3","3","3","4","3","3","5","5","4","-1","-1","-1","0","-1","-1","0","0","4","5","5","5","4","4","4","4","5","4","6","7","6","6","6","6","7","7","8","5","4","2","5","5","2","6","4","4","3","3","3","5","3","4","5","5","2","3","3","4","5","4","6","3","7","4","6","5","6","5","5","5","5","5","5","5","5","3","5","644523506599460864","郭","208","Female","[""好她"",""坏她"",""好我"",""坏我""]","[""强她"",""弱她"",""强我"",""弱我""]","","","","","","","","","","","","","","","","","","","","","","","","","","","","","","feedback_test","","","","","","","",""
"803","","j","psychophysics","96","304649","0.0-8.0-1.0-1.0-0.0-0.43","4","4","3","3","3","4","3","3","5","5","4","-1","-1","-1","0","-1","-1","0","0","4","5","5","5","4","4","4","4","5","4","6","7","6","6","6","6","7","7","8","5","4","2","5","5","2","6","4","4","3","3","3","5","3","4","5","5","2","3","3","4","5","4","6","3","7","4","6","5","6","5","5","5","5","5","5","5","5","3","5","644523506599460864","郭","208","Female","[""好她"",""坏她"",""好我"",""坏我""]","[""强她"",""弱她"",""强我"",""弱我""]","","","","","","","","nonmatch","","","","","","","","","","key","j","16.684196261681993","960","536","j","true","nonmatch","img/ellipse.png","弱我","弱她","prac_ALT2_ability","practice_ability","","","","","","","",""
"null","<span style='color:GreenYellow; font-size: 70px;'>正确! </span>","null","html-keyboard-response","97","305151","0.0-8.0-1.0-1.0-0.0-1.43","4","4","3","3","3","4","3","3","5","5","4","-1","-1","-1","0","-1","-1","0","0","4","5","5","5","4","4","4","4","5","4","6","7","6","6","6","6","7","7","8","5","4","2","5","5","2","6","4","4","3","3","3","5","3","4","5","5","2","3","3","4","5","4","6","3","7","4","6","5","6","5","5","5","5","5","5","5","5","3","5","644523506599460864","郭","208","Female","[""好她"",""坏她"",""好我"",""坏我""]","[""强她"",""弱她"",""强我"",""弱我""]","","","","","","","","","","","","","","","","","","","","","","","","","","","","","","feedback_test","","","","","","","",""
"385","","j","psychophysics","98","306537","0.0-8.0-1.0-1.0-0.0-0.44","4","4","3","3","3","4","3","3","5","5","4","-1","-1","-1","0","-1","-1","0","0","4","5","5","5","4","4","4","4","5","4","6","7","6","6","6","6","7","7","8","5","4","2","5","5","2","6","4","4","3","3","3","5","3","4","5","5","2","3","3","4","5","4","6","3","7","4","6","5","6","5","5","5","5","5","5","5","5","3","5","644523506599460864","郭","208","Female","[""好她"",""坏她"",""好我"",""坏我""]","[""强她"",""弱她"",""强我"",""弱我""]","","","","","","","","nonmatch","","","","","","","","","","key","j","16.684499999999478","960","536","f","false","match","img/trapezoid.png","弱我","弱我","prac_ALT2_ability","practice_ability","","","","","","","",""
"null","<span style='color:red; font-size: 70px;'>错误! </span>","null","html-keyboard-response","99","307038","0.0-8.0-1.0-1.0-0.0-1.44","4","4","3","3","3","4","3","3","5","5","4","-1","-1","-1","0","-1","-1","0","0","4","5","5","5","4","4","4","4","5","4","6","7","6","6","6","6","7","7","8","5","4","2","5","5","2","6","4","4","3","3","3","5","3","4","5","5","2","3","3","4","5","4","6","3","7","4","6","5","6","5","5","5","5","5","5","5","5","3","5","644523506599460864","郭","208","Female","[""好她"",""坏她"",""好我"",""坏我""]","[""强她"",""弱她"",""强我"",""弱我""]","","","","","","","","","","","","","","","","","","","","","","","","","","","","","","feedback_test","","","","","","","",""
"458","","f","psychophysics","100","308497","0.0-8.0-1.0-1.0-0.0-0.45","4","4","3","3","3","4","3","3","5","5","4","-1","-1","-1","0","-1","-1","0","0","4","5","5","5","4","4","4","4","5","4","6","7","6","6","6","6","7","7","8","5","4","2","5","5","2","6","4","4","3","3","3","5","3","4","5","5","2","3","3","4","5","4","6","3","7","4","6","5","6","5","5","5","5","5","5","5","5","3","5","644523506599460864","郭","208","Female","[""好她"",""坏她"",""好我"",""坏我""]","[""强她"",""弱她"",""强我"",""弱我""]","","","","","","","","match","","","","","","","","","","key","f","16.68262790697681","960","536","j","false","nonmatch","img/trapezoid.png","强我","弱我","prac_ALT2_ability","practice_ability","","","","","","","",""
"null","<span style='color:red; font-size: 70px;'>错误! </span>","null","html-keyboard-response","101","308999","0.0-8.0-1.0-1.0-0.0-1.45","4","4","3","3","3","4","3","3","5","5","4","-1","-1","-1","0","-1","-1","0","0","4","5","5","5","4","4","4","4","5","4","6","7","6","6","6","6","7","7","8","5","4","2","5","5","2","6","4","4","3","3","3","5","3","4","5","5","2","3","3","4","5","4","6","3","7","4","6","5","6","5","5","5","5","5","5","5","5","3","5","644523506599460864","郭","208","Female","[""好她"",""坏她"",""好我"",""坏我""]","[""强她"",""弱她"",""强我"",""弱我""]","","","","","","","","","","","","","","","","","","","","","","","","","","","","","","feedback_test","","","","","","","",""
"697","","j","psychophysics","102","310697","0.0-8.0-1.0-1.0-0.0-0.46","4","4","3","3","3","4","3","3","5","5","4","-1","-1","-1","0","-1","-1","0","0","4","5","5","5","4","4","4","4","5","4","6","7","6","6","6","6","7","7","8","5","4","2","5","5","2","6","4","4","3","3","3","5","3","4","5","5","2","3","3","4","5","4","6","3","7","4","6","5","6","5","5","5","5","5","5","5","5","3","5","644523506599460864","郭","208","Female","[""好她"",""坏她"",""好我"",""坏我""]","[""强她"",""弱她"",""强我"",""弱我""]","","","","","","","","nonmatch","","","","","","","","","","key","j","16.68375247524761","960","536","f","false","match","img/square.png","强我","强我","prac_ALT2_ability","practice_ability","","","","","","","",""
"null","<span style='color:red; font-size: 70px;'>错误! </span>","null","html-keyboard-response","103","311199","0.0-8.0-1.0-1.0-0.0-1.46","4","4","3","3","3","4","3","3","5","5","4","-1","-1","-1","0","-1","-1","0","0","4","5","5","5","4","4","4","4","5","4","6","7","6","6","6","6","7","7","8","5","4","2","5","5","2","6","4","4","3","3","3","5","3","4","5","5","2","3","3","4","5","4","6","3","7","4","6","5","6","5","5","5","5","5","5","5","5","3","5","644523506599460864","郭","208","Female","[""好她"",""坏她"",""好我"",""坏我""]","[""强她"",""弱她"",""强我"",""弱我""]","","","","","","","","","","","","","","","","","","","","","","","","","","","","","","feedback_test","","","","","","","",""
"560","","f","psychophysics","104","312766","0.0-8.0-1.0-1.0-0.0-0.47","4","4","3","3","3","4","3","3","5","5","4","-1","-1","-1","0","-1","-1","0","0","4","5","5","5","4","4","4","4","5","4","6","7","6","6","6","6","7","7","8","5","4","2","5","5","2","6","4","4","3","3","3","5","3","4","5","5","2","3","3","4","5","4","6","3","7","4","6","5","6","5","5","5","5","5","5","5","5","3","5","644523506599460864","郭","208","Female","[""好她"",""坏她"",""好我"",""坏我""]","[""强她"",""弱她"",""强我"",""弱我""]","","","","","","","","match","","","","","","","","","","key","f","16.683387096774744","960","536","j","false","nonmatch","img/square.png","弱我","强我","prac_ALT2_ability","practice_ability","","","","","","","",""
"null","<span style='color:red; font-size: 70px;'>错误! </span>","null","html-keyboard-response","105","313267","0.0-8.0-1.0-1.0-0.0-1.47","4","4","3","3","3","4","3","3","5","5","4","-1","-1","-1","0","-1","-1","0","0","4","5","5","5","4","4","4","4","5","4","6","7","6","6","6","6","7","7","8","5","4","2","5","5","2","6","4","4","3","3","3","5","3","4","5","5","2","3","3","4","5","4","6","3","7","4","6","5","6","5","5","5","5","5","5","5","5","3","5","644523506599460864","郭","208","Female","[""好她"",""坏她"",""好我"",""坏我""]","[""强她"",""弱她"",""强我"",""弱我""]","","","","","","","","","","","","","","","","","","","","","","","","","","","","","","feedback_test","","","","","","","",""
"65297","<style>.context{color:white; font-size: 35px; line-height:40px}</style>                          <div><p class='context'>您正确回答了33% 的试次。</p><p class='context'>您的平均反应时为828毫秒。</p><p class='context'>恭喜您完成练习。按空格键继续。</p></div>"," ","html-keyboard-response","106","378570","0.0-8.0-1.0-1.0-1.0-0.0","4","4","3","3","3","4","3","3","5","5","4","-1","-1","-1","0","-1","-1","0","0","4","5","5","5","4","4","4","4","5","4","6","7","6","6","6","6","7","7","8","5","4","2","5","5","2","6","4","4","3","3","3","5","3","4","5","5","2","3","3","4","5","4","6","3","7","4","6","5","6","5","5","5","5","5","5","5","5","3","5","644523506599460864","郭","208","Female","[""好她"",""坏她"",""好我"",""坏我""]","[""强她"",""弱她"",""强我"",""弱我""]","","","","","","","","","","","","","","","","","","","","","","","","","","","","","","","","","","","","","",""
"17351","","","instructions","107","395923","0.0-8.0-1.0-1.0-1.0-1.0","4","4","3","3","3","4","3","3","5","5","4","-1","-1","-1","0","-1","-1","0","0","4","5","5","5","4","4","4","4","5","4","6","7","6","6","6","6","7","7","8","5","4","2","5","5","2","6","4","4","3","3","3","5","3","4","5","5","2","3","3","4","5","4","6","3","7","4","6","5","6","5","5","5","5","5","5","5","5","3","5","644523506599460864","郭","208","Female","[""好她"",""坏她"",""好我"",""坏我""]","[""强她"",""弱她"",""强我"",""弱我""]","","","","","","","","","","","","","","","","","[{""page_index"":0,""viewing_time"":4606},{""page_index"":1,""viewing_time"":11128},{""page_index"":2,""viewing_time"":1616}]","","","","","","","","","","","","","","","","","","","","",""
"null","","null","psychophysics","108","398125","0.0-8.0-1.0-1.1-0.1-0.48","4","4","3","3","3","4","3","3","5","5","4","-1","-1","-1","0","-1","-1","0","0","4","5","5","5","4","4","4","4","5","4","6","7","6","6","6","6","7","7","8","5","4","2","5","5","2","6","4","4","3","3","3","5","3","4","5","5","2","3","3","4","5","4","6","3","7","4","6","5","6","5","5","5","5","5","5","5","5","3","5","644523506599460864","郭","208","Female","[""好她"",""坏她"",""好我"",""坏我""]","[""强她"",""弱她"",""强我"",""弱我""]","","","","","","","","null","","","","","","","","","","key","null","16.682908396946644","960","536","f","false","match","img/trapezoid.png","弱我","弱我","prac_ALT2_ability","practice_ability","","","","","","","",""
"null","<span class='add_' style='color:yellow; font-size: 70px;'> 太慢! </span>","null","html-keyboard-response","109","398626","0.0-8.0-1.0-1.1-0.1-1.48","4","4","3","3","3","4","3","3","5","5","4","-1","-1","-1","0","-1","-1","0","0","4","5","5","5","4","4","4","4","5","4","6","7","6","6","6","6","7","7","8","5","4","2","5","5","2","6","4","4","3","3","3","5","3","4","5","5","2","3","3","4","5","4","6","3","7","4","6","5","6","5","5","5","5","5","5","5","5","3","5","644523506599460864","郭","208","Female","[""好她"",""坏她"",""好我"",""坏我""]","[""强她"",""弱她"",""强我"",""弱我""]","","","","","","","","","","","","","","","","","","","","","","","","","","","","","","feedback_test","","","","","","","",""
"718","","j","psychophysics","110","400346","0.0-8.0-1.0-1.1-0.1-0.49","4","4","3","3","3","4","3","3","5","5","4","-1","-1","-1","0","-1","-1","0","0","4","5","5","5","4","4","4","4","5","4","6","7","6","6","6","6","7","7","8","5","4","2","5","5","2","6","4","4","3","3","3","5","3","4","5","5","2","3","3","4","5","4","6","3","7","4","6","5","6","5","5","5","5","5","5","5","5","3","5","644523506599460864","郭","208","Female","[""好她"",""坏她"",""好我"",""坏我""]","[""强她"",""弱她"",""强我"",""弱我""]","","","","","","","","nonmatch","","","","","","","","","","key","j","16.68240196078413","960","536","j","true","nonmatch","img/hexagon.png","弱我","强她","prac_ALT2_ability","practice_ability","","","","","","","",""
"null","<span style='color:GreenYellow; font-size: 70px;'>正确! </span>","null","html-keyboard-response","111","400847","0.0-8.0-1.0-1.1-0.1-1.49","4","4","3","3","3","4","3","3","5","5","4","-1","-1","-1","0","-1","-1","0","0","4","5","5","5","4","4","4","4","5","4","6","7","6","6","6","6","7","7","8","5","4","2","5","5","2","6","4","4","3","3","3","5","3","4","5","5","2","3","3","4","5","4","6","3","7","4","6","5","6","5","5","5","5","5","5","5","5","3","5","644523506599460864","郭","208","Female","[""好她"",""坏她"",""好我"",""坏我""]","[""强她"",""弱她"",""强我"",""弱我""]","","","","","","","","","","","","","","","","","","","","","","","","","","","","","","feedback_test","","","","","","","",""
"795","","f","psychophysics","112","402642","0.0-8.0-1.0-1.1-0.1-0.50","4","4","3","3","3","4","3","3","5","5","4","-1","-1","-1","0","-1","-1","0","0","4","5","5","5","4","4","4","4","5","4","6","7","6","6","6","6","7","7","8","5","4","2","5","5","2","6","4","4","3","3","3","5","3","4","5","5","2","3","3","4","5","4","6","3","7","4","6","5","6","5","5","5","5","5","5","5","5","3","5","644523506599460864","郭","208","Female","[""好她"",""坏她"",""好我"",""坏我""]","[""强她"",""弱她"",""强我"",""弱我""]","","","","","","","","match","","","","","","","","","","key","f","16.684198113207767","960","536","f","true","match","img/ellipse.png","弱她","弱她","prac_ALT2_ability","practice_ability","","","","","","","",""
"null","<span style='color:GreenYellow; font-size: 70px;'>正确! </span>","null","html-keyboard-response","113","403143","0.0-8.0-1.0-1.1-0.1-1.50","4","4","3","3","3","4","3","3","5","5","4","-1","-1","-1","0","-1","-1","0","0","4","5","5","5","4","4","4","4","5","4","6","7","6","6","6","6","7","7","8","5","4","2","5","5","2","6","4","4","3","3","3","5","3","4","5","5","2","3","3","4","5","4","6","3","7","4","6","5","6","5","5","5","5","5","5","5","5","3","5","644523506599460864","郭","208","Female","[""好她"",""坏她"",""好我"",""坏我""]","[""强她"",""弱她"",""强我"",""弱我""]","","","","","","","","","","","","","","","","","","","","","","","","","","","","","","feedback_test","","","","","","","",""
"1123","","f","psychophysics","114","405266","0.0-8.0-1.0-1.1-0.1-0.51","4","4","3","3","3","4","3","3","5","5","4","-1","-1","-1","0","-1","-1","0","0","4","5","5","5","4","4","4","4","5","4","6","7","6","6","6","6","7","7","8","5","4","2","5","5","2","6","4","4","3","3","3","5","3","4","5","5","2","3","3","4","5","4","6","3","7","4","6","5","6","5","5","5","5","5","5","5","5","3","5","644523506599460864","郭","208","Female","[""好她"",""坏她"",""好我"",""坏我""]","[""强她"",""弱她"",""强我"",""弱我""]","","","","","","","","match","","","","","","","","","","key","f","16.683611111111183","960","536","j","false","nonmatch","img/hexagon.png","强我","强她","prac_ALT2_ability","practice_ability","","","","","","","",""
"null","<span style='color:red; font-size: 70px;'>错误! </span>","null","html-keyboard-response","115","405768","0.0-8.0-1.0-1.1-0.1-1.51","4","4","3","3","3","4","3","3","5","5","4","-1","-1","-1","0","-1","-1","0","0","4","5","5","5","4","4","4","4","5","4","6","7","6","6","6","6","7","7","8","5","4","2","5","5","2","6","4","4","3","3","3","5","3","4","5","5","2","3","3","4","5","4","6","3","7","4","6","5","6","5","5","5","5","5","5","5","5","3","5","644523506599460864","郭","208","Female","[""好她"",""坏她"",""好我"",""坏我""]","[""强她"",""弱她"",""强我"",""弱我""]","","","","","","","","","","","","","","","","","","","","","","","","","","","","","","feedback_test","","","","","","","",""
"818","","j","psychophysics","116","407586","0.0-8.0-1.0-1.1-0.1-0.52","4","4","3","3","3","4","3","3","5","5","4","-1","-1","-1","0","-1","-1","0","0","4","5","5","5","4","4","4","4","5","4","6","7","6","6","6","6","7","7","8","5","4","2","5","5","2","6","4","4","3","3","3","5","3","4","5","5","2","3","3","4","5","4","6","3","7","4","6","5","6","5","5","5","5","5","5","5","5","3","5","644523506599460864","郭","208","Female","[""好她"",""坏她"",""好我"",""坏我""]","[""强她"",""弱她"",""强我"",""弱我""]","","","","","","","","nonmatch","","","","","","","","","","key","j","16.683398148147884","960","536","j","true","nonmatch","img/ellipse.png","强我","弱她","prac_ALT2_ability","practice_ability","","","","","","","",""
"null","<span style='color:GreenYellow; font-size: 70px;'>正确! </span>","null","html-keyboard-response","117","408088","0.0-8.0-1.0-1.1-0.1-1.52","4","4","3","3","3","4","3","3","5","5","4","-1","-1","-1","0","-1","-1","0","0","4","5","5","5","4","4","4","4","5","4","6","7","6","6","6","6","7","7","8","5","4","2","5","5","2","6","4","4","3","3","3","5","3","4","5","5","2","3","3","4","5","4","6","3","7","4","6","5","6","5","5","5","5","5","5","5","5","3","5","644523506599460864","郭","208","Female","[""好她"",""坏她"",""好我"",""坏我""]","[""强她"",""弱她"",""强我"",""弱我""]","","","","","","","","","","","","","","","","","","","","","","","","","","","","","","feedback_test","","","","","","","",""
"null","","null","psychophysics","118","410290","0.0-8.0-1.0-1.1-0.1-0.53","4","4","3","3","3","4","3","3","5","5","4","-1","-1","-1","0","-1","-1","0","0","4","5","5","5","4","4","4","4","5","4","6","7","6","6","6","6","7","7","8","5","4","2","5","5","2","6","4","4","3","3","3","5","3","4","5","5","2","3","3","4","5","4","6","3","7","4","6","5","6","5","5","5","5","5","5","5","5","3","5","644523506599460864","郭","208","Female","[""好她"",""坏她"",""好我"",""坏我""]","[""强她"",""弱她"",""强我"",""弱我""]","","","","","","","","null","","","","","","","","","","key","null","16.68317557251941","960","536","j","false","nonmatch","img/ellipse.png","弱我","弱她","prac_ALT2_ability","practice_ability","","","","","","","",""
"null","<span class='add_' style='color:yellow; font-size: 70px;'> 太慢! </span>","null","html-keyboard-response","119","410791","0.0-8.0-1.0-1.1-0.1-1.53","4","4","3","3","3","4","3","3","5","5","4","-1","-1","-1","0","-1","-1","0","0","4","5","5","5","4","4","4","4","5","4","6","7","6","6","6","6","7","7","8","5","4","2","5","5","2","6","4","4","3","3","3","5","3","4","5","5","2","3","3","4","5","4","6","3","7","4","6","5","6","5","5","5","5","5","5","5","5","3","5","644523506599460864","郭","208","Female","[""好她"",""坏她"",""好我"",""坏我""]","[""强她"",""弱她"",""强我"",""弱我""]","","","","","","","","","","","","","","","","","","","","","","","","","","","","","","feedback_test","","","","","","","",""
"1026","","f","psychophysics","120","412818","0.0-8.0-1.0-1.1-0.1-0.54","4","4","3","3","3","4","3","3","5","5","4","-1","-1","-1","0","-1","-1","0","0","4","5","5","5","4","4","4","4","5","4","6","7","6","6","6","6","7","7","8","5","4","2","5","5","2","6","4","4","3","3","3","5","3","4","5","5","2","3","3","4","5","4","6","3","7","4","6","5","6","5","5","5","5","5","5","5","5","3","5","644523506599460864","郭","208","Female","[""好她"",""坏她"",""好我"",""坏我""]","[""强她"",""弱她"",""强我"",""弱我""]","","","","","","","","match","","","","","","","","","","key","f","16.683041666666394","960","536","j","false","nonmatch","img/ellipse.png","强她","弱她","prac_ALT2_ability","practice_ability","","","","","","","",""
"null","<span style='color:red; font-size: 70px;'>错误! </span>","null","html-keyboard-response","121","413319","0.0-8.0-1.0-1.1-0.1-1.54","4","4","3","3","3","4","3","3","5","5","4","-1","-1","-1","0","-1","-1","0","0","4","5","5","5","4","4","4","4","5","4","6","7","6","6","6","6","7","7","8","5","4","2","5","5","2","6","4","4","3","3","3","5","3","4","5","5","2","3","3","4","5","4","6","3","7","4","6","5","6","5","5","5","5","5","5","5","5","3","5","644523506599460864","郭","208","Female","[""好她"",""坏她"",""好我"",""坏我""]","[""强她"",""弱她"",""强我"",""弱我""]","","","","","","","","","","","","","","","","","","","","","","","","","","","","","","feedback_test","","","","","","","",""
"973","","f","psychophysics","122","415293","0.0-8.0-1.0-1.1-0.1-0.55","4","4","3","3","3","4","3","3","5","5","4","-1","-1","-1","0","-1","-1","0","0","4","5","5","5","4","4","4","4","5","4","6","7","6","6","6","6","7","7","8","5","4","2","5","5","2","6","4","4","3","3","3","5","3","4","5","5","2","3","3","4","5","4","6","3","7","4","6","5","6","5","5","5","5","5","5","5","5","3","5","644523506599460864","郭","208","Female","[""好她"",""坏她"",""好我"",""坏我""]","[""强她"",""弱她"",""强我"",""弱我""]","","","","","","","","match","","","","","","","","","","key","f","16.683880341880055","960","536","j","false","nonmatch","img/trapezoid.png","强她","弱我","prac_ALT2_ability","practice_ability","","","","","","","",""
"null","<span style='color:red; font-size: 70px;'>错误! </span>","null","html-keyboard-response","123","415794","0.0-8.0-1.0-1.1-0.1-1.55","4","4","3","3","3","4","3","3","5","5","4","-1","-1","-1","0","-1","-1","0","0","4","5","5","5","4","4","4","4","5","4","6","7","6","6","6","6","7","7","8","5","4","2","5","5","2","6","4","4","3","3","3","5","3","4","5","5","2","3","3","4","5","4","6","3","7","4","6","5","6","5","5","5","5","5","5","5","5","3","5","644523506599460864","郭","208","Female","[""好她"",""坏她"",""好我"",""坏我""]","[""强她"",""弱她"",""强我"",""弱我""]","","","","","","","","","","","","","","","","","","","","","","","","","","","","","","feedback_test","","","","","","","",""
"687","","f","psychophysics","124","417482","0.0-8.0-1.0-1.1-0.1-0.56","4","4","3","3","3","4","3","3","5","5","4","-1","-1","-1","0","-1","-1","0","0","4","5","5","5","4","4","4","4","5","4","6","7","6","6","6","6","7","7","8","5","4","2","5","5","2","6","4","4","3","3","3","5","3","4","5","5","2","3","3","4","5","4","6","3","7","4","6","5","6","5","5","5","5","5","5","5","5","3","5","644523506599460864","郭","208","Female","[""好她"",""坏她"",""好我"",""坏我""]","[""强她"",""弱她"",""强我"",""弱我""]","","","","","","","","match","","","","","","","","","","key","f","16.682399999999905","960","536","f","true","match","img/hexagon.png","强她","强她","prac_ALT2_ability","practice_ability","","","","","","","",""
"null","<span style='color:GreenYellow; font-size: 70px;'>正确! </span>","null","html-keyboard-response","125","417983","0.0-8.0-1.0-1.1-0.1-1.56","4","4","3","3","3","4","3","3","5","5","4","-1","-1","-1","0","-1","-1","0","0","4","5","5","5","4","4","4","4","5","4","6","7","6","6","6","6","7","7","8","5","4","2","5","5","2","6","4","4","3","3","3","5","3","4","5","5","2","3","3","4","5","4","6","3","7","4","6","5","6","5","5","5","5","5","5","5","5","3","5","644523506599460864","郭","208","Female","[""好她"",""坏她"",""好我"",""坏我""]","[""强她"",""弱她"",""强我"",""弱我""]","","","","","","","","","","","","","","","","","","","","","","","","","","","","","","feedback_test","","","","","","","",""
"842","","j","psychophysics","126","419827","0.0-8.0-1.0-1.1-0.1-0.57","4","4","3","3","3","4","3","3","5","5","4","-1","-1","-1","0","-1","-1","0","0","4","5","5","5","4","4","4","4","5","4","6","7","6","6","6","6","7","7","8","5","4","2","5","5","2","6","4","4","3","3","3","5","3","4","5","5","2","3","3","4","5","4","6","3","7","4","6","5","6","5","5","5","5","5","5","5","5","3","5","644523506599460864","郭","208","Female","[""好她"",""坏她"",""好我"",""坏我""]","[""强她"",""弱她"",""强我"",""弱我""]","","","","","","","","nonmatch","","","","","","","","","","key","j","16.683618181817952","960","536","j","true","nonmatch","img/hexagon.png","弱她","强她","prac_ALT2_ability","practice_ability","","","","","","","",""
"null","<span style='color:GreenYellow; font-size: 70px;'>正确! </span>","null","html-keyboard-response","127","420328","0.0-8.0-1.0-1.1-0.1-1.57","4","4","3","3","3","4","3","3","5","5","4","-1","-1","-1","0","-1","-1","0","0","4","5","5","5","4","4","4","4","5","4","6","7","6","6","6","6","7","7","8","5","4","2","5","5","2","6","4","4","3","3","3","5","3","4","5","5","2","3","3","4","5","4","6","3","7","4","6","5","6","5","5","5","5","5","5","5","5","3","5","644523506599460864","郭","208","Female","[""好她"",""坏她"",""好我"",""坏我""]","[""强她"",""弱她"",""强我"",""弱我""]","","","","","","","","","","","","","","","","","","","","","","","","","","","","","","feedback_test","","","","","","","",""
"1034","","j","psychophysics","128","422364","0.0-8.0-1.0-1.1-0.1-0.58","4","4","3","3","3","4","3","3","5","5","4","-1","-1","-1","0","-1","-1","0","0","4","5","5","5","4","4","4","4","5","4","6","7","6","6","6","6","7","7","8","5","4","2","5","5","2","6","4","4","3","3","3","5","3","4","5","5","2","3","3","4","5","4","6","3","7","4","6","5","6","5","5","5","5","5","5","5","5","3","5","644523506599460864","郭","208","Female","[""好她"",""坏她"",""好我"",""坏我""]","[""强她"",""弱她"",""强我"",""弱我""]","","","","","","","","nonmatch","","","","","","","","","","key","j","16.682917355372155","960","536","j","true","nonmatch","img/trapezoid.png","弱她","弱我","prac_ALT2_ability","practice_ability","","","","","","","",""
"null","<span style='color:GreenYellow; font-size: 70px;'>正确! </span>","null","html-keyboard-response","129","422865","0.0-8.0-1.0-1.1-0.1-1.58","4","4","3","3","3","4","3","3","5","5","4","-1","-1","-1","0","-1","-1","0","0","4","5","5","5","4","4","4","4","5","4","6","7","6","6","6","6","7","7","8","5","4","2","5","5","2","6","4","4","3","3","3","5","3","4","5","5","2","3","3","4","5","4","6","3","7","4","6","5","6","5","5","5","5","5","5","5","5","3","5","644523506599460864","郭","208","Female","[""好她"",""坏她"",""好我"",""坏我""]","[""强她"",""弱她"",""强我"",""弱我""]","","","","","","","","","","","","","","","","","","","","","","","","","","","","","","feedback_test","","","","","","","",""
"1055","","f","psychophysics","130","424922","0.0-8.0-1.0-1.1-0.1-0.59","4","4","3","3","3","4","3","3","5","5","4","-1","-1","-1","0","-1","-1","0","0","4","5","5","5","4","4","4","4","5","4","6","7","6","6","6","6","7","7","8","5","4","2","5","5","2","6","4","4","3","3","3","5","3","4","5","5","2","3","3","4","5","4","6","3","7","4","6","5","6","5","5","5","5","5","5","5","5","3","5","644523506599460864","郭","208","Female","[""好她"",""坏她"",""好我"",""坏我""]","[""强她"",""弱她"",""强我"",""弱我""]","","","","","","","","match","","","","","","","","","","key","f","16.683360655737665","960","536","f","true","match","img/hexagon.png","强她","强她","prac_ALT2_ability","practice_ability","","","","","","","",""
"null","<span style='color:GreenYellow; font-size: 70px;'>正确! </span>","null","html-keyboard-response","131","425423","0.0-8.0-1.0-1.1-0.1-1.59","4","4","3","3","3","4","3","3","5","5","4","-1","-1","-1","0","-1","-1","0","0","4","5","5","5","4","4","4","4","5","4","6","7","6","6","6","6","7","7","8","5","4","2","5","5","2","6","4","4","3","3","3","5","3","4","5","5","2","3","3","4","5","4","6","3","7","4","6","5","6","5","5","5","5","5","5","5","5","3","5","644523506599460864","郭","208","Female","[""好她"",""坏她"",""好我"",""坏我""]","[""强她"",""弱她"",""强我"",""弱我""]","","","","","","","","","","","","","","","","","","","","","","","","","","","","","","feedback_test","","","","","","","",""
"1116","","f","psychophysics","132","427539","0.0-8.0-1.0-1.1-0.1-0.60","4","4","3","3","3","4","3","3","5","5","4","-1","-1","-1","0","-1","-1","0","0","4","5","5","5","4","4","4","4","5","4","6","7","6","6","6","6","7","7","8","5","4","2","5","5","2","6","4","4","3","3","3","5","3","4","5","5","2","3","3","4","5","4","6","3","7","4","6","5","6","5","5","5","5","5","5","5","5","3","5","644523506599460864","郭","208","Female","[""好她"",""坏她"",""好我"",""坏我""]","[""强她"",""弱她"",""强我"",""弱我""]","","","","","","","","match","","","","","","","","","","key","f","16.683349206349313","960","536","f","true","match","img/hexagon.png","强她","强她","prac_ALT2_ability","practice_ability","","","","","","","",""
"null","<span style='color:GreenYellow; font-size: 70px;'>正确! </span>","null","html-keyboard-response","133","428039","0.0-8.0-1.0-1.1-0.1-1.60","4","4","3","3","3","4","3","3","5","5","4","-1","-1","-1","0","-1","-1","0","0","4","5","5","5","4","4","4","4","5","4","6","7","6","6","6","6","7","7","8","5","4","2","5","5","2","6","4","4","3","3","3","5","3","4","5","5","2","3","3","4","5","4","6","3","7","4","6","5","6","5","5","5","5","5","5","5","5","3","5","644523506599460864","郭","208","Female","[""好她"",""坏她"",""好我"",""坏我""]","[""强她"",""弱她"",""强我"",""弱我""]","","","","","","","","","","","","","","","","","","","","","","","","","","","","","","feedback_test","","","","","","","",""
"666","","f","psychophysics","134","429706","0.0-8.0-1.0-1.1-0.1-0.61","4","4","3","3","3","4","3","3","5","5","4","-1","-1","-1","0","-1","-1","0","0","4","5","5","5","4","4","4","4","5","4","6","7","6","6","6","6","7","7","8","5","4","2","5","5","2","6","4","4","3","3","3","5","3","4","5","5","2","3","3","4","5","4","6","3","7","4","6","5","6","5","5","5","5","5","5","5","5","3","5","644523506599460864","郭","208","Female","[""好她"",""坏她"",""好我"",""坏我""]","[""强她"",""弱她"",""强我"",""弱我""]","","","","","","","","match","","","","","","","","","","key","f","16.68337373737354","960","536","f","true","match","img/square.png","强我","强我","prac_ALT2_ability","practice_ability","","","","","","","",""
"null","<span style='color:GreenYellow; font-size: 70px;'>正确! </span>","null","html-keyboard-response","135","430208","0.0-8.0-1.0-1.1-0.1-1.61","4","4","3","3","3","4","3","3","5","5","4","-1","-1","-1","0","-1","-1","0","0","4","5","5","5","4","4","4","4","5","4","6","7","6","6","6","6","7","7","8","5","4","2","5","5","2","6","4","4","3","3","3","5","3","4","5","5","2","3","3","4","5","4","6","3","7","4","6","5","6","5","5","5","5","5","5","5","5","3","5","644523506599460864","郭","208","Female","[""好她"",""坏她"",""好我"",""坏我""]","[""强她"",""弱她"",""强我"",""弱我""]","","","","","","","","","","","","","","","","","","","","","","","","","","","","","","feedback_test","","","","","","","",""
"873","","j","psychophysics","136","432082","0.0-8.0-1.0-1.1-0.1-0.62","4","4","3","3","3","4","3","3","5","5","4","-1","-1","-1","0","-1","-1","0","0","4","5","5","5","4","4","4","4","5","4","6","7","6","6","6","6","7","7","8","5","4","2","5","5","2","6","4","4","3","3","3","5","3","4","5","5","2","3","3","4","5","4","6","3","7","4","6","5","6","5","5","5","5","5","5","5","5","3","5","644523506599460864","郭","208","Female","[""好她"",""坏她"",""好我"",""坏我""]","[""强她"",""弱她"",""强我"",""弱我""]","","","","","","","","nonmatch","","","","","","","","","","key","j","16.683108108108215","960","536","f","false","match","img/trapezoid.png","弱我","弱我","prac_ALT2_ability","practice_ability","","","","","","","",""
"null","<span style='color:red; font-size: 70px;'>错误! </span>","null","html-keyboard-response","137","432584","0.0-8.0-1.0-1.1-0.1-1.62","4","4","3","3","3","4","3","3","5","5","4","-1","-1","-1","0","-1","-1","0","0","4","5","5","5","4","4","4","4","5","4","6","7","6","6","6","6","7","7","8","5","4","2","5","5","2","6","4","4","3","3","3","5","3","4","5","5","2","3","3","4","5","4","6","3","7","4","6","5","6","5","5","5","5","5","5","5","5","3","5","644523506599460864","郭","208","Female","[""好她"",""坏她"",""好我"",""坏我""]","[""强她"",""弱她"",""强我"",""弱我""]","","","","","","","","","","","","","","","","","","","","","","","","","","","","","","feedback_test","","","","","","","",""
"826","","f","psychophysics","138","434411","0.0-8.0-1.0-1.1-0.1-0.63","4","4","3","3","3","4","3","3","5","5","4","-1","-1","-1","0","-1","-1","0","0","4","5","5","5","4","4","4","4","5","4","6","7","6","6","6","6","7","7","8","5","4","2","5","5","2","6","4","4","3","3","3","5","3","4","5","5","2","3","3","4","5","4","6","3","7","4","6","5","6","5","5","5","5","5","5","5","5","3","5","644523506599460864","郭","208","Female","[""好她"",""坏她"",""好我"",""坏我""]","[""强她"",""弱她"",""强我"",""弱我""]","","","","","","","","match","","","","","","","","","","key","f","16.684055045871343","960","536","f","true","match","img/square.png","强我","强我","prac_ALT2_ability","practice_ability","","","","","","","",""
