"rt","stimulus","response","trial_type","trial_index","time_elapsed","internal_node_id","swb_1","swb_2","swb_3","swb_4","swb_5","LOT_1","LOT_2","LOT_3","LOT_4","LOT_5","LOT_6","IPC_1","IPC_2","IPC_3","IPC_4","IPC_5","IPC_6","IPC_7","IPC_8","MorIden_1","MorIden_2","MorIden_3","MorIden_4","MorIden_5","MorIden_6","MorIden_7","MorIden_8","MorIden_9","MorIden_10","moralSeImag_1","moralSeImag_2","moralSeImag_3","moralSeImag_4","moralSeImag_5","moralSeImag_6","moralSeImag_7","moralSeImag_8","moralSeImag_9","sde_1","sde_2","sde_3","sde_4","sde_5","sde_6","sde_7","sde_8","sde_9","sde_10","sde_11","sde_12","sde_13","sde_14","sde_15","sde_16","sde_17","sde_18","sde_19","sde_20","IM_1","IM_2","IM_3","IM_4","IM_5","IM_6","IM_7","IM_8","IM_9","IM_10","IM_11","IM_12","IM_13","IM_14","IM_15","IM_16","IM_17","IM_18","IM_19","IM_20","subj_idx","friend_name","ParticipantID","Sex","Word","Word2","value","success","timeout","failed_images","failed_audio","failed_video","user_agent","responses","item_order","radio_event_ids","radio_event_times","key_event_times","mouse_event_times","straightlining","zigzagging","honeypot","task_id","screen_id","time_stamp","response_type","key_press","avg_frame_time","center_x","center_y","person","word","valence","domain","math","correct_response","correct","status","view_history","identity","duration","Image","condition","question_order"
"3678","
   <p><div style='color:white; font-size: 25px'>您好，欢迎参加本次实验。</div></p>
   <p><div style='color:white; font-size: 25px'>为充分保障您的权利，请确保您已经知晓并同意《参与实验同意书》以及《数据公开知情同意书》。</div></p>
   <p><div style='color:white; font-size: 25px'>如果您未见过上述内容，请咨询实验员。</div></p>
   <p style='color:white; font-size: 25px'>如果您选择继续实验，则表示您已经清楚两份知情同意书的内容并同意。</p>
   <p><div style = ""color: red;font-size:30px;"">请确保您记得day0的实验编号，您将在本次实验输入该编号，若您忘记，请咨询实验员后作答。</div></p>
   <p> <div style = ""color: green""><按空格键至下页></div> </p>
   "," ","html-keyboard-response","0","3683","0.0-0.0","5","4","5","5","6","4","4","4","5","4","5","-2","1","0","1","-2","1","1","2","5","5","5","5","4","5","4","5","4","4","7","8","7","8","8","7","8","6","8","5","3","6","4","4","3","5","2","3","4","4","4","6","4","4","7","4","4","6","4","5","5","6","7","3","6","7","6","7","7","6","6","3","5","6","6","6","5","3","7","687568214028189696","刘","150","Male","[""坏我"",""好我"",""好他"",""坏他""]","[""弱我"",""强我"",""强他"",""弱他""]","","","","","","","","","","","","","","","","","","","","","","","","","","","","","","","","","","","","","",""
"","","","call-function","1","3688","0.0-1.0-0.0","5","4","5","5","6","4","4","4","5","4","5","-2","1","0","1","-2","1","1","2","5","5","5","5","4","5","4","5","4","4","7","8","7","8","8","7","8","6","8","5","3","6","4","4","3","5","2","3","4","4","4","6","4","4","7","4","4","6","4","5","5","6","7","3","6","7","6","7","7","6","6","3","5","6","6","6","5","3","7","687568214028189696","刘","150","Male","[""坏我"",""好我"",""好他"",""坏他""]","[""弱我"",""强我"",""强他"",""弱他""]","","","","","","","","","","","","","","","","","","","","","","","","","","","","","","","","","","","","","",""
"23216","","[{""name"":""Sex"",""value"":""0""},{""name"":""friend_name"",""value"":""刘""},{""name"":""ParticipantID"",""value"":""150""}]","survey-html-form","2","26909","0.0-1.0-1.0","5","4","5","5","6","4","4","4","5","4","5","-2","1","0","1","-2","1","1","2","5","5","5","5","4","5","4","5","4","4","7","8","7","8","8","7","8","6","8","5","3","6","4","4","3","5","2","3","4","4","4","6","4","4","7","4","4","6","4","5","5","6","7","3","6","7","6","7","7","6","6","3","5","6","6","6","5","3","7","687568214028189696","刘","150","Male","[""坏我"",""好我"",""好他"",""坏他""]","[""弱我"",""强我"",""强他"",""弱他""]","","","","","","","","","","","","","","","","","","","","","","","","","","","","","","","","","","","","","",""
"","","","preload","3","27558","0.0-2.0","5","4","5","5","6","4","4","4","5","4","5","-2","1","0","1","-2","1","1","2","5","5","5","5","4","5","4","5","4","4","7","8","7","8","8","7","8","6","8","5","3","6","4","4","3","5","2","3","4","4","4","6","4","4","7","4","4","6","4","5","5","6","7","3","6","7","6","7","7","6","6","3","5","6","6","6","5","3","7","687568214028189696","刘","150","Male","[""坏我"",""好我"",""好他"",""坏他""]","[""弱我"",""强我"",""强他"",""弱他""]","","true","false","[]","[]","[]","","","","","","","","","","","","","","","","","","","","","","","","","","","","","","","",""
"","","","fullscreen","4","30512","0.0-3.0","5","4","5","5","6","4","4","4","5","4","5","-2","1","0","1","-2","1","1","2","5","5","5","5","4","5","4","5","4","4","7","8","7","8","8","7","8","6","8","5","3","6","4","4","3","5","2","3","4","4","4","6","4","4","7","4","4","6","4","5","5","6","7","3","6","7","6","7","7","6","6","3","5","6","6","6","5","3","7","687568214028189696","刘","150","Male","[""坏我"",""好我"",""好他"",""坏他""]","[""弱我"",""强我"",""强他"",""弱他""]","","true","","","","","{}","","","","","","","","","","","","","","","","","","","","","","","","","","","","","","",""
"12809.60000000149","","{""Q01"":""5"",""Q02"":""4"",""Q03"":""5"",""Q04"":""5"",""Q05"":""6""}","survey-template","5","43336","0.0-4.0","5","4","5","5","6","4","4","4","5","4","5","-2","1","0","1","-2","1","1","2","5","5","5","5","4","5","4","5","4","4","7","8","7","8","8","7","8","6","8","5","3","6","4","4","3","5","2","3","4","4","4","6","4","4","7","4","4","6","4","5","5","6","7","3","6","7","6","7","7","6","6","3","5","6","6","6","5","3","7","687568214028189696","刘","150","Male","[""坏我"",""好我"",""好他"",""坏他""]","[""弱我"",""强我"",""强他"",""弱他""]","","","","","","","","{""Q01"":""5"",""Q02"":""4"",""Q03"":""5"",""Q04"":""5"",""Q05"":""6""}","[0,1,2,3,4]","[""Q01"",""Q02"",""Q03"",""Q04"",""Q05""]","[5286.39999999851,8982.199999999255,9877.89999999851,10973.800000000745,12069.89999999851]","[]","[5286.39999999851,8982.199999999255,9877.89999999851,10973.800000000745,12069.89999999851,12806]","0.6","0.75","0","","","","","","","","","","","","","","","","","","","","","",""
"9213.099999997765","","{""Q01"":""4"",""Q02"":""4"",""Q03"":""4"",""Q04"":""5"",""Q05"":""4"",""Q06"":""5""}","survey-template","6","52566","0.0-5.0","5","4","5","5","6","4","4","4","5","4","5","-2","1","0","1","-2","1","1","2","5","5","5","5","4","5","4","5","4","4","7","8","7","8","8","7","8","6","8","5","3","6","4","4","3","5","2","3","4","4","4","6","4","4","7","4","4","6","4","5","5","6","7","3","6","7","6","7","7","6","6","3","5","6","6","6","5","3","7","687568214028189696","刘","150","Male","[""坏我"",""好我"",""好他"",""坏他""]","[""弱我"",""强我"",""强他"",""弱他""]","","","","","","","","{""Q01"":""4"",""Q02"":""4"",""Q03"":""4"",""Q04"":""5"",""Q05"":""4"",""Q06"":""5""}","[0,1,2,3,4,5]","[""Q01"",""Q02"",""Q03"",""Q04"",""Q05"",""Q06""]","[1779.3999999985099,3834.89999999851,5282.89999999851,6331,7123,8490.099999997765]","[]","[1779.3999999985099,3834.89999999851,5282.89999999851,6331,7123,8490.099999997765,9211]","0.3333333333333333","0.2","0","","","","","","","","","","","","","","","","","","","","","",""
"14298.60000000149","","{""Q01"":""-2"",""Q02"":""1"",""Q03"":""0"",""Q04"":""1"",""Q05"":""-2"",""Q06"":""1"",""Q07"":""1"",""Q08"":""2""}","survey-template","7","66879","0.0-6.0","5","4","5","5","6","4","4","4","5","4","5","-2","1","0","1","-2","1","1","2","5","5","5","5","4","5","4","5","4","4","7","8","7","8","8","7","8","6","8","5","3","6","4","4","3","5","2","3","4","4","4","6","4","4","7","4","4","6","4","5","5","6","7","3","6","7","6","7","7","6","6","3","5","6","6","6","5","3","7","687568214028189696","刘","150","Male","[""坏我"",""好我"",""好他"",""坏他""]","[""弱我"",""强我"",""强他"",""弱他""]","","","","","","","","{""Q01"":""-2"",""Q02"":""1"",""Q03"":""0"",""Q04"":""1"",""Q05"":""-2"",""Q06"":""1"",""Q07"":""1"",""Q08"":""2""}","[0,1,2,3,4,5,6,7]","[""Q01"",""Q02"",""Q03"",""Q04"",""Q05"",""Q06"",""Q07"",""Q08""]","[3111.5,4462.89999999851,5927.199999999255,7063.199999999255,8607.10000000149,10126.89999999851,12046.800000000745,13398.800000000745]","[]","[3111.5,4462.89999999851,5927.199999999255,7063.199999999255,8607.10000000149,9847.10000000149,10126.89999999851,12046.800000000745,13398.800000000745,14295.199999999255]","0.5","0.42857142857142855","0","","","","","","","","","","","","","","","","","","","","","",""
"25374","
    <p><div style='color:white;font-size:35px; line-height:20px;'>词汇评估任务</div></p><br>
    <p><div style='color:white;font-size:25px; line-height:20px;'>请再次回忆该亲密的朋友，你们至少2年前就认识了，并且最近2年经常见面。</div></p>
    <p><div style='color:white;font-size:25px; line-height:20px;'>在本实验中，您将会看到一些形容词。</div></p>
    <p><div style='color:yellow;font-size:25px; line-height:20px;'>您的任务是判断这些形容词是否符合对您自己或您的朋友的描述。</div></p><p style='font-size:35px'>符合按<span style=""color:lightgreen""> f 键</span>，不符合按<span style=""color:red""> j 键</span></p>","0","html-button-response","8","92268","0.0-7.0-0.0","5","4","5","5","6","4","4","4","5","4","5","-2","1","0","1","-2","1","1","2","5","5","5","5","4","5","4","5","4","4","7","8","7","8","8","7","8","6","8","5","3","6","4","4","3","5","2","3","4","4","4","6","4","4","7","4","4","6","4","5","5","6","7","3","6","7","6","7","7","6","6","3","5","6","6","6","5","3","7","687568214028189696","刘","150","Male","[""坏我"",""好我"",""好他"",""坏他""]","[""弱我"",""强我"",""强他"",""弱他""]","","","","","","","","","","","","","","","","","SRET_EW","EW_instructions","Sat Nov 25 2023 14:27:24 GMT+0800 (中国标准时间)","","","","","","","","","","","","","","","","","","",""
"12287","","j","psychophysics","9","105567","0.0-7.0-1.0-0.0","5","4","5","5","6","4","4","4","5","4","5","-2","1","0","1","-2","1","1","2","5","5","5","5","4","5","4","5","4","4","7","8","7","8","8","7","8","6","8","5","3","6","4","4","3","5","2","3","4","4","4","6","4","4","7","4","4","6","4","5","5","6","7","3","6","7","6","7","7","6","6","3","5","6","6","6","5","3","7","687568214028189696","刘","150","Male","[""坏我"",""好我"",""好他"",""坏他""]","[""弱我"",""强我"",""强他"",""弱他""]","","","","","","","","no","","","","","","","","","SRET_EW","EW_practice","","key","j","16.89985496183207","680","380","朋友","徇私","Negative","morality","","","","","","","","","",""
"4632","","f","psychophysics","10","111205","0.0-7.0-1.0-0.1","5","4","5","5","6","4","4","4","5","4","5","-2","1","0","1","-2","1","1","2","5","5","5","5","4","5","4","5","4","4","7","8","7","8","8","7","8","6","8","5","3","6","4","4","3","5","2","3","4","4","4","6","4","4","7","4","4","6","4","5","5","6","7","3","6","7","6","7","7","6","6","3","5","6","6","6","5","3","7","687568214028189696","刘","150","Male","[""坏我"",""好我"",""好他"",""坏他""]","[""弱我"",""强我"",""强他"",""弱他""]","","","","","","","","yes","","","","","","","","","SRET_EW","EW_practice","","key","f","16.665553254437853","680","380","自己","严谨","Positive","ability","","","","","","","","","",""
"5748","","j","psychophysics","11","117962","0.0-7.0-1.0-0.2","5","4","5","5","6","4","4","4","5","4","5","-2","1","0","1","-2","1","1","2","5","5","5","5","4","5","4","5","4","4","7","8","7","8","8","7","8","6","8","5","3","6","4","4","3","5","2","3","4","4","4","6","4","4","7","4","4","6","4","5","5","6","7","3","6","7","6","7","7","6","6","3","5","6","6","6","5","3","7","687568214028189696","刘","150","Male","[""坏我"",""好我"",""好他"",""坏他""]","[""弱我"",""强我"",""强他"",""弱他""]","","","","","","","","no","","","","","","","","","SRET_EW","EW_practice","","key","j","16.665579207920793","680","380","自己","刻板","Negative","ability","","","","","","","","","",""
"4338","","f","psychophysics","12","123311","0.0-7.0-1.0-0.3","5","4","5","5","6","4","4","4","5","4","5","-2","1","0","1","-2","1","1","2","5","5","5","5","4","5","4","5","4","4","7","8","7","8","8","7","8","6","8","5","3","6","4","4","3","5","2","3","4","4","4","6","4","4","7","4","4","6","4","5","5","6","7","3","6","7","6","7","7","6","6","3","5","6","6","6","5","3","7","687568214028189696","刘","150","Male","[""坏我"",""好我"",""好他"",""坏他""]","[""弱我"",""强我"",""强他"",""弱他""]","","","","","","","","yes","","","","","","","","","SRET_EW","EW_practice","","key","f","16.66573125","680","380","朋友","忠实","Positive","morality","","","","","","","","","",""
"1527","
    <p><div style='color:white;font-size:35px; line-height:20px;'>请您再次阅读实验要求</div></p><br>
    <p><div style='color:white;font-size:25px; line-height:20px;'>请回忆某一个亲密的朋友，你们至少2年前就认识了，并且最近2年经常见面。</div></p>
    <p><div style='color:white;font-size:25px; line-height:20px;'>在本实验中，您将会看到一些形容词。</div></p>
    <p><div style='color:yellow;font-size:25px; line-height:20px;'>您的任务是判断这些形容词是否符合对您自己或您的朋友的描述。</div></p>
    <p><div class='footer' style='font-size:25px; line-height:20px;'>如果对本实验还有不清楚之处，请立即向实验员咨询。</p><p style='font-size:25px; line-height:20px;'>如果您明白了规则：</p><p style='font-size:22px; line-height:20px;'>请按 继续 进入正式实验</p>
    </div>
    <p style='font-size:35px'>符合按<span style=""color:lightgreen""> f 键</span>，不符合按<span style=""color:red""> j 键</span></p>","0","html-button-response","13","124843","0.0-7.0-2.0","5","4","5","5","6","4","4","4","5","4","5","-2","1","0","1","-2","1","1","2","5","5","5","5","4","5","4","5","4","4","7","8","7","8","8","7","8","6","8","5","3","6","4","4","3","5","2","3","4","4","4","6","4","4","7","4","4","6","4","5","5","6","7","3","6","7","6","7","7","6","6","3","5","6","6","6","5","3","7","687568214028189696","刘","150","Male","[""坏我"",""好我"",""好他"",""坏他""]","[""弱我"",""强我"",""强他"",""弱他""]","","","","","","","","","","","","","","","","","SRET_EW","prac_instructions","Sat Nov 25 2023 14:27:24 GMT+0800 (中国标准时间)","","","","","","","","","","","","","","","","","","",""
"6029","","j","psychophysics","14","131882","0.0-7.0-3.0-0.0","5","4","5","5","6","4","4","4","5","4","5","-2","1","0","1","-2","1","1","2","5","5","5","5","4","5","4","5","4","4","7","8","7","8","8","7","8","6","8","5","3","6","4","4","3","5","2","3","4","4","4","6","4","4","7","4","4","6","4","5","5","6","7","3","6","7","6","7","7","6","6","3","5","6","6","6","5","3","7","687568214028189696","刘","150","Male","[""坏我"",""好我"",""好他"",""坏他""]","[""弱我"",""强我"",""强他"",""弱他""]","","","","","","","","no","","","","","","","","","SRET","EW_formal","","key","j","16.74503333333331","680","380","朋友","迷糊","Negative","ability","","","","","","","","","",""
"6165","","f","psychophysics","15","139050","0.0-7.0-3.0-0.1","5","4","5","5","6","4","4","4","5","4","5","-2","1","0","1","-2","1","1","2","5","5","5","5","4","5","4","5","4","4","7","8","7","8","8","7","8","6","8","5","3","6","4","4","3","5","2","3","4","4","4","6","4","4","7","4","4","6","4","5","5","6","7","3","6","7","6","7","7","6","6","3","5","6","6","6","5","3","7","687568214028189696","刘","150","Male","[""坏我"",""好我"",""好他"",""坏他""]","[""弱我"",""强我"",""强他"",""弱他""]","","","","","","","","yes","","","","","","","","","SRET","EW_formal","","key","f","16.704251748251775","680","380","自己","坚贞","Positive","morality","","","","","","","","","",""
"3535","","f","psychophysics","16","143589","0.0-7.0-3.0-0.2","5","4","5","5","6","4","4","4","5","4","5","-2","1","0","1","-2","1","1","2","5","5","5","5","4","5","4","5","4","4","7","8","7","8","8","7","8","6","8","5","3","6","4","4","3","5","2","3","4","4","4","6","4","4","7","4","4","6","4","5","5","6","7","3","6","7","6","7","7","6","6","3","5","6","6","6","5","3","7","687568214028189696","刘","150","Male","[""坏我"",""好我"",""好他"",""坏他""]","[""弱我"",""强我"",""强他"",""弱他""]","","","","","","","","yes","","","","","","","","","SRET","EW_formal","","key","f","16.665564575645817","680","380","朋友","务实","Positive","ability","","","","","","","","","",""
"4140","","j","psychophysics","17","148740","0.0-7.0-3.0-0.3","5","4","5","5","6","4","4","4","5","4","5","-2","1","0","1","-2","1","1","2","5","5","5","5","4","5","4","5","4","4","7","8","7","8","8","7","8","6","8","5","3","6","4","4","3","5","2","3","4","4","4","6","4","4","7","4","4","6","4","5","5","6","7","3","6","7","6","7","7","6","6","3","5","6","6","6","5","3","7","687568214028189696","刘","150","Male","[""坏我"",""好我"",""好他"",""坏他""]","[""弱我"",""强我"",""强他"",""弱他""]","","","","","","","","no","","","","","","","","","SRET","EW_formal","","key","j","16.774526143790865","680","380","自己","说谎","Negative","morality","","","","","","","","","",""
"4442","","f","psychophysics","18","154184","0.0-7.0-3.0-0.4","5","4","5","5","6","4","4","4","5","4","5","-2","1","0","1","-2","1","1","2","5","5","5","5","4","5","4","5","4","4","7","8","7","8","8","7","8","6","8","5","3","6","4","4","3","5","2","3","4","4","4","6","4","4","7","4","4","6","4","5","5","6","7","3","6","7","6","7","7","6","6","3","5","6","6","6","5","3","7","687568214028189696","刘","150","Male","[""坏我"",""好我"",""好他"",""坏他""]","[""弱我"",""强我"",""强他"",""弱他""]","","","","","","","","yes","","","","","","","","","SRET","EW_formal","","key","f","16.665530674846682","680","380","朋友","依靠","Negative","ability","","","","","","","","","",""
"3517","","f","psychophysics","19","158707","0.0-7.0-3.0-0.5","5","4","5","5","6","4","4","4","5","4","5","-2","1","0","1","-2","1","1","2","5","5","5","5","4","5","4","5","4","4","7","8","7","8","8","7","8","6","8","5","3","6","4","4","3","5","2","3","4","4","4","6","4","4","7","4","4","6","4","5","5","6","7","3","6","7","6","7","7","6","6","3","5","6","6","6","5","3","7","687568214028189696","刘","150","Male","[""坏我"",""好我"",""好他"",""坏他""]","[""弱我"",""强我"",""强他"",""弱他""]","","","","","","","","yes","","","","","","","","","SRET","EW_formal","","key","f","16.852835205992598","680","380","朋友","博学","Positive","ability","","","","","","","","","",""
"4022","","j","psychophysics","20","163732","0.0-7.0-3.0-0.6","5","4","5","5","6","4","4","4","5","4","5","-2","1","0","1","-2","1","1","2","5","5","5","5","4","5","4","5","4","4","7","8","7","8","8","7","8","6","8","5","3","6","4","4","3","5","2","3","4","4","4","6","4","4","7","4","4","6","4","5","5","6","7","3","6","7","6","7","7","6","6","3","5","6","6","6","5","3","7","687568214028189696","刘","150","Male","[""坏我"",""好我"",""好他"",""坏他""]","[""弱我"",""强我"",""强他"",""弱他""]","","","","","","","","no","","","","","","","","","SRET","EW_formal","","key","j","16.66529568106308","680","380","自己","拖延","Negative","ability","","","","","","","","","",""
"2751","","j","psychophysics","21","167486","0.0-7.0-3.0-0.7","5","4","5","5","6","4","4","4","5","4","5","-2","1","0","1","-2","1","1","2","5","5","5","5","4","5","4","5","4","4","7","8","7","8","8","7","8","6","8","5","3","6","4","4","3","5","2","3","4","4","4","6","4","4","7","4","4","6","4","5","5","6","7","3","6","7","6","7","7","6","6","3","5","6","6","6","5","3","7","687568214028189696","刘","150","Male","[""坏我"",""好我"",""好他"",""坏他""]","[""弱我"",""强我"",""强他"",""弱他""]","","","","","","","","no","","","","","","","","","SRET","EW_formal","","key","j","16.739946188340813","680","380","自己","不孝","Negative","morality","","","","","","","","","",""
"4102","","j","psychophysics","22","172600","0.0-7.0-3.0-0.8","5","4","5","5","6","4","4","4","5","4","5","-2","1","0","1","-2","1","1","2","5","5","5","5","4","5","4","5","4","4","7","8","7","8","8","7","8","6","8","5","3","6","4","4","3","5","2","3","4","4","4","6","4","4","7","4","4","6","4","5","5","6","7","3","6","7","6","7","7","6","6","3","5","6","6","6","5","3","7","687568214028189696","刘","150","Male","[""坏我"",""好我"",""好他"",""坏他""]","[""弱我"",""强我"",""强他"",""弱他""]","","","","","","","","no","","","","","","","","","SRET","EW_formal","","key","j","16.775236842105233","680","380","朋友","蛇蝎","Negative","morality","","","","","","","","","",""
"3916","","f","psychophysics","23","177522","0.0-7.0-3.0-0.9","5","4","5","5","6","4","4","4","5","4","5","-2","1","0","1","-2","1","1","2","5","5","5","5","4","5","4","5","4","4","7","8","7","8","8","7","8","6","8","5","3","6","4","4","3","5","2","3","4","4","4","6","4","4","7","4","4","6","4","5","5","6","7","3","6","7","6","7","7","6","6","3","5","6","6","6","5","3","7","687568214028189696","刘","150","Male","[""坏我"",""好我"",""好他"",""坏他""]","[""弱我"",""强我"",""强他"",""弱他""]","","","","","","","","yes","","","","","","","","","SRET","EW_formal","","key","f","16.66557142857148","680","380","自己","高效","Positive","ability","","","","","","","","","",""
"4492","","f","psychophysics","24","183021","0.0-7.0-3.0-0.10","5","4","5","5","6","4","4","4","5","4","5","-2","1","0","1","-2","1","1","2","5","5","5","5","4","5","4","5","4","4","7","8","7","8","8","7","8","6","8","5","3","6","4","4","3","5","2","3","4","4","4","6","4","4","7","4","4","6","4","5","5","6","7","3","6","7","6","7","7","6","6","3","5","6","6","6","5","3","7","687568214028189696","刘","150","Male","[""坏我"",""好我"",""好他"",""坏他""]","[""弱我"",""强我"",""强他"",""弱他""]","","","","","","","","yes","","","","","","","","","SRET","EW_formal","","key","f","16.767688073394538","680","380","自己","顶事","Positive","ability","","","","","","","","","",""
"2991","","f","psychophysics","25","187021","0.0-7.0-3.0-0.11","5","4","5","5","6","4","4","4","5","4","5","-2","1","0","1","-2","1","1","2","5","5","5","5","4","5","4","5","4","4","7","8","7","8","8","7","8","6","8","5","3","6","4","4","3","5","2","3","4","4","4","6","4","4","7","4","4","6","4","5","5","6","7","3","6","7","6","7","7","6","6","3","5","6","6","6","5","3","7","687568214028189696","刘","150","Male","[""坏我"",""好我"",""好他"",""坏他""]","[""弱我"",""强我"",""强他"",""弱他""]","","","","","","","","yes","","","","","","","","","SRET","EW_formal","","key","f","16.665330543933035","680","380","自己","热心","Positive","morality","","","","","","","","","",""
"4336","","f","psychophysics","26","192364","0.0-7.0-3.0-0.12","5","4","5","5","6","4","4","4","5","4","5","-2","1","0","1","-2","1","1","2","5","5","5","5","4","5","4","5","4","4","7","8","7","8","8","7","8","6","8","5","3","6","4","4","3","5","2","3","4","4","4","6","4","4","7","4","4","6","4","5","5","6","7","3","6","7","6","7","7","6","6","3","5","6","6","6","5","3","7","687568214028189696","刘","150","Male","[""坏我"",""好我"",""好他"",""坏他""]","[""弱我"",""强我"",""强他"",""弱他""]","","","","","","","","yes","","","","","","","","","SRET","EW_formal","","key","f","16.717742946708437","680","380","朋友","利落","Positive","ability","","","","","","","","","",""
"4771","","f","psychophysics","27","198146","0.0-7.0-3.0-0.13","5","4","5","5","6","4","4","4","5","4","5","-2","1","0","1","-2","1","1","2","5","5","5","5","4","5","4","5","4","4","7","8","7","8","8","7","8","6","8","5","3","6","4","4","3","5","2","3","4","4","4","6","4","4","7","4","4","6","4","5","5","6","7","3","6","7","6","7","7","6","6","3","5","6","6","6","5","3","7","687568214028189696","刘","150","Male","[""坏我"",""好我"",""好他"",""坏他""]","[""弱我"",""强我"",""强他"",""弱他""]","","","","","","","","yes","","","","","","","","","SRET","EW_formal","","key","f","16.665663768115884","680","380","自己","外行","Negative","ability","","","","","","","","","",""
"4730","","f","psychophysics","28","203881","0.0-7.0-3.0-0.14","5","4","5","5","6","4","4","4","5","4","5","-2","1","0","1","-2","1","1","2","5","5","5","5","4","5","4","5","4","4","7","8","7","8","8","7","8","6","8","5","3","6","4","4","3","5","2","3","4","4","4","6","4","4","7","4","4","6","4","5","5","6","7","3","6","7","6","7","7","6","6","3","5","6","6","6","5","3","7","687568214028189696","刘","150","Male","[""坏我"",""好我"",""好他"",""坏他""]","[""弱我"",""强我"",""强他"",""弱他""]","","","","","","","","yes","","","","","","","","","SRET","EW_formal","","key","f","16.66569476744189","680","380","朋友","爱国","Positive","morality","","","","","","","","","",""
"5333","","f","psychophysics","29","210221","0.0-7.0-3.0-0.15","5","4","5","5","6","4","4","4","5","4","5","-2","1","0","1","-2","1","1","2","5","5","5","5","4","5","4","5","4","4","7","8","7","8","8","7","8","6","8","5","3","6","4","4","3","5","2","3","4","4","4","6","4","4","7","4","4","6","4","5","5","6","7","3","6","7","6","7","7","6","6","3","5","6","6","6","5","3","7","687568214028189696","刘","150","Male","[""坏我"",""好我"",""好他"",""坏他""]","[""弱我"",""强我"",""强他"",""弱他""]","","","","","","","","yes","","","","","","","","","SRET","EW_formal","","key","f","16.665467018469656","680","380","朋友","慷慨","Positive","morality","","","","","","","","","",""
"3726","","j","psychophysics","30","214949","0.0-7.0-3.0-0.16","5","4","5","5","6","4","4","4","5","4","5","-2","1","0","1","-2","1","1","2","5","5","5","5","4","5","4","5","4","4","7","8","7","8","8","7","8","6","8","5","3","6","4","4","3","5","2","3","4","4","4","6","4","4","7","4","4","6","4","5","5","6","7","3","6","7","6","7","7","6","6","3","5","6","6","6","5","3","7","687568214028189696","刘","150","Male","[""坏我"",""好我"",""好他"",""坏他""]","[""弱我"",""强我"",""强他"",""弱他""]","","","","","","","","no","","","","","","","","","SRET","EW_formal","","key","j","16.665738515901094","680","380","朋友","无知","Negative","ability","","","","","","","","","",""
"5262","","f","psychophysics","31","221213","0.0-7.0-3.0-0.17","5","4","5","5","6","4","4","4","5","4","5","-2","1","0","1","-2","1","1","2","5","5","5","5","4","5","4","5","4","4","7","8","7","8","8","7","8","6","8","5","3","6","4","4","3","5","2","3","4","4","4","6","4","4","7","4","4","6","4","5","5","6","7","3","6","7","6","7","7","6","6","3","5","6","6","6","5","3","7","687568214028189696","刘","150","Male","[""坏我"",""好我"",""好他"",""坏他""]","[""弱我"",""强我"",""强他"",""弱他""]","","","","","","","","yes","","","","","","","","","SRET","EW_formal","","key","f","16.66569066666664","680","380","自己","礼貌","Positive","morality","","","","","","","","","",""
"3898","","f","psychophysics","32","226113","0.0-7.0-3.0-0.18","5","4","5","5","6","4","4","4","5","4","5","-2","1","0","1","-2","1","1","2","5","5","5","5","4","5","4","5","4","4","7","8","7","8","8","7","8","6","8","5","3","6","4","4","3","5","2","3","4","4","4","6","4","4","7","4","4","6","4","5","5","6","7","3","6","7","6","7","7","6","6","3","5","6","6","6","5","3","7","687568214028189696","刘","150","Male","[""坏我"",""好我"",""好他"",""坏他""]","[""弱我"",""强我"",""强他"",""弱他""]","","","","","","","","yes","","","","","","","","","SRET","EW_formal","","key","f","16.66554607508534","680","380","朋友","忠勇","Positive","morality","","","","","","","","","",""
"5593","","f","psychophysics","33","232712","0.0-7.0-3.0-0.19","5","4","5","5","6","4","4","4","5","4","5","-2","1","0","1","-2","1","1","2","5","5","5","5","4","5","4","5","4","4","7","8","7","8","8","7","8","6","8","5","3","6","4","4","3","5","2","3","4","4","4","6","4","4","7","4","4","6","4","5","5","6","7","3","6","7","6","7","7","6","6","3","5","6","6","6","5","3","7","687568214028189696","刘","150","Male","[""坏我"",""好我"",""好他"",""坏他""]","[""弱我"",""强我"",""强他"",""弱他""]","","","","","","","","yes","","","","","","","","","SRET","EW_formal","","key","f","16.665529113924027","680","380","朋友","淡泊","Positive","morality","","","","","","","","","",""
"4091","","j","psychophysics","34","237810","0.0-7.0-3.0-0.20","5","4","5","5","6","4","4","4","5","4","5","-2","1","0","1","-2","1","1","2","5","5","5","5","4","5","4","5","4","4","7","8","7","8","8","7","8","6","8","5","3","6","4","4","3","5","2","3","4","4","4","6","4","4","7","4","4","6","4","5","5","6","7","3","6","7","6","7","7","6","6","3","5","6","6","6","5","3","7","687568214028189696","刘","150","Male","[""坏我"",""好我"",""好他"",""坏他""]","[""弱我"",""强我"",""强他"",""弱他""]","","","","","","","","no","","","","","","","","","SRET","EW_formal","","key","j","16.665424342105325","680","380","自己","窝囊","Negative","ability","","","","","","","","","",""
"4235","","f","psychophysics","35","243050","0.0-7.0-3.0-0.21","5","4","5","5","6","4","4","4","5","4","5","-2","1","0","1","-2","1","1","2","5","5","5","5","4","5","4","5","4","4","7","8","7","8","8","7","8","6","8","5","3","6","4","4","3","5","2","3","4","4","4","6","4","4","7","4","4","6","4","5","5","6","7","3","6","7","6","7","7","6","6","3","5","6","6","6","5","3","7","687568214028189696","刘","150","Male","[""坏我"",""好我"",""好他"",""坏他""]","[""弱我"",""强我"",""强他"",""弱他""]","","","","","","","","yes","","","","","","","","","SRET","EW_formal","","key","f","16.718932907348282","680","380","朋友","细心","Positive","ability","","","","","","","","","",""
"5381","","j","psychophysics","36","249436","0.0-7.0-3.0-0.22","5","4","5","5","6","4","4","4","5","4","5","-2","1","0","1","-2","1","1","2","5","5","5","5","4","5","4","5","4","4","7","8","7","8","8","7","8","6","8","5","3","6","4","4","3","5","2","3","4","4","4","6","4","4","7","4","4","6","4","5","5","6","7","3","6","7","6","7","7","6","6","3","5","6","6","6","5","3","7","687568214028189696","刘","150","Male","[""坏我"",""好我"",""好他"",""坏他""]","[""弱我"",""强我"",""强他"",""弱他""]","","","","","","","","no","","","","","","","","","SRET","EW_formal","","key","j","16.709288713910766","680","380","朋友","短视","Negative","ability","","","","","","","","","",""
"3198","","f","psychophysics","37","253638","0.0-7.0-3.0-0.23","5","4","5","5","6","4","4","4","5","4","5","-2","1","0","1","-2","1","1","2","5","5","5","5","4","5","4","5","4","4","7","8","7","8","8","7","8","6","8","5","3","6","4","4","3","5","2","3","4","4","4","6","4","4","7","4","4","6","4","5","5","6","7","3","6","7","6","7","7","6","6","3","5","6","6","6","5","3","7","687568214028189696","刘","150","Male","[""坏我"",""好我"",""好他"",""坏他""]","[""弱我"",""强我"",""强他"",""弱他""]","","","","","","","","yes","","","","","","","","","SRET","EW_formal","","key","f","16.665601593625464","680","380","朋友","高洁","Positive","morality","","","","","","","","","",""
"3576","","j","psychophysics","38","258220","0.0-7.0-3.0-0.24","5","4","5","5","6","4","4","4","5","4","5","-2","1","0","1","-2","1","1","2","5","5","5","5","4","5","4","5","4","4","7","8","7","8","8","7","8","6","8","5","3","6","4","4","3","5","2","3","4","4","4","6","4","4","7","4","4","6","4","5","5","6","7","3","6","7","6","7","7","6","6","3","5","6","6","6","5","3","7","687568214028189696","刘","150","Male","[""坏我"",""好我"",""好他"",""坏他""]","[""弱我"",""强我"",""强他"",""弱他""]","","","","","","","","no","","","","","","","","","SRET","EW_formal","","key","j","16.665375912408845","680","380","朋友","贪污","Negative","morality","","","","","","","","","",""
"4383","","f","psychophysics","39","263612","0.0-7.0-3.0-0.25","5","4","5","5","6","4","4","4","5","4","5","-2","1","0","1","-2","1","1","2","5","5","5","5","4","5","4","5","4","4","7","8","7","8","8","7","8","6","8","5","3","6","4","4","3","5","2","3","4","4","4","6","4","4","7","4","4","6","4","5","5","6","7","3","6","7","6","7","7","6","6","3","5","6","6","6","5","3","7","687568214028189696","刘","150","Male","[""坏我"",""好我"",""好他"",""坏他""]","[""弱我"",""强我"",""强他"",""弱他""]","","","","","","","","yes","","","","","","","","","SRET","EW_formal","","key","f","16.717279503105523","680","380","自己","娴熟","Positive","ability","","","","","","","","","",""
"4469","","j","psychophysics","40","269085","0.0-7.0-3.0-0.26","5","4","5","5","6","4","4","4","5","4","5","-2","1","0","1","-2","1","1","2","5","5","5","5","4","5","4","5","4","4","7","8","7","8","8","7","8","6","8","5","3","6","4","4","3","5","2","3","4","4","4","6","4","4","7","4","4","6","4","5","5","6","7","3","6","7","6","7","7","6","6","3","5","6","6","6","5","3","7","687568214028189696","刘","150","Male","[""坏我"",""好我"",""好他"",""坏他""]","[""弱我"",""强我"",""强他"",""弱他""]","","","","","","","","no","","","","","","","","","SRET","EW_formal","","key","j","16.665446483180503","680","380","朋友","愚痴","Negative","ability","","","","","","","","","",""
"3490","","j","psychophysics","41","273578","0.0-7.0-3.0-0.27","5","4","5","5","6","4","4","4","5","4","5","-2","1","0","1","-2","1","1","2","5","5","5","5","4","5","4","5","4","4","7","8","7","8","8","7","8","6","8","5","3","6","4","4","3","5","2","3","4","4","4","6","4","4","7","4","4","6","4","5","5","6","7","3","6","7","6","7","7","6","6","3","5","6","6","6","5","3","7","687568214028189696","刘","150","Male","[""坏我"",""好我"",""好他"",""坏他""]","[""弱我"",""强我"",""强他"",""弱他""]","","","","","","","","no","","","","","","","","","SRET","EW_formal","","key","j","16.665516728624446","680","380","朋友","失信","Negative","morality","","","","","","","","","",""
"3960","","j","psychophysics","42","278544","0.0-7.0-3.0-0.28","5","4","5","5","6","4","4","4","5","4","5","-2","1","0","1","-2","1","1","2","5","5","5","5","4","5","4","5","4","4","7","8","7","8","8","7","8","6","8","5","3","6","4","4","3","5","2","3","4","4","4","6","4","4","7","4","4","6","4","5","5","6","7","3","6","7","6","7","7","6","6","3","5","6","6","6","5","3","7","687568214028189696","刘","150","Male","[""坏我"",""好我"",""好他"",""坏他""]","[""弱我"",""强我"",""强他"",""弱他""]","","","","","","","","no","","","","","","","","","SRET","EW_formal","","key","j","16.66556902356902","680","380","自己","诡诈","Negative","morality","","","","","","","","","",""
"5010","","f","psychophysics","43","284563","0.0-7.0-3.0-0.29","5","4","5","5","6","4","4","4","5","4","5","-2","1","0","1","-2","1","1","2","5","5","5","5","4","5","4","5","4","4","7","8","7","8","8","7","8","6","8","5","3","6","4","4","3","5","2","3","4","4","4","6","4","4","7","4","4","6","4","5","5","6","7","3","6","7","6","7","7","6","6","3","5","6","6","6","5","3","7","687568214028189696","刘","150","Male","[""坏我"",""好我"",""好他"",""坏他""]","[""弱我"",""强我"",""强他"",""弱他""]","","","","","","","","yes","","","","","","","","","SRET","EW_formal","","key","f","16.665638888888903","680","380","自己","逞能","Negative","ability","","","","","","","","","",""
"4724","","f","psychophysics","44","290293","0.0-7.0-3.0-0.30","5","4","5","5","6","4","4","4","5","4","5","-2","1","0","1","-2","1","1","2","5","5","5","5","4","5","4","5","4","4","7","8","7","8","8","7","8","6","8","5","3","6","4","4","3","5","2","3","4","4","4","6","4","4","7","4","4","6","4","5","5","6","7","3","6","7","6","7","7","6","6","3","5","6","6","6","5","3","7","687568214028189696","刘","150","Male","[""坏我"",""好我"",""好他"",""坏他""]","[""弱我"",""强我"",""强他"",""弱他""]","","","","","","","","yes","","","","","","","","","SRET","EW_formal","","key","f","16.665454810495596","680","380","朋友","忠诚","Positive","morality","","","","","","","","","",""
"6773","","j","psychophysics","45","298069","0.0-7.0-3.0-0.31","5","4","5","5","6","4","4","4","5","4","5","-2","1","0","1","-2","1","1","2","5","5","5","5","4","5","4","5","4","4","7","8","7","8","8","7","8","6","8","5","3","6","4","4","3","5","2","3","4","4","4","6","4","4","7","4","4","6","4","5","5","6","7","3","6","7","6","7","7","6","6","3","5","6","6","6","5","3","7","687568214028189696","刘","150","Male","[""坏我"",""好我"",""好他"",""坏他""]","[""弱我"",""强我"",""强他"",""弱他""]","","","","","","","","no","","","","","","","","","SRET","EW_formal","","key","j","16.66545806451618","680","380","朋友","狡狯","Negative","morality","","","","","","","","","",""
"5003","","f","psychophysics","46","304079","0.0-7.0-3.0-0.32","5","4","5","5","6","4","4","4","5","4","5","-2","1","0","1","-2","1","1","2","5","5","5","5","4","5","4","5","4","4","7","8","7","8","8","7","8","6","8","5","3","6","4","4","3","5","2","3","4","4","4","6","4","4","7","4","4","6","4","5","5","6","7","3","6","7","6","7","7","6","6","3","5","6","6","6","5","3","7","687568214028189696","刘","150","Male","[""坏我"",""好我"",""好他"",""坏他""]","[""弱我"",""强我"",""强他"",""弱他""]","","","","","","","","yes","","","","","","","","","SRET","EW_formal","","key","f","16.665769444444354","680","380","朋友","逞强","Negative","ability","","","","","","","","","",""
"3852","","f","psychophysics","47","308943","0.0-7.0-3.0-0.33","5","4","5","5","6","4","4","4","5","4","5","-2","1","0","1","-2","1","1","2","5","5","5","5","4","5","4","5","4","4","7","8","7","8","8","7","8","6","8","5","3","6","4","4","3","5","2","3","4","4","4","6","4","4","7","4","4","6","4","5","5","6","7","3","6","7","6","7","7","6","6","3","5","6","6","6","5","3","7","687568214028189696","刘","150","Male","[""坏我"",""好我"",""好他"",""坏他""]","[""弱我"",""强我"",""强他"",""弱他""]","","","","","","","","yes","","","","","","","","","SRET","EW_formal","","key","f","16.66587628865986","680","380","自己","毅力","Positive","ability","","","","","","","","","",""
"4102","","j","psychophysics","48","314056","0.0-7.0-3.0-0.34","5","4","5","5","6","4","4","4","5","4","5","-2","1","0","1","-2","1","1","2","5","5","5","5","4","5","4","5","4","4","7","8","7","8","8","7","8","6","8","5","3","6","4","4","3","5","2","3","4","4","4","6","4","4","7","4","4","6","4","5","5","6","7","3","6","7","6","7","7","6","6","3","5","6","6","6","5","3","7","687568214028189696","刘","150","Male","[""坏我"",""好我"",""好他"",""坏他""]","[""弱我"",""强我"",""强他"",""弱他""]","","","","","","","","no","","","","","","","","","SRET","EW_formal","","key","j","16.66568524590159","680","380","自己","短浅","Negative","ability","","","","","","","","","",""
"4344","","j","psychophysics","49","319408","0.0-7.0-3.0-0.35","5","4","5","5","6","4","4","4","5","4","5","-2","1","0","1","-2","1","1","2","5","5","5","5","4","5","4","5","4","4","7","8","7","8","8","7","8","6","8","5","3","6","4","4","3","5","2","3","4","4","4","6","4","4","7","4","4","6","4","5","5","6","7","3","6","7","6","7","7","6","6","3","5","6","6","6","5","3","7","687568214028189696","刘","150","Male","[""坏我"",""好我"",""好他"",""坏他""]","[""弱我"",""强我"",""强他"",""弱他""]","","","","","","","","no","","","","","","","","","SRET","EW_formal","","key","j","16.665890965732054","680","380","朋友","淫乱","Negative","morality","","","","","","","","","",""
"6725","","j","psychophysics","50","327142","0.0-7.0-3.0-0.36","5","4","5","5","6","4","4","4","5","4","5","-2","1","0","1","-2","1","1","2","5","5","5","5","4","5","4","5","4","4","7","8","7","8","8","7","8","6","8","5","3","6","4","4","3","5","2","3","4","4","4","6","4","4","7","4","4","6","4","5","5","6","7","3","6","7","6","7","7","6","6","3","5","6","6","6","5","3","7","687568214028189696","刘","150","Male","[""坏我"",""好我"",""好他"",""坏他""]","[""弱我"",""强我"",""强他"",""弱他""]","","","","","","","","no","","","","","","","","","SRET","EW_formal","","key","j","16.701645021644968","680","380","自己","奸诈","Negative","morality","","","","","","","","","",""
"3968","","f","psychophysics","51","332113","0.0-7.0-3.0-0.37","5","4","5","5","6","4","4","4","5","4","5","-2","1","0","1","-2","1","1","2","5","5","5","5","4","5","4","5","4","4","7","8","7","8","8","7","8","6","8","5","3","6","4","4","3","5","2","3","4","4","4","6","4","4","7","4","4","6","4","5","5","6","7","3","6","7","6","7","7","6","6","3","5","6","6","6","5","3","7","687568214028189696","刘","150","Male","[""坏我"",""好我"",""好他"",""坏他""]","[""弱我"",""强我"",""强他"",""弱他""]","","","","","","","","yes","","","","","","","","","SRET","EW_formal","","key","f","16.6654444444446","680","380","朋友","勤奋","Positive","ability","","","","","","","","","",""
"7789","","j","psychophysics","52","340912","0.0-7.0-3.0-0.38","5","4","5","5","6","4","4","4","5","4","5","-2","1","0","1","-2","1","1","2","5","5","5","5","4","5","4","5","4","4","7","8","7","8","8","7","8","6","8","5","3","6","4","4","3","5","2","3","4","4","4","6","4","4","7","4","4","6","4","5","5","6","7","3","6","7","6","7","7","6","6","3","5","6","6","6","5","3","7","687568214028189696","刘","150","Male","[""坏我"",""好我"",""好他"",""坏他""]","[""弱我"",""强我"",""强他"",""弱他""]","","","","","","","","no","","","","","","","","","SRET","EW_formal","","key","j","16.6654952561669","680","380","自己","偏私","Negative","morality","","","","","","","","","",""
"3070","","j","psychophysics","53","344993","0.0-7.0-3.0-0.39","5","4","5","5","6","4","4","4","5","4","5","-2","1","0","1","-2","1","1","2","5","5","5","5","4","5","4","5","4","4","7","8","7","8","8","7","8","6","8","5","3","6","4","4","3","5","2","3","4","4","4","6","4","4","7","4","4","6","4","5","5","6","7","3","6","7","6","7","7","6","6","3","5","6","6","6","5","3","7","687568214028189696","刘","150","Male","[""坏我"",""好我"",""好他"",""坏他""]","[""弱我"",""强我"",""强他"",""弱他""]","","","","","","","","no","","","","","","","","","SRET","EW_formal","","key","j","16.665635245901555","680","380","自己","不仁","Negative","morality","","","","","","","","","",""
"3742","","f","psychophysics","54","349742","0.0-7.0-3.0-0.40","5","4","5","5","6","4","4","4","5","4","5","-2","1","0","1","-2","1","1","2","5","5","5","5","4","5","4","5","4","4","7","8","7","8","8","7","8","6","8","5","3","6","4","4","3","5","2","3","4","4","4","6","4","4","7","4","4","6","4","5","5","6","7","3","6","7","6","7","7","6","6","3","5","6","6","6","5","3","7","687568214028189696","刘","150","Male","[""坏我"",""好我"",""好他"",""坏他""]","[""弱我"",""强我"",""强他"",""弱他""]","","","","","","","","yes","","","","","","","","","SRET","EW_formal","","key","f","16.665359154929575","680","380","自己","聪明","Positive","ability","","","","","","","","","",""
"4348","","f","psychophysics","55","355093","0.0-7.0-3.0-0.41","5","4","5","5","6","4","4","4","5","4","5","-2","1","0","1","-2","1","1","2","5","5","5","5","4","5","4","5","4","4","7","8","7","8","8","7","8","6","8","5","3","6","4","4","3","5","2","3","4","4","4","6","4","4","7","4","4","6","4","5","5","6","7","3","6","7","6","7","7","6","6","3","5","6","6","6","5","3","7","687568214028189696","刘","150","Male","[""坏我"",""好我"",""好他"",""坏他""]","[""弱我"",""强我"",""强他"",""弱他""]","","","","","","","","yes","","","","","","","","","SRET","EW_formal","","key","f","16.665640625000016","680","380","朋友","侠义","Positive","morality","","","","","","","","","",""
"12158","","j","psychophysics","56","368255","0.0-7.0-3.0-0.42","5","4","5","5","6","4","4","4","5","4","5","-2","1","0","1","-2","1","1","2","5","5","5","5","4","5","4","5","4","4","7","8","7","8","8","7","8","6","8","5","3","6","4","4","3","5","2","3","4","4","4","6","4","4","7","4","4","6","4","5","5","6","7","3","6","7","6","7","7","6","6","3","5","6","6","6","5","3","7","687568214028189696","刘","150","Male","[""坏我"",""好我"",""好他"",""坏他""]","[""弱我"",""强我"",""强他"",""弱他""]","","","","","","","","no","","","","","","","","","SRET","EW_formal","","key","j","16.665536121673014","680","380","自己","毛糙","Negative","ability","","","","","","","","","",""
"5066","","j","psychophysics","57","374323","0.0-7.0-3.0-0.43","5","4","5","5","6","4","4","4","5","4","5","-2","1","0","1","-2","1","1","2","5","5","5","5","4","5","4","5","4","4","7","8","7","8","8","7","8","6","8","5","3","6","4","4","3","5","2","3","4","4","4","6","4","4","7","4","4","6","4","5","5","6","7","3","6","7","6","7","7","6","6","3","5","6","6","6","5","3","7","687568214028189696","刘","150","Male","[""坏我"",""好我"",""好他"",""坏他""]","[""弱我"",""强我"",""强他"",""弱他""]","","","","","","","","no","","","","","","","","","SRET","EW_formal","","key","j","16.665735537190113","680","380","朋友","畏难","Negative","ability","","","","","","","","","",""
"3250","","f","psychophysics","58","378579","0.0-7.0-3.0-0.44","5","4","5","5","6","4","4","4","5","4","5","-2","1","0","1","-2","1","1","2","5","5","5","5","4","5","4","5","4","4","7","8","7","8","8","7","8","6","8","5","3","6","4","4","3","5","2","3","4","4","4","6","4","4","7","4","4","6","4","5","5","6","7","3","6","7","6","7","7","6","6","3","5","6","6","6","5","3","7","687568214028189696","刘","150","Male","[""坏我"",""好我"",""好他"",""坏他""]","[""弱我"",""强我"",""强他"",""弱他""]","","","","","","","","yes","","","","","","","","","SRET","EW_formal","","key","f","16.665645669291425","680","380","自己","敬业","Positive","morality","","","","","","","","","",""
"4064","","f","psychophysics","59","383657","0.0-7.0-3.0-0.45","5","4","5","5","6","4","4","4","5","4","5","-2","1","0","1","-2","1","1","2","5","5","5","5","4","5","4","5","4","4","7","8","7","8","8","7","8","6","8","5","3","6","4","4","3","5","2","3","4","4","4","6","4","4","7","4","4","6","4","5","5","6","7","3","6","7","6","7","7","6","6","3","5","6","6","6","5","3","7","687568214028189696","刘","150","Male","[""坏我"",""好我"",""好他"",""坏他""]","[""弱我"",""强我"",""强他"",""弱他""]","","","","","","","","yes","","","","","","","","","SRET","EW_formal","","key","f","16.66573026315784","680","380","朋友","果决","Positive","ability","","","","","","","","","",""
"2756","","f","psychophysics","60","387423","0.0-7.0-3.0-0.46","5","4","5","5","6","4","4","4","5","4","5","-2","1","0","1","-2","1","1","2","5","5","5","5","4","5","4","5","4","4","7","8","7","8","8","7","8","6","8","5","3","6","4","4","3","5","2","3","4","4","4","6","4","4","7","4","4","6","4","5","5","6","7","3","6","7","6","7","7","6","6","3","5","6","6","6","5","3","7","687568214028189696","刘","150","Male","[""坏我"",""好我"",""好他"",""坏他""]","[""弱我"",""强我"",""强他"",""弱他""]","","","","","","","","yes","","","","","","","","","SRET","EW_formal","","key","f","16.665164444444493","680","380","朋友","刻苦","Positive","ability","","","","","","","","","",""
"5106","","j","psychophysics","61","393533","0.0-7.0-3.0-0.47","5","4","5","5","6","4","4","4","5","4","5","-2","1","0","1","-2","1","1","2","5","5","5","5","4","5","4","5","4","4","7","8","7","8","8","7","8","6","8","5","3","6","4","4","3","5","2","3","4","4","4","6","4","4","7","4","4","6","4","5","5","6","7","3","6","7","6","7","7","6","6","3","5","6","6","6","5","3","7","687568214028189696","刘","150","Male","[""坏我"",""好我"",""好他"",""坏他""]","[""弱我"",""强我"",""强他"",""弱他""]","","","","","","","","no","","","","","","","","","SRET","EW_formal","","key","j","16.665671232876637","680","380","自己","虚伪","Negative","morality","","","","","","","","","",""
"8143","","f","psychophysics","62","402681","0.0-7.0-3.0-0.48","5","4","5","5","6","4","4","4","5","4","5","-2","1","0","1","-2","1","1","2","5","5","5","5","4","5","4","5","4","4","7","8","7","8","8","7","8","6","8","5","3","6","4","4","3","5","2","3","4","4","4","6","4","4","7","4","4","6","4","5","5","6","7","3","6","7","6","7","7","6","6","3","5","6","6","6","5","3","7","687568214028189696","刘","150","Male","[""坏我"",""好我"",""好他"",""坏他""]","[""弱我"",""强我"",""强他"",""弱他""]","","","","","","","","yes","","","","","","","","","SRET","EW_formal","","key","f","16.66557846715322","680","380","自己","正气","Positive","morality","","","","","","","","","",""
"4618","","j","psychophysics","63","408305","0.0-7.0-3.0-0.49","5","4","5","5","6","4","4","4","5","4","5","-2","1","0","1","-2","1","1","2","5","5","5","5","4","5","4","5","4","4","7","8","7","8","8","7","8","6","8","5","3","6","4","4","3","5","2","3","4","4","4","6","4","4","7","4","4","6","4","5","5","6","7","3","6","7","6","7","7","6","6","3","5","6","6","6","5","3","7","687568214028189696","刘","150","Male","[""坏我"",""好我"",""好他"",""坏他""]","[""弱我"",""强我"",""强他"",""弱他""]","","","","","","","","no","","","","","","","","","SRET","EW_formal","","key","j","16.66548071216615","680","380","自己","狡诈","Negative","morality","","","","","","","","","",""
"6925","","f","psychophysics","64","416234","0.0-7.0-3.0-0.50","5","4","5","5","6","4","4","4","5","4","5","-2","1","0","1","-2","1","1","2","5","5","5","5","4","5","4","5","4","4","7","8","7","8","8","7","8","6","8","5","3","6","4","4","3","5","2","3","4","4","4","6","4","4","7","4","4","6","4","5","5","6","7","3","6","7","6","7","7","6","6","3","5","6","6","6","5","3","7","687568214028189696","刘","150","Male","[""坏我"",""好我"",""好他"",""坏他""]","[""弱我"",""强我"",""强他"",""弱他""]","","","","","","","","yes","","","","","","","","","SRET","EW_formal","","key","f","16.66555485232067","680","380","自己","骁勇","Positive","ability","","","","","","","","","",""
"3345","","f","psychophysics","65","420582","0.0-7.0-3.0-0.51","5","4","5","5","6","4","4","4","5","4","5","-2","1","0","1","-2","1","1","2","5","5","5","5","4","5","4","5","4","4","7","8","7","8","8","7","8","6","8","5","3","6","4","4","3","5","2","3","4","4","4","6","4","4","7","4","4","6","4","5","5","6","7","3","6","7","6","7","7","6","6","3","5","6","6","6","5","3","7","687568214028189696","刘","150","Male","[""坏我"",""好我"",""好他"",""坏他""]","[""弱我"",""强我"",""强他"",""弱他""]","","","","","","","","yes","","","","","","","","","SRET","EW_formal","","key","f","16.66538076923081","680","380","自己","思辨","Positive","ability","","","","","","","","","",""
"4006","","j","psychophysics","66","425592","0.0-7.0-3.0-0.52","5","4","5","5","6","4","4","4","5","4","5","-2","1","0","1","-2","1","1","2","5","5","5","5","4","5","4","5","4","4","7","8","7","8","8","7","8","6","8","5","3","6","4","4","3","5","2","3","4","4","4","6","4","4","7","4","4","6","4","5","5","6","7","3","6","7","6","7","7","6","6","3","5","6","6","6","5","3","7","687568214028189696","刘","150","Male","[""坏我"",""好我"",""好他"",""坏他""]","[""弱我"",""强我"",""强他"",""弱他""]","","","","","","","","no","","","","","","","","","SRET","EW_formal","","key","j","16.665683333333195","680","380","自己","独断","Negative","ability","","","","","","","","","",""
"4089","","j","psychophysics","67","430684","0.0-7.0-3.0-0.53","5","4","5","5","6","4","4","4","5","4","5","-2","1","0","1","-2","1","1","2","5","5","5","5","4","5","4","5","4","4","7","8","7","8","8","7","8","6","8","5","3","6","4","4","3","5","2","3","4","4","4","6","4","4","7","4","4","6","4","5","5","6","7","3","6","7","6","7","7","6","6","3","5","6","6","6","5","3","7","687568214028189696","刘","150","Male","[""坏我"",""好我"",""好他"",""坏他""]","[""弱我"",""强我"",""强他"",""弱他""]","","","","","","","","no","","","","","","","","","SRET","EW_formal","","key","j","16.665536184210634","680","380","朋友","果断","Positive","ability","","","","","","","","","",""
"6064","","f","psychophysics","68","437755","0.0-7.0-3.0-0.54","5","4","5","5","6","4","4","4","5","4","5","-2","1","0","1","-2","1","1","2","5","5","5","5","4","5","4","5","4","4","7","8","7","8","8","7","8","6","8","5","3","6","4","4","3","5","2","3","4","4","4","6","4","4","7","4","4","6","4","5","5","6","7","3","6","7","6","7","7","6","6","3","5","6","6","6","5","3","7","687568214028189696","刘","150","Male","[""坏我"",""好我"",""好他"",""坏他""]","[""弱我"",""强我"",""强他"",""弱他""]","","","","","","","","yes","","","","","","","","","SRET","EW_formal","","key","f","16.665457547169904","680","380","自己","智慧","Positive","ability","","","","","","","","","",""
"9039","","j","psychophysics","69","447804","0.0-7.0-3.0-0.55","5","4","5","5","6","4","4","4","5","4","5","-2","1","0","1","-2","1","1","2","5","5","5","5","4","5","4","5","4","4","7","8","7","8","8","7","8","6","8","5","3","6","4","4","3","5","2","3","4","4","4","6","4","4","7","4","4","6","4","5","5","6","7","3","6","7","6","7","7","6","6","3","5","6","6","6","5","3","7","687568214028189696","刘","150","Male","[""坏我"",""好我"",""好他"",""坏他""]","[""弱我"",""强我"",""强他"",""弱他""]","","","","","","","","no","","","","","","","","","SRET","EW_formal","","key","j","16.66555481727573","680","380","朋友","庸碌","Negative","ability","","","","","","","","","",""
"3649","","f","psychophysics","70","452460","0.0-7.0-3.0-0.56","5","4","5","5","6","4","4","4","5","4","5","-2","1","0","1","-2","1","1","2","5","5","5","5","4","5","4","5","4","4","7","8","7","8","8","7","8","6","8","5","3","6","4","4","3","5","2","3","4","4","4","6","4","4","7","4","4","6","4","5","5","6","7","3","6","7","6","7","7","6","6","3","5","6","6","6","5","3","7","687568214028189696","刘","150","Male","[""坏我"",""好我"",""好他"",""坏他""]","[""弱我"",""强我"",""强他"",""弱他""]","","","","","","","","yes","","","","","","","","","SRET","EW_formal","","key","f","16.665895683453257","680","380","自己","守信","Positive","morality","","","","","","","","","",""
"4190","","f","psychophysics","71","457659","0.0-7.0-3.0-0.57","5","4","5","5","6","4","4","4","5","4","5","-2","1","0","1","-2","1","1","2","5","5","5","5","4","5","4","5","4","4","7","8","7","8","8","7","8","6","8","5","3","6","4","4","3","5","2","3","4","4","4","6","4","4","7","4","4","6","4","5","5","6","7","3","6","7","6","7","7","6","6","3","5","6","6","6","5","3","7","687568214028189696","刘","150","Male","[""坏我"",""好我"",""好他"",""坏他""]","[""弱我"",""强我"",""强他"",""弱他""]","","","","","","","","yes","","","","","","","","","SRET","EW_formal","","key","f","16.665533762057972","680","380","朋友","屈才","Negative","ability","","","","","","","","","",""
"7979","","f","psychophysics","72","466644","0.0-7.0-3.0-0.58","5","4","5","5","6","4","4","4","5","4","5","-2","1","0","1","-2","1","1","2","5","5","5","5","4","5","4","5","4","4","7","8","7","8","8","7","8","6","8","5","3","6","4","4","3","5","2","3","4","4","4","6","4","4","7","4","4","6","4","5","5","6","7","3","6","7","6","7","7","6","6","3","5","6","6","6","5","3","7","687568214028189696","刘","150","Male","[""坏我"",""好我"",""好他"",""坏他""]","[""弱我"",""强我"",""强他"",""弱他""]","","","","","","","","yes","","","","","","","","","SRET","EW_formal","","key","f","16.665589219330855","680","380","自己","才尽","Negative","ability","","","","","","","","","",""
"3489","","f","psychophysics","73","471140","0.0-7.0-3.0-0.59","5","4","5","5","6","4","4","4","5","4","5","-2","1","0","1","-2","1","1","2","5","5","5","5","4","5","4","5","4","4","7","8","7","8","8","7","8","6","8","5","3","6","4","4","3","5","2","3","4","4","4","6","4","4","7","4","4","6","4","5","5","6","7","3","6","7","6","7","7","6","6","3","5","6","6","6","5","3","7","687568214028189696","刘","150","Male","[""坏我"",""好我"",""好他"",""坏他""]","[""弱我"",""强我"",""强他"",""弱他""]","","","","","","","","yes","","","","","","","","","SRET","EW_formal","","key","f","16.727623134328457","680","380","朋友","无私","Positive","morality","","","","","","","","","",""
"3951","","j","psychophysics","74","476102","0.0-7.0-3.0-0.60","5","4","5","5","6","4","4","4","5","4","5","-2","1","0","1","-2","1","1","2","5","5","5","5","4","5","4","5","4","4","7","8","7","8","8","7","8","6","8","5","3","6","4","4","3","5","2","3","4","4","4","6","4","4","7","4","4","6","4","5","5","6","7","3","6","7","6","7","7","6","6","3","5","6","6","6","5","3","7","687568214028189696","刘","150","Male","[""坏我"",""好我"",""好他"",""坏他""]","[""弱我"",""强我"",""强他"",""弱他""]","","","","","","","","no","","","","","","","","","SRET","EW_formal","","key","j","16.665447811447734","680","380","自己","卑鄙","Negative","morality","","","","","","","","","",""
"5463","","j","psychophysics","75","482571","0.0-7.0-3.0-0.61","5","4","5","5","6","4","4","4","5","4","5","-2","1","0","1","-2","1","1","2","5","5","5","5","4","5","4","5","4","4","7","8","7","8","8","7","8","6","8","5","3","6","4","4","3","5","2","3","4","4","4","6","4","4","7","4","4","6","4","5","5","6","7","3","6","7","6","7","7","6","6","3","5","6","6","6","5","3","7","687568214028189696","刘","150","Male","[""坏我"",""好我"",""好他"",""坏他""]","[""弱我"",""强我"",""强他"",""弱他""]","","","","","","","","no","","","","","","","","","SRET","EW_formal","","key","j","16.708761658031076","680","380","朋友","低劣","Negative","morality","","","","","","","","","",""
"3967","","f","psychophysics","76","487551","0.0-7.0-3.0-0.62","5","4","5","5","6","4","4","4","5","4","5","-2","1","0","1","-2","1","1","2","5","5","5","5","4","5","4","5","4","4","7","8","7","8","8","7","8","6","8","5","3","6","4","4","3","5","2","3","4","4","4","6","4","4","7","4","4","6","4","5","5","6","7","3","6","7","6","7","7","6","6","3","5","6","6","6","5","3","7","687568214028189696","刘","150","Male","[""坏我"",""好我"",""好他"",""坏他""]","[""弱我"",""强我"",""强他"",""弱他""]","","","","","","","","yes","","","","","","","","","SRET","EW_formal","","key","f","16.665426174496712","680","380","自己","独立","Positive","ability","","","","","","","","","",""
"3772","","f","psychophysics","77","492329","0.0-7.0-3.0-0.63","5","4","5","5","6","4","4","4","5","4","5","-2","1","0","1","-2","1","1","2","5","5","5","5","4","5","4","5","4","4","7","8","7","8","8","7","8","6","8","5","3","6","4","4","3","5","2","3","4","4","4","6","4","4","7","4","4","6","4","5","5","6","7","3","6","7","6","7","7","6","6","3","5","6","6","6","5","3","7","687568214028189696","刘","150","Male","[""坏我"",""好我"",""好他"",""坏他""]","[""弱我"",""强我"",""强他"",""弱他""]","","","","","","","","yes","","","","","","","","","SRET","EW_formal","","key","f","16.665621052631543","680","380","朋友","全才","Positive","ability","","","","","","","","","",""
"4023","","j","psychophysics","78","497354","0.0-7.0-3.0-0.64","5","4","5","5","6","4","4","4","5","4","5","-2","1","0","1","-2","1","1","2","5","5","5","5","4","5","4","5","4","4","7","8","7","8","8","7","8","6","8","5","3","6","4","4","3","5","2","3","4","4","4","6","4","4","7","4","4","6","4","5","5","6","7","3","6","7","6","7","7","6","6","3","5","6","6","6","5","3","7","687568214028189696","刘","150","Male","[""坏我"",""好我"",""好他"",""坏他""]","[""弱我"",""强我"",""强他"",""弱他""]","","","","","","","","no","","","","","","","","","SRET","EW_formal","","key","j","16.721253333333298","680","380","自己","小人","Negative","morality","","","","","","","","","",""
"4411","","f","psychophysics","79","502774","0.0-7.0-3.0-0.65","5","4","5","5","6","4","4","4","5","4","5","-2","1","0","1","-2","1","1","2","5","5","5","5","4","5","4","5","4","4","7","8","7","8","8","7","8","6","8","5","3","6","4","4","3","5","2","3","4","4","4","6","4","4","7","4","4","6","4","5","5","6","7","3","6","7","6","7","7","6","6","3","5","6","6","6","5","3","7","687568214028189696","刘","150","Male","[""坏我"",""好我"",""好他"",""坏他""]","[""弱我"",""强我"",""强他"",""弱他""]","","","","","","","","yes","","","","","","","","","SRET","EW_formal","","key","f","16.66548456790132","680","380","自己","高尚","Positive","morality","","","","","","","","","",""
"1608","","f","psychophysics","80","505388","0.0-7.0-3.0-0.66","5","4","5","5","6","4","4","4","5","4","5","-2","1","0","1","-2","1","1","2","5","5","5","5","4","5","4","5","4","4","7","8","7","8","8","7","8","6","8","5","3","6","4","4","3","5","2","3","4","4","4","6","4","4","7","4","4","6","4","5","5","6","7","3","6","7","6","7","7","6","6","3","5","6","6","6","5","3","7","687568214028189696","刘","150","Male","[""坏我"",""好我"",""好他"",""坏他""]","[""弱我"",""强我"",""强他"",""弱他""]","","","","","","","","yes","","","","","","","","","SRET","EW_formal","","key","f","16.66535256410246","680","380","自己","仁厚","Positive","morality","","","","","","","","","",""
"2364","","f","psychophysics","81","508764","0.0-7.0-3.0-0.67","5","4","5","5","6","4","4","4","5","4","5","-2","1","0","1","-2","1","1","2","5","5","5","5","4","5","4","5","4","4","7","8","7","8","8","7","8","6","8","5","3","6","4","4","3","5","2","3","4","4","4","6","4","4","7","4","4","6","4","5","5","6","7","3","6","7","6","7","7","6","6","3","5","6","6","6","5","3","7","687568214028189696","刘","150","Male","[""坏我"",""好我"",""好他"",""坏他""]","[""弱我"",""强我"",""强他"",""弱他""]","","","","","","","","yes","","","","","","","","","SRET","EW_formal","","key","f","16.665721393034815","680","380","自己","文明","Positive","morality","","","","","","","","","",""
"2274","","f","psychophysics","82","512047","0.0-7.0-3.0-0.68","5","4","5","5","6","4","4","4","5","4","5","-2","1","0","1","-2","1","1","2","5","5","5","5","4","5","4","5","4","4","7","8","7","8","8","7","8","6","8","5","3","6","4","4","3","5","2","3","4","4","4","6","4","4","7","4","4","6","4","5","5","6","7","3","6","7","6","7","7","6","6","3","5","6","6","6","5","3","7","687568214028189696","刘","150","Male","[""坏我"",""好我"",""好他"",""坏他""]","[""弱我"",""强我"",""强他"",""弱他""]","","","","","","","","yes","","","","","","","","","SRET","EW_formal","","key","f","16.665341836734726","680","380","朋友","干练","Positive","ability","","","","","","","","","",""
"4333","","j","psychophysics","83","517385","0.0-7.0-3.0-0.69","5","4","5","5","6","4","4","4","5","4","5","-2","1","0","1","-2","1","1","2","5","5","5","5","4","5","4","5","4","4","7","8","7","8","8","7","8","6","8","5","3","6","4","4","3","5","2","3","4","4","4","6","4","4","7","4","4","6","4","5","5","6","7","3","6","7","6","7","7","6","6","3","5","6","6","6","5","3","7","687568214028189696","刘","150","Male","[""坏我"",""好我"",""好他"",""坏他""]","[""弱我"",""强我"",""强他"",""弱他""]","","","","","","","","no","","","","","","","","","SRET","EW_formal","","key","j","16.717833855799377","680","380","朋友","废物","Negative","ability","","","","","","","","","",""
"1363","","f","psychophysics","84","519752","0.0-7.0-3.0-0.70","5","4","5","5","6","4","4","4","5","4","5","-2","1","0","1","-2","1","1","2","5","5","5","5","4","5","4","5","4","4","7","8","7","8","8","7","8","6","8","5","3","6","4","4","3","5","2","3","4","4","4","6","4","4","7","4","4","6","4","5","5","6","7","3","6","7","6","7","7","6","6","3","5","6","6","6","5","3","7","687568214028189696","刘","150","Male","[""坏我"",""好我"",""好他"",""坏他""]","[""弱我"",""强我"",""强他"",""弱他""]","","","","","","","","yes","","","","","","","","","SRET","EW_formal","","key","f","16.66548936170194","680","380","自己","专注","Positive","ability","","","","","","","","","",""
"1227","","f","psychophysics","85","521984","0.0-7.0-3.0-0.71","5","4","5","5","6","4","4","4","5","4","5","-2","1","0","1","-2","1","1","2","5","5","5","5","4","5","4","5","4","4","7","8","7","8","8","7","8","6","8","5","3","6","4","4","3","5","2","3","4","4","4","6","4","4","7","4","4","6","4","5","5","6","7","3","6","7","6","7","7","6","6","3","5","6","6","6","5","3","7","687568214028189696","刘","150","Male","[""坏我"",""好我"",""好他"",""坏他""]","[""弱我"",""强我"",""强他"",""弱他""]","","","","","","","","yes","","","","","","","","","SRET","EW_formal","","key","f","16.791916666666634","680","380","朋友","守时","Positive","morality","","","","","","","","","",""
"1651","","j","psychophysics","86","524640","0.0-7.0-3.0-0.72","5","4","5","5","6","4","4","4","5","4","5","-2","1","0","1","-2","1","1","2","5","5","5","5","4","5","4","5","4","4","7","8","7","8","8","7","8","6","8","5","3","6","4","4","3","5","2","3","4","4","4","6","4","4","7","4","4","6","4","5","5","6","7","3","6","7","6","7","7","6","6","3","5","6","6","6","5","3","7","687568214028189696","刘","150","Male","[""坏我"",""好我"",""好他"",""坏他""]","[""弱我"",""强我"",""强他"",""弱他""]","","","","","","","","no","","","","","","","","","SRET","EW_formal","","key","j","16.66548101265791","680","380","朋友","弱智","Negative","ability","","","","","","","","","",""
"6069","","j","psychophysics","87","531717","0.0-7.0-3.0-0.73","5","4","5","5","6","4","4","4","5","4","5","-2","1","0","1","-2","1","1","2","5","5","5","5","4","5","4","5","4","4","7","8","7","8","8","7","8","6","8","5","3","6","4","4","3","5","2","3","4","4","4","6","4","4","7","4","4","6","4","5","5","6","7","3","6","7","6","7","7","6","6","3","5","6","6","6","5","3","7","687568214028189696","刘","150","Male","[""坏我"",""好我"",""好他"",""坏他""]","[""弱我"",""强我"",""强他"",""弱他""]","","","","","","","","no","","","","","","","","","SRET","EW_formal","","key","j","16.66558962264142","680","380","自己","拙笨","Negative","ability","","","","","","","","","",""
"3350","","j","psychophysics","88","536074","0.0-7.0-3.0-0.74","5","4","5","5","6","4","4","4","5","4","5","-2","1","0","1","-2","1","1","2","5","5","5","5","4","5","4","5","4","4","7","8","7","8","8","7","8","6","8","5","3","6","4","4","3","5","2","3","4","4","4","6","4","4","7","4","4","6","4","5","5","6","7","3","6","7","6","7","7","6","6","3","5","6","6","6","5","3","7","687568214028189696","刘","150","Male","[""坏我"",""好我"",""好他"",""坏他""]","[""弱我"",""强我"",""强他"",""弱他""]","","","","","","","","no","","","","","","","","","SRET","EW_formal","","key","j","16.66551538461533","680","380","自己","笨蛋","Negative","ability","","","","","","","","","",""
"1759","","f","psychophysics","89","538840","0.0-7.0-3.0-0.75","5","4","5","5","6","4","4","4","5","4","5","-2","1","0","1","-2","1","1","2","5","5","5","5","4","5","4","5","4","4","7","8","7","8","8","7","8","6","8","5","3","6","4","4","3","5","2","3","4","4","4","6","4","4","7","4","4","6","4","5","5","6","7","3","6","7","6","7","7","6","6","3","5","6","6","6","5","3","7","687568214028189696","刘","150","Male","[""坏我"",""好我"",""好他"",""坏他""]","[""弱我"",""强我"",""强他"",""弱他""]","","","","","","","","yes","","","","","","","","","SRET","EW_formal","","key","f","16.665406060606156","680","380","朋友","坦荡","Positive","morality","","","","","","","","","",""
"606","","f","psychophysics","90","540452","0.0-7.0-3.0-0.76","5","4","5","5","6","4","4","4","5","4","5","-2","1","0","1","-2","1","1","2","5","5","5","5","4","5","4","5","4","4","7","8","7","8","8","7","8","6","8","5","3","6","4","4","3","5","2","3","4","4","4","6","4","4","7","4","4","6","4","5","5","6","7","3","6","7","6","7","7","6","6","3","5","6","6","6","5","3","7","687568214028189696","刘","150","Male","[""坏我"",""好我"",""好他"",""坏他""]","[""弱我"",""强我"",""强他"",""弱他""]","","","","","","","","yes","","","","","","","","","SRET","EW_formal","","key","f","16.66555208333254","680","380","自己","仁爱","Positive","morality","","","","","","","","","",""
"1655","","j","psychophysics","91","543119","0.0-7.0-3.0-0.77","5","4","5","5","6","4","4","4","5","4","5","-2","1","0","1","-2","1","1","2","5","5","5","5","4","5","4","5","4","4","7","8","7","8","8","7","8","6","8","5","3","6","4","4","3","5","2","3","4","4","4","6","4","4","7","4","4","6","4","5","5","6","7","3","6","7","6","7","7","6","6","3","5","6","6","6","5","3","7","687568214028189696","刘","150","Male","[""坏我"",""好我"",""好他"",""坏他""]","[""弱我"",""强我"",""强他"",""弱他""]","","","","","","","","no","","","","","","","","","SRET","EW_formal","","key","j","16.665610062892682","680","380","朋友","无耻","Negative","morality","","","","","","","","","",""
"5732","","j","psychophysics","92","549856","0.0-7.0-3.0-0.78","5","4","5","5","6","4","4","4","5","4","5","-2","1","0","1","-2","1","1","2","5","5","5","5","4","5","4","5","4","4","7","8","7","8","8","7","8","6","8","5","3","6","4","4","3","5","2","3","4","4","4","6","4","4","7","4","4","6","4","5","5","6","7","3","6","7","6","7","7","6","6","3","5","6","6","6","5","3","7","687568214028189696","刘","150","Male","[""坏我"",""好我"",""好他"",""坏他""]","[""弱我"",""强我"",""强他"",""弱他""]","","","","","","","","no","","","","","","","","","SRET","EW_formal","","key","j","16.665503722084306","680","380","自己","龌龊","Negative","morality","","","","","","","","","",""
"4652","","j","psychophysics","93","555515","0.0-7.0-3.0-0.79","5","4","5","5","6","4","4","4","5","4","5","-2","1","0","1","-2","1","1","2","5","5","5","5","4","5","4","5","4","4","7","8","7","8","8","7","8","6","8","5","3","6","4","4","3","5","2","3","4","4","4","6","4","4","7","4","4","6","4","5","5","6","7","3","6","7","6","7","7","6","6","3","5","6","6","6","5","3","7","687568214028189696","刘","150","Male","[""坏我"",""好我"",""好他"",""坏他""]","[""弱我"",""强我"",""强他"",""弱他""]","","","","","","","","no","","","","","","","","","SRET","EW_formal","","key","j","16.665581120943905","680","380","朋友","不端","Negative","morality","","","","","","","","","",""
"4599","","j","psychophysics","94","561115","0.0-7.0-3.0-0.80","5","4","5","5","6","4","4","4","5","4","5","-2","1","0","1","-2","1","1","2","5","5","5","5","4","5","4","5","4","4","7","8","7","8","8","7","8","6","8","5","3","6","4","4","3","5","2","3","4","4","4","6","4","4","7","4","4","6","4","5","5","6","7","3","6","7","6","7","7","6","6","3","5","6","6","6","5","3","7","687568214028189696","刘","150","Male","[""坏我"",""好我"",""好他"",""坏他""]","[""弱我"",""强我"",""强他"",""弱他""]","","","","","","","","no","","","","","","","","","SRET","EW_formal","","key","j","16.665498507462456","680","380","朋友","罪恶","Negative","morality","","","","","","","","","",""
"1184","","f","psychophysics","95","563312","0.0-7.0-3.0-0.81","5","4","5","5","6","4","4","4","5","4","5","-2","1","0","1","-2","1","1","2","5","5","5","5","4","5","4","5","4","4","7","8","7","8","8","7","8","6","8","5","3","6","4","4","3","5","2","3","4","4","4","6","4","4","7","4","4","6","4","5","5","6","7","3","6","7","6","7","7","6","6","3","5","6","6","6","5","3","7","687568214028189696","刘","150","Male","[""坏我"",""好我"",""好他"",""坏他""]","[""弱我"",""强我"",""强他"",""弱他""]","","","","","","","","yes","","","","","","","","","SRET","EW_formal","","key","f","16.665000000000536","680","380","自己","忠义","Positive","morality","","","","","","","","","",""
"5513","","j","psychophysics","96","569831","0.0-7.0-3.0-0.82","5","4","5","5","6","4","4","4","5","4","5","-2","1","0","1","-2","1","1","2","5","5","5","5","4","5","4","5","4","4","7","8","7","8","8","7","8","6","8","5","3","6","4","4","3","5","2","3","4","4","4","6","4","4","7","4","4","6","4","5","5","6","7","3","6","7","6","7","7","6","6","3","5","6","6","6","5","3","7","687568214028189696","刘","150","Male","[""坏我"",""好我"",""好他"",""坏他""]","[""弱我"",""强我"",""强他"",""弱他""]","","","","","","","","no","","","","","","","","","SRET","EW_formal","","key","j","16.6658005115089","680","380","朋友","恶劣","Negative","morality","","","","","","","","","",""
"1211","","f","psychophysics","97","572049","0.0-7.0-3.0-0.83","5","4","5","5","6","4","4","4","5","4","5","-2","1","0","1","-2","1","1","2","5","5","5","5","4","5","4","5","4","4","7","8","7","8","8","7","8","6","8","5","3","6","4","4","3","5","2","3","4","4","4","6","4","4","7","4","4","6","4","5","5","6","7","3","6","7","6","7","7","6","6","3","5","6","6","6","5","3","7","687568214028189696","刘","150","Male","[""坏我"",""好我"",""好他"",""坏他""]","[""弱我"",""强我"",""强他"",""弱他""]","","","","","","","","yes","","","","","","","","","SRET","EW_formal","","key","f","16.665143939393932","680","380","朋友","能干","Positive","ability","","","","","","","","","",""
"2308","","f","psychophysics","98","575363","0.0-7.0-3.0-0.84","5","4","5","5","6","4","4","4","5","4","5","-2","1","0","1","-2","1","1","2","5","5","5","5","4","5","4","5","4","4","7","8","7","8","8","7","8","6","8","5","3","6","4","4","3","5","2","3","4","4","4","6","4","4","7","4","4","6","4","5","5","6","7","3","6","7","6","7","7","6","6","3","5","6","6","6","5","3","7","687568214028189696","刘","150","Male","[""坏我"",""好我"",""好他"",""坏他""]","[""弱我"",""强我"",""强他"",""弱他""]","","","","","","","","yes","","","","","","","","","SRET","EW_formal","","key","f","18.33227777777809","680","380","自己","缓慢","Negative","ability","","","","","","","","","",""
"1001","","f","psychophysics","99","577367","0.0-7.0-3.0-0.85","5","4","5","5","6","4","4","4","5","4","5","-2","1","0","1","-2","1","1","2","5","5","5","5","4","5","4","5","4","4","7","8","7","8","8","7","8","6","8","5","3","6","4","4","3","5","2","3","4","4","4","6","4","4","7","4","4","6","4","5","5","6","7","3","6","7","6","7","7","6","6","3","5","6","6","6","5","3","7","687568214028189696","刘","150","Male","[""坏我"",""好我"",""好他"",""坏他""]","[""弱我"",""强我"",""强他"",""弱他""]","","","","","","","","yes","","","","","","","","","SRET","EW_formal","","key","f","16.807635593220148","680","380","自己","主见","Positive","ability","","","","","","","","","",""
"838","","f","psychophysics","100","579213","0.0-7.0-3.0-0.86","5","4","5","5","6","4","4","4","5","4","5","-2","1","0","1","-2","1","1","2","5","5","5","5","4","5","4","5","4","4","7","8","7","8","8","7","8","6","8","5","3","6","4","4","3","5","2","3","4","4","4","6","4","4","7","4","4","6","4","5","5","6","7","3","6","7","6","7","7","6","6","3","5","6","6","6","5","3","7","687568214028189696","刘","150","Male","[""坏我"",""好我"",""好他"",""坏他""]","[""弱我"",""强我"",""强他"",""弱他""]","","","","","","","","yes","","","","","","","","","SRET","EW_formal","","key","f","16.818266055045793","680","380","朋友","素养","Positive","morality","","","","","","","","","",""
"1298","","j","psychophysics","101","581521","0.0-7.0-3.0-0.87","5","4","5","5","6","4","4","4","5","4","5","-2","1","0","1","-2","1","1","2","5","5","5","5","4","5","4","5","4","4","7","8","7","8","8","7","8","6","8","5","3","6","4","4","3","5","2","3","4","4","4","6","4","4","7","4","4","6","4","5","5","6","7","3","6","7","6","7","7","6","6","3","5","6","6","6","5","3","7","687568214028189696","刘","150","Male","[""坏我"",""好我"",""好他"",""坏他""]","[""弱我"",""强我"",""强他"",""弱他""]","","","","","","","","no","","","","","","","","","SRET","EW_formal","","key","j","16.66549635036546","680","380","朋友","低俗","Negative","morality","","","","","","","","","",""
"4123","
    <p><div style='color:white;font-size:35px; line-height:20px;'>计算任务</div></p><br>
    <p><div style='color:red;font-size:25px; line-height:20px;'>接下来，您将看到一些四则运算题，<b>请从键盘选择 0-9 进行反应。</b></div></p>
    <p><div style='color:red;font-size:25px; line-height:20px;'>请尽可能快地进行计算，计算的速度和正确率将影响报酬的发放。</div></p>
    <p><div class='footer' style='color:white;font-size:25px; line-height:20px;'>如果对本实验还有不清楚之处，请立即向实验员咨询。</p><p style='color:white;font-size:25px; line-height:20px;'>如果您明白了规则：</p><p style='color:white;font-size:22px; line-height:20px;'>请按 继续 进入练习</p>
    </div>
    ","0","html-button-response","102","585646","0.0-7.0-4.0","5","4","5","5","6","4","4","4","5","4","5","-2","1","0","1","-2","1","1","2","5","5","5","5","4","5","4","5","4","4","7","8","7","8","8","7","8","6","8","5","3","6","4","4","3","5","2","3","4","4","4","6","4","4","7","4","4","6","4","5","5","6","7","3","6","7","6","7","7","6","6","3","5","6","6","6","5","3","7","687568214028189696","刘","150","Male","[""坏我"",""好我"",""好他"",""坏他""]","[""弱我"",""强我"",""强他"",""弱他""]","","","","","","","","","","","","","","","","","SRET_math","math_instructions","Sat Nov 25 2023 14:27:24 GMT+0800 (中国标准时间)","","","","","","","","","","","","","","","","","","",""
"2098","","1","psychophysics","103","587753","0.0-7.0-5.0-0.0","5","4","5","5","6","4","4","4","5","4","5","-2","1","0","1","-2","1","1","2","5","5","5","5","4","5","4","5","4","4","7","8","7","8","8","7","8","6","8","5","3","6","4","4","3","5","2","3","4","4","4","6","4","4","7","4","4","6","4","5","5","6","7","3","6","7","6","7","7","6","6","3","5","6","6","6","5","3","7","687568214028189696","刘","150","Male","[""坏我"",""好我"",""好他"",""坏他""]","[""弱我"",""强我"",""强他"",""弱他""]","","","","","","","","1","","","","","","","","","SRET","SRET_math_calculate","","key","1","16.66630952380919","680","380","","","","","9-8= ?","1","1","","","","","","",""
"2040","","8","psychophysics","104","589796","0.0-7.0-5.0-0.1","5","4","5","5","6","4","4","4","5","4","5","-2","1","0","1","-2","1","1","2","5","5","5","5","4","5","4","5","4","4","7","8","7","8","8","7","8","6","8","5","3","6","4","4","3","5","2","3","4","4","4","6","4","4","7","4","4","6","4","5","5","6","7","3","6","7","6","7","7","6","6","3","5","6","6","6","5","3","7","687568214028189696","刘","150","Male","[""坏我"",""好我"",""好他"",""坏他""]","[""弱我"",""强我"",""强他"",""弱他""]","","","","","","","","8","","","","","","","","","SRET","SRET_math_calculate","","key","8","16.666852459015676","680","380","","","","","72/9= ?","8","1","","","","","","",""
"2046","","5","psychophysics","105","591845","0.0-7.0-5.0-0.2","5","4","5","5","6","4","4","4","5","4","5","-2","1","0","1","-2","1","1","2","5","5","5","5","4","5","4","5","4","4","7","8","7","8","8","7","8","6","8","5","3","6","4","4","3","5","2","3","4","4","4","6","4","4","7","4","4","6","4","5","5","6","7","3","6","7","6","7","7","6","6","3","5","6","6","6","5","3","7","687568214028189696","刘","150","Male","[""坏我"",""好我"",""好他"",""坏他""]","[""弱我"",""强我"",""强他"",""弱他""]","","","","","","","","5","","","","","","","","","SRET","SRET_math_calculate","","key","5","16.666264462810055","680","380","","","","","15-10= ?","5","1","","","","","","",""
"2022","","9","psychophysics","106","593873","0.0-7.0-5.0-0.3","5","4","5","5","6","4","4","4","5","4","5","-2","1","0","1","-2","1","1","2","5","5","5","5","4","5","4","5","4","4","7","8","7","8","8","7","8","6","8","5","3","6","4","4","3","5","2","3","4","4","4","6","4","4","7","4","4","6","4","5","5","6","7","3","6","7","6","7","7","6","6","3","5","6","6","6","5","3","7","687568214028189696","刘","150","Male","[""坏我"",""好我"",""好他"",""坏他""]","[""弱我"",""强我"",""强他"",""弱他""]","","","","","","","","9","","","","","","","","","SRET","SRET_math_calculate","","key","9","16.665471074380143","680","380","","","","","3*3= ?","9","1","","","","","","",""
"2001","","5","psychophysics","107","595882","0.0-7.0-5.0-0.4","5","4","5","5","6","4","4","4","5","4","5","-2","1","0","1","-2","1","1","2","5","5","5","5","4","5","4","5","4","4","7","8","7","8","8","7","8","6","8","5","3","6","4","4","3","5","2","3","4","4","4","6","4","4","7","4","4","6","4","5","5","6","7","3","6","7","6","7","7","6","6","3","5","6","6","6","5","3","7","687568214028189696","刘","150","Male","[""坏我"",""好我"",""好他"",""坏他""]","[""弱我"",""强我"",""强他"",""弱他""]","","","","","","","","5","","","","","","","","","SRET","SRET_math_calculate","","key","5","16.665766666666606","680","380","","","","","17-12= ? ","5","1","","","","","","",""
"1997","","6","psychophysics","108","597881","0.0-7.0-5.0-0.5","5","4","5","5","6","4","4","4","5","4","5","-2","1","0","1","-2","1","1","2","5","5","5","5","4","5","4","5","4","4","7","8","7","8","8","7","8","6","8","5","3","6","4","4","3","5","2","3","4","4","4","6","4","4","7","4","4","6","4","5","5","6","7","3","6","7","6","7","7","6","6","3","5","6","6","6","5","3","7","687568214028189696","刘","150","Male","[""坏我"",""好我"",""好他"",""坏他""]","[""弱我"",""强我"",""强他"",""弱他""]","","","","","","","","6","","","","","","","","","SRET","SRET_math_calculate","","key","6","16.66594117647037","680","380","","","","","11-5= ?","6","1","","","","","","",""
"1869","","0","psychophysics","109","599753","0.0-7.0-5.0-0.6","5","4","5","5","6","4","4","4","5","4","5","-2","1","0","1","-2","1","1","2","5","5","5","5","4","5","4","5","4","4","7","8","7","8","8","7","8","6","8","5","3","6","4","4","3","5","2","3","4","4","4","6","4","4","7","4","4","6","4","5","5","6","7","3","6","7","6","7","7","6","6","3","5","6","6","6","5","3","7","687568214028189696","刘","150","Male","[""坏我"",""好我"",""好他"",""坏他""]","[""弱我"",""强我"",""强他"",""弱他""]","","","","","","","","0","","","","","","","","","SRET","SRET_math_calculate","","key","0","16.81603636363606","680","380","","","","","22-22= ?","0","1","","","","","","",""
"1878","","0","psychophysics","110","601633","0.0-7.0-5.0-0.7","5","4","5","5","6","4","4","4","5","4","5","-2","1","0","1","-2","1","1","2","5","5","5","5","4","5","4","5","4","4","7","8","7","8","8","7","8","6","8","5","3","6","4","4","3","5","2","3","4","4","4","6","4","4","7","4","4","6","4","5","5","6","7","3","6","7","6","7","7","6","6","3","5","6","6","6","5","3","7","687568214028189696","刘","150","Male","[""坏我"",""好我"",""好他"",""坏他""]","[""弱我"",""强我"",""强他"",""弱他""]","","","","","","","","0","","","","","","","","","SRET","SRET_math_calculate","","key","0","16.66588392857063","680","380","","","","","9-9= ?","0","1","","","","","","",""
"1796","","0","psychophysics","111","603433","0.0-7.0-5.0-0.8","5","4","5","5","6","4","4","4","5","4","5","-2","1","0","1","-2","1","1","2","5","5","5","5","4","5","4","5","4","4","7","8","7","8","8","7","8","6","8","5","3","6","4","4","3","5","2","3","4","4","4","6","4","4","7","4","4","6","4","5","5","6","7","3","6","7","6","7","7","6","6","3","5","6","6","6","5","3","7","687568214028189696","刘","150","Male","[""坏我"",""好我"",""好他"",""坏他""]","[""弱我"",""强我"",""强他"",""弱他""]","","","","","","","","0","","","","","","","","","SRET","SRET_math_calculate","","key","0","16.66577570093469","680","380","","","","","12-12= ?","0","1","","","","","","",""
"1911","","8","psychophysics","112","605346","0.0-7.0-5.0-0.9","5","4","5","5","6","4","4","4","5","4","5","-2","1","0","1","-2","1","1","2","5","5","5","5","4","5","4","5","4","4","7","8","7","8","8","7","8","6","8","5","3","6","4","4","3","5","2","3","4","4","4","6","4","4","7","4","4","6","4","5","5","6","7","3","6","7","6","7","7","6","6","3","5","6","6","6","5","3","7","687568214028189696","刘","150","Male","[""坏我"",""好我"",""好他"",""坏他""]","[""弱我"",""强我"",""强他"",""弱他""]","","","","","","","","8","","","","","","","","","SRET","SRET_math_calculate","","key","8","16.665692982456868","680","380","","","","","9-1= ?","8","1","","","","","","",""
"1861","","3","psychophysics","113","607212","0.0-7.0-5.0-0.10","5","4","5","5","6","4","4","4","5","4","5","-2","1","0","1","-2","1","1","2","5","5","5","5","4","5","4","5","4","4","7","8","7","8","8","7","8","6","8","5","3","6","4","4","3","5","2","3","4","4","4","6","4","4","7","4","4","6","4","5","5","6","7","3","6","7","6","7","7","6","6","3","5","6","6","6","5","3","7","687568214028189696","刘","150","Male","[""坏我"",""好我"",""好他"",""坏他""]","[""弱我"",""强我"",""强他"",""弱他""]","","","","","","","","3","","","","","","","","","SRET","SRET_math_calculate","","key","3","16.81695454545446","680","380","","","","","3+0= ?","3","1","","","","","","",""
"1921","","9","psychophysics","114","609137","0.0-7.0-5.0-0.11","5","4","5","5","6","4","4","4","5","4","5","-2","1","0","1","-2","1","1","2","5","5","5","5","4","5","4","5","4","4","7","8","7","8","8","7","8","6","8","5","3","6","4","4","3","5","2","3","4","4","4","6","4","4","7","4","4","6","4","5","5","6","7","3","6","7","6","7","7","6","6","3","5","6","6","6","5","3","7","687568214028189696","刘","150","Male","[""坏我"",""好我"",""好他"",""坏他""]","[""弱我"",""强我"",""强他"",""弱他""]","","","","","","","","9","","","","","","","","","SRET","SRET_math_calculate","","key","9","16.665324561403075","680","380","","","","","1*9= ?","9","1","","","","","","",""
"1991","","7","psychophysics","115","611137","0.0-7.0-5.0-0.12","5","4","5","5","6","4","4","4","5","4","5","-2","1","0","1","-2","1","1","2","5","5","5","5","4","5","4","5","4","4","7","8","7","8","8","7","8","6","8","5","3","6","4","4","3","5","2","3","4","4","4","6","4","4","7","4","4","6","4","5","5","6","7","3","6","7","6","7","7","6","6","3","5","6","6","6","5","3","7","687568214028189696","刘","150","Male","[""坏我"",""好我"",""好他"",""坏他""]","[""弱我"",""强我"",""强他"",""弱他""]","","","","","","","","7","","","","","","","","","SRET","SRET_math_calculate","","key","7","16.665655462185757","680","380","","","","","7*1=  ?","7","1","","","","","","",""
"1895","","9","psychophysics","116","613074","0.0-7.0-5.0-0.13","5","4","5","5","6","4","4","4","5","4","5","-2","1","0","1","-2","1","1","2","5","5","5","5","4","5","4","5","4","4","7","8","7","8","8","7","8","6","8","5","3","6","4","4","3","5","2","3","4","4","4","6","4","4","7","4","4","6","4","5","5","6","7","3","6","7","6","7","7","6","6","3","5","6","6","6","5","3","7","687568214028189696","刘","150","Male","[""坏我"",""好我"",""好他"",""坏他""]","[""弱我"",""强我"",""强他"",""弱他""]","","","","","","","","9","","","","","","","","","SRET","SRET_math_calculate","","key","9","16.811964912280818","680","380","","","","","8+1= ?","9","1","","","","","","",""
"1872","","5","psychophysics","117","614986","0.0-7.0-5.0-0.14","5","4","5","5","6","4","4","4","5","4","5","-2","1","0","1","-2","1","1","2","5","5","5","5","4","5","4","5","4","4","7","8","7","8","8","7","8","6","8","5","3","6","4","4","3","5","2","3","4","4","4","6","4","4","7","4","4","6","4","5","5","6","7","3","6","7","6","7","7","6","6","3","5","6","6","6","5","3","7","687568214028189696","刘","150","Male","[""坏我"",""好我"",""好他"",""坏他""]","[""弱我"",""强我"",""强他"",""弱他""]","","","","","","","","5","","","","","","","","","SRET","SRET_math_calculate","","key","5","16.664859649122757","680","380","","","","","10-5= ?","5","1","","","","","","",""
"2028","","8","psychophysics","118","617017","0.0-7.0-5.0-0.15","5","4","5","5","6","4","4","4","5","4","5","-2","1","0","1","-2","1","1","2","5","5","5","5","4","5","4","5","4","4","7","8","7","8","8","7","8","6","8","5","3","6","4","4","3","5","2","3","4","4","4","6","4","4","7","4","4","6","4","5","5","6","7","3","6","7","6","7","7","6","6","3","5","6","6","6","5","3","7","687568214028189696","刘","150","Male","[""坏我"",""好我"",""好他"",""坏他""]","[""弱我"",""强我"",""强他"",""弱他""]","","","","","","","","8","","","","","","","","","SRET","SRET_math_calculate","","key","8","16.80394999999941","680","380","","","","","50-42= ?","8","1","","","","","","",""
"2041","","8","psychophysics","119","619061","0.0-7.0-5.0-0.16","5","4","5","5","6","4","4","4","5","4","5","-2","1","0","1","-2","1","1","2","5","5","5","5","4","5","4","5","4","4","7","8","7","8","8","7","8","6","8","5","3","6","4","4","3","5","2","3","4","4","4","6","4","4","7","4","4","6","4","5","5","6","7","3","6","7","6","7","7","6","6","3","5","6","6","6","5","3","7","687568214028189696","刘","150","Male","[""坏我"",""好我"",""好他"",""坏他""]","[""弱我"",""强我"",""强他"",""弱他""]","","","","","","","","8","","","","","","","","","SRET","SRET_math_calculate","","key","8","16.664909836065146","680","380","","","","","2*4= ?","8","1","","","","","","",""
"2001","","6","psychophysics","120","621065","0.0-7.0-5.0-0.17","5","4","5","5","6","4","4","4","5","4","5","-2","1","0","1","-2","1","1","2","5","5","5","5","4","5","4","5","4","4","7","8","7","8","8","7","8","6","8","5","3","6","4","4","3","5","2","3","4","4","4","6","4","4","7","4","4","6","4","5","5","6","7","3","6","7","6","7","7","6","6","3","5","6","6","6","5","3","7","687568214028189696","刘","150","Male","[""坏我"",""好我"",""好他"",""坏他""]","[""弱我"",""强我"",""强他"",""弱他""]","","","","","","","","6","","","","","","","","","SRET","SRET_math_calculate","","key","6","16.66532773109243","680","380","","","","","8-2= ?","6","1","","","","","","",""
"1973","","3","psychophysics","121","623044","0.0-7.0-5.0-0.18","5","4","5","5","6","4","4","4","5","4","5","-2","1","0","1","-2","1","1","2","5","5","5","5","4","5","4","5","4","4","7","8","7","8","8","7","8","6","8","5","3","6","4","4","3","5","2","3","4","4","4","6","4","4","7","4","4","6","4","5","5","6","7","3","6","7","6","7","7","6","6","3","5","6","6","6","5","3","7","687568214028189696","刘","150","Male","[""坏我"",""好我"",""好他"",""坏他""]","[""弱我"",""强我"",""强他"",""弱他""]","","","","","","","","3","","","","","","","","","SRET","SRET_math_calculate","","key","3","16.66564957265002","680","380","","","","","3*1= ?","3","1","","","","","","",""
"1930","","4","psychophysics","122","624978","0.0-7.0-5.0-0.19","5","4","5","5","6","4","4","4","5","4","5","-2","1","0","1","-2","1","1","2","5","5","5","5","4","5","4","5","4","4","7","8","7","8","8","7","8","6","8","5","3","6","4","4","3","5","2","3","4","4","4","6","4","4","7","4","4","6","4","5","5","6","7","3","6","7","6","7","7","6","6","3","5","6","6","6","5","3","7","687568214028189696","刘","150","Male","[""坏我"",""好我"",""好他"",""坏他""]","[""弱我"",""强我"",""强他"",""弱他""]","","","","","","","","4","","","","","","","","","SRET","SRET_math_calculate","","key","4","16.665672413793047","680","380","","","","","8-4= ?","4","1","","","","","","",""
"1982","","8","psychophysics","123","626963","0.0-7.0-5.0-0.20","5","4","5","5","6","4","4","4","5","4","5","-2","1","0","1","-2","1","1","2","5","5","5","5","4","5","4","5","4","4","7","8","7","8","8","7","8","6","8","5","3","6","4","4","3","5","2","3","4","4","4","6","4","4","7","4","4","6","4","5","5","6","7","3","6","7","6","7","7","6","6","3","5","6","6","6","5","3","7","687568214028189696","刘","150","Male","[""坏我"",""好我"",""好他"",""坏他""]","[""弱我"",""强我"",""强他"",""弱他""]","","","","","","","","8","","","","","","","","","SRET","SRET_math_calculate","","key","8","16.66516101694867","680","380","","","","","56/7= ?","8","1","","","","","","",""
"2595","","2","psychophysics","124","629562","0.0-7.0-5.0-0.21","5","4","5","5","6","4","4","4","5","4","5","-2","1","0","1","-2","1","1","2","5","5","5","5","4","5","4","5","4","4","7","8","7","8","8","7","8","6","8","5","3","6","4","4","3","5","2","3","4","4","4","6","4","4","7","4","4","6","4","5","5","6","7","3","6","7","6","7","7","6","6","3","5","6","6","6","5","3","7","687568214028189696","刘","150","Male","[""坏我"",""好我"",""好他"",""坏他""]","[""弱我"",""强我"",""强他"",""弱他""]","","","","","","","","2","","","","","","","","","SRET","SRET_math_calculate","","key","2","16.66523870967719","680","380","","","","","12/6= ?","2","1","","","","","","",""
"2127","","9","psychophysics","125","631694","0.0-7.0-5.0-0.22","5","4","5","5","6","4","4","4","5","4","5","-2","1","0","1","-2","1","1","2","5","5","5","5","4","5","4","5","4","4","7","8","7","8","8","7","8","6","8","5","3","6","4","4","3","5","2","3","4","4","4","6","4","4","7","4","4","6","4","5","5","6","7","3","6","7","6","7","7","6","6","3","5","6","6","6","5","3","7","687568214028189696","刘","150","Male","[""坏我"",""好我"",""好他"",""坏他""]","[""弱我"",""强我"",""强他"",""弱他""]","","","","","","","","9","","","","","","","","","SRET","SRET_math_calculate","","key","9","16.665196850393553","680","380","","","","","2+7= ?","9","1","","","","","","",""
"2149","","4","psychophysics","126","633844","0.0-7.0-5.0-0.23","5","4","5","5","6","4","4","4","5","4","5","-2","1","0","1","-2","1","1","2","5","5","5","5","4","5","4","5","4","4","7","8","7","8","8","7","8","6","8","5","3","6","4","4","3","5","2","3","4","4","4","6","4","4","7","4","4","6","4","5","5","6","7","3","6","7","6","7","7","6","6","3","5","6","6","6","5","3","7","687568214028189696","刘","150","Male","[""坏我"",""好我"",""好他"",""坏他""]","[""弱我"",""强我"",""强他"",""弱他""]","","","","","","","","4","","","","","","","","","SRET","SRET_math_calculate","","key","4","16.665757812499578","680","380","","","","","3+1= ?","4","1","","","","","","",""
"2398","","6","psychophysics","127","636244","0.0-7.0-5.0-0.24","5","4","5","5","6","4","4","4","5","4","5","-2","1","0","1","-2","1","1","2","5","5","5","5","4","5","4","5","4","4","7","8","7","8","8","7","8","6","8","5","3","6","4","4","3","5","2","3","4","4","4","6","4","4","7","4","4","6","4","5","5","6","7","3","6","7","6","7","7","6","6","3","5","6","6","6","5","3","7","687568214028189696","刘","150","Male","[""坏我"",""好我"",""好他"",""坏他""]","[""弱我"",""强我"",""强他"",""弱他""]","","","","","","","","6","","","","","","","","","SRET","SRET_math_calculate","","key","6","16.66572727272743","680","380","","","","","9-3= ?","6","1","","","","","","",""
"3019","","3","psychophysics","128","639266","0.0-7.0-5.0-0.25","5","4","5","5","6","4","4","4","5","4","5","-2","1","0","1","-2","1","1","2","5","5","5","5","4","5","4","5","4","4","7","8","7","8","8","7","8","6","8","5","3","6","4","4","3","5","2","3","4","4","4","6","4","4","7","4","4","6","4","5","5","6","7","3","6","7","6","7","7","6","6","3","5","6","6","6","5","3","7","687568214028189696","刘","150","Male","[""坏我"",""好我"",""好他"",""坏他""]","[""弱我"",""强我"",""强他"",""弱他""]","","","","","","","","3","","","","","","","","","SRET","SRET_math_calculate","","key","3","16.66582222222221","680","380","","","","","8-5= ?","3","1","","","","","","",""
"2046","","6","psychophysics","129","641313","0.0-7.0-5.0-0.26","5","4","5","5","6","4","4","4","5","4","5","-2","1","0","1","-2","1","1","2","5","5","5","5","4","5","4","5","4","4","7","8","7","8","8","7","8","6","8","5","3","6","4","4","3","5","2","3","4","4","4","6","4","4","7","4","4","6","4","5","5","6","7","3","6","7","6","7","7","6","6","3","5","6","6","6","5","3","7","687568214028189696","刘","150","Male","[""坏我"",""好我"",""好他"",""坏他""]","[""弱我"",""强我"",""强他"",""弱他""]","","","","","","","","6","","","","","","","","","SRET","SRET_math_calculate","","key","6","16.665540983606526","680","380","","","","","3*2= ?","6","1","","","","","","",""
"1976","","7","psychophysics","130","643292","0.0-7.0-5.0-0.27","5","4","5","5","6","4","4","4","5","4","5","-2","1","0","1","-2","1","1","2","5","5","5","5","4","5","4","5","4","4","7","8","7","8","8","7","8","6","8","5","3","6","4","4","3","5","2","3","4","4","4","6","4","4","7","4","4","6","4","5","5","6","7","3","6","7","6","7","7","6","6","3","5","6","6","6","5","3","7","687568214028189696","刘","150","Male","[""坏我"",""好我"",""好他"",""坏他""]","[""弱我"",""强我"",""强他"",""弱他""]","","","","","","","","7","","","","","","","","","SRET","SRET_math_calculate","","key","7","16.66547863247892","680","380","","","","","4+3= ?","7","1","","","","","","",""
"2017","","7","psychophysics","131","645313","0.0-7.0-5.0-0.28","5","4","5","5","6","4","4","4","5","4","5","-2","1","0","1","-2","1","1","2","5","5","5","5","4","5","4","5","4","4","7","8","7","8","8","7","8","6","8","5","3","6","4","4","3","5","2","3","4","4","4","6","4","4","7","4","4","6","4","5","5","6","7","3","6","7","6","7","7","6","6","3","5","6","6","6","5","3","7","687568214028189696","刘","150","Male","[""坏我"",""好我"",""好他"",""坏他""]","[""弱我"",""强我"",""强他"",""弱他""]","","","","","","","","7","","","","","","","","","SRET","SRET_math_calculate","","key","7","16.665900826446467","680","380","","","","","3+4= ?","7","1","","","","","","",""
"2046","","2","psychophysics","132","647362","0.0-7.0-5.0-0.29","5","4","5","5","6","4","4","4","5","4","5","-2","1","0","1","-2","1","1","2","5","5","5","5","4","5","4","5","4","4","7","8","7","8","8","7","8","6","8","5","3","6","4","4","3","5","2","3","4","4","4","6","4","4","7","4","4","6","4","5","5","6","7","3","6","7","6","7","7","6","6","3","5","6","6","6","5","3","7","687568214028189696","刘","150","Male","[""坏我"",""好我"",""好他"",""坏他""]","[""弱我"",""强我"",""强他"",""弱他""]","","","","","","","","2","","","","","","","","","SRET","SRET_math_calculate","","key","2","16.664778688524613","680","380","","","","","29-27= ?","2","1","","","","","","",""
"2062","","4","psychophysics","133","649427","0.0-7.0-5.0-0.30","5","4","5","5","6","4","4","4","5","4","5","-2","1","0","1","-2","1","1","2","5","5","5","5","4","5","4","5","4","4","7","8","7","8","8","7","8","6","8","5","3","6","4","4","3","5","2","3","4","4","4","6","4","4","7","4","4","6","4","5","5","6","7","3","6","7","6","7","7","6","6","3","5","6","6","6","5","3","7","687568214028189696","刘","150","Male","[""坏我"",""好我"",""好他"",""坏他""]","[""弱我"",""强我"",""强他"",""弱他""]","","","","","","","","4","","","","","","","","","SRET","SRET_math_calculate","","key","4","16.66620325203228","680","380","","","","","9-5= ?","4","1","","","","","","",""
"2003","","3","psychophysics","134","651433","0.0-7.0-5.0-0.31","5","4","5","5","6","4","4","4","5","4","5","-2","1","0","1","-2","1","1","2","5","5","5","5","4","5","4","5","4","4","7","8","7","8","8","7","8","6","8","5","3","6","4","4","3","5","2","3","4","4","4","6","4","4","7","4","4","6","4","5","5","6","7","3","6","7","6","7","7","6","6","3","5","6","6","6","5","3","7","687568214028189696","刘","150","Male","[""坏我"",""好我"",""好他"",""坏他""]","[""弱我"",""强我"",""强他"",""弱他""]","","","","","","","","3","","","","","","","","","SRET","SRET_math_calculate","","key","3","16.665453781512714","680","380","","","","","12/4= ?","3","1","","","","","","",""
"3047","","7","psychophysics","135","654481","0.0-7.0-5.0-0.32","5","4","5","5","6","4","4","4","5","4","5","-2","1","0","1","-2","1","1","2","5","5","5","5","4","5","4","5","4","4","7","8","7","8","8","7","8","6","8","5","3","6","4","4","3","5","2","3","4","4","4","6","4","4","7","4","4","6","4","5","5","6","7","3","6","7","6","7","7","6","6","3","5","6","6","6","5","3","7","687568214028189696","刘","150","Male","[""坏我"",""好我"",""好他"",""坏他""]","[""弱我"",""强我"",""强他"",""弱他""]","","","","","","","","7","","","","","","","","","SRET","SRET_math_calculate","","key","7","16.665445054945238","680","380","","","","","12-5= ?","7","1","","","","","","",""
"1976","","4","psychophysics","136","656459","0.0-7.0-5.0-0.33","5","4","5","5","6","4","4","4","5","4","5","-2","1","0","1","-2","1","1","2","5","5","5","5","4","5","4","5","4","4","7","8","7","8","8","7","8","6","8","5","3","6","4","4","3","5","2","3","4","4","4","6","4","4","7","4","4","6","4","5","5","6","7","3","6","7","6","7","7","6","6","3","5","6","6","6","5","3","7","687568214028189696","刘","150","Male","[""坏我"",""好我"",""好他"",""坏他""]","[""弱我"",""强我"",""强他"",""弱他""]","","","","","","","","4","","","","","","","","","SRET","SRET_math_calculate","","key","4","16.665752136751482","680","380","","","","","20/5= ?","4","1","","","","","","",""
"1984","","0","psychophysics","137","658449","0.0-7.0-5.0-0.34","5","4","5","5","6","4","4","4","5","4","5","-2","1","0","1","-2","1","1","2","5","5","5","5","4","5","4","5","4","4","7","8","7","8","8","7","8","6","8","5","3","6","4","4","3","5","2","3","4","4","4","6","4","4","7","4","4","6","4","5","5","6","7","3","6","7","6","7","7","6","6","3","5","6","6","6","5","3","7","687568214028189696","刘","150","Male","[""坏我"",""好我"",""好他"",""坏他""]","[""弱我"",""强我"",""强他"",""弱他""]","","","","","","","","0","","","","","","","","","SRET","SRET_math_calculate","","key","0","16.66560504201725","680","380","","","","","5*0= ?","0","1","","","","","","",""
"2073","","8","psychophysics","138","660525","0.0-7.0-5.0-0.35","5","4","5","5","6","4","4","4","5","4","5","-2","1","0","1","-2","1","1","2","5","5","5","5","4","5","4","5","4","4","7","8","7","8","8","7","8","6","8","5","3","6","4","4","3","5","2","3","4","4","4","6","4","4","7","4","4","6","4","5","5","6","7","3","6","7","6","7","7","6","6","3","5","6","6","6","5","3","7","687568214028189696","刘","150","Male","[""坏我"",""好我"",""好他"",""坏他""]","[""弱我"",""强我"",""强他"",""弱他""]","","","","","","","","8","","","","","","","","","SRET","SRET_math_calculate","","key","8","16.66573387096756","680","380","","","","","7+1= ?","8","1","","","","","","",""
"2370","","9","psychophysics","139","662897","0.0-7.0-5.0-0.36","5","4","5","5","6","4","4","4","5","4","5","-2","1","0","1","-2","1","1","2","5","5","5","5","4","5","4","5","4","4","7","8","7","8","8","7","8","6","8","5","3","6","4","4","3","5","2","3","4","4","4","6","4","4","7","4","4","6","4","5","5","6","7","3","6","7","6","7","7","6","6","3","5","6","6","6","5","3","7","687568214028189696","刘","150","Male","[""坏我"",""好我"",""好他"",""坏他""]","[""弱我"",""强我"",""强他"",""弱他""]","","","","","","","","9","","","","","","","","","SRET","SRET_math_calculate","","key","9","16.665460992907505","680","380","","","","","43-34= ?","9","1","","","","","","",""
"2077","","0","psychophysics","140","664977","0.0-7.0-5.0-0.37","5","4","5","5","6","4","4","4","5","4","5","-2","1","0","1","-2","1","1","2","5","5","5","5","4","5","4","5","4","4","7","8","7","8","8","7","8","6","8","5","3","6","4","4","3","5","2","3","4","4","4","6","4","4","7","4","4","6","4","5","5","6","7","3","6","7","6","7","7","6","6","3","5","6","6","6","5","3","7","687568214028189696","刘","150","Male","[""坏我"",""好我"",""好他"",""坏他""]","[""弱我"",""强我"",""强他"",""弱他""]","","","","","","","","0","","","","","","","","","SRET","SRET_math_calculate","","key","0","16.665895161290294","680","380","","","","","6*0= ?","0","1","","","","","","",""
"2036","","9","psychophysics","141","667017","0.0-7.0-5.0-0.38","5","4","5","5","6","4","4","4","5","4","5","-2","1","0","1","-2","1","1","2","5","5","5","5","4","5","4","5","4","4","7","8","7","8","8","7","8","6","8","5","3","6","4","4","3","5","2","3","4","4","4","6","4","4","7","4","4","6","4","5","5","6","7","3","6","7","6","7","7","6","6","3","5","6","6","6","5","3","7","687568214028189696","刘","150","Male","[""坏我"",""好我"",""好他"",""坏他""]","[""弱我"",""强我"",""强他"",""弱他""]","","","","","","","","9","","","","","","","","","SRET","SRET_math_calculate","","key","9","16.665793388429645","680","380","","","","","7+2= ?","9","1","","","","","","",""
"1982","","2","psychophysics","142","669001","0.0-7.0-5.0-0.39","5","4","5","5","6","4","4","4","5","4","5","-2","1","0","1","-2","1","1","2","5","5","5","5","4","5","4","5","4","4","7","8","7","8","8","7","8","6","8","5","3","6","4","4","3","5","2","3","4","4","4","6","4","4","7","4","4","6","4","5","5","6","7","3","6","7","6","7","7","6","6","3","5","6","6","6","5","3","7","687568214028189696","刘","150","Male","[""坏我"",""好我"",""好他"",""坏他""]","[""弱我"",""强我"",""强他"",""弱他""]","","","","","","","","2","","","","","","","","","SRET","SRET_math_calculate","","key","2","16.66486440677989","680","380","","","","","18/9= ?","2","1","","","","","","",""
"2358","","8","psychophysics","143","671370","0.0-7.0-5.0-0.40","5","4","5","5","6","4","4","4","5","4","5","-2","1","0","1","-2","1","1","2","5","5","5","5","4","5","4","5","4","4","7","8","7","8","8","7","8","6","8","5","3","6","4","4","3","5","2","3","4","4","4","6","4","4","7","4","4","6","4","5","5","6","7","3","6","7","6","7","7","6","6","3","5","6","6","6","5","3","7","687568214028189696","刘","150","Male","[""坏我"",""好我"",""好他"",""坏他""]","[""弱我"",""强我"",""强他"",""弱他""]","","","","","","","","8","","","","","","","","","SRET","SRET_math_calculate","","key","8","16.665205673758827","680","380","","","","","13-5= ?","8","1","","","","","","",""
"2206","","8","psychophysics","144","673585","0.0-7.0-5.0-0.41","5","4","5","5","6","4","4","4","5","4","5","-2","1","0","1","-2","1","1","2","5","5","5","5","4","5","4","5","4","4","7","8","7","8","8","7","8","6","8","5","3","6","4","4","3","5","2","3","4","4","4","6","4","4","7","4","4","6","4","5","5","6","7","3","6","7","6","7","7","6","6","3","5","6","6","6","5","3","7","687568214028189696","刘","150","Male","[""坏我"",""好我"",""好他"",""坏他""]","[""弱我"",""强我"",""强他"",""弱他""]","","","","","","","","8","","","","","","","","","SRET","SRET_math_calculate","","key","8","16.66548484848516","680","380","","","","","4*2= ?","8","1","","","","","","",""
