"rt","stimulus","response","trial_type","trial_index","time_elapsed","internal_node_id","swb_1","swb_2","swb_3","swb_4","swb_5","LOT_1","LOT_2","LOT_3","LOT_4","LOT_5","LOT_6","IPC_1","IPC_2","IPC_3","IPC_4","IPC_5","IPC_6","IPC_7","IPC_8","MorIden_1","MorIden_2","MorIden_3","MorIden_4","MorIden_5","MorIden_6","MorIden_7","MorIden_8","MorIden_9","MorIden_10","moralSeImag_1","moralSeImag_2","moralSeImag_3","moralSeImag_4","moralSeImag_5","moralSeImag_6","moralSeImag_7","moralSeImag_8","moralSeImag_9","sde_1","sde_2","sde_3","sde_4","sde_5","sde_6","sde_7","sde_8","sde_9","sde_10","sde_11","sde_12","sde_13","sde_14","sde_15","sde_16","sde_17","sde_18","sde_19","sde_20","IM_1","IM_2","IM_3","IM_4","IM_5","IM_6","IM_7","IM_8","IM_9","IM_10","IM_11","IM_12","IM_13","IM_14","IM_15","IM_16","IM_17","IM_18","IM_19","IM_20","subj_idx","friend_name","ParticipantID","Sex","Word","Word2","value","success","timeout","failed_images","failed_audio","failed_video","user_agent","responses","item_order","radio_event_ids","radio_event_times","key_event_times","mouse_event_times","straightlining","zigzagging","honeypot","task_id","screen_id","time_stamp","response_type","key_press","avg_frame_time","center_x","center_y","person","word","valence","domain","math","correct_response","correct","status","view_history","identity","duration","Image","condition","question_order"
"1853","
   <p><div style='color:white; font-size: 25px'>您好，欢迎参加本次实验。</div></p>
   <p><div style='color:white; font-size: 25px'>为充分保障您的权利，请确保您已经知晓并同意《参与实验同意书》以及《数据公开知情同意书》。</div></p>
   <p><div style='color:white; font-size: 25px'>如果您未见过上述内容，请咨询实验员。</div></p>
   <p style='color:white; font-size: 25px'>如果您选择继续实验，则表示您已经清楚两份知情同意书的内容并同意。</p>
   <p><div style = ""color: red;font-size:30px;"">请确保您记得day0的实验编号，您将在本次实验输入该编号，若您忘记，请咨询实验员后作答。</div></p>
   <p> <div style = ""color: green""><按空格键至下页></div> </p>
   "," ","html-keyboard-response","0","1857","0.0-0.0","5","4","5","4","6","5","4","4","5","4","5","-1","0","0","2","-3","1","1","2","4","4","5","5","5","4","4","5","4","4","9","9","7","8","7","8","9","7","9","5","3","7","4","4","3","5","2","3","4","4","4","5","4","4","6","4","4","6","4","6","5","5","6","3","5","5","6","6","7","7","6","4","5","6","6","5","5","3","7","740167970172702721","陈","48","Female","[""好我"",""坏我"",""好她"",""坏她""]","[""强我"",""弱我"",""强她"",""弱她""]","","","","","","","","","","","","","","","","","","","","","","","","","","","","","","","","","","","","","",""
"","","","call-function","1","1860","0.0-1.0-0.0","5","4","5","4","6","5","4","4","5","4","5","-1","0","0","2","-3","1","1","2","4","4","5","5","5","4","4","5","4","4","9","9","7","8","7","8","9","7","9","5","3","7","4","4","3","5","2","3","4","4","4","5","4","4","6","4","4","6","4","6","5","5","6","3","5","5","6","6","7","7","6","4","5","6","6","5","5","3","7","740167970172702721","陈","48","Female","[""好我"",""坏我"",""好她"",""坏她""]","[""强我"",""弱我"",""强她"",""弱她""]","","","","","","","","","","","","","","","","","","","","","","","","","","","","","","","","","","","","","",""
"30755","","[{""name"":""Sex"",""value"":""1""},{""name"":""friend_name"",""value"":""陈""},{""name"":""ParticipantID"",""value"":""48""}]","survey-html-form","2","32618","0.0-1.0-1.0","5","4","5","4","6","5","4","4","5","4","5","-1","0","0","2","-3","1","1","2","4","4","5","5","5","4","4","5","4","4","9","9","7","8","7","8","9","7","9","5","3","7","4","4","3","5","2","3","4","4","4","5","4","4","6","4","4","6","4","6","5","5","6","3","5","5","6","6","7","7","6","4","5","6","6","5","5","3","7","740167970172702721","陈","48","Female","[""好我"",""坏我"",""好她"",""坏她""]","[""强我"",""弱我"",""强她"",""弱她""]","","","","","","","","","","","","","","","","","","","","","","","","","","","","","","","","","","","","","",""
"","","","preload","3","32945","0.0-2.0","5","4","5","4","6","5","4","4","5","4","5","-1","0","0","2","-3","1","1","2","4","4","5","5","5","4","4","5","4","4","9","9","7","8","7","8","9","7","9","5","3","7","4","4","3","5","2","3","4","4","4","5","4","4","6","4","4","6","4","6","5","5","6","3","5","5","6","6","7","7","6","4","5","6","6","5","5","3","7","740167970172702721","陈","48","Female","[""好我"",""坏我"",""好她"",""坏她""]","[""强我"",""弱我"",""强她"",""弱她""]","","true","false","[]","[]","[]","","","","","","","","","","","","","","","","","","","","","","","","","","","","","","","",""
"","","","fullscreen","4","34037","0.0-3.0","5","4","5","4","6","5","4","4","5","4","5","-1","0","0","2","-3","1","1","2","4","4","5","5","5","4","4","5","4","4","9","9","7","8","7","8","9","7","9","5","3","7","4","4","3","5","2","3","4","4","4","5","4","4","6","4","4","6","4","6","5","5","6","3","5","5","6","6","7","7","6","4","5","6","6","5","5","3","7","740167970172702721","陈","48","Female","[""好我"",""坏我"",""好她"",""坏她""]","[""强我"",""弱我"",""强她"",""弱她""]","","true","","","","","{}","","","","","","","","","","","","","","","","","","","","","","","","","","","","","","",""
"46273","","{""Q01"":""5"",""Q02"":""4"",""Q03"":""5"",""Q04"":""4"",""Q05"":""6""}","survey-template","5","80318","0.0-4.0","5","4","5","4","6","5","4","4","5","4","5","-1","0","0","2","-3","1","1","2","4","4","5","5","5","4","4","5","4","4","9","9","7","8","7","8","9","7","9","5","3","7","4","4","3","5","2","3","4","4","4","5","4","4","6","4","4","6","4","6","5","5","6","3","5","5","6","6","7","7","6","4","5","6","6","5","5","3","7","740167970172702721","陈","48","Female","[""好我"",""坏我"",""好她"",""坏她""]","[""强我"",""弱我"",""强她"",""弱她""]","","","","","","","","{""Q01"":""5"",""Q02"":""4"",""Q03"":""5"",""Q04"":""4"",""Q05"":""6""}","[0,1,2,3,4]","[""Q01"",""Q02"",""Q03"",""Q04"",""Q05""]","[39165.800000000745,40029.400000002235,41205.400000002235,44157.20000000298,45733.300000000745]","[]","[39165.800000000745,40029.400000002235,41205.400000002235,44157.20000000298,44845.20000000298,45733.300000000745,46269.70000000298]","0.4","0.75","0","","","","","","","","","","","","","","","","","","","","","",""
"33437.699999999255","","{""Q01"":""5"",""Q02"":""4"",""Q03"":""4"",""Q04"":""5"",""Q05"":""4"",""Q06"":""5""}","survey-template","6","113771","0.0-5.0","5","4","5","4","6","5","4","4","5","4","5","-1","0","0","2","-3","1","1","2","4","4","5","5","5","4","4","5","4","4","9","9","7","8","7","8","9","7","9","5","3","7","4","4","3","5","2","3","4","4","4","5","4","4","6","4","4","6","4","6","5","5","6","3","5","5","6","6","7","7","6","4","5","6","6","5","5","3","7","740167970172702721","陈","48","Female","[""好我"",""坏我"",""好她"",""坏她""]","[""强我"",""弱我"",""强她"",""弱她""]","","","","","","","","{""Q01"":""5"",""Q02"":""4"",""Q03"":""4"",""Q04"":""5"",""Q05"":""4"",""Q06"":""5""}","[0,1,2,3,4,5]","[""Q01"",""Q02"",""Q03"",""Q04"",""Q05"",""Q06""]","[22283.800000000745,23867.800000000745,27499.60000000149,29611.10000000149,30979.60000000149,33051.39999999851]","[]","[21819.699999999255,22283.800000000745,23867.800000000745,27499.60000000149,29611.10000000149,30979.60000000149,32731.60000000149,33051.39999999851,33435.60000000149]","0.3333333333333333","0.2","0","","","","","","","","","","","","","","","","","","","","","",""
"27732.10000000149","","{""Q01"":""-1"",""Q02"":""0"",""Q03"":""0"",""Q04"":""2"",""Q05"":""-3"",""Q06"":""1"",""Q07"":""1"",""Q08"":""2""}","survey-template","7","141518","0.0-6.0","5","4","5","4","6","5","4","4","5","4","5","-1","0","0","2","-3","1","1","2","4","4","5","5","5","4","4","5","4","4","9","9","7","8","7","8","9","7","9","5","3","7","4","4","3","5","2","3","4","4","4","5","4","4","6","4","4","6","4","6","5","5","6","3","5","5","6","6","7","7","6","4","5","6","6","5","5","3","7","740167970172702721","陈","48","Female","[""好我"",""坏我"",""好她"",""坏她""]","[""强我"",""弱我"",""强她"",""弱她""]","","","","","","","","{""Q01"":""-1"",""Q02"":""0"",""Q03"":""0"",""Q04"":""2"",""Q05"":""-3"",""Q06"":""1"",""Q07"":""1"",""Q08"":""2""}","[0,1,2,3,4,5,6,7]","[""Q01"",""Q02"",""Q03"",""Q04"",""Q05"",""Q06"",""Q07"",""Q08""]","[17992.699999999255,18985.10000000149,20056.5,21992.5,23744.699999999255,25112.400000002235,25816.300000000745,27304.199999999255]","[]","[17992.699999999255,18985.10000000149,20056.5,21992.5,23744.699999999255,25112.400000002235,25816.300000000745,27304.199999999255,27728.400000002235]","0.25","0.42857142857142855","0","","","","","","","","","","","","","","","","","","","","","",""
"19663","
    <p><div style='color:white;font-size:35px; line-height:20px;'>词汇评估任务</div></p><br>
    <p><div style='color:white;font-size:25px; line-height:20px;'>请再次回忆该亲密的朋友，你们至少2年前就认识了，并且最近2年经常见面。</div></p>
    <p><div style='color:white;font-size:25px; line-height:20px;'>在本实验中，您将会看到一些形容词。</div></p>
    <p><div style='color:yellow;font-size:25px; line-height:20px;'>您的任务是判断这些形容词是否符合对您自己或您的朋友的描述。</div></p><p style='font-size:35px'>符合按<span style=""color:lightgreen""> f 键</span>，不符合按<span style=""color:red""> j 键</span></p>","0","html-button-response","8","161193","0.0-7.0-0.0","5","4","5","4","6","5","4","4","5","4","5","-1","0","0","2","-3","1","1","2","4","4","5","5","5","4","4","5","4","4","9","9","7","8","7","8","9","7","9","5","3","7","4","4","3","5","2","3","4","4","4","5","4","4","6","4","4","6","4","6","5","5","6","3","5","5","6","6","7","7","6","4","5","6","6","5","5","3","7","740167970172702721","陈","48","Female","[""好我"",""坏我"",""好她"",""坏她""]","[""强我"",""弱我"",""强她"",""弱她""]","","","","","","","","","","","","","","","","","SRET_EW","EW_instructions","Sat Nov 25 2023 16:45:57 GMT+0800 (中国标准时间)","","","","","","","","","","","","","","","","","","",""
"6679","","f","psychophysics","9","168886","0.0-7.0-1.0-0.0","5","4","5","4","6","5","4","4","5","4","5","-1","0","0","2","-3","1","1","2","4","4","5","5","5","4","4","5","4","4","9","9","7","8","7","8","9","7","9","5","3","7","4","4","3","5","2","3","4","4","4","5","4","4","6","4","4","6","4","6","5","5","6","3","5","5","6","6","7","7","6","4","5","6","6","5","5","3","7","740167970172702721","陈","48","Female","[""好我"",""坏我"",""好她"",""坏她""]","[""强我"",""弱我"",""强她"",""弱她""]","","","","","","","","yes","","","","","","","","","SRET_EW","EW_practice","","key","f","16.811159388646285","683","380","朋友","忠实","Positive","morality","","","","","","","","","",""
"8043","","j","psychophysics","10","177939","0.0-7.0-1.0-0.1","5","4","5","4","6","5","4","4","5","4","5","-1","0","0","2","-3","1","1","2","4","4","5","5","5","4","4","5","4","4","9","9","7","8","7","8","9","7","9","5","3","7","4","4","3","5","2","3","4","4","4","5","4","4","6","4","4","6","4","6","5","5","6","3","5","5","6","6","7","7","6","4","5","6","6","5","5","3","7","740167970172702721","陈","48","Female","[""好我"",""坏我"",""好她"",""坏她""]","[""强我"",""弱我"",""强她"",""弱她""]","","","","","","","","no","","","","","","","","","SRET_EW","EW_practice","","key","j","16.69640480591498","683","380","自己","刻板","Negative","ability","","","","","","","","","",""
"7674","","j","psychophysics","11","186616","0.0-7.0-1.0-0.2","5","4","5","4","6","5","4","4","5","4","5","-1","0","0","2","-3","1","1","2","4","4","5","5","5","4","4","5","4","4","9","9","7","8","7","8","9","7","9","5","3","7","4","4","3","5","2","3","4","4","4","5","4","4","6","4","4","6","4","6","5","5","6","3","5","5","6","6","7","7","6","4","5","6","6","5","5","3","7","740167970172702721","陈","48","Female","[""好我"",""坏我"",""好她"",""坏她""]","[""强我"",""弱我"",""强她"",""弱她""]","","","","","","","","no","","","","","","","","","SRET_EW","EW_practice","","key","j","16.665619230769238","683","380","朋友","徇私","Negative","morality","","","","","","","","","",""
"3798","","f","psychophysics","12","191421","0.0-7.0-1.0-0.3","5","4","5","4","6","5","4","4","5","4","5","-1","0","0","2","-3","1","1","2","4","4","5","5","5","4","4","5","4","4","9","9","7","8","7","8","9","7","9","5","3","7","4","4","3","5","2","3","4","4","4","5","4","4","6","4","4","6","4","6","5","5","6","3","5","5","6","6","7","7","6","4","5","6","6","5","5","3","7","740167970172702721","陈","48","Female","[""好我"",""坏我"",""好她"",""坏她""]","[""强我"",""弱我"",""强她"",""弱她""]","","","","","","","","yes","","","","","","","","","SRET_EW","EW_practice","","key","f","16.665588850174235","683","380","自己","严谨","Positive","ability","","","","","","","","","",""
"1577","
    <p><div style='color:white;font-size:35px; line-height:20px;'>请您再次阅读实验要求</div></p><br>
    <p><div style='color:white;font-size:25px; line-height:20px;'>请回忆某一个亲密的朋友，你们至少2年前就认识了，并且最近2年经常见面。</div></p>
    <p><div style='color:white;font-size:25px; line-height:20px;'>在本实验中，您将会看到一些形容词。</div></p>
    <p><div style='color:yellow;font-size:25px; line-height:20px;'>您的任务是判断这些形容词是否符合对您自己或您的朋友的描述。</div></p>
    <p><div class='footer' style='font-size:25px; line-height:20px;'>如果对本实验还有不清楚之处，请立即向实验员咨询。</p><p style='font-size:25px; line-height:20px;'>如果您明白了规则：</p><p style='font-size:22px; line-height:20px;'>请按 继续 进入正式实验</p>
    </div>
    <p style='font-size:35px'>符合按<span style=""color:lightgreen""> f 键</span>，不符合按<span style=""color:red""> j 键</span></p>","0","html-button-response","13","193001","0.0-7.0-2.0","5","4","5","4","6","5","4","4","5","4","5","-1","0","0","2","-3","1","1","2","4","4","5","5","5","4","4","5","4","4","9","9","7","8","7","8","9","7","9","5","3","7","4","4","3","5","2","3","4","4","4","5","4","4","6","4","4","6","4","6","5","5","6","3","5","5","6","6","7","7","6","4","5","6","6","5","5","3","7","740167970172702721","陈","48","Female","[""好我"",""坏我"",""好她"",""坏她""]","[""强我"",""弱我"",""强她"",""弱她""]","","","","","","","","","","","","","","","","","SRET_EW","prac_instructions","Sat Nov 25 2023 16:45:57 GMT+0800 (中国标准时间)","","","","","","","","","","","","","","","","","","",""
"5001","","f","psychophysics","14","199014","0.0-7.0-3.0-0.0","5","4","5","4","6","5","4","4","5","4","5","-1","0","0","2","-3","1","1","2","4","4","5","5","5","4","4","5","4","4","9","9","7","8","7","8","9","7","9","5","3","7","4","4","3","5","2","3","4","4","4","5","4","4","6","4","4","6","4","6","5","5","6","3","5","5","6","6","7","7","6","4","5","6","6","5","5","3","7","740167970172702721","陈","48","Female","[""好我"",""坏我"",""好她"",""坏她""]","[""强我"",""弱我"",""强她"",""弱她""]","","","","","","","","yes","","","","","","","","","SRET","EW_formal","","key","f","16.712075000000024","683","380","自己","坚贞","Positive","morality","","","","","","","","","",""
"3323","","f","psychophysics","15","203351","0.0-7.0-3.0-0.1","5","4","5","4","6","5","4","4","5","4","5","-1","0","0","2","-3","1","1","2","4","4","5","5","5","4","4","5","4","4","9","9","7","8","7","8","9","7","9","5","3","7","4","4","3","5","2","3","4","4","4","5","4","4","6","4","4","6","4","6","5","5","6","3","5","5","6","6","7","7","6","4","5","6","6","5","5","3","7","740167970172702721","陈","48","Female","[""好我"",""坏我"",""好她"",""坏她""]","[""强我"",""弱我"",""强她"",""弱她""]","","","","","","","","yes","","","","","","","","","SRET","EW_formal","","key","f","16.6652934362935","683","380","朋友","务实","Positive","ability","","","","","","","","","",""
"3831","","j","psychophysics","16","208194","0.0-7.0-3.0-0.2","5","4","5","4","6","5","4","4","5","4","5","-1","0","0","2","-3","1","1","2","4","4","5","5","5","4","4","5","4","4","9","9","7","8","7","8","9","7","9","5","3","7","4","4","3","5","2","3","4","4","4","5","4","4","6","4","4","6","4","6","5","5","6","3","5","5","6","6","7","7","6","4","5","6","6","5","5","3","7","740167970172702721","陈","48","Female","[""好我"",""坏我"",""好她"",""坏她""]","[""强我"",""弱我"",""强她"",""弱她""]","","","","","","","","no","","","","","","","","","SRET","EW_formal","","key","j","16.665636678200613","683","380","自己","说谎","Negative","morality","","","","","","","","","",""
"4989","","j","psychophysics","17","214191","0.0-7.0-3.0-0.3","5","4","5","4","6","5","4","4","5","4","5","-1","0","0","2","-3","1","1","2","4","4","5","5","5","4","4","5","4","4","9","9","7","8","7","8","9","7","9","5","3","7","4","4","3","5","2","3","4","4","4","5","4","4","6","4","4","6","4","6","5","5","6","3","5","5","6","6","7","7","6","4","5","6","6","5","5","3","7","740167970172702721","陈","48","Female","[""好我"",""坏我"",""好她"",""坏她""]","[""强我"",""弱我"",""强她"",""弱她""]","","","","","","","","no","","","","","","","","","SRET","EW_formal","","key","j","16.71201396648048","683","380","朋友","迷糊","Negative","ability","","","","","","","","","",""
"4755","","f","psychophysics","18","219959","0.0-7.0-3.0-0.4","5","4","5","4","6","5","4","4","5","4","5","-1","0","0","2","-3","1","1","2","4","4","5","5","5","4","4","5","4","4","9","9","7","8","7","8","9","7","9","5","3","7","4","4","3","5","2","3","4","4","4","5","4","4","6","4","4","6","4","6","5","5","6","3","5","5","6","6","7","7","6","4","5","6","6","5","5","3","7","740167970172702721","陈","48","Female","[""好我"",""坏我"",""好她"",""坏她""]","[""强我"",""弱我"",""强她"",""弱她""]","","","","","","","","yes","","","","","","","","","SRET","EW_formal","","key","f","16.665542028985488","683","380","朋友","坦荡","Positive","morality","","","","","","","","","",""
"4342","","j","psychophysics","19","225311","0.0-7.0-3.0-0.5","5","4","5","4","6","5","4","4","5","4","5","-1","0","0","2","-3","1","1","2","4","4","5","5","5","4","4","5","4","4","9","9","7","8","7","8","9","7","9","5","3","7","4","4","3","5","2","3","4","4","4","5","4","4","6","4","4","6","4","6","5","5","6","3","5","5","6","6","7","7","6","4","5","6","6","5","5","3","7","740167970172702721","陈","48","Female","[""好我"",""坏我"",""好她"",""坏她""]","[""强我"",""弱我"",""强她"",""弱她""]","","","","","","","","no","","","","","","","","","SRET","EW_formal","","key","j","16.665489096573218","683","380","自己","窝囊","Negative","ability","","","","","","","","","",""
"3967","","f","psychophysics","20","230287","0.0-7.0-3.0-0.6","5","4","5","4","6","5","4","4","5","4","5","-1","0","0","2","-3","1","1","2","4","4","5","5","5","4","4","5","4","4","9","9","7","8","7","8","9","7","9","5","3","7","4","4","3","5","2","3","4","4","4","5","4","4","6","4","4","6","4","6","5","5","6","3","5","5","6","6","7","7","6","4","5","6","6","5","5","3","7","740167970172702721","陈","48","Female","[""好我"",""坏我"",""好她"",""坏她""]","[""强我"",""弱我"",""强她"",""弱她""]","","","","","","","","yes","","","","","","","","","SRET","EW_formal","","key","f","16.665488215488196","683","380","自己","精干","Positive","ability","","","","","","","","","",""
"3486","","f","psychophysics","21","234780","0.0-7.0-3.0-0.7","5","4","5","4","6","5","4","4","5","4","5","-1","0","0","2","-3","1","1","2","4","4","5","5","5","4","4","5","4","4","9","9","7","8","7","8","9","7","9","5","3","7","4","4","3","5","2","3","4","4","4","5","4","4","6","4","4","6","4","6","5","5","6","3","5","5","6","6","7","7","6","4","5","6","6","5","5","3","7","740167970172702721","陈","48","Female","[""好我"",""坏我"",""好她"",""坏她""]","[""强我"",""弱我"",""强她"",""弱她""]","","","","","","","","yes","","","","","","","","","SRET","EW_formal","","key","f","16.853526315789477","683","380","朋友","敬业","Positive","morality","","","","","","","","","",""
"3502","","f","psychophysics","22","239286","0.0-7.0-3.0-0.8","5","4","5","4","6","5","4","4","5","4","5","-1","0","0","2","-3","1","1","2","4","4","5","5","5","4","4","5","4","4","9","9","7","8","7","8","9","7","9","5","3","7","4","4","3","5","2","3","4","4","4","5","4","4","6","4","4","6","4","6","5","5","6","3","5","5","6","6","7","7","6","4","5","6","6","5","5","3","7","740167970172702721","陈","48","Female","[""好我"",""坏我"",""好她"",""坏她""]","[""强我"",""弱我"",""强她"",""弱她""]","","","","","","","","yes","","","","","","","","","SRET","EW_formal","","key","f","16.665565055762016","683","380","自己","扎实","Positive","ability","","","","","","","","","",""
"5587","","f","psychophysics","23","245876","0.0-7.0-3.0-0.9","5","4","5","4","6","5","4","4","5","4","5","-1","0","0","2","-3","1","1","2","4","4","5","5","5","4","4","5","4","4","9","9","7","8","7","8","9","7","9","5","3","7","4","4","3","5","2","3","4","4","4","5","4","4","6","4","4","6","4","6","5","5","6","3","5","5","6","6","7","7","6","4","5","6","6","5","5","3","7","740167970172702721","陈","48","Female","[""好我"",""坏我"",""好她"",""坏她""]","[""强我"",""弱我"",""强她"",""弱她""]","","","","","","","","yes","","","","","","","","","SRET","EW_formal","","key","f","16.70815989847712","683","380","朋友","忠诚","Positive","morality","","","","","","","","","",""
"4241","","f","psychophysics","24","251124","0.0-7.0-3.0-0.10","5","4","5","4","6","5","4","4","5","4","5","-1","0","0","2","-3","1","1","2","4","4","5","5","5","4","4","5","4","4","9","9","7","8","7","8","9","7","9","5","3","7","4","4","3","5","2","3","4","4","4","5","4","4","6","4","4","6","4","6","5","5","6","3","5","5","6","6","7","7","6","4","5","6","6","5","5","3","7","740167970172702721","陈","48","Female","[""好我"",""坏我"",""好她"",""坏她""]","[""强我"",""弱我"",""强她"",""弱她""]","","","","","","","","yes","","","","","","","","","SRET","EW_formal","","key","f","16.665722044728387","683","380","自己","淡泊","Positive","morality","","","","","","","","","",""
"3508","","j","psychophysics","25","255637","0.0-7.0-3.0-0.11","5","4","5","4","6","5","4","4","5","4","5","-1","0","0","2","-3","1","1","2","4","4","5","5","5","4","4","5","4","4","9","9","7","8","7","8","9","7","9","5","3","7","4","4","3","5","2","3","4","4","4","5","4","4","6","4","4","6","4","6","5","5","6","3","5","5","6","6","7","7","6","4","5","6","6","5","5","3","7","740167970172702721","陈","48","Female","[""好我"",""坏我"",""好她"",""坏她""]","[""强我"",""弱我"",""强她"",""弱她""]","","","","","","","","no","","","","","","","","","SRET","EW_formal","","key","j","16.66579629629624","683","380","自己","背叛","Negative","morality","","","","","","","","","",""
"4058","","f","psychophysics","26","260697","0.0-7.0-3.0-0.12","5","4","5","4","6","5","4","4","5","4","5","-1","0","0","2","-3","1","1","2","4","4","5","5","5","4","4","5","4","4","9","9","7","8","7","8","9","7","9","5","3","7","4","4","3","5","2","3","4","4","4","5","4","4","6","4","4","6","4","6","5","5","6","3","5","5","6","6","7","7","6","4","5","6","6","5","5","3","7","740167970172702721","陈","48","Female","[""好我"",""坏我"",""好她"",""坏她""]","[""强我"",""弱我"",""强她"",""弱她""]","","","","","","","","yes","","","","","","","","","SRET","EW_formal","","key","f","16.66571617161716","683","380","自己","娴熟","Positive","ability","","","","","","","","","",""
"3704","","f","psychophysics","27","265414","0.0-7.0-3.0-0.13","5","4","5","4","6","5","4","4","5","4","5","-1","0","0","2","-3","1","1","2","4","4","5","5","5","4","4","5","4","4","9","9","7","8","7","8","9","7","9","5","3","7","4","4","3","5","2","3","4","4","4","5","4","4","6","4","4","6","4","6","5","5","6","3","5","5","6","6","7","7","6","4","5","6","6","5","5","3","7","740167970172702721","陈","48","Female","[""好我"",""坏我"",""好她"",""坏她""]","[""强我"",""弱我"",""强她"",""弱她""]","","","","","","","","yes","","","","","","","","","SRET","EW_formal","","key","f","16.665663120567494","683","380","朋友","智慧","Positive","ability","","","","","","","","","",""
"3442","","f","psychophysics","28","269860","0.0-7.0-3.0-0.14","5","4","5","4","6","5","4","4","5","4","5","-1","0","0","2","-3","1","1","2","4","4","5","5","5","4","4","5","4","4","9","9","7","8","7","8","9","7","9","5","3","7","4","4","3","5","2","3","4","4","4","5","4","4","6","4","4","6","4","6","5","5","6","3","5","5","6","6","7","7","6","4","5","6","6","5","5","3","7","740167970172702721","陈","48","Female","[""好我"",""坏我"",""好她"",""坏她""]","[""强我"",""弱我"",""强她"",""弱她""]","","","","","","","","yes","","","","","","","","","SRET","EW_formal","","key","f","16.665195488721732","683","380","朋友","守时","Positive","morality","","","","","","","","","",""
"4566","","f","psychophysics","29","275431","0.0-7.0-3.0-0.15","5","4","5","4","6","5","4","4","5","4","5","-1","0","0","2","-3","1","1","2","4","4","5","5","5","4","4","5","4","4","9","9","7","8","7","8","9","7","9","5","3","7","4","4","3","5","2","3","4","4","4","5","4","4","6","4","4","6","4","6","5","5","6","3","5","5","6","6","7","7","6","4","5","6","6","5","5","3","7","740167970172702721","陈","48","Female","[""好我"",""坏我"",""好她"",""坏她""]","[""强我"",""弱我"",""强她"",""弱她""]","","","","","","","","yes","","","","","","","","","SRET","EW_formal","","key","f","16.665804804804772","683","380","朋友","忠勇","Positive","morality","","","","","","","","","",""
"3532","","j","psychophysics","30","279965","0.0-7.0-3.0-0.16","5","4","5","4","6","5","4","4","5","4","5","-1","0","0","2","-3","1","1","2","4","4","5","5","5","4","4","5","4","4","9","9","7","8","7","8","9","7","9","5","3","7","4","4","3","5","2","3","4","4","4","5","4","4","6","4","4","6","4","6","5","5","6","3","5","5","6","6","7","7","6","4","5","6","6","5","5","3","7","740167970172702721","陈","48","Female","[""好我"",""坏我"",""好她"",""坏她""]","[""强我"",""弱我"",""强她"",""弱她""]","","","","","","","","no","","","","","","","","","SRET","EW_formal","","key","j","16.66550922509226","683","380","朋友","无赖","Negative","morality","","","","","","","","","",""
"3883","","f","psychophysics","31","284852","0.0-7.0-3.0-0.17","5","4","5","4","6","5","4","4","5","4","5","-1","0","0","2","-3","1","1","2","4","4","5","5","5","4","4","5","4","4","9","9","7","8","7","8","9","7","9","5","3","7","4","4","3","5","2","3","4","4","4","5","4","4","6","4","4","6","4","6","5","5","6","3","5","5","6","6","7","7","6","4","5","6","6","5","5","3","7","740167970172702721","陈","48","Female","[""好我"",""坏我"",""好她"",""坏她""]","[""强我"",""弱我"",""强她"",""弱她""]","","","","","","","","yes","","","","","","","","","SRET","EW_formal","","key","f","16.665523972602884","683","380","朋友","果决","Positive","ability","","","","","","","","","",""
"3450","","f","psychophysics","32","289311","0.0-7.0-3.0-0.18","5","4","5","4","6","5","4","4","5","4","5","-1","0","0","2","-3","1","1","2","4","4","5","5","5","4","4","5","4","4","9","9","7","8","7","8","9","7","9","5","3","7","4","4","3","5","2","3","4","4","4","5","4","4","6","4","4","6","4","6","5","5","6","3","5","5","6","6","7","7","6","4","5","6","6","5","5","3","7","740167970172702721","陈","48","Female","[""好我"",""坏我"",""好她"",""坏她""]","[""强我"",""弱我"",""强她"",""弱她""]","","","","","","","","yes","","","","","","","","","SRET","EW_formal","","key","f","16.665524344569313","683","380","朋友","廉正","Positive","morality","","","","","","","","","",""
"3331","","f","psychophysics","33","293644","0.0-7.0-3.0-0.19","5","4","5","4","6","5","4","4","5","4","5","-1","0","0","2","-3","1","1","2","4","4","5","5","5","4","4","5","4","4","9","9","7","8","7","8","9","7","9","5","3","7","4","4","3","5","2","3","4","4","4","5","4","4","6","4","4","6","4","6","5","5","6","3","5","5","6","6","7","7","6","4","5","6","6","5","5","3","7","740167970172702721","陈","48","Female","[""好我"",""坏我"",""好她"",""坏她""]","[""强我"",""弱我"",""强她"",""弱她""]","","","","","","","","yes","","","","","","","","","SRET","EW_formal","","key","f","16.665602316602328","683","380","朋友","能干","Positive","ability","","","","","","","","","",""
"4841","","f","psychophysics","34","299491","0.0-7.0-3.0-0.20","5","4","5","4","6","5","4","4","5","4","5","-1","0","0","2","-3","1","1","2","4","4","5","5","5","4","4","5","4","4","9","9","7","8","7","8","9","7","9","5","3","7","4","4","3","5","2","3","4","4","4","5","4","4","6","4","4","6","4","6","5","5","6","3","5","5","6","6","7","7","6","4","5","6","6","5","5","3","7","740167970172702721","陈","48","Female","[""好我"",""坏我"",""好她"",""坏她""]","[""强我"",""弱我"",""强她"",""弱她""]","","","","","","","","yes","","","","","","","","","SRET","EW_formal","","key","f","16.665820000000032","683","380","自己","好心","Positive","morality","","","","","","","","","",""
"3730","","j","psychophysics","35","304228","0.0-7.0-3.0-0.21","5","4","5","4","6","5","4","4","5","4","5","-1","0","0","2","-3","1","1","2","4","4","5","5","5","4","4","5","4","4","9","9","7","8","7","8","9","7","9","5","3","7","4","4","3","5","2","3","4","4","4","5","4","4","6","4","4","6","4","6","5","5","6","3","5","5","6","6","7","7","6","4","5","6","6","5","5","3","7","740167970172702721","陈","48","Female","[""好我"",""坏我"",""好她"",""坏她""]","[""强我"",""弱我"",""强她"",""弱她""]","","","","","","","","no","","","","","","","","","SRET","EW_formal","","key","j","16.665897526501844","683","380","自己","愚钝","Negative","ability","","","","","","","","","",""
"25908","","j","psychophysics","36","331142","0.0-7.0-3.0-0.22","5","4","5","4","6","5","4","4","5","4","5","-1","0","0","2","-3","1","1","2","4","4","5","5","5","4","4","5","4","4","9","9","7","8","7","8","9","7","9","5","3","7","4","4","3","5","2","3","4","4","4","5","4","4","6","4","4","6","4","6","5","5","6","3","5","5","6","6","7","7","6","4","5","6","6","5","5","3","7","740167970172702721","陈","48","Female","[""好我"",""坏我"",""好她"",""坏她""]","[""强我"",""弱我"",""强她"",""弱她""]","","","","","","","","no","","","","","","","","","SRET","EW_formal","","key","j","16.665592317224288","683","380","朋友","迂拙","Negative","ability","","","","","","","","","",""
"2930","","j","psychophysics","37","335076","0.0-7.0-3.0-0.23","5","4","5","4","6","5","4","4","5","4","5","-1","0","0","2","-3","1","1","2","4","4","5","5","5","4","4","5","4","4","9","9","7","8","7","8","9","7","9","5","3","7","4","4","3","5","2","3","4","4","4","5","4","4","6","4","4","6","4","6","5","5","6","3","5","5","6","6","7","7","6","4","5","6","6","5","5","3","7","740167970172702721","陈","48","Female","[""好我"",""坏我"",""好她"",""坏她""]","[""强我"",""弱我"",""强她"",""弱她""]","","","","","","","","no","","","","","","","","","SRET","EW_formal","","key","j","16.66559148936166","683","380","朋友","失信","Negative","morality","","","","","","","","","",""
"5177","","j","psychophysics","38","341259","0.0-7.0-3.0-0.24","5","4","5","4","6","5","4","4","5","4","5","-1","0","0","2","-3","1","1","2","4","4","5","5","5","4","4","5","4","4","9","9","7","8","7","8","9","7","9","5","3","7","4","4","3","5","2","3","4","4","4","5","4","4","6","4","4","6","4","6","5","5","6","3","5","5","6","6","7","7","6","4","5","6","6","5","5","3","7","740167970172702721","陈","48","Female","[""好我"",""坏我"",""好她"",""坏她""]","[""强我"",""弱我"",""强她"",""弱她""]","","","","","","","","no","","","","","","","","","SRET","EW_formal","","key","j","16.665618918918867","683","380","自己","腐败","Negative","morality","","","","","","","","","",""
"3709","","f","psychophysics","39","345975","0.0-7.0-3.0-0.25","5","4","5","4","6","5","4","4","5","4","5","-1","0","0","2","-3","1","1","2","4","4","5","5","5","4","4","5","4","4","9","9","7","8","7","8","9","7","9","5","3","7","4","4","3","5","2","3","4","4","4","5","4","4","6","4","4","6","4","6","5","5","6","3","5","5","6","6","7","7","6","4","5","6","6","5","5","3","7","740167970172702721","陈","48","Female","[""好我"",""坏我"",""好她"",""坏她""]","[""强我"",""弱我"",""强她"",""弱她""]","","","","","","","","yes","","","","","","","","","SRET","EW_formal","","key","f","16.665503546099362","683","380","自己","有力","Positive","ability","","","","","","","","","",""
"3995","","j","psychophysics","40","350973","0.0-7.0-3.0-0.26","5","4","5","4","6","5","4","4","5","4","5","-1","0","0","2","-3","1","1","2","4","4","5","5","5","4","4","5","4","4","9","9","7","8","7","8","9","7","9","5","3","7","4","4","3","5","2","3","4","4","4","5","4","4","6","4","4","6","4","6","5","5","6","3","5","5","6","6","7","7","6","4","5","6","6","5","5","3","7","740167970172702721","陈","48","Female","[""好我"",""坏我"",""好她"",""坏她""]","[""强我"",""弱我"",""强她"",""弱她""]","","","","","","","","no","","","","","","","","","SRET","EW_formal","","key","j","16.66553846153841","683","380","自己","差生","Negative","ability","","","","","","","","","",""
"6118","","f","psychophysics","41","358097","0.0-7.0-3.0-0.27","5","4","5","4","6","5","4","4","5","4","5","-1","0","0","2","-3","1","1","2","4","4","5","5","5","4","4","5","4","4","9","9","7","8","7","8","9","7","9","5","3","7","4","4","3","5","2","3","4","4","4","5","4","4","6","4","4","6","4","6","5","5","6","3","5","5","6","6","7","7","6","4","5","6","6","5","5","3","7","740167970172702721","陈","48","Female","[""好我"",""坏我"",""好她"",""坏她""]","[""强我"",""弱我"",""强她"",""弱她""]","","","","","","","","yes","","","","","","","","","SRET","EW_formal","","key","f","16.66559859154926","683","380","朋友","仁爱","Positive","morality","","","","","","","","","",""
"4064","","j","psychophysics","42","363162","0.0-7.0-3.0-0.28","5","4","5","4","6","5","4","4","5","4","5","-1","0","0","2","-3","1","1","2","4","4","5","5","5","4","4","5","4","4","9","9","7","8","7","8","9","7","9","5","3","7","4","4","3","5","2","3","4","4","4","5","4","4","6","4","4","6","4","6","5","5","6","3","5","5","6","6","7","7","6","4","5","6","6","5","5","3","7","740167970172702721","陈","48","Female","[""好我"",""坏我"",""好她"",""坏她""]","[""强我"",""弱我"",""强她"",""弱她""]","","","","","","","","no","","","","","","","","","SRET","EW_formal","","key","j","16.665792079207876","683","380","自己","下流","Negative","morality","","","","","","","","","",""
"4302","","f","psychophysics","43","368471","0.0-7.0-3.0-0.29","5","4","5","4","6","5","4","4","5","4","5","-1","0","0","2","-3","1","1","2","4","4","5","5","5","4","4","5","4","4","9","9","7","8","7","8","9","7","9","5","3","7","4","4","3","5","2","3","4","4","4","5","4","4","6","4","4","6","4","6","5","5","6","3","5","5","6","6","7","7","6","4","5","6","6","5","5","3","7","740167970172702721","陈","48","Female","[""好我"",""坏我"",""好她"",""坏她""]","[""强我"",""弱我"",""强她"",""弱她""]","","","","","","","","yes","","","","","","","","","SRET","EW_formal","","key","f","16.665660377358467","683","380","朋友","全才","Positive","ability","","","","","","","","","",""
"6106","","f","psychophysics","44","375581","0.0-7.0-3.0-0.30","5","4","5","4","6","5","4","4","5","4","5","-1","0","0","2","-3","1","1","2","4","4","5","5","5","4","4","5","4","4","9","9","7","8","7","8","9","7","9","5","3","7","4","4","3","5","2","3","4","4","4","5","4","4","6","4","4","6","4","6","5","5","6","3","5","5","6","6","7","7","6","4","5","6","6","5","5","3","7","740167970172702721","陈","48","Female","[""好我"",""坏我"",""好她"",""坏她""]","[""强我"",""弱我"",""强她"",""弱她""]","","","","","","","","yes","","","","","","","","","SRET","EW_formal","","key","f","16.66559294117642","683","380","朋友","廉明","Positive","morality","","","","","","","","","",""
"8211","","j","psychophysics","45","384796","0.0-7.0-3.0-0.31","5","4","5","4","6","5","4","4","5","4","5","-1","0","0","2","-3","1","1","2","4","4","5","5","5","4","4","5","4","4","9","9","7","8","7","8","9","7","9","5","3","7","4","4","3","5","2","3","4","4","4","5","4","4","6","4","4","6","4","6","5","5","6","3","5","5","6","6","7","7","6","4","5","6","6","5","5","3","7","740167970172702721","陈","48","Female","[""好我"",""坏我"",""好她"",""坏她""]","[""强我"",""弱我"",""强她"",""弱她""]","","","","","","","","no","","","","","","","","","SRET","EW_formal","","key","j","16.665416666666662","683","380","自己","贪腐","Negative","morality","","","","","","","","","",""
"3743","","j","psychophysics","46","389545","0.0-7.0-3.0-0.32","5","4","5","4","6","5","4","4","5","4","5","-1","0","0","2","-3","1","1","2","4","4","5","5","5","4","4","5","4","4","9","9","7","8","7","8","9","7","9","5","3","7","4","4","3","5","2","3","4","4","4","5","4","4","6","4","4","6","4","6","5","5","6","3","5","5","6","6","7","7","6","4","5","6","6","5","5","3","7","740167970172702721","陈","48","Female","[""好我"",""坏我"",""好她"",""坏她""]","[""强我"",""弱我"",""强她"",""弱她""]","","","","","","","","no","","","","","","","","","SRET","EW_formal","","key","j","16.665461267605565","683","380","自己","歹毒","Negative","morality","","","","","","","","","",""
"5669","","j","psychophysics","47","396216","0.0-7.0-3.0-0.33","5","4","5","4","6","5","4","4","5","4","5","-1","0","0","2","-3","1","1","2","4","4","5","5","5","4","4","5","4","4","9","9","7","8","7","8","9","7","9","5","3","7","4","4","3","5","2","3","4","4","4","5","4","4","6","4","4","6","4","6","5","5","6","3","5","5","6","6","7","7","6","4","5","6","6","5","5","3","7","740167970172702721","陈","48","Female","[""好我"",""坏我"",""好她"",""坏她""]","[""强我"",""弱我"",""强她"",""弱她""]","","","","","","","","no","","","","","","","","","SRET","EW_formal","","key","j","16.665508771929826","683","380","朋友","拙笨","Negative","ability","","","","","","","","","",""
"8998","","j","psychophysics","48","406225","0.0-7.0-3.0-0.34","5","4","5","4","6","5","4","4","5","4","5","-1","0","0","2","-3","1","1","2","4","4","5","5","5","4","4","5","4","4","9","9","7","8","7","8","9","7","9","5","3","7","4","4","3","5","2","3","4","4","4","5","4","4","6","4","4","6","4","6","5","5","6","3","5","5","6","6","7","7","6","4","5","6","6","5","5","3","7","740167970172702721","陈","48","Female","[""好我"",""坏我"",""好她"",""坏她""]","[""强我"",""弱我"",""强她"",""弱她""]","","","","","","","","no","","","","","","","","","SRET","EW_formal","","key","j","16.665591666666636","683","380","自己","屈才","Negative","ability","","","","","","","","","",""
"3649","","j","psychophysics","49","410877","0.0-7.0-3.0-0.35","5","4","5","4","6","5","4","4","5","4","5","-1","0","0","2","-3","1","1","2","4","4","5","5","5","4","4","5","4","4","9","9","7","8","7","8","9","7","9","5","3","7","4","4","3","5","2","3","4","4","4","5","4","4","6","4","4","6","4","6","5","5","6","3","5","5","6","6","7","7","6","4","5","6","6","5","5","3","7","740167970172702721","陈","48","Female","[""好我"",""坏我"",""好她"",""坏她""]","[""强我"",""弱我"",""强她"",""弱她""]","","","","","","","","no","","","","","","","","","SRET","EW_formal","","key","j","16.665392086330908","683","380","自己","驽钝","Negative","ability","","","","","","","","","",""
"11138","","f","psychophysics","50","423018","0.0-7.0-3.0-0.36","5","4","5","4","6","5","4","4","5","4","5","-1","0","0","2","-3","1","1","2","4","4","5","5","5","4","4","5","4","4","9","9","7","8","7","8","9","7","9","5","3","7","4","4","3","5","2","3","4","4","4","5","4","4","6","4","4","6","4","6","5","5","6","3","5","5","6","6","7","7","6","4","5","6","6","5","5","3","7","740167970172702721","陈","48","Female","[""好我"",""坏我"",""好她"",""坏她""]","[""强我"",""弱我"",""强她"",""弱她""]","","","","","","","","yes","","","","","","","","","SRET","EW_formal","","key","f","16.66555357142863","683","380","自己","清廉","Positive","morality","","","","","","","","","",""
"4607","","j","psychophysics","51","428634","0.0-7.0-3.0-0.37","5","4","5","4","6","5","4","4","5","4","5","-1","0","0","2","-3","1","1","2","4","4","5","5","5","4","4","5","4","4","9","9","7","8","7","8","9","7","9","5","3","7","4","4","3","5","2","3","4","4","4","5","4","4","6","4","4","6","4","6","5","5","6","3","5","5","6","6","7","7","6","4","5","6","6","5","5","3","7","740167970172702721","陈","48","Female","[""好我"",""坏我"",""好她"",""坏她""]","[""强我"",""弱我"",""强她"",""弱她""]","","","","","","","","no","","","","","","","","","SRET","EW_formal","","key","j","16.665511904761974","683","380","朋友","卑鄙","Negative","morality","","","","","","","","","",""
"2666","","j","psychophysics","52","432309","0.0-7.0-3.0-0.38","5","4","5","4","6","5","4","4","5","4","5","-1","0","0","2","-3","1","1","2","4","4","5","5","5","4","4","5","4","4","9","9","7","8","7","8","9","7","9","5","3","7","4","4","3","5","2","3","4","4","4","5","4","4","6","4","4","6","4","6","5","5","6","3","5","5","6","6","7","7","6","4","5","6","6","5","5","3","7","740167970172702721","陈","48","Female","[""好我"",""坏我"",""好她"",""坏她""]","[""强我"",""弱我"",""强她"",""弱她""]","","","","","","","","no","","","","","","","","","SRET","EW_formal","","key","j","16.665757990867476","683","380","朋友","无知","Negative","ability","","","","","","","","","",""
"2801","","j","psychophysics","53","436118","0.0-7.0-3.0-0.39","5","4","5","4","6","5","4","4","5","4","5","-1","0","0","2","-3","1","1","2","4","4","5","5","5","4","4","5","4","4","9","9","7","8","7","8","9","7","9","5","3","7","4","4","3","5","2","3","4","4","4","5","4","4","6","4","4","6","4","6","5","5","6","3","5","5","6","6","7","7","6","4","5","6","6","5","5","3","7","740167970172702721","陈","48","Female","[""好我"",""坏我"",""好她"",""坏她""]","[""强我"",""弱我"",""强她"",""弱她""]","","","","","","","","no","","","","","","","","","SRET","EW_formal","","key","j","16.66533333333332","683","380","自己","虚假","Negative","morality","","","","","","","","","",""
"5465","","f","psychophysics","54","442589","0.0-7.0-3.0-0.40","5","4","5","4","6","5","4","4","5","4","5","-1","0","0","2","-3","1","1","2","4","4","5","5","5","4","4","5","4","4","9","9","7","8","7","8","9","7","9","5","3","7","4","4","3","5","2","3","4","4","4","5","4","4","6","4","4","6","4","6","5","5","6","3","5","5","6","6","7","7","6","4","5","6","6","5","5","3","7","740167970172702721","陈","48","Female","[""好我"",""坏我"",""好她"",""坏她""]","[""强我"",""弱我"",""强她"",""弱她""]","","","","","","","","yes","","","","","","","","","SRET","EW_formal","","key","f","16.665656330749346","683","380","自己","才尽","Negative","ability","","","","","","","","","",""
"4352","","j","psychophysics","55","447952","0.0-7.0-3.0-0.41","5","4","5","4","6","5","4","4","5","4","5","-1","0","0","2","-3","1","1","2","4","4","5","5","5","4","4","5","4","4","9","9","7","8","7","8","9","7","9","5","3","7","4","4","3","5","2","3","4","4","4","5","4","4","6","4","4","6","4","6","5","5","6","3","5","5","6","6","7","7","6","4","5","6","6","5","5","3","7","740167970172702721","陈","48","Female","[""好我"",""坏我"",""好她"",""坏她""]","[""强我"",""弱我"",""强她"",""弱她""]","","","","","","","","no","","","","","","","","","SRET","EW_formal","","key","j","16.66550467289713","683","380","朋友","无助","Negative","ability","","","","","","","","","",""
"10214","","j","psychophysics","56","459170","0.0-7.0-3.0-0.42","5","4","5","4","6","5","4","4","5","4","5","-1","0","0","2","-3","1","1","2","4","4","5","5","5","4","4","5","4","4","9","9","7","8","7","8","9","7","9","5","3","7","4","4","3","5","2","3","4","4","4","5","4","4","6","4","4","6","4","6","5","5","6","3","5","5","6","6","7","7","6","4","5","6","6","5","5","3","7","740167970172702721","陈","48","Female","[""好我"",""坏我"",""好她"",""坏她""]","[""强我"",""弱我"",""强她"",""弱她""]","","","","","","","","no","","","","","","","","","SRET","EW_formal","","key","j","16.665531250000033","683","380","朋友","短视","Negative","ability","","","","","","","","","",""
"3133","","j","psychophysics","57","463305","0.0-7.0-3.0-0.43","5","4","5","4","6","5","4","4","5","4","5","-1","0","0","2","-3","1","1","2","4","4","5","5","5","4","4","5","4","4","9","9","7","8","7","8","9","7","9","5","3","7","4","4","3","5","2","3","4","4","4","5","4","4","6","4","4","6","4","6","5","5","6","3","5","5","6","6","7","7","6","4","5","6","6","5","5","3","7","740167970172702721","陈","48","Female","[""好我"",""坏我"",""好她"",""坏她""]","[""强我"",""弱我"",""强她"",""弱她""]","","","","","","","","no","","","","","","","","","SRET","EW_formal","","key","j","16.666141700404904","683","380","朋友","低劣","Negative","morality","","","","","","","","","",""
"4191","","f","psychophysics","58","468498","0.0-7.0-3.0-0.44","5","4","5","4","6","5","4","4","5","4","5","-1","0","0","2","-3","1","1","2","4","4","5","5","5","4","4","5","4","4","9","9","7","8","7","8","9","7","9","5","3","7","4","4","3","5","2","3","4","4","4","5","4","4","6","4","4","6","4","6","5","5","6","3","5","5","6","6","7","7","6","4","5","6","6","5","5","3","7","740167970172702721","陈","48","Female","[""好我"",""坏我"",""好她"",""坏她""]","[""强我"",""弱我"",""强她"",""弱她""]","","","","","","","","yes","","","","","","","","","SRET","EW_formal","","key","f","16.665627009646144","683","380","朋友","沉着","Positive","ability","","","","","","","","","",""
"13624","","j","psychophysics","59","483132","0.0-7.0-3.0-0.45","5","4","5","4","6","5","4","4","5","4","5","-1","0","0","2","-3","1","1","2","4","4","5","5","5","4","4","5","4","4","9","9","7","8","7","8","9","7","9","5","3","7","4","4","3","5","2","3","4","4","4","5","4","4","6","4","4","6","4","6","5","5","6","3","5","5","6","6","7","7","6","4","5","6","6","5","5","3","7","740167970172702721","陈","48","Female","[""好我"",""坏我"",""好她"",""坏她""]","[""强我"",""弱我"",""强她"",""弱她""]","","","","","","","","no","","","","","","","","","SRET","EW_formal","","key","j","16.665559863169893","683","380","自己","博识","Positive","ability","","","","","","","","","",""
"4172","","f","psychophysics","60","488312","0.0-7.0-3.0-0.46","5","4","5","4","6","5","4","4","5","4","5","-1","0","0","2","-3","1","1","2","4","4","5","5","5","4","4","5","4","4","9","9","7","8","7","8","9","7","9","5","3","7","4","4","3","5","2","3","4","4","4","5","4","4","6","4","4","6","4","6","5","5","6","3","5","5","6","6","7","7","6","4","5","6","6","5","5","3","7","740167970172702721","陈","48","Female","[""好我"",""坏我"",""好她"",""坏她""]","[""强我"",""弱我"",""强她"",""弱她""]","","","","","","","","yes","","","","","","","","","SRET","EW_formal","","key","f","16.665689320388267","683","380","自己","偏私","Negative","morality","","","","","","","","","",""
"3681","","f","psychophysics","61","492998","0.0-7.0-3.0-0.47","5","4","5","4","6","5","4","4","5","4","5","-1","0","0","2","-3","1","1","2","4","4","5","5","5","4","4","5","4","4","9","9","7","8","7","8","9","7","9","5","3","7","4","4","3","5","2","3","4","4","4","5","4","4","6","4","4","6","4","6","5","5","6","3","5","5","6","6","7","7","6","4","5","6","6","5","5","3","7","740167970172702721","陈","48","Female","[""好我"",""坏我"",""好她"",""坏她""]","[""强我"",""弱我"",""强她"",""弱她""]","","","","","","","","yes","","","","","","","","","SRET","EW_formal","","key","f","16.66540569395015","683","380","自己","仁厚","Positive","morality","","","","","","","","","",""
"2958","","f","psychophysics","62","496963","0.0-7.0-3.0-0.48","5","4","5","4","6","5","4","4","5","4","5","-1","0","0","2","-3","1","1","2","4","4","5","5","5","4","4","5","4","4","9","9","7","8","7","8","9","7","9","5","3","7","4","4","3","5","2","3","4","4","4","5","4","4","6","4","4","6","4","6","5","5","6","3","5","5","6","6","7","7","6","4","5","6","6","5","5","3","7","740167970172702721","陈","48","Female","[""好我"",""坏我"",""好她"",""坏她""]","[""强我"",""弱我"",""强她"",""弱她""]","","","","","","","","yes","","","","","","","","","SRET","EW_formal","","key","f","16.73621702127659","683","380","自己","忠良","Positive","morality","","","","","","","","","",""
"5794","","j","psychophysics","63","503768","0.0-7.0-3.0-0.49","5","4","5","4","6","5","4","4","5","4","5","-1","0","0","2","-3","1","1","2","4","4","5","5","5","4","4","5","4","4","9","9","7","8","7","8","9","7","9","5","3","7","4","4","3","5","2","3","4","4","4","5","4","4","6","4","4","6","4","6","5","5","6","3","5","5","6","6","7","7","6","4","5","6","6","5","5","3","7","740167970172702721","陈","48","Female","[""好我"",""坏我"",""好她"",""坏她""]","[""强我"",""弱我"",""强她"",""弱她""]","","","","","","","","no","","","","","","","","","SRET","EW_formal","","key","j","16.665482843137237","683","380","朋友","业余","Negative","ability","","","","","","","","","",""
"3401","","j","psychophysics","64","508174","0.0-7.0-3.0-0.50","5","4","5","4","6","5","4","4","5","4","5","-1","0","0","2","-3","1","1","2","4","4","5","5","5","4","4","5","4","4","9","9","7","8","7","8","9","7","9","5","3","7","4","4","3","5","2","3","4","4","4","5","4","4","6","4","4","6","4","6","5","5","6","3","5","5","6","6","7","7","6","4","5","6","6","5","5","3","7","740167970172702721","陈","48","Female","[""好我"",""坏我"",""好她"",""坏她""]","[""强我"",""弱我"",""强她"",""弱她""]","","","","","","","","no","","","","","","","","","SRET","EW_formal","","key","j","16.66534600760447","683","380","朋友","外行","Negative","ability","","","","","","","","","",""
"4387","","f","psychophysics","65","513567","0.0-7.0-3.0-0.51","5","4","5","4","6","5","4","4","5","4","5","-1","0","0","2","-3","1","1","2","4","4","5","5","5","4","4","5","4","4","9","9","7","8","7","8","9","7","9","5","3","7","4","4","3","5","2","3","4","4","4","5","4","4","6","4","4","6","4","6","5","5","6","3","5","5","6","6","7","7","6","4","5","6","6","5","5","3","7","740167970172702721","陈","48","Female","[""好我"",""坏我"",""好她"",""坏她""]","[""强我"",""弱我"",""强她"",""弱她""]","","","","","","","","yes","","","","","","","","","SRET","EW_formal","","key","f","16.665625386996822","683","380","朋友","骁勇","Positive","ability","","","","","","","","","",""
"5525","","j","psychophysics","66","520098","0.0-7.0-3.0-0.52","5","4","5","4","6","5","4","4","5","4","5","-1","0","0","2","-3","1","1","2","4","4","5","5","5","4","4","5","4","4","9","9","7","8","7","8","9","7","9","5","3","7","4","4","3","5","2","3","4","4","4","5","4","4","6","4","4","6","4","6","5","5","6","3","5","5","6","6","7","7","6","4","5","6","6","5","5","3","7","740167970172702721","陈","48","Female","[""好我"",""坏我"",""好她"",""坏她""]","[""强我"",""弱我"",""强她"",""弱她""]","","","","","","","","no","","","","","","","","","SRET","EW_formal","","key","j","16.665542199488527","683","380","自己","愚痴","Negative","ability","","","","","","","","","",""
"3734","","f","psychophysics","67","524835","0.0-7.0-3.0-0.53","5","4","5","4","6","5","4","4","5","4","5","-1","0","0","2","-3","1","1","2","4","4","5","5","5","4","4","5","4","4","9","9","7","8","7","8","9","7","9","5","3","7","4","4","3","5","2","3","4","4","4","5","4","4","6","4","4","6","4","6","5","5","6","3","5","5","6","6","7","7","6","4","5","6","6","5","5","3","7","740167970172702721","陈","48","Female","[""好我"",""坏我"",""好她"",""坏她""]","[""强我"",""弱我"",""强她"",""弱她""]","","","","","","","","yes","","","","","","","","","SRET","EW_formal","","key","f","16.665678445229844","683","380","自己","独立","Positive","ability","","","","","","","","","",""
"4180","","f","psychophysics","68","530017","0.0-7.0-3.0-0.54","5","4","5","4","6","5","4","4","5","4","5","-1","0","0","2","-3","1","1","2","4","4","5","5","5","4","4","5","4","4","9","9","7","8","7","8","9","7","9","5","3","7","4","4","3","5","2","3","4","4","4","5","4","4","6","4","4","6","4","6","5","5","6","3","5","5","6","6","7","7","6","4","5","6","6","5","5","3","7","740167970172702721","陈","48","Female","[""好我"",""坏我"",""好她"",""坏她""]","[""强我"",""弱我"",""强她"",""弱她""]","","","","","","","","yes","","","","","","","","","SRET","EW_formal","","key","f","16.665470967741847","683","380","自己","远见","Positive","ability","","","","","","","","","",""
"3612","","f","psychophysics","69","534634","0.0-7.0-3.0-0.55","5","4","5","4","6","5","4","4","5","4","5","-1","0","0","2","-3","1","1","2","4","4","5","5","5","4","4","5","4","4","9","9","7","8","7","8","9","7","9","5","3","7","4","4","3","5","2","3","4","4","4","5","4","4","6","4","4","6","4","6","5","5","6","3","5","5","6","6","7","7","6","4","5","6","6","5","5","3","7","740167970172702721","陈","48","Female","[""好我"",""坏我"",""好她"",""坏她""]","[""强我"",""弱我"",""强她"",""弱她""]","","","","","","","","yes","","","","","","","","","SRET","EW_formal","","key","f","16.665427536231658","683","380","自己","周到","Positive","ability","","","","","","","","","",""
"3553","","f","psychophysics","70","539192","0.0-7.0-3.0-0.56","5","4","5","4","6","5","4","4","5","4","5","-1","0","0","2","-3","1","1","2","4","4","5","5","5","4","4","5","4","4","9","9","7","8","7","8","9","7","9","5","3","7","4","4","3","5","2","3","4","4","4","5","4","4","6","4","4","6","4","6","5","5","6","3","5","5","6","6","7","7","6","4","5","6","6","5","5","3","7","740167970172702721","陈","48","Female","[""好我"",""坏我"",""好她"",""坏她""]","[""强我"",""弱我"",""强她"",""弱她""]","","","","","","","","yes","","","","","","","","","SRET","EW_formal","","key","f","16.665551470588337","683","380","朋友","刚正","Positive","morality","","","","","","","","","",""
"3525","","j","psychophysics","71","543722","0.0-7.0-3.0-0.57","5","4","5","4","6","5","4","4","5","4","5","-1","0","0","2","-3","1","1","2","4","4","5","5","5","4","4","5","4","4","9","9","7","8","7","8","9","7","9","5","3","7","4","4","3","5","2","3","4","4","4","5","4","4","6","4","4","6","4","6","5","5","6","3","5","5","6","6","7","7","6","4","5","6","6","5","5","3","7","740167970172702721","陈","48","Female","[""好我"",""坏我"",""好她"",""坏她""]","[""强我"",""弱我"",""强她"",""弱她""]","","","","","","","","no","","","","","","","","","SRET","EW_formal","","key","j","16.66573800738021","683","380","朋友","邪恶","Negative","morality","","","","","","","","","",""
"6651","","f","psychophysics","72","551378","0.0-7.0-3.0-0.58","5","4","5","4","6","5","4","4","5","4","5","-1","0","0","2","-3","1","1","2","4","4","5","5","5","4","4","5","4","4","9","9","7","8","7","8","9","7","9","5","3","7","4","4","3","5","2","3","4","4","4","5","4","4","6","4","4","6","4","6","5","5","6","3","5","5","6","6","7","7","6","4","5","6","6","5","5","3","7","740167970172702721","陈","48","Female","[""好我"",""坏我"",""好她"",""坏她""]","[""强我"",""弱我"",""强她"",""弱她""]","","","","","","","","yes","","","","","","","","","SRET","EW_formal","","key","f","16.665572984749502","683","380","自己","宽容","Positive","morality","","","","","","","","","",""
"5415","","j","psychophysics","73","557798","0.0-7.0-3.0-0.59","5","4","5","4","6","5","4","4","5","4","5","-1","0","0","2","-3","1","1","2","4","4","5","5","5","4","4","5","4","4","9","9","7","8","7","8","9","7","9","5","3","7","4","4","3","5","2","3","4","4","4","5","4","4","6","4","4","6","4","6","5","5","6","3","5","5","6","6","7","7","6","4","5","6","6","5","5","3","7","740167970172702721","陈","48","Female","[""好我"",""坏我"",""好她"",""坏她""]","[""强我"",""弱我"",""强她"",""弱她""]","","","","","","","","no","","","","","","","","","SRET","EW_formal","","key","j","16.665835937499953","683","380","自己","愚蠢","Negative","ability","","","","","","","","","",""
"3872","","j","psychophysics","74","562683","0.0-7.0-3.0-0.60","5","4","5","4","6","5","4","4","5","4","5","-1","0","0","2","-3","1","1","2","4","4","5","5","5","4","4","5","4","4","9","9","7","8","7","8","9","7","9","5","3","7","4","4","3","5","2","3","4","4","4","5","4","4","6","4","4","6","4","6","5","5","6","3","5","5","6","6","7","7","6","4","5","6","6","5","5","3","7","740167970172702721","陈","48","Female","[""好我"",""坏我"",""好她"",""坏她""]","[""强我"",""弱我"",""强她"",""弱她""]","","","","","","","","no","","","","","","","","","SRET","EW_formal","","key","j","16.66574657534222","683","380","自己","无耻","Negative","morality","","","","","","","","","",""
"3618","","j","psychophysics","75","567305","0.0-7.0-3.0-0.61","5","4","5","4","6","5","4","4","5","4","5","-1","0","0","2","-3","1","1","2","4","4","5","5","5","4","4","5","4","4","9","9","7","8","7","8","9","7","9","5","3","7","4","4","3","5","2","3","4","4","4","5","4","4","6","4","4","6","4","6","5","5","6","3","5","5","6","6","7","7","6","4","5","6","6","5","5","3","7","740167970172702721","陈","48","Female","[""好我"",""坏我"",""好她"",""坏她""]","[""强我"",""弱我"",""强她"",""弱她""]","","","","","","","","no","","","","","","","","","SRET","EW_formal","","key","j","16.66569565217419","683","380","自己","无能","Negative","ability","","","","","","","","","",""
"4059","","f","psychophysics","76","572370","0.0-7.0-3.0-0.62","5","4","5","4","6","5","4","4","5","4","5","-1","0","0","2","-3","1","1","2","4","4","5","5","5","4","4","5","4","4","9","9","7","8","7","8","9","7","9","5","3","7","4","4","3","5","2","3","4","4","4","5","4","4","6","4","4","6","4","6","5","5","6","3","5","5","6","6","7","7","6","4","5","6","6","5","5","3","7","740167970172702721","陈","48","Female","[""好我"",""坏我"",""好她"",""坏她""]","[""强我"",""弱我"",""强她"",""弱她""]","","","","","","","","yes","","","","","","","","","SRET","EW_formal","","key","f","16.665577557755913","683","380","朋友","自律","Positive","ability","","","","","","","","","",""
"3982","","f","psychophysics","77","577359","0.0-7.0-3.0-0.63","5","4","5","4","6","5","4","4","5","4","5","-1","0","0","2","-3","1","1","2","4","4","5","5","5","4","4","5","4","4","9","9","7","8","7","8","9","7","9","5","3","7","4","4","3","5","2","3","4","4","4","5","4","4","6","4","4","6","4","6","5","5","6","3","5","5","6","6","7","7","6","4","5","6","6","5","5","3","7","740167970172702721","陈","48","Female","[""好我"",""坏我"",""好她"",""坏她""]","[""强我"",""弱我"",""强她"",""弱她""]","","","","","","","","yes","","","","","","","","","SRET","EW_formal","","key","f","16.665620805369066","683","380","自己","礼貌","Positive","morality","","","","","","","","","",""
"4947","","j","psychophysics","78","583314","0.0-7.0-3.0-0.64","5","4","5","4","6","5","4","4","5","4","5","-1","0","0","2","-3","1","1","2","4","4","5","5","5","4","4","5","4","4","9","9","7","8","7","8","9","7","9","5","3","7","4","4","3","5","2","3","4","4","4","5","4","4","6","4","4","6","4","6","5","5","6","3","5","5","6","6","7","7","6","4","5","6","6","5","5","3","7","740167970172702721","陈","48","Female","[""好我"",""坏我"",""好她"",""坏她""]","[""强我"",""弱我"",""强她"",""弱她""]","","","","","","","","no","","","","","","","","","SRET","EW_formal","","key","j","16.665453781512714","683","380","朋友","缺德","Negative","morality","","","","","","","","","",""
"4244","","f","psychophysics","79","588563","0.0-7.0-3.0-0.65","5","4","5","4","6","5","4","4","5","4","5","-1","0","0","2","-3","1","1","2","4","4","5","5","5","4","4","5","4","4","9","9","7","8","7","8","9","7","9","5","3","7","4","4","3","5","2","3","4","4","4","5","4","4","6","4","4","6","4","6","5","5","6","3","5","5","6","6","7","7","6","4","5","6","6","5","5","3","7","740167970172702721","陈","48","Female","[""好我"",""坏我"",""好她"",""坏她""]","[""强我"",""弱我"",""强她"",""弱她""]","","","","","","","","yes","","","","","","","","","SRET","EW_formal","","key","f","16.6656050955414","683","380","自己","忠义","Positive","morality","","","","","","","","","",""
"3493","","j","psychophysics","80","593061","0.0-7.0-3.0-0.66","5","4","5","4","6","5","4","4","5","4","5","-1","0","0","2","-3","1","1","2","4","4","5","5","5","4","4","5","4","4","9","9","7","8","7","8","9","7","9","5","3","7","4","4","3","5","2","3","4","4","4","5","4","4","6","4","4","6","4","6","5","5","6","3","5","5","6","6","7","7","6","4","5","6","6","5","5","3","7","740167970172702721","陈","48","Female","[""好我"",""坏我"",""好她"",""坏她""]","[""强我"",""弱我"",""强她"",""弱她""]","","","","","","","","no","","","","","","","","","SRET","EW_formal","","key","j","16.66542750929368","683","380","朋友","不仁","Negative","morality","","","","","","","","","",""
"5234","","f","psychophysics","81","599297","0.0-7.0-3.0-0.67","5","4","5","4","6","5","4","4","5","4","5","-1","0","0","2","-3","1","1","2","4","4","5","5","5","4","4","5","4","4","9","9","7","8","7","8","9","7","9","5","3","7","4","4","3","5","2","3","4","4","4","5","4","4","6","4","4","6","4","6","5","5","6","3","5","5","6","6","7","7","6","4","5","6","6","5","5","3","7","740167970172702721","陈","48","Female","[""好我"",""坏我"",""好她"",""坏她""]","[""强我"",""弱我"",""强她"",""弱她""]","","","","","","","","yes","","","","","","","","","SRET","EW_formal","","key","f","16.66546112600553","683","380","朋友","逞强","Negative","ability","","","","","","","","","",""
"2774","","f","psychophysics","82","603077","0.0-7.0-3.0-0.68","5","4","5","4","6","5","4","4","5","4","5","-1","0","0","2","-3","1","1","2","4","4","5","5","5","4","4","5","4","4","9","9","7","8","7","8","9","7","9","5","3","7","4","4","3","5","2","3","4","4","4","5","4","4","6","4","4","6","4","6","5","5","6","3","5","5","6","6","7","7","6","4","5","6","6","5","5","3","7","740167970172702721","陈","48","Female","[""好我"",""坏我"",""好她"",""坏她""]","[""强我"",""弱我"",""强她"",""弱她""]","","","","","","","","yes","","","","","","","","","SRET","EW_formal","","key","f","16.665287610619387","683","380","自己","努力","Positive","ability","","","","","","","","","",""
"4164","","j","psychophysics","83","608243","0.0-7.0-3.0-0.69","5","4","5","4","6","5","4","4","5","4","5","-1","0","0","2","-3","1","1","2","4","4","5","5","5","4","4","5","4","4","9","9","7","8","7","8","9","7","9","5","3","7","4","4","3","5","2","3","4","4","4","5","4","4","6","4","4","6","4","6","5","5","6","3","5","5","6","6","7","7","6","4","5","6","6","5","5","3","7","740167970172702721","陈","48","Female","[""好我"",""坏我"",""好她"",""坏她""]","[""强我"",""弱我"",""强她"",""弱她""]","","","","","","","","no","","","","","","","","","SRET","EW_formal","","key","j","16.665453074433657","683","380","朋友","不良","Negative","morality","","","","","","","","","",""
"5079","","j","psychophysics","84","614328","0.0-7.0-3.0-0.70","5","4","5","4","6","5","4","4","5","4","5","-1","0","0","2","-3","1","1","2","4","4","5","5","5","4","4","5","4","4","9","9","7","8","7","8","9","7","9","5","3","7","4","4","3","5","2","3","4","4","4","5","4","4","6","4","4","6","4","6","5","5","6","3","5","5","6","6","7","7","6","4","5","6","6","5","5","3","7","740167970172702721","陈","48","Female","[""好我"",""坏我"",""好她"",""坏她""]","[""强我"",""弱我"",""强她"",""弱她""]","","","","","","","","no","","","","","","","","","SRET","EW_formal","","key","j","16.66546978021954","683","380","自己","无敌","Positive","ability","","","","","","","","","",""
"1438","","f","psychophysics","85","616775","0.0-7.0-3.0-0.71","5","4","5","4","6","5","4","4","5","4","5","-1","0","0","2","-3","1","1","2","4","4","5","5","5","4","4","5","4","4","9","9","7","8","7","8","9","7","9","5","3","7","4","4","3","5","2","3","4","4","4","5","4","4","6","4","4","6","4","6","5","5","6","3","5","5","6","6","7","7","6","4","5","6","6","5","5","3","7","740167970172702721","陈","48","Female","[""好我"",""坏我"",""好她"",""坏她""]","[""强我"",""弱我"",""强她"",""弱她""]","","","","","","","","yes","","","","","","","","","SRET","EW_formal","","key","f","16.665834482758434","683","380","朋友","慷慨","Positive","morality","","","","","","","","","",""
"2466","","f","psychophysics","86","620251","0.0-7.0-3.0-0.72","5","4","5","4","6","5","4","4","5","4","5","-1","0","0","2","-3","1","1","2","4","4","5","5","5","4","4","5","4","4","9","9","7","8","7","8","9","7","9","5","3","7","4","4","3","5","2","3","4","4","4","5","4","4","6","4","4","6","4","6","5","5","6","3","5","5","6","6","7","7","6","4","5","6","6","5","5","3","7","740167970172702721","陈","48","Female","[""好我"",""坏我"",""好她"",""坏她""]","[""强我"",""弱我"",""强她"",""弱她""]","","","","","","","","yes","","","","","","","","","SRET","EW_formal","","key","f","16.664918269230558","683","380","自己","守信","Positive","morality","","","","","","","","","",""
"6765","","j","psychophysics","87","628028","0.0-7.0-3.0-0.73","5","4","5","4","6","5","4","4","5","4","5","-1","0","0","2","-3","1","1","2","4","4","5","5","5","4","4","5","4","4","9","9","7","8","7","8","9","7","9","5","3","7","4","4","3","5","2","3","4","4","4","5","4","4","6","4","4","6","4","6","5","5","6","3","5","5","6","6","7","7","6","4","5","6","6","5","5","3","7","740167970172702721","陈","48","Female","[""好我"",""坏我"",""好她"",""坏她""]","[""强我"",""弱我"",""强她"",""弱她""]","","","","","","","","no","","","","","","","","","SRET","EW_formal","","key","j","16.665650214592212","683","380","自己","浅薄","Negative","ability","","","","","","","","","",""
"1502","","f","psychophysics","88","630534","0.0-7.0-3.0-0.74","5","4","5","4","6","5","4","4","5","4","5","-1","0","0","2","-3","1","1","2","4","4","5","5","5","4","4","5","4","4","9","9","7","8","7","8","9","7","9","5","3","7","4","4","3","5","2","3","4","4","4","5","4","4","6","4","4","6","4","6","5","5","6","3","5","5","6","6","7","7","6","4","5","6","6","5","5","3","7","740167970172702721","陈","48","Female","[""好我"",""坏我"",""好她"",""坏她""]","[""强我"",""弱我"",""强她"",""弱她""]","","","","","","","","yes","","","","","","","","","SRET","EW_formal","","key","f","16.66560402684595","683","380","自己","正气","Positive","morality","","","","","","","","","",""
"2014","","j","psychophysics","89","633550","0.0-7.0-3.0-0.75","5","4","5","4","6","5","4","4","5","4","5","-1","0","0","2","-3","1","1","2","4","4","5","5","5","4","4","5","4","4","9","9","7","8","7","8","9","7","9","5","3","7","4","4","3","5","2","3","4","4","4","5","4","4","6","4","4","6","4","6","5","5","6","3","5","5","6","6","7","7","6","4","5","6","6","5","5","3","7","740167970172702721","陈","48","Female","[""好我"",""坏我"",""好她"",""坏她""]","[""强我"",""弱我"",""强她"",""弱她""]","","","","","","","","no","","","","","","","","","SRET","EW_formal","","key","j","16.6656055555556","683","380","朋友","新手","Negative","ability","","","","","","","","","",""
"5824","","j","psychophysics","90","640377","0.0-7.0-3.0-0.76","5","4","5","4","6","5","4","4","5","4","5","-1","0","0","2","-3","1","1","2","4","4","5","5","5","4","4","5","4","4","9","9","7","8","7","8","9","7","9","5","3","7","4","4","3","5","2","3","4","4","4","5","4","4","6","4","4","6","4","6","5","5","6","3","5","5","6","6","7","7","6","4","5","6","6","5","5","3","7","740167970172702721","陈","48","Female","[""好我"",""坏我"",""好她"",""坏她""]","[""强我"",""弱我"",""强她"",""弱她""]","","","","","","","","no","","","","","","","","","SRET","EW_formal","","key","j","16.7063259803924","683","380","自己","蛇蝎","Negative","morality","","","","","","","","","",""
"4239","","f","psychophysics","91","645625","0.0-7.0-3.0-0.77","5","4","5","4","6","5","4","4","5","4","5","-1","0","0","2","-3","1","1","2","4","4","5","5","5","4","4","5","4","4","9","9","7","8","7","8","9","7","9","5","3","7","4","4","3","5","2","3","4","4","4","5","4","4","6","4","4","6","4","6","5","5","6","3","5","5","6","6","7","7","6","4","5","6","6","5","5","3","7","740167970172702721","陈","48","Female","[""好我"",""坏我"",""好她"",""坏她""]","[""强我"",""弱我"",""强她"",""弱她""]","","","","","","","","yes","","","","","","","","","SRET","EW_formal","","key","f","16.718766773163086","683","380","朋友","刻苦","Positive","ability","","","","","","","","","",""
"11718","","j","psychophysics","92","658351","0.0-7.0-3.0-0.78","5","4","5","4","6","5","4","4","5","4","5","-1","0","0","2","-3","1","1","2","4","4","5","5","5","4","4","5","4","4","9","9","7","8","7","8","9","7","9","5","3","7","4","4","3","5","2","3","4","4","4","5","4","4","6","4","4","6","4","6","5","5","6","3","5","5","6","6","7","7","6","4","5","6","6","5","5","3","7","740167970172702721","陈","48","Female","[""好我"",""坏我"",""好她"",""坏她""]","[""强我"",""弱我"",""强她"",""弱她""]","","","","","","","","no","","","","","","","","","SRET","EW_formal","","key","j","16.665496062992137","683","380","朋友","独断","Negative","ability","","","","","","","","","",""
"757","","j","psychophysics","93","660110","0.0-7.0-3.0-0.79","5","4","5","4","6","5","4","4","5","4","5","-1","0","0","2","-3","1","1","2","4","4","5","5","5","4","4","5","4","4","9","9","7","8","7","8","9","7","9","5","3","7","4","4","3","5","2","3","4","4","4","5","4","4","6","4","4","6","4","6","5","5","6","3","5","5","6","6","7","7","6","4","5","6","6","5","5","3","7","740167970172702721","陈","48","Female","[""好我"",""坏我"",""好她"",""坏她""]","[""强我"",""弱我"",""强她"",""弱她""]","","","","","","","","no","","","","","","","","","SRET","EW_formal","","key","j","16.665866666666364","683","380","朋友","小人","Negative","morality","","","","","","","","","",""
"838","","f","psychophysics","94","661950","0.0-7.0-3.0-0.80","5","4","5","4","6","5","4","4","5","4","5","-1","0","0","2","-3","1","1","2","4","4","5","5","5","4","4","5","4","4","9","9","7","8","7","8","9","7","9","5","3","7","4","4","3","5","2","3","4","4","4","5","4","4","6","4","4","6","4","6","5","5","6","3","5","5","6","6","7","7","6","4","5","6","6","5","5","3","7","740167970172702721","陈","48","Female","[""好我"",""坏我"",""好她"",""坏她""]","[""强我"",""弱我"",""强她"",""弱她""]","","","","","","","","yes","","","","","","","","","SRET","EW_formal","","key","f","16.66586238532028","683","380","朋友","毅力","Positive","ability","","","","","","","","","",""
"987","","j","psychophysics","95","663942","0.0-7.0-3.0-0.81","5","4","5","4","6","5","4","4","5","4","5","-1","0","0","2","-3","1","1","2","4","4","5","5","5","4","4","5","4","4","9","9","7","8","7","8","9","7","9","5","3","7","4","4","3","5","2","3","4","4","4","5","4","4","6","4","4","6","4","6","5","5","6","3","5","5","6","6","7","7","6","4","5","6","6","5","5","3","7","740167970172702721","陈","48","Female","[""好我"",""坏我"",""好她"",""坏她""]","[""强我"",""弱我"",""强她"",""弱她""]","","","","","","","","no","","","","","","","","","SRET","EW_formal","","key","j","16.665361344537448","683","380","自己","龌龊","Negative","morality","","","","","","","","","",""
"862","","f","psychophysics","96","665807","0.0-7.0-3.0-0.82","5","4","5","4","6","5","4","4","5","4","5","-1","0","0","2","-3","1","1","2","4","4","5","5","5","4","4","5","4","4","9","9","7","8","7","8","9","7","9","5","3","7","4","4","3","5","2","3","4","4","4","5","4","4","6","4","4","6","4","6","5","5","6","3","5","5","6","6","7","7","6","4","5","6","6","5","5","3","7","740167970172702721","陈","48","Female","[""好我"",""坏我"",""好她"",""坏她""]","[""强我"",""弱我"",""强她"",""弱她""]","","","","","","","","yes","","","","","","","","","SRET","EW_formal","","key","f","16.665666666666365","683","380","朋友","敏捷","Positive","ability","","","","","","","","","",""
"894","","j","psychophysics","97","667710","0.0-7.0-3.0-0.83","5","4","5","4","6","5","4","4","5","4","5","-1","0","0","2","-3","1","1","2","4","4","5","5","5","4","4","5","4","4","9","9","7","8","7","8","9","7","9","5","3","7","4","4","3","5","2","3","4","4","4","5","4","4","6","4","4","6","4","6","5","5","6","3","5","5","6","6","7","7","6","4","5","6","6","5","5","3","7","740167970172702721","陈","48","Female","[""好我"",""坏我"",""好她"",""坏她""]","[""强我"",""弱我"",""强她"",""弱她""]","","","","","","","","no","","","","","","","","","SRET","EW_formal","","key","j","16.665867256637316","683","380","朋友","黑心","Negative","morality","","","","","","","","","",""
"1198","","f","psychophysics","98","669910","0.0-7.0-3.0-0.84","5","4","5","4","6","5","4","4","5","4","5","-1","0","0","2","-3","1","1","2","4","4","5","5","5","4","4","5","4","4","9","9","7","8","7","8","9","7","9","5","3","7","4","4","3","5","2","3","4","4","4","5","4","4","6","4","4","6","4","6","5","5","6","3","5","5","6","6","7","7","6","4","5","6","6","5","5","3","7","740167970172702721","陈","48","Female","[""好我"",""坏我"",""好她"",""坏她""]","[""强我"",""弱我"",""强她"",""弱她""]","","","","","","","","yes","","","","","","","","","SRET","EW_formal","","key","f","16.665824427480903","683","380","自己","缓慢","Negative","ability","","","","","","","","","",""
"685","","f","psychophysics","99","671598","0.0-7.0-3.0-0.85","5","4","5","4","6","5","4","4","5","4","5","-1","0","0","2","-3","1","1","2","4","4","5","5","5","4","4","5","4","4","9","9","7","8","7","8","9","7","9","5","3","7","4","4","3","5","2","3","4","4","4","5","4","4","6","4","4","6","4","6","5","5","6","3","5","5","6","6","7","7","6","4","5","6","6","5","5","3","7","740167970172702721","陈","48","Female","[""好我"",""坏我"",""好她"",""坏她""]","[""强我"",""弱我"",""强她"",""弱她""]","","","","","","","","yes","","","","","","","","","SRET","EW_formal","","key","f","16.665920000000625","683","380","自己","主见","Positive","ability","","","","","","","","","",""
"981","","j","psychophysics","100","673583","0.0-7.0-3.0-0.86","5","4","5","4","6","5","4","4","5","4","5","-1","0","0","2","-3","1","1","2","4","4","5","5","5","4","4","5","4","4","9","9","7","8","7","8","9","7","9","5","3","7","4","4","3","5","2","3","4","4","4","5","4","4","6","4","4","6","4","6","5","5","6","3","5","5","6","6","7","7","6","4","5","6","6","5","5","3","7","740167970172702721","陈","48","Female","[""好我"",""坏我"",""好她"",""坏她""]","[""强我"",""弱我"",""强她"",""弱她""]","","","","","","","","no","","","","","","","","","SRET","EW_formal","","key","j","16.66531355932189","683","380","朋友","低俗","Negative","morality","","","","","","","","","",""
"794","","f","psychophysics","101","675383","0.0-7.0-3.0-0.87","5","4","5","4","6","5","4","4","5","4","5","-1","0","0","2","-3","1","1","2","4","4","5","5","5","4","4","5","4","4","9","9","7","8","7","8","9","7","9","5","3","7","4","4","3","5","2","3","4","4","4","5","4","4","6","4","4","6","4","6","5","5","6","3","5","5","6","6","7","7","6","4","5","6","6","5","5","3","7","740167970172702721","陈","48","Female","[""好我"",""坏我"",""好她"",""坏她""]","[""强我"",""弱我"",""强她"",""弱她""]","","","","","","","","yes","","","","","","","","","SRET","EW_formal","","key","f","16.665523364486077","683","380","朋友","素养","Positive","morality","","","","","","","","","",""
"1801","
    <p><div style='color:white;font-size:35px; line-height:20px;'>计算任务</div></p><br>
    <p><div style='color:red;font-size:25px; line-height:20px;'>接下来，您将看到一些四则运算题，<b>请从键盘选择 0-9 进行反应。</b></div></p>
    <p><div style='color:red;font-size:25px; line-height:20px;'>请尽可能快地进行计算，计算的速度和正确率将影响报酬的发放。</div></p>
    <p><div class='footer' style='color:white;font-size:25px; line-height:20px;'>如果对本实验还有不清楚之处，请立即向实验员咨询。</p><p style='color:white;font-size:25px; line-height:20px;'>如果您明白了规则：</p><p style='color:white;font-size:22px; line-height:20px;'>请按 继续 进入练习</p>
    </div>
    ","0","html-button-response","102","677186","0.0-7.0-4.0","5","4","5","4","6","5","4","4","5","4","5","-1","0","0","2","-3","1","1","2","4","4","5","5","5","4","4","5","4","4","9","9","7","8","7","8","9","7","9","5","3","7","4","4","3","5","2","3","4","4","4","5","4","4","6","4","4","6","4","6","5","5","6","3","5","5","6","6","7","7","6","4","5","6","6","5","5","3","7","740167970172702721","陈","48","Female","[""好我"",""坏我"",""好她"",""坏她""]","[""强我"",""弱我"",""强她"",""弱她""]","","","","","","","","","","","","","","","","","SRET_math","math_instructions","Sat Nov 25 2023 16:45:57 GMT+0800 (中国标准时间)","","","","","","","","","","","","","","","","","","",""
"2533","","3","psychophysics","103","679743","0.0-7.0-5.0-0.0","5","4","5","4","6","5","4","4","5","4","5","-1","0","0","2","-3","1","1","2","4","4","5","5","5","4","4","5","4","4","9","9","7","8","7","8","9","7","9","5","3","7","4","4","3","5","2","3","4","4","4","5","4","4","6","4","4","6","4","6","5","5","6","3","5","5","6","6","7","7","6","4","5","6","6","5","5","3","7","740167970172702721","陈","48","Female","[""好我"",""坏我"",""好她"",""坏她""]","[""强我"",""弱我"",""强她"",""弱她""]","","","","","","","","3","","","","","","","","","SRET","SRET_math_calculate","","key","3","16.77458823529404","683","380","","","","","9/3= ?","3","1","","","","","","",""
"1934","","7","psychophysics","104","681679","0.0-7.0-5.0-0.1","5","4","5","4","6","5","4","4","5","4","5","-1","0","0","2","-3","1","1","2","4","4","5","5","5","4","4","5","4","4","9","9","7","8","7","8","9","7","9","5","3","7","4","4","3","5","2","3","4","4","4","5","4","4","6","4","4","6","4","6","5","5","6","3","5","5","6","6","7","7","6","4","5","6","6","5","5","3","7","740167970172702721","陈","48","Female","[""好我"",""坏我"",""好她"",""坏她""]","[""强我"",""弱我"",""强她"",""弱她""]","","","","","","","","7","","","","","","","","","SRET","SRET_math_calculate","","key","7","16.66500000000081","683","380","","","","","12-5= ?","7","1","","","","","","",""
"1966","","0","psychophysics","105","683647","0.0-7.0-5.0-0.2","5","4","5","4","6","5","4","4","5","4","5","-1","0","0","2","-3","1","1","2","4","4","5","5","5","4","4","5","4","4","9","9","7","8","7","8","9","7","9","5","3","7","4","4","3","5","2","3","4","4","4","5","4","4","6","4","4","6","4","6","5","5","6","3","5","5","6","6","7","7","6","4","5","6","6","5","5","3","7","740167970172702721","陈","48","Female","[""好我"",""坏我"",""好她"",""坏她""]","[""强我"",""弱我"",""强她"",""弱她""]","","","","","","","","0","","","","","","","","","SRET","SRET_math_calculate","","key","0","16.665555555555517","683","380","","","","","12-12= ?","0","1","","","","","","",""
"2094","","6","psychophysics","106","685743","0.0-7.0-5.0-0.3","5","4","5","4","6","5","4","4","5","4","5","-1","0","0","2","-3","1","1","2","4","4","5","5","5","4","4","5","4","4","9","9","7","8","7","8","9","7","9","5","3","7","4","4","3","5","2","3","4","4","4","5","4","4","6","4","4","6","4","6","5","5","6","3","5","5","6","6","7","7","6","4","5","6","6","5","5","3","7","740167970172702721","陈","48","Female","[""好我"",""坏我"",""好她"",""坏她""]","[""强我"",""弱我"",""强她"",""弱她""]","","","","","","","","6","","","","","","","","","SRET","SRET_math_calculate","","key","6","16.665768000000156","683","380","","","","","8-2= ?","6","1","","","","","","",""
"1918","","5","psychophysics","107","687663","0.0-7.0-5.0-0.4","5","4","5","4","6","5","4","4","5","4","5","-1","0","0","2","-3","1","1","2","4","4","5","5","5","4","4","5","4","4","9","9","7","8","7","8","9","7","9","5","3","7","4","4","3","5","2","3","4","4","4","5","4","4","6","4","4","6","4","6","5","5","6","3","5","5","6","6","7","7","6","4","5","6","6","5","5","3","7","740167970172702721","陈","48","Female","[""好我"",""坏我"",""好她"",""坏她""]","[""强我"",""弱我"",""强她"",""弱她""]","","","","","","","","5","","","","","","","","","SRET","SRET_math_calculate","","key","5","16.665219298245287","683","380","","","","","10-5= ?","5","1","","","","","","",""
"1829","","0","psychophysics","108","689495","0.0-7.0-5.0-0.5","5","4","5","4","6","5","4","4","5","4","5","-1","0","0","2","-3","1","1","2","4","4","5","5","5","4","4","5","4","4","9","9","7","8","7","8","9","7","9","5","3","7","4","4","3","5","2","3","4","4","4","5","4","4","6","4","4","6","4","6","5","5","6","3","5","5","6","6","7","7","6","4","5","6","6","5","5","3","7","740167970172702721","陈","48","Female","[""好我"",""坏我"",""好她"",""坏她""]","[""强我"",""弱我"",""强她"",""弱她""]","","","","","","","","0","","","","","","","","","SRET","SRET_math_calculate","","key","0","16.66552293577996","683","380","","","","","9-9= ?","0","1","","","","","","",""
"1830","","0","psychophysics","109","691327","0.0-7.0-5.0-0.6","5","4","5","4","6","5","4","4","5","4","5","-1","0","0","2","-3","1","1","2","4","4","5","5","5","4","4","5","4","4","9","9","7","8","7","8","9","7","9","5","3","7","4","4","3","5","2","3","4","4","4","5","4","4","6","4","4","6","4","6","5","5","6","3","5","5","6","6","7","7","6","4","5","6","6","5","5","3","7","740167970172702721","陈","48","Female","[""好我"",""坏我"",""好她"",""坏她""]","[""强我"",""弱我"",""强她"",""弱她""]","","","","","","","","0","","","","","","","","","SRET","SRET_math_calculate","","key","0","16.665165137614917","683","380","","","","","7*0= ?","0","1","","","","","","",""
"1945","","6","psychophysics","110","693273","0.0-7.0-5.0-0.7","5","4","5","4","6","5","4","4","5","4","5","-1","0","0","2","-3","1","1","2","4","4","5","5","5","4","4","5","4","4","9","9","7","8","7","8","9","7","9","5","3","7","4","4","3","5","2","3","4","4","4","5","4","4","6","4","4","6","4","6","5","5","6","3","5","5","6","6","7","7","6","4","5","6","6","5","5","3","7","740167970172702721","陈","48","Female","[""好我"",""坏我"",""好她"",""坏她""]","[""强我"",""弱我"",""强她"",""弱她""]","","","","","","","","6","","","","","","","","","SRET","SRET_math_calculate","","key","6","16.665603448276546","683","380","","","","","2*3= ?","6","1","","","","","","",""
"1884","","0","psychophysics","111","695158","0.0-7.0-5.0-0.8","5","4","5","4","6","5","4","4","5","4","5","-1","0","0","2","-3","1","1","2","4","4","5","5","5","4","4","5","4","4","9","9","7","8","7","8","9","7","9","5","3","7","4","4","3","5","2","3","4","4","4","5","4","4","6","4","4","6","4","6","5","5","6","3","5","5","6","6","7","7","6","4","5","6","6","5","5","3","7","740167970172702721","陈","48","Female","[""好我"",""坏我"",""好她"",""坏她""]","[""强我"",""弱我"",""强她"",""弱她""]","","","","","","","","0","","","","","","","","","SRET","SRET_math_calculate","","key","0","16.66519642857124","683","380","","","","","32-32= ?","0","1","","","","","","",""
"1871","","0","psychophysics","112","697030","0.0-7.0-5.0-0.9","5","4","5","4","6","5","4","4","5","4","5","-1","0","0","2","-3","1","1","2","4","4","5","5","5","4","4","5","4","4","9","9","7","8","7","8","9","7","9","5","3","7","4","4","3","5","2","3","4","4","4","5","4","4","6","4","4","6","4","6","5","5","6","3","5","5","6","6","7","7","6","4","5","6","6","5","5","3","7","740167970172702721","陈","48","Female","[""好我"",""坏我"",""好她"",""坏她""]","[""强我"",""弱我"",""强她"",""弱她""]","","","","","","","","0","","","","","","","","","SRET","SRET_math_calculate","","key","0","16.66539639639689","683","380","","","","","1-1= ?","0","1","","","","","","",""
"1950","","2","psychophysics","113","698982","0.0-7.0-5.0-0.10","5","4","5","4","6","5","4","4","5","4","5","-1","0","0","2","-3","1","1","2","4","4","5","5","5","4","4","5","4","4","9","9","7","8","7","8","9","7","9","5","3","7","4","4","3","5","2","3","4","4","4","5","4","4","6","4","4","6","4","6","5","5","6","3","5","5","6","6","7","7","6","4","5","6","6","5","5","3","7","740167970172702721","陈","48","Female","[""好我"",""坏我"",""好她"",""坏她""]","[""强我"",""弱我"",""强她"",""弱她""]","","","","","","","","2","","","","","","","","","SRET","SRET_math_calculate","","key","2","16.665749999999615","683","380","","","","","29-27= ?","2","1","","","","","","",""
"1943","","4","psychophysics","114","700953","0.0-7.0-5.0-0.11","5","4","5","4","6","5","4","4","5","4","5","-1","0","0","2","-3","1","1","2","4","4","5","5","5","4","4","5","4","4","9","9","7","8","7","8","9","7","9","5","3","7","4","4","3","5","2","3","4","4","4","5","4","4","6","4","4","6","4","6","5","5","6","3","5","5","6","6","7","7","6","4","5","6","6","5","5","3","7","740167970172702721","陈","48","Female","[""好我"",""坏我"",""好她"",""坏她""]","[""强我"",""弱我"",""强她"",""弱她""]","","","","","","","","4","","","","","","","","","SRET","SRET_math_calculate","","key","4","16.66543589743515","683","380","","","","","20/5= ?","4","1","","","","","","",""
"1950","","8","psychophysics","115","702926","0.0-7.0-5.0-0.12","5","4","5","4","6","5","4","4","5","4","5","-1","0","0","2","-3","1","1","2","4","4","5","5","5","4","4","5","4","4","9","9","7","8","7","8","9","7","9","5","3","7","4","4","3","5","2","3","4","4","4","5","4","4","6","4","4","6","4","6","5","5","6","3","5","5","6","6","7","7","6","4","5","6","6","5","5","3","7","740167970172702721","陈","48","Female","[""好我"",""坏我"",""好她"",""坏她""]","[""强我"",""弱我"",""强她"",""弱她""]","","","","","","","","8","","","","","","","","","SRET","SRET_math_calculate","","key","8","16.665355932203287","683","380","","","","","1+7= ?","8","1","","","","","","",""
"1878","","5","psychophysics","116","704807","0.0-7.0-5.0-0.13","5","4","5","4","6","5","4","4","5","4","5","-1","0","0","2","-3","1","1","2","4","4","5","5","5","4","4","5","4","4","9","9","7","8","7","8","9","7","9","5","3","7","4","4","3","5","2","3","4","4","4","5","4","4","6","4","4","6","4","6","5","5","6","3","5","5","6","6","7","7","6","4","5","6","6","5","5","3","7","740167970172702721","陈","48","Female","[""好我"",""坏我"",""好她"",""坏她""]","[""强我"",""弱我"",""强她"",""弱她""]","","","","","","","","5","","","","","","","","","SRET","SRET_math_calculate","","key","5","16.665374999999976","683","380","","","","","3+2= ?","5","1","","","","","","",""
"1886","","2","psychophysics","117","706695","0.0-7.0-5.0-0.14","5","4","5","4","6","5","4","4","5","4","5","-1","0","0","2","-3","1","1","2","4","4","5","5","5","4","4","5","4","4","9","9","7","8","7","8","9","7","9","5","3","7","4","4","3","5","2","3","4","4","4","5","4","4","6","4","4","6","4","6","5","5","6","3","5","5","6","6","7","7","6","4","5","6","6","5","5","3","7","740167970172702721","陈","48","Female","[""好我"",""坏我"",""好她"",""坏她""]","[""强我"",""弱我"",""强她"",""弱她""]","","","","","","","","2","","","","","","","","","SRET","SRET_math_calculate","","key","2","16.66550892857153","683","380","","","","","12/6= ?","2","1","","","","","","",""
"1854","","4","psychophysics","118","708553","0.0-7.0-5.0-0.15","5","4","5","4","6","5","4","4","5","4","5","-1","0","0","2","-3","1","1","2","4","4","5","5","5","4","4","5","4","4","9","9","7","8","7","8","9","7","9","5","3","7","4","4","3","5","2","3","4","4","4","5","4","4","6","4","4","6","4","6","5","5","6","3","5","5","6","6","7","7","6","4","5","6","6","5","5","3","7","740167970172702721","陈","48","Female","[""好我"",""坏我"",""好她"",""坏她""]","[""强我"",""弱我"",""强她"",""弱她""]","","","","","","","","4","","","","","","","","","SRET","SRET_math_calculate","","key","4","16.665681818181607","683","380","","","","","4*1= ?","4","1","","","","","","",""
"1927","","3","psychophysics","119","710504","0.0-7.0-5.0-0.16","5","4","5","4","6","5","4","4","5","4","5","-1","0","0","2","-3","1","1","2","4","4","5","5","5","4","4","5","4","4","9","9","7","8","7","8","9","7","9","5","3","7","4","4","3","5","2","3","4","4","4","5","4","4","6","4","4","6","4","6","5","5","6","3","5","5","6","6","7","7","6","4","5","6","6","5","5","3","7","740167970172702721","陈","48","Female","[""好我"",""坏我"",""好她"",""坏她""]","[""强我"",""弱我"",""强她"",""弱她""]","","","","","","","","3","","","","","","","","","SRET","SRET_math_calculate","","key","3","16.66521367521431","683","380","","","","","21/7=  ?","3","1","","","","","","",""
"1964","","8","psychophysics","120","712472","0.0-7.0-5.0-0.17","5","4","5","4","6","5","4","4","5","4","5","-1","0","0","2","-3","1","1","2","4","4","5","5","5","4","4","5","4","4","9","9","7","8","7","8","9","7","9","5","3","7","4","4","3","5","2","3","4","4","4","5","4","4","6","4","4","6","4","6","5","5","6","3","5","5","6","6","7","7","6","4","5","6","6","5","5","3","7","740167970172702721","陈","48","Female","[""好我"",""坏我"",""好她"",""坏她""]","[""强我"",""弱我"",""强她"",""弱她""]","","","","","","","","8","","","","","","","","","SRET","SRET_math_calculate","","key","8","16.665820512820122","683","380","","","","","5+3= ?","8","1","","","","","","",""
"1882","","9","psychophysics","121","714358","0.0-7.0-5.0-0.18","5","4","5","4","6","5","4","4","5","4","5","-1","0","0","2","-3","1","1","2","4","4","5","5","5","4","4","5","4","4","9","9","7","8","7","8","9","7","9","5","3","7","4","4","3","5","2","3","4","4","4","5","4","4","6","4","4","6","4","6","5","5","6","3","5","5","6","6","7","7","6","4","5","6","6","5","5","3","7","740167970172702721","陈","48","Female","[""好我"",""坏我"",""好她"",""坏她""]","[""强我"",""弱我"",""强她"",""弱她""]","","","","","","","","9","","","","","","","","","SRET","SRET_math_calculate","","key","9","16.665473214286198","683","380","","","","","5+4= ?","9","1","","","","","","",""
"2024","","6","psychophysics","122","716384","0.0-7.0-5.0-0.19","5","4","5","4","6","5","4","4","5","4","5","-1","0","0","2","-3","1","1","2","4","4","5","5","5","4","4","5","4","4","9","9","7","8","7","8","9","7","9","5","3","7","4","4","3","5","2","3","4","4","4","5","4","4","6","4","4","6","4","6","5","5","6","3","5","5","6","6","7","7","6","4","5","6","6","5","5","3","7","740167970172702721","陈","48","Female","[""好我"",""坏我"",""好她"",""坏她""]","[""强我"",""弱我"",""强她"",""弱她""]","","","","","","","","6","","","","","","","","","SRET","SRET_math_calculate","","key","6","16.665483333333395","683","380","","","","","2+4= ?","6","1","","","","","","",""
"1945","","8","psychophysics","123","718337","0.0-7.0-5.0-0.20","5","4","5","4","6","5","4","4","5","4","5","-1","0","0","2","-3","1","1","2","4","4","5","5","5","4","4","5","4","4","9","9","7","8","7","8","9","7","9","5","3","7","4","4","3","5","2","3","4","4","4","5","4","4","6","4","4","6","4","6","5","5","6","3","5","5","6","6","7","7","6","4","5","6","6","5","5","3","7","740167970172702721","陈","48","Female","[""好我"",""坏我"",""好她"",""坏她""]","[""强我"",""弱我"",""强她"",""弱她""]","","","","","","","","8","","","","","","","","","SRET","SRET_math_calculate","","key","8","16.665698275862237","683","380","","","","","56/7= ?","8","1","","","","","","",""
"1912","","5","psychophysics","124","720254","0.0-7.0-5.0-0.21","5","4","5","4","6","5","4","4","5","4","5","-1","0","0","2","-3","1","1","2","4","4","5","5","5","4","4","5","4","4","9","9","7","8","7","8","9","7","9","5","3","7","4","4","3","5","2","3","4","4","4","5","4","4","6","4","4","6","4","6","5","5","6","3","5","5","6","6","7","7","6","4","5","6","6","5","5","3","7","740167970172702721","陈","48","Female","[""好我"",""坏我"",""好她"",""坏她""]","[""强我"",""弱我"",""强她"",""弱她""]","","","","","","","","5","","","","","","","","","SRET","SRET_math_calculate","","key","5","16.665895652173734","683","380","","","","","16-11= ?","5","1","","","","","","",""
"1907","","2","psychophysics","125","722187","0.0-7.0-5.0-0.22","5","4","5","4","6","5","4","4","5","4","5","-1","0","0","2","-3","1","1","2","4","4","5","5","5","4","4","5","4","4","9","9","7","8","7","8","9","7","9","5","3","7","4","4","3","5","2","3","4","4","4","5","4","4","6","4","4","6","4","6","5","5","6","3","5","5","6","6","7","7","6","4","5","6","6","5","5","3","7","740167970172702721","陈","48","Female","[""好我"",""坏我"",""好她"",""坏她""]","[""强我"",""弱我"",""强她"",""弱她""]","","","","","","","","2","","","","","","","","","SRET","SRET_math_calculate","","key","2","16.665815789474117","683","380","","","","","18/9= ?","2","1","","","","","","",""
"1901","","4","psychophysics","126","724094","0.0-7.0-5.0-0.23","5","4","5","4","6","5","4","4","5","4","5","-1","0","0","2","-3","1","1","2","4","4","5","5","5","4","4","5","4","4","9","9","7","8","7","8","9","7","9","5","3","7","4","4","3","5","2","3","4","4","4","5","4","4","6","4","4","6","4","6","5","5","6","3","5","5","6","6","7","7","6","4","5","6","6","5","5","3","7","740167970172702721","陈","48","Female","[""好我"",""坏我"",""好她"",""坏她""]","[""强我"",""弱我"",""强她"",""弱她""]","","","","","","","","4","","","","","","","","","SRET","SRET_math_calculate","","key","4","16.665438596491107","683","380","","","","","8-4= ?","4","1","","","","","","",""
"1806","","2","psychophysics","127","725904","0.0-7.0-5.0-0.24","5","4","5","4","6","5","4","4","5","4","5","-1","0","0","2","-3","1","1","2","4","4","5","5","5","4","4","5","4","4","9","9","7","8","7","8","9","7","9","5","3","7","4","4","3","5","2","3","4","4","4","5","4","4","6","4","4","6","4","6","5","5","6","3","5","5","6","6","7","7","6","4","5","6","6","5","5","3","7","740167970172702721","陈","48","Female","[""好我"",""坏我"",""好她"",""坏她""]","[""强我"",""弱我"",""强她"",""弱她""]","","","","","","","","2","","","","","","","","","SRET","SRET_math_calculate","","key","2","16.66549074074094","683","380","","","","","8-6= ?","2","1","","","","","","",""
"2108","","8","psychophysics","128","728014","0.0-7.0-5.0-0.25","5","4","5","4","6","5","4","4","5","4","5","-1","0","0","2","-3","1","1","2","4","4","5","5","5","4","4","5","4","4","9","9","7","8","7","8","9","7","9","5","3","7","4","4","3","5","2","3","4","4","4","5","4","4","6","4","4","6","4","6","5","5","6","3","5","5","6","6","7","7","6","4","5","6","6","5","5","3","7","740167970172702721","陈","48","Female","[""好我"",""坏我"",""好她"",""坏她""]","[""强我"",""弱我"",""强她"",""弱她""]","","","","","","","","8","","","","","","","","","SRET","SRET_math_calculate","","key","8","16.665207999999634","683","380","","","","","4+4= ?","8","1","","","","","","",""
"1898","","4","psychophysics","129","729942","0.0-7.0-5.0-0.26","5","4","5","4","6","5","4","4","5","4","5","-1","0","0","2","-3","1","1","2","4","4","5","5","5","4","4","5","4","4","9","9","7","8","7","8","9","7","9","5","3","7","4","4","3","5","2","3","4","4","4","5","4","4","6","4","4","6","4","6","5","5","6","3","5","5","6","6","7","7","6","4","5","6","6","5","5","3","7","740167970172702721","陈","48","Female","[""好我"",""坏我"",""好她"",""坏她""]","[""强我"",""弱我"",""强她"",""弱她""]","","","","","","","","4","","","","","","","","","SRET","SRET_math_calculate","","key","4","16.666043478260626","683","380","","","","","13-9= ?","4","1","","","","","","",""
"1831","","7","psychophysics","130","731774","0.0-7.0-5.0-0.27","5","4","5","4","6","5","4","4","5","4","5","-1","0","0","2","-3","1","1","2","4","4","5","5","5","4","4","5","4","4","9","9","7","8","7","8","9","7","9","5","3","7","4","4","3","5","2","3","4","4","4","5","4","4","6","4","4","6","4","6","5","5","6","3","5","5","6","6","7","7","6","4","5","6","6","5","5","3","7","740167970172702721","陈","48","Female","[""好我"",""坏我"",""好她"",""坏她""]","[""强我"",""弱我"",""强她"",""弱她""]","","","","","","","","7","","","","","","","","","SRET","SRET_math_calculate","","key","7","16.664798165137512","683","380","","","","","6+1= ?","7","1","","","","","","",""
"2063","","3","psychophysics","131","733840","0.0-7.0-5.0-0.28","5","4","5","4","6","5","4","4","5","4","5","-1","0","0","2","-3","1","1","2","4","4","5","5","5","4","4","5","4","4","9","9","7","8","7","8","9","7","9","5","3","7","4","4","3","5","2","3","4","4","4","5","4","4","6","4","4","6","4","6","5","5","6","3","5","5","6","6","7","7","6","4","5","6","6","5","5","3","7","740167970172702721","陈","48","Female","[""好我"",""坏我"",""好她"",""坏她""]","[""强我"",""弱我"",""强她"",""弱她""]","","","","","","","","3","","","","","","","","","SRET","SRET_math_calculate","","key","3","16.665634146341638","683","380","","","","","9-6= ?","3","1","","","","","","",""
"1878","","7","psychophysics","132","735722","0.0-7.0-5.0-0.29","5","4","5","4","6","5","4","4","5","4","5","-1","0","0","2","-3","1","1","2","4","4","5","5","5","4","4","5","4","4","9","9","7","8","7","8","9","7","9","5","3","7","4","4","3","5","2","3","4","4","4","5","4","4","6","4","4","6","4","6","5","5","6","3","5","5","6","6","7","7","6","4","5","6","6","5","5","3","7","740167970172702721","陈","48","Female","[""好我"",""坏我"",""好她"",""坏她""]","[""强我"",""弱我"",""强她"",""弱她""]","","","","","","","","7","","","","","","","","","SRET","SRET_math_calculate","","key","7","16.66558035714323","683","380","","","","","3+4= ?","7","1","","","","","","",""
"2045","","6","psychophysics","133","737769","0.0-7.0-5.0-0.30","5","4","5","4","6","5","4","4","5","4","5","-1","0","0","2","-3","1","1","2","4","4","5","5","5","4","4","5","4","4","9","9","7","8","7","8","9","7","9","5","3","7","4","4","3","5","2","3","4","4","4","5","4","4","6","4","4","6","4","6","5","5","6","3","5","5","6","6","7","7","6","4","5","6","6","5","5","3","7","740167970172702721","陈","48","Female","[""好我"",""坏我"",""好她"",""坏她""]","[""强我"",""弱我"",""强她"",""弱她""]","","","","","","","","6","","","","","","","","","SRET","SRET_math_calculate","","key","6","16.665578512396962","683","380","","","","","3+3= ?","6","1","","","","","","",""
"1802","","0","psychophysics","134","739586","0.0-7.0-5.0-0.31","5","4","5","4","6","5","4","4","5","4","5","-1","0","0","2","-3","1","1","2","4","4","5","5","5","4","4","5","4","4","9","9","7","8","7","8","9","7","9","5","3","7","4","4","3","5","2","3","4","4","4","5","4","4","6","4","4","6","4","6","5","5","6","3","5","5","6","6","7","7","6","4","5","6","6","5","5","3","7","740167970172702721","陈","48","Female","[""好我"",""坏我"",""好她"",""坏她""]","[""强我"",""弱我"",""强她"",""弱她""]","","","","","","","","0","","","","","","","","","SRET","SRET_math_calculate","","key","0","16.665120370370225","683","380","","","","","6*0= ?","0","1","","","","","","",""
"1889","","7","psychophysics","135","741479","0.0-7.0-5.0-0.32","5","4","5","4","6","5","4","4","5","4","5","-1","0","0","2","-3","1","1","2","4","4","5","5","5","4","4","5","4","4","9","9","7","8","7","8","9","7","9","5","3","7","4","4","3","5","2","3","4","4","4","5","4","4","6","4","4","6","4","6","5","5","6","3","5","5","6","6","7","7","6","4","5","6","6","5","5","3","7","740167970172702721","陈","48","Female","[""好我"",""坏我"",""好她"",""坏她""]","[""强我"",""弱我"",""强她"",""弱她""]","","","","","","","","7","","","","","","","","","SRET","SRET_math_calculate","","key","7","16.665415929203885","683","380","","","","","5+2= ?","7","1","","","","","","",""
"1935","","7","psychophysics","136","743415","0.0-7.0-5.0-0.33","5","4","5","4","6","5","4","4","5","4","5","-1","0","0","2","-3","1","1","2","4","4","5","5","5","4","4","5","4","4","9","9","7","8","7","8","9","7","9","5","3","7","4","4","3","5","2","3","4","4","4","5","4","4","6","4","4","6","4","6","5","5","6","3","5","5","6","6","7","7","6","4","5","6","6","5","5","3","7","740167970172702721","陈","48","Female","[""好我"",""坏我"",""好她"",""坏她""]","[""强我"",""弱我"",""强她"",""弱她""]","","","","","","","","7","","","","","","","","","SRET","SRET_math_calculate","","key","7","16.66521739130435","683","380","","","","","13-6= ?","7","1","","","","","","",""
"1866","","5","psychophysics","137","745288","0.0-7.0-5.0-0.34","5","4","5","4","6","5","4","4","5","4","5","-1","0","0","2","-3","1","1","2","4","4","5","5","5","4","4","5","4","4","9","9","7","8","7","8","9","7","9","5","3","7","4","4","3","5","2","3","4","4","4","5","4","4","6","4","4","6","4","6","5","5","6","3","5","5","6","6","7","7","6","4","5","6","6","5","5","3","7","740167970172702721","陈","48","Female","[""好我"",""坏我"",""好她"",""坏她""]","[""强我"",""弱我"",""强她"",""弱她""]","","","","","","","","5","","","","","","","","","SRET","SRET_math_calculate","","key","5","16.665464285714343","683","380","","","","","4+1= ?","5","1","","","","","","",""
"1798","","4","psychophysics","138","747087","0.0-7.0-5.0-0.35","5","4","5","4","6","5","4","4","5","4","5","-1","0","0","2","-3","1","1","2","4","4","5","5","5","4","4","5","4","4","9","9","7","8","7","8","9","7","9","5","3","7","4","4","3","5","2","3","4","4","4","5","4","4","6","4","4","6","4","6","5","5","6","3","5","5","6","6","7","7","6","4","5","6","6","5","5","3","7","740167970172702721","陈","48","Female","[""好我"",""坏我"",""好她"",""坏她""]","[""强我"",""弱我"",""强她"",""弱她""]","","","","","","","","4","","","","","","","","","SRET","SRET_math_calculate","","key","4","16.66602803738331","683","380","","","","","3+1= ?","4","1","","","","","","",""
"1870","","3","psychophysics","139","748959","0.0-7.0-5.0-0.36","5","4","5","4","6","5","4","4","5","4","5","-1","0","0","2","-3","1","1","2","4","4","5","5","5","4","4","5","4","4","9","9","7","8","7","8","9","7","9","5","3","7","4","4","3","5","2","3","4","4","4","5","4","4","6","4","4","6","4","6","5","5","6","3","5","5","6","6","7","7","6","4","5","6","6","5","5","3","7","740167970172702721","陈","48","Female","[""好我"",""坏我"",""好她"",""坏她""]","[""强我"",""弱我"",""强她"",""弱她""]","","","","","","","","3","","","","","","","","","SRET","SRET_math_calculate","","key","3","16.664900900900935","683","380","","","","","2+1= ?","3","1","","","","","","",""
"1925","","6","psychophysics","140","750888","0.0-7.0-5.0-0.37","5","4","5","4","6","5","4","4","5","4","5","-1","0","0","2","-3","1","1","2","4","4","5","5","5","4","4","5","4","4","9","9","7","8","7","8","9","7","9","5","3","7","4","4","3","5","2","3","4","4","4","5","4","4","6","4","4","6","4","6","5","5","6","3","5","5","6","6","7","7","6","4","5","6","6","5","5","3","7","740167970172702721","陈","48","Female","[""好我"",""坏我"",""好她"",""坏她""]","[""强我"",""弱我"",""强她"",""弱她""]","","","","","","","","6","","","","","","","","","SRET","SRET_math_calculate","","key","6","16.665695652173348","683","380","","","","","11-5= ?","6","1","","","","","","",""
"2405","","9","psychophysics","141","753295","0.0-7.0-5.0-0.38","5","4","5","4","6","5","4","4","5","4","5","-1","0","0","2","-3","1","1","2","4","4","5","5","5","4","4","5","4","4","9","9","7","8","7","8","9","7","9","5","3","7","4","4","3","5","2","3","4","4","4","5","4","4","6","4","4","6","4","6","5","5","6","3","5","5","6","6","7","7","6","4","5","6","6","5","5","3","7","740167970172702721","陈","48","Female","[""好我"",""坏我"",""好她"",""坏她""]","[""强我"",""弱我"",""强她"",""弱她""]","","","","","","","","9","","","","","","","","","SRET","SRET_math_calculate","","key","9","16.665545454545114","683","380","","","","","43-34= ?","9","1","","","","","","",""
"2191","","6","psychophysics","142","755487","0.0-7.0-5.0-0.39","5","4","5","4","6","5","4","4","5","4","5","-1","0","0","2","-3","1","1","2","4","4","5","5","5","4","4","5","4","4","9","9","7","8","7","8","9","7","9","5","3","7","4","4","3","5","2","3","4","4","4","5","4","4","6","4","4","6","4","6","5","5","6","3","5","5","6","6","7","7","6","4","5","6","6","5","5","3","7","740167970172702721","陈","48","Female","[""好我"",""坏我"",""好她"",""坏她""]","[""强我"",""弱我"",""强她"",""弱她""]","","","","","","","","6","","","","","","","","","SRET","SRET_math_calculate","","key","6","16.665351145037892","683","380","","","","","3*2= ?","6","1","","","","","","",""
"2031","","9","psychophysics","143","757519","0.0-7.0-5.0-0.40","5","4","5","4","6","5","4","4","5","4","5","-1","0","0","2","-3","1","1","2","4","4","5","5","5","4","4","5","4","4","9","9","7","8","7","8","9","7","9","5","3","7","4","4","3","5","2","3","4","4","4","5","4","4","6","4","4","6","4","6","5","5","6","3","5","5","6","6","7","7","6","4","5","6","6","5","5","3","7","740167970172702721","陈","48","Female","[""好我"",""坏我"",""好她"",""坏她""]","[""强我"",""弱我"",""强她"",""弱她""]","","","","","","","","9","","","","","","","","","SRET","SRET_math_calculate","","key","9","16.66535537190108","683","380","","","","","2+7= ?","9","1","","","","","","",""
