"rt","stimulus","response","trial_type","trial_index","time_elapsed","internal_node_id","swb_1","swb_2","swb_3","swb_4","swb_5","LOT_1","LOT_2","LOT_3","LOT_4","LOT_5","LOT_6","IPC_1","IPC_2","IPC_3","IPC_4","IPC_5","IPC_6","IPC_7","IPC_8","MorIden_1","MorIden_2","MorIden_3","MorIden_4","MorIden_5","MorIden_6","MorIden_7","MorIden_8","MorIden_9","MorIden_10","moralSeImag_1","moralSeImag_2","moralSeImag_3","moralSeImag_4","moralSeImag_5","moralSeImag_6","moralSeImag_7","moralSeImag_8","moralSeImag_9","sde_1","sde_2","sde_3","sde_4","sde_5","sde_6","sde_7","sde_8","sde_9","sde_10","sde_11","sde_12","sde_13","sde_14","sde_15","sde_16","sde_17","sde_18","sde_19","sde_20","IM_1","IM_2","IM_3","IM_4","IM_5","IM_6","IM_7","IM_8","IM_9","IM_10","IM_11","IM_12","IM_13","IM_14","IM_15","IM_16","IM_17","IM_18","IM_19","IM_20","subj_idx","friend_name","ParticipantID","Sex","Word","Word2","value","success","timeout","failed_images","failed_audio","failed_video","user_agent","responses","item_order","radio_event_ids","radio_event_times","key_event_times","mouse_event_times","straightlining","zigzagging","honeypot","view_history","response_type","key_press","avg_frame_time","center_x","center_y","correct_response","correct","identity","Image","word","condition","task_id","screen_id","time_stamp","person","valence","domain","math","status","duration","question_order"
"6575","
   <p><div style='color:white; font-size: 25px'>您好，欢迎参加本次实验。</div></p>
   <p><div style='color:white; font-size: 25px'>为充分保障您的权利，请确保您已经知晓并同意《参与实验同意书》以及《数据公开知情同意书》。</div></p>
   <p><div style='color:white; font-size: 25px'>如果您未见过上述内容，请咨询实验员。</div></p>
   <p style='color:white; font-size: 25px'>如果您选择继续实验，则表示您已经清楚两份知情同意书的内容并同意。</p>
   <p><div style = ""color: red;font-size:30px;"">请确保您记得day0的实验编号，您将在本次实验输入该编号，若您忘记，请咨询实验员后作答。</div></p>
   <p> <div style = ""color: green""><按空格键至下页></div> </p>
   "," ","html-keyboard-response","0","6578","0.0-0.0","5","4","5","5","5","4","3","4","4","4","4","1","-2","1","-2","0","1","1","1","5","4","5","4","3","4","4","4","4","4","4","7","7","6","6","7","5","6","6","5","5","5","4","5","3","3","4","5","4","5","3","4","5","2","3","4","3","5","5","2","2","3","3","3","3","3","5","5","5","7","3","5","7","2","6","3","7","3","6","574675236746690560","杨","21","Female","[""坏她"",""坏我"",""好她"",""好我""]","[""弱她"",""弱我"",""强她"",""强我""]","","","","","","","","","","","","","","","","","","","","","","","","","","","","","","","","","","","","","",""
"","","","call-function","1","6580","0.0-1.0-0.0","5","4","5","5","5","4","3","4","4","4","4","1","-2","1","-2","0","1","1","1","5","4","5","4","3","4","4","4","4","4","4","7","7","6","6","7","5","6","6","5","5","5","4","5","3","3","4","5","4","5","3","4","5","2","3","4","3","5","5","2","2","3","3","3","3","3","5","5","5","7","3","5","7","2","6","3","7","3","6","574675236746690560","杨","21","Female","[""坏她"",""坏我"",""好她"",""好我""]","[""弱她"",""弱我"",""强她"",""强我""]","","","","","","","","","","","","","","","","","","","","","","","","","","","","","","","","","","","","","",""
"21848","","[{""name"":""Sex"",""value"":""1""},{""name"":""friend_name"",""value"":""杨""},{""name"":""ParticipantID"",""value"":""21""}]","survey-html-form","2","28429","0.0-1.0-1.0","5","4","5","5","5","4","3","4","4","4","4","1","-2","1","-2","0","1","1","1","5","4","5","4","3","4","4","4","4","4","4","7","7","6","6","7","5","6","6","5","5","5","4","5","3","3","4","5","4","5","3","4","5","2","3","4","3","5","5","2","2","3","3","3","3","3","5","5","5","7","3","5","7","2","6","3","7","3","6","574675236746690560","杨","21","Female","[""坏她"",""坏我"",""好她"",""好我""]","[""弱她"",""弱我"",""强她"",""强我""]","","","","","","","","","","","","","","","","","","","","","","","","","","","","","","","","","","","","","",""
"","","","preload","3","29133","0.0-2.0","5","4","5","5","5","4","3","4","4","4","4","1","-2","1","-2","0","1","1","1","5","4","5","4","3","4","4","4","4","4","4","7","7","6","6","7","5","6","6","5","5","5","4","5","3","3","4","5","4","5","3","4","5","2","3","4","3","5","5","2","2","3","3","3","3","3","5","5","5","7","3","5","7","2","6","3","7","3","6","574675236746690560","杨","21","Female","[""坏她"",""坏我"",""好她"",""好我""]","[""弱她"",""弱我"",""强她"",""强我""]","","true","false","[]","[]","[]","","","","","","","","","","","","","","","","","","","","","","","","","","","","","","","",""
"","","","fullscreen","4","30617","0.0-3.0","5","4","5","5","5","4","3","4","4","4","4","1","-2","1","-2","0","1","1","1","5","4","5","4","3","4","4","4","4","4","4","7","7","6","6","7","5","6","6","5","5","5","4","5","3","3","4","5","4","5","3","4","5","2","3","4","3","5","5","2","2","3","3","3","3","3","5","5","5","7","3","5","7","2","6","3","7","3","6","574675236746690560","杨","21","Female","[""坏她"",""坏我"",""好她"",""好我""]","[""弱她"",""弱我"",""强她"",""强我""]","","true","","","","","{}","","","","","","","","","","","","","","","","","","","","","","","","","","","","","","",""
"8330.10000000894","","{""Q01"":""5"",""Q02"":""4"",""Q03"":""5"",""Q04"":""5"",""Q05"":""5""}","survey-template","5","38950","0.0-4.0","5","4","5","5","5","4","3","4","4","4","4","1","-2","1","-2","0","1","1","1","5","4","5","4","3","4","4","4","4","4","4","7","7","6","6","7","5","6","6","5","5","5","4","5","3","3","4","5","4","5","3","4","5","2","3","4","3","5","5","2","2","3","3","3","3","3","5","5","5","7","3","5","7","2","6","3","7","3","6","574675236746690560","杨","21","Female","[""坏她"",""坏我"",""好她"",""好我""]","[""弱她"",""弱我"",""强她"",""强我""]","","","","","","","","{""Q01"":""5"",""Q02"":""4"",""Q03"":""5"",""Q04"":""5"",""Q05"":""5""}","[0,1,2,3,4]","[""Q01"",""Q02"",""Q03"",""Q04"",""Q05""]","[2472.7000000029802,3937.1000000089407,5360.9000000059605,6497,7568.9000000059605]","[]","[2472.7000000029802,3937.1000000089407,5360.9000000059605,6497,7568.9000000059605,8328.60000000894]","0.8","0.5","0","","","","","","","","","","","","","","","","","","","","","",""
"12665.70000000298","","{""Q01"":""4"",""Q02"":""3"",""Q03"":""4"",""Q04"":""4"",""Q05"":""4"",""Q06"":""4""}","survey-template","6","51622","0.0-5.0","5","4","5","5","5","4","3","4","4","4","4","1","-2","1","-2","0","1","1","1","5","4","5","4","3","4","4","4","4","4","4","7","7","6","6","7","5","6","6","5","5","5","4","5","3","3","4","5","4","5","3","4","5","2","3","4","3","5","5","2","2","3","3","3","3","3","5","5","5","7","3","5","7","2","6","3","7","3","6","574675236746690560","杨","21","Female","[""坏她"",""坏我"",""好她"",""好我""]","[""弱她"",""弱我"",""强她"",""强我""]","","","","","","","","{""Q01"":""4"",""Q02"":""3"",""Q03"":""4"",""Q04"":""4"",""Q05"":""4"",""Q06"":""4""}","[0,1,2,3,4,5]","[""Q01"",""Q02"",""Q03"",""Q04"",""Q05"",""Q06""]","[3784.7000000029802,5088.70000000298,6128.300000011921,8304.60000000894,9400.70000000298,11775.70000000298]","[]","[2224.6000000089407,3784.7000000029802,5088.70000000298,6128.300000011921,8304.60000000894,9400.70000000298,11775.70000000298,12664.40000000596]","0.5","0.4","0","","","","","","","","","","","","","","","","","","","","","",""
"32659.70000000298","","{""Q01"":""1"",""Q02"":""-2"",""Q03"":""1"",""Q04"":""-2"",""Q05"":""0"",""Q06"":""1"",""Q07"":""1"",""Q08"":""1""}","survey-template","7","84287","0.0-6.0","5","4","5","5","5","4","3","4","4","4","4","1","-2","1","-2","0","1","1","1","5","4","5","4","3","4","4","4","4","4","4","7","7","6","6","7","5","6","6","5","5","5","4","5","3","3","4","5","4","5","3","4","5","2","3","4","3","5","5","2","2","3","3","3","3","3","5","5","5","7","3","5","7","2","6","3","7","3","6","574675236746690560","杨","21","Female","[""坏她"",""坏我"",""好她"",""好我""]","[""弱她"",""弱我"",""强她"",""强我""]","","","","","","","","{""Q01"":""1"",""Q02"":""-2"",""Q03"":""1"",""Q04"":""-2"",""Q05"":""0"",""Q06"":""1"",""Q07"":""1"",""Q08"":""1""}","[0,1,2,3,4,5,6,7]","[""Q01"",""Q03"",""Q04"",""Q05"",""Q06"",""Q07"",""Q08"",""Q03"",""Q03"",""Q02""]","[2841.7999999970198,6946.0999999940395,8881.70000000298,10242.09999999404,12001.59999999404,16017.79999999702,19482.09999999404,23522.09999999404,24898.29999999702,31753.89999999106]","[]","[2841.7999999970198,5058.29999999702,6946.0999999940395,8881.70000000298,10242.09999999404,12001.59999999404,14306.20000000298,16017.79999999702,19482.09999999404,20370.20000000298,23522.09999999404,24898.29999999702,27210.29999999702,31753.89999999106,32657.79999999702]","0.625","0.14285714285714285","0","","","","","","","","","","","","","","","","","","","","","",""
"7570","","","instructions","8","91861","0.0-7.0","5","4","5","5","5","4","3","4","4","4","4","1","-2","1","-2","0","1","1","1","5","4","5","4","3","4","4","4","4","4","4","7","7","6","6","7","5","6","6","5","5","5","4","5","3","3","4","5","4","5","3","4","5","2","3","4","3","5","5","2","2","3","3","3","3","3","5","5","5","7","3","5","7","2","6","3","7","3","6","574675236746690560","杨","21","Female","[""坏她"",""坏我"",""好她"",""好我""]","[""弱她"",""弱我"",""强她"",""强我""]","","","","","","","","","","","","","","","","","[{""page_index"":0,""viewing_time"":7570}]","","","","","","","","","","","","","","","","","","","","",""
"39413","","","instructions","9","131276","0.0-8.0-1.0-0.0","5","4","5","5","5","4","3","4","4","4","4","1","-2","1","-2","0","1","1","1","5","4","5","4","3","4","4","4","4","4","4","7","7","6","6","7","5","6","6","5","5","5","4","5","3","3","4","5","4","5","3","4","5","2","3","4","3","5","5","2","2","3","3","3","3","3","5","5","5","7","3","5","7","2","6","3","7","3","6","574675236746690560","杨","21","Female","[""坏她"",""坏我"",""好她"",""好我""]","[""弱她"",""弱我"",""强她"",""强我""]","","","","","","","","","","","","","","","","","[{""page_index"":0,""viewing_time"":6429},{""page_index"":1,""viewing_time"":29136},{""page_index"":2,""viewing_time"":1792},{""page_index"":3,""viewing_time"":2056}]","","","","","","","","","","","","","","","","","","","","",""
"227","","j","psychophysics","10","133147","0.0-8.0-1.0-1.0-0.0-0.0","5","4","5","5","5","4","3","4","4","4","4","1","-2","1","-2","0","1","1","1","5","4","5","4","3","4","4","4","4","4","4","7","7","6","6","7","5","6","6","5","5","5","4","5","3","3","4","5","4","5","3","4","5","2","3","4","3","5","5","2","2","3","3","3","3","3","5","5","5","7","3","5","7","2","6","3","7","3","6","574675236746690560","杨","21","Female","[""坏她"",""坏我"",""好她"",""好我""]","[""弱她"",""弱我"",""强她"",""强我""]","","","","","","","","match","","","","","","","","","","key","j","16.66816216216214","640","356","j","true","match","img/pentagon.png","弱我","弱我","prac_ALT2_ability","practice_ability","","","","","","","",""
"null","<span style='color:GreenYellow; font-size: 70px;'>正确! </span>","null","html-keyboard-response","11","133650","0.0-8.0-1.0-1.0-0.0-1.0","5","4","5","5","5","4","3","4","4","4","4","1","-2","1","-2","0","1","1","1","5","4","5","4","3","4","4","4","4","4","4","7","7","6","6","7","5","6","6","5","5","5","4","5","3","3","4","5","4","5","3","4","5","2","3","4","3","5","5","2","2","3","3","3","3","3","5","5","5","7","3","5","7","2","6","3","7","3","6","574675236746690560","杨","21","Female","[""坏她"",""坏我"",""好她"",""好我""]","[""弱她"",""弱我"",""强她"",""强我""]","","","","","","","","","","","","","","","","","","","","","","","","","","","","","","feedback_test","","","","","","","",""
"803","","j","psychophysics","12","135455","0.0-8.0-1.0-1.0-0.0-0.1","5","4","5","5","5","4","3","4","4","4","4","1","-2","1","-2","0","1","1","1","5","4","5","4","3","4","4","4","4","4","4","7","7","6","6","7","5","6","6","5","5","5","4","5","3","3","4","5","4","5","3","4","5","2","3","4","3","5","5","2","2","3","3","3","3","3","5","5","5","7","3","5","7","2","6","3","7","3","6","574675236746690560","杨","21","Female","[""坏她"",""坏我"",""好她"",""好我""]","[""弱她"",""弱我"",""强她"",""强我""]","","","","","","","","match","","","","","","","","","","key","j","16.665822429906427","640","356","j","true","match","img/circle.png","强我","强我","prac_ALT2_ability","practice_ability","","","","","","","",""
"null","<span style='color:GreenYellow; font-size: 70px;'>正确! </span>","null","html-keyboard-response","13","135969","0.0-8.0-1.0-1.0-0.0-1.1","5","4","5","5","5","4","3","4","4","4","4","1","-2","1","-2","0","1","1","1","5","4","5","4","3","4","4","4","4","4","4","7","7","6","6","7","5","6","6","5","5","5","4","5","3","3","4","5","4","5","3","4","5","2","3","4","3","5","5","2","2","3","3","3","3","3","5","5","5","7","3","5","7","2","6","3","7","3","6","574675236746690560","杨","21","Female","[""坏她"",""坏我"",""好她"",""好我""]","[""弱她"",""弱我"",""强她"",""强我""]","","","","","","","","","","","","","","","","","","","","","","","","","","","","","","feedback_test","","","","","","","",""
"842","","f","psychophysics","14","137815","0.0-8.0-1.0-1.0-0.0-0.2","5","4","5","5","5","4","3","4","4","4","4","1","-2","1","-2","0","1","1","1","5","4","5","4","3","4","4","4","4","4","4","7","7","6","6","7","5","6","6","5","5","5","4","5","3","3","4","5","4","5","3","4","5","2","3","4","3","5","5","2","2","3","3","3","3","3","5","5","5","7","3","5","7","2","6","3","7","3","6","574675236746690560","杨","21","Female","[""坏她"",""坏我"",""好她"",""好我""]","[""弱她"",""弱我"",""强她"",""强我""]","","","","","","","","nonmatch","","","","","","","","","","key","f","16.667681818181883","640","356","f","true","nonmatch","img/circle.png","弱我","强我","prac_ALT2_ability","practice_ability","","","","","","","",""
"null","<span style='color:GreenYellow; font-size: 70px;'>正确! </span>","null","html-keyboard-response","15","138918","0.0-8.0-1.0-1.0-0.0-1.2","5","4","5","5","5","4","3","4","4","4","4","1","-2","1","-2","0","1","1","1","5","4","5","4","3","4","4","4","4","4","4","7","7","6","6","7","5","6","6","5","5","5","4","5","3","3","4","5","4","5","3","4","5","2","3","4","3","5","5","2","2","3","3","3","3","3","5","5","5","7","3","5","7","2","6","3","7","3","6","574675236746690560","杨","21","Female","[""坏她"",""坏我"",""好她"",""好我""]","[""弱她"",""弱我"",""强她"",""强我""]","","","","","","","","","","","","","","","","","","","","","","","","","","","","","","feedback_test","","","","","","","",""
"764","","j","psychophysics","16","140685","0.0-8.0-1.0-1.0-0.0-0.3","5","4","5","5","5","4","3","4","4","4","4","1","-2","1","-2","0","1","1","1","5","4","5","4","3","4","4","4","4","4","4","7","7","6","6","7","5","6","6","5","5","5","4","5","3","3","4","5","4","5","3","4","5","2","3","4","3","5","5","2","2","3","3","3","3","3","5","5","5","7","3","5","7","2","6","3","7","3","6","574675236746690560","杨","21","Female","[""坏她"",""坏我"",""好她"",""好我""]","[""弱她"",""弱我"",""强她"",""强我""]","","","","","","","","match","","","","","","","","","","key","j","16.670580952380885","640","356","f","false","nonmatch","img/square.png","强她","弱她","prac_ALT2_ability","practice_ability","","","","","","","",""
"null","<span style='color:red; font-size: 70px;'>错误! </span>","null","html-keyboard-response","17","141188","0.0-8.0-1.0-1.0-0.0-1.3","5","4","5","5","5","4","3","4","4","4","4","1","-2","1","-2","0","1","1","1","5","4","5","4","3","4","4","4","4","4","4","7","7","6","6","7","5","6","6","5","5","5","4","5","3","3","4","5","4","5","3","4","5","2","3","4","3","5","5","2","2","3","3","3","3","3","5","5","5","7","3","5","7","2","6","3","7","3","6","574675236746690560","杨","21","Female","[""坏她"",""坏我"",""好她"",""好我""]","[""弱她"",""弱我"",""强她"",""强我""]","","","","","","","","","","","","","","","","","","","","","","","","","","","","","","feedback_test","","","","","","","",""
"863","","f","psychophysics","18","143053","0.0-8.0-1.0-1.0-0.0-0.4","5","4","5","5","5","4","3","4","4","4","4","1","-2","1","-2","0","1","1","1","5","4","5","4","3","4","4","4","4","4","4","7","7","6","6","7","5","6","6","5","5","5","4","5","3","3","4","5","4","5","3","4","5","2","3","4","3","5","5","2","2","3","3","3","3","3","5","5","5","7","3","5","7","2","6","3","7","3","6","574675236746690560","杨","21","Female","[""坏她"",""坏我"",""好她"",""好我""]","[""弱她"",""弱我"",""强她"",""强我""]","","","","","","","","nonmatch","","","","","","","","","","key","f","16.670468468468652","640","356","f","true","nonmatch","img/square.png","弱我","弱她","prac_ALT2_ability","practice_ability","","","","","","","",""
"null","<span style='color:GreenYellow; font-size: 70px;'>正确! </span>","null","html-keyboard-response","19","143554","0.0-8.0-1.0-1.0-0.0-1.4","5","4","5","5","5","4","3","4","4","4","4","1","-2","1","-2","0","1","1","1","5","4","5","4","3","4","4","4","4","4","4","7","7","6","6","7","5","6","6","5","5","5","4","5","3","3","4","5","4","5","3","4","5","2","3","4","3","5","5","2","2","3","3","3","3","3","5","5","5","7","3","5","7","2","6","3","7","3","6","574675236746690560","杨","21","Female","[""坏她"",""坏我"",""好她"",""好我""]","[""弱她"",""弱我"",""强她"",""强我""]","","","","","","","","","","","","","","","","","","","","","","","","","","","","","","feedback_test","","","","","","","",""
"846","","j","psychophysics","20","145406","0.0-8.0-1.0-1.0-0.0-0.5","5","4","5","5","5","4","3","4","4","4","4","1","-2","1","-2","0","1","1","1","5","4","5","4","3","4","4","4","4","4","4","7","7","6","6","7","5","6","6","5","5","5","4","5","3","3","4","5","4","5","3","4","5","2","3","4","3","5","5","2","2","3","3","3","3","3","5","5","5","7","3","5","7","2","6","3","7","3","6","574675236746690560","杨","21","Female","[""坏她"",""坏我"",""好她"",""好我""]","[""弱她"",""弱我"",""强她"",""强我""]","","","","","","","","match","","","","","","","","","","key","j","16.65916363636365","640","356","j","true","match","img/pentagon.png","弱我","弱我","prac_ALT2_ability","practice_ability","","","","","","","",""
"null","<span style='color:GreenYellow; font-size: 70px;'>正确! </span>","null","html-keyboard-response","21","145919","0.0-8.0-1.0-1.0-0.0-1.5","5","4","5","5","5","4","3","4","4","4","4","1","-2","1","-2","0","1","1","1","5","4","5","4","3","4","4","4","4","4","4","7","7","6","6","7","5","6","6","5","5","5","4","5","3","3","4","5","4","5","3","4","5","2","3","4","3","5","5","2","2","3","3","3","3","3","5","5","5","7","3","5","7","2","6","3","7","3","6","574675236746690560","杨","21","Female","[""坏她"",""坏我"",""好她"",""好我""]","[""弱她"",""弱我"",""强她"",""强我""]","","","","","","","","","","","","","","","","","","","","","","","","","","","","","","feedback_test","","","","","","","",""
"81","","f","psychophysics","22","148000","0.0-8.0-1.0-1.0-0.0-0.6","5","4","5","5","5","4","3","4","4","4","4","1","-2","1","-2","0","1","1","1","5","4","5","4","3","4","4","4","4","4","4","7","7","6","6","7","5","6","6","5","5","5","4","5","3","3","4","5","4","5","3","4","5","2","3","4","3","5","5","2","2","3","3","3","3","3","5","5","5","7","3","5","7","2","6","3","7","3","6","574675236746690560","杨","21","Female","[""坏她"",""坏我"",""好她"",""好我""]","[""弱她"",""弱我"",""强她"",""强我""]","","","","","","","","nonmatch","","","","","","","","","","key","f","16.670016129032216","640","356","j","false","match","img/square.png","弱她","弱她","prac_ALT2_ability","practice_ability","","","","","","","",""
"null","<span style='color:yellow; font-size: 70px;'>过快! </span>","null","html-keyboard-response","23","148503","0.0-8.0-1.0-1.0-0.0-1.6","5","4","5","5","5","4","3","4","4","4","4","1","-2","1","-2","0","1","1","1","5","4","5","4","3","4","4","4","4","4","4","7","7","6","6","7","5","6","6","5","5","5","4","5","3","3","4","5","4","5","3","4","5","2","3","4","3","5","5","2","2","3","3","3","3","3","5","5","5","7","3","5","7","2","6","3","7","3","6","574675236746690560","杨","21","Female","[""坏她"",""坏我"",""好她"",""好我""]","[""弱她"",""弱我"",""强她"",""强我""]","","","","","","","","","","","","","","","","","","","","","","","","","","","","","","feedback_test","","","","","","","",""
"831","","j","psychophysics","24","150337","0.0-8.0-1.0-1.0-0.0-0.7","5","4","5","5","5","4","3","4","4","4","4","1","-2","1","-2","0","1","1","1","5","4","5","4","3","4","4","4","4","4","4","7","7","6","6","7","5","6","6","5","5","5","4","5","3","3","4","5","4","5","3","4","5","2","3","4","3","5","5","2","2","3","3","3","3","3","5","5","5","7","3","5","7","2","6","3","7","3","6","574675236746690560","杨","21","Female","[""坏她"",""坏我"",""好她"",""好我""]","[""弱她"",""弱我"",""强她"",""强我""]","","","","","","","","match","","","","","","","","","","key","j","16.63678899082572","640","356","j","true","match","img/circle.png","强我","强我","prac_ALT2_ability","practice_ability","","","","","","","",""
"null","<span style='color:GreenYellow; font-size: 70px;'>正确! </span>","null","html-keyboard-response","25","150838","0.0-8.0-1.0-1.0-0.0-1.7","5","4","5","5","5","4","3","4","4","4","4","1","-2","1","-2","0","1","1","1","5","4","5","4","3","4","4","4","4","4","4","7","7","6","6","7","5","6","6","5","5","5","4","5","3","3","4","5","4","5","3","4","5","2","3","4","3","5","5","2","2","3","3","3","3","3","5","5","5","7","3","5","7","2","6","3","7","3","6","574675236746690560","杨","21","Female","[""坏她"",""坏我"",""好她"",""好我""]","[""弱她"",""弱我"",""强她"",""强我""]","","","","","","","","","","","","","","","","","","","","","","","","","","","","","","feedback_test","","","","","","","",""
"617","","j","psychophysics","26","152458","0.0-8.0-1.0-1.0-0.0-0.8","5","4","5","5","5","4","3","4","4","4","4","1","-2","1","-2","0","1","1","1","5","4","5","4","3","4","4","4","4","4","4","7","7","6","6","7","5","6","6","5","5","5","4","5","3","3","4","5","4","5","3","4","5","2","3","4","3","5","5","2","2","3","3","3","3","3","5","5","5","7","3","5","7","2","6","3","7","3","6","574675236746690560","杨","21","Female","[""坏她"",""坏我"",""好她"",""好我""]","[""弱她"",""弱我"",""强她"",""强我""]","","","","","","","","match","","","","","","","","","","key","j","16.604510416666624","640","356","f","false","nonmatch","img/diamond.png","弱我","强她","prac_ALT2_ability","practice_ability","","","","","","","",""
"null","<span style='color:red; font-size: 70px;'>错误! </span>","null","html-keyboard-response","27","152960","0.0-8.0-1.0-1.0-0.0-1.8","5","4","5","5","5","4","3","4","4","4","4","1","-2","1","-2","0","1","1","1","5","4","5","4","3","4","4","4","4","4","4","7","7","6","6","7","5","6","6","5","5","5","4","5","3","3","4","5","4","5","3","4","5","2","3","4","3","5","5","2","2","3","3","3","3","3","5","5","5","7","3","5","7","2","6","3","7","3","6","574675236746690560","杨","21","Female","[""坏她"",""坏我"",""好她"",""好我""]","[""弱她"",""弱我"",""强她"",""强我""]","","","","","","","","","","","","","","","","","","","","","","","","","","","","","","feedback_test","","","","","","","",""
"null","","null","psychophysics","28","155166","0.0-8.0-1.0-1.0-0.0-0.9","5","4","5","5","5","4","3","4","4","4","4","1","-2","1","-2","0","1","1","1","5","4","5","4","3","4","4","4","4","4","4","7","7","6","6","7","5","6","6","5","5","5","4","5","3","3","4","5","4","5","3","4","5","2","3","4","3","5","5","2","2","3","3","3","3","3","5","5","5","7","3","5","7","2","6","3","7","3","6","574675236746690560","杨","21","Female","[""坏她"",""坏我"",""好她"",""好我""]","[""弱她"",""弱我"",""强她"",""强我""]","","","","","","","","null","","","","","","","","","","key","null","16.668007633587717","640","356","f","false","nonmatch","img/diamond.png","弱她","强她","prac_ALT2_ability","practice_ability","","","","","","","",""
"null","<span class='add_' style='color:yellow; font-size: 70px;'> 太慢! </span>","null","html-keyboard-response","29","155668","0.0-8.0-1.0-1.0-0.0-1.9","5","4","5","5","5","4","3","4","4","4","4","1","-2","1","-2","0","1","1","1","5","4","5","4","3","4","4","4","4","4","4","7","7","6","6","7","5","6","6","5","5","5","4","5","3","3","4","5","4","5","3","4","5","2","3","4","3","5","5","2","2","3","3","3","3","3","5","5","5","7","3","5","7","2","6","3","7","3","6","574675236746690560","杨","21","Female","[""坏她"",""坏我"",""好她"",""好我""]","[""弱她"",""弱我"",""强她"",""强我""]","","","","","","","","","","","","","","","","","","","","","","","","","","","","","","feedback_test","","","","","","","",""
"827","","j","psychophysics","30","157498","0.0-8.0-1.0-1.0-0.0-0.10","5","4","5","5","5","4","3","4","4","4","4","1","-2","1","-2","0","1","1","1","5","4","5","4","3","4","4","4","4","4","4","7","7","6","6","7","5","6","6","5","5","5","4","5","3","3","4","5","4","5","3","4","5","2","3","4","3","5","5","2","2","3","3","3","3","3","5","5","5","7","3","5","7","2","6","3","7","3","6","574675236746690560","杨","21","Female","[""坏她"",""坏我"",""好她"",""好我""]","[""弱她"",""弱我"",""强她"",""强我""]","","","","","","","","match","","","","","","","","","","key","j","16.634486238531974","640","356","f","false","nonmatch","img/pentagon.png","强我","弱我","prac_ALT2_ability","practice_ability","","","","","","","",""
"null","<span style='color:red; font-size: 70px;'>错误! </span>","null","html-keyboard-response","31","158001","0.0-8.0-1.0-1.0-0.0-1.10","5","4","5","5","5","4","3","4","4","4","4","1","-2","1","-2","0","1","1","1","5","4","5","4","3","4","4","4","4","4","4","7","7","6","6","7","5","6","6","5","5","5","4","5","3","3","4","5","4","5","3","4","5","2","3","4","3","5","5","2","2","3","3","3","3","3","5","5","5","7","3","5","7","2","6","3","7","3","6","574675236746690560","杨","21","Female","[""坏她"",""坏我"",""好她"",""好我""]","[""弱她"",""弱我"",""强她"",""强我""]","","","","","","","","","","","","","","","","","","","","","","","","","","","","","","feedback_test","","","","","","","",""
"745","","f","psychophysics","32","159748","0.0-8.0-1.0-1.0-0.0-0.11","5","4","5","5","5","4","3","4","4","4","4","1","-2","1","-2","0","1","1","1","5","4","5","4","3","4","4","4","4","4","4","7","7","6","6","7","5","6","6","5","5","5","4","5","3","3","4","5","4","5","3","4","5","2","3","4","3","5","5","2","2","3","3","3","3","3","5","5","5","7","3","5","7","2","6","3","7","3","6","574675236746690560","杨","21","Female","[""坏她"",""坏我"",""好她"",""好我""]","[""弱她"",""弱我"",""强她"",""强我""]","","","","","","","","nonmatch","","","","","","","","","","key","f","16.652624999999926","640","356","j","false","match","img/diamond.png","强她","强她","prac_ALT2_ability","practice_ability","","","","","","","",""
"null","<span style='color:red; font-size: 70px;'>错误! </span>","null","html-keyboard-response","33","160249","0.0-8.0-1.0-1.0-0.0-1.11","5","4","5","5","5","4","3","4","4","4","4","1","-2","1","-2","0","1","1","1","5","4","5","4","3","4","4","4","4","4","4","7","7","6","6","7","5","6","6","5","5","5","4","5","3","3","4","5","4","5","3","4","5","2","3","4","3","5","5","2","2","3","3","3","3","3","5","5","5","7","3","5","7","2","6","3","7","3","6","574675236746690560","杨","21","Female","[""坏她"",""坏我"",""好她"",""好我""]","[""弱她"",""弱我"",""强她"",""强我""]","","","","","","","","","","","","","","","","","","","","","","","","","","","","","","feedback_test","","","","","","","",""
"959","","f","psychophysics","34","162211","0.0-8.0-1.0-1.0-0.0-0.12","5","4","5","5","5","4","3","4","4","4","4","1","-2","1","-2","0","1","1","1","5","4","5","4","3","4","4","4","4","4","4","7","7","6","6","7","5","6","6","5","5","5","4","5","3","3","4","5","4","5","3","4","5","2","3","4","3","5","5","2","2","3","3","3","3","3","5","5","5","7","3","5","7","2","6","3","7","3","6","574675236746690560","杨","21","Female","[""坏她"",""坏我"",""好她"",""好我""]","[""弱她"",""弱我"",""强她"",""强我""]","","","","","","","","nonmatch","","","","","","","","","","key","f","16.648042735042704","640","356","f","true","nonmatch","img/pentagon.png","弱她","弱我","prac_ALT2_ability","practice_ability","","","","","","","",""
"null","<span style='color:GreenYellow; font-size: 70px;'>正确! </span>","null","html-keyboard-response","35","162713","0.0-8.0-1.0-1.0-0.0-1.12","5","4","5","5","5","4","3","4","4","4","4","1","-2","1","-2","0","1","1","1","5","4","5","4","3","4","4","4","4","4","4","7","7","6","6","7","5","6","6","5","5","5","4","5","3","3","4","5","4","5","3","4","5","2","3","4","3","5","5","2","2","3","3","3","3","3","5","5","5","7","3","5","7","2","6","3","7","3","6","574675236746690560","杨","21","Female","[""坏她"",""坏我"",""好她"",""好我""]","[""弱她"",""弱我"",""强她"",""强我""]","","","","","","","","","","","","","","","","","","","","","","","","","","","","","","feedback_test","","","","","","","",""
"710","","f","psychophysics","36","164425","0.0-8.0-1.0-1.0-0.0-0.13","5","4","5","5","5","4","3","4","4","4","4","1","-2","1","-2","0","1","1","1","5","4","5","4","3","4","4","4","4","4","4","7","7","6","6","7","5","6","6","5","5","5","4","5","3","3","4","5","4","5","3","4","5","2","3","4","3","5","5","2","2","3","3","3","3","3","5","5","5","7","3","5","7","2","6","3","7","3","6","574675236746690560","杨","21","Female","[""坏她"",""坏我"",""好她"",""好我""]","[""弱她"",""弱我"",""强她"",""强我""]","","","","","","","","nonmatch","","","","","","","","","","key","f","16.67127722772276","640","356","f","true","nonmatch","img/square.png","强我","弱她","prac_ALT2_ability","practice_ability","","","","","","","",""
"null","<span style='color:GreenYellow; font-size: 70px;'>正确! </span>","null","html-keyboard-response","37","165919","0.0-8.0-1.0-1.0-0.0-1.13","5","4","5","5","5","4","3","4","4","4","4","1","-2","1","-2","0","1","1","1","5","4","5","4","3","4","4","4","4","4","4","7","7","6","6","7","5","6","6","5","5","5","4","5","3","3","4","5","4","5","3","4","5","2","3","4","3","5","5","2","2","3","3","3","3","3","5","5","5","7","3","5","7","2","6","3","7","3","6","574675236746690560","杨","21","Female","[""坏她"",""坏我"",""好她"",""好我""]","[""弱她"",""弱我"",""强她"",""强我""]","","","","","","","","","","","","","","","","","","","","","","","","","","","","","","feedback_test","","","","","","","",""
"null","","null","psychophysics","38","168126","0.0-8.0-1.0-1.0-0.0-0.14","5","4","5","5","5","4","3","4","4","4","4","1","-2","1","-2","0","1","1","1","5","4","5","4","3","4","4","4","4","4","4","7","7","6","6","7","5","6","6","5","5","5","4","5","3","3","4","5","4","5","3","4","5","2","3","4","3","5","5","2","2","3","3","3","3","3","5","5","5","7","3","5","7","2","6","3","7","3","6","574675236746690560","杨","21","Female","[""坏她"",""坏我"",""好她"",""好我""]","[""弱她"",""弱我"",""强她"",""强我""]","","","","","","","","null","","","","","","","","","","key","null","16.642381679389104","640","356","j","false","match","img/circle.png","强我","强我","prac_ALT2_ability","practice_ability","","","","","","","",""
"null","<span class='add_' style='color:yellow; font-size: 70px;'> 太慢! </span>","null","html-keyboard-response","39","168628","0.0-8.0-1.0-1.0-0.0-1.14","5","4","5","5","5","4","3","4","4","4","4","1","-2","1","-2","0","1","1","1","5","4","5","4","3","4","4","4","4","4","4","7","7","6","6","7","5","6","6","5","5","5","4","5","3","3","4","5","4","5","3","4","5","2","3","4","3","5","5","2","2","3","3","3","3","3","5","5","5","7","3","5","7","2","6","3","7","3","6","574675236746690560","杨","21","Female","[""坏她"",""坏我"",""好她"",""好我""]","[""弱她"",""弱我"",""强她"",""强我""]","","","","","","","","","","","","","","","","","","","","","","","","","","","","","","feedback_test","","","","","","","",""
"696","","f","psychophysics","40","170326","0.0-8.0-1.0-1.0-0.0-0.15","5","4","5","5","5","4","3","4","4","4","4","1","-2","1","-2","0","1","1","1","5","4","5","4","3","4","4","4","4","4","4","7","7","6","6","7","5","6","6","5","5","5","4","5","3","3","4","5","4","5","3","4","5","2","3","4","3","5","5","2","2","3","3","3","3","3","5","5","5","7","3","5","7","2","6","3","7","3","6","574675236746690560","杨","21","Female","[""坏她"",""坏我"",""好她"",""好我""]","[""弱她"",""弱我"",""强她"",""强我""]","","","","","","","","nonmatch","","","","","","","","","","key","f","16.671240000000108","640","356","f","true","nonmatch","img/pentagon.png","强她","弱我","prac_ALT2_ability","practice_ability","","","","","","","",""
"null","<span style='color:GreenYellow; font-size: 70px;'>正确! </span>","null","html-keyboard-response","41","170827","0.0-8.0-1.0-1.0-0.0-1.15","5","4","5","5","5","4","3","4","4","4","4","1","-2","1","-2","0","1","1","1","5","4","5","4","3","4","4","4","4","4","4","7","7","6","6","7","5","6","6","5","5","5","4","5","3","3","4","5","4","5","3","4","5","2","3","4","3","5","5","2","2","3","3","3","3","3","5","5","5","7","3","5","7","2","6","3","7","3","6","574675236746690560","杨","21","Female","[""坏她"",""坏我"",""好她"",""好我""]","[""弱她"",""弱我"",""强她"",""强我""]","","","","","","","","","","","","","","","","","","","","","","","","","","","","","","feedback_test","","","","","","","",""
"753","","f","psychophysics","42","172583","0.0-8.0-1.0-1.0-0.0-0.16","5","4","5","5","5","4","3","4","4","4","4","1","-2","1","-2","0","1","1","1","5","4","5","4","3","4","4","4","4","4","4","7","7","6","6","7","5","6","6","5","5","5","4","5","3","3","4","5","4","5","3","4","5","2","3","4","3","5","5","2","2","3","3","3","3","3","5","5","5","7","3","5","7","2","6","3","7","3","6","574675236746690560","杨","21","Female","[""坏她"",""坏我"",""好她"",""好我""]","[""弱她"",""弱我"",""强她"",""强我""]","","","","","","","","nonmatch","","","","","","","","","","key","f","16.670798076923138","640","356","j","false","match","img/diamond.png","强她","强她","prac_ALT2_ability","practice_ability","","","","","","","",""
"null","<span style='color:red; font-size: 70px;'>错误! </span>","null","html-keyboard-response","43","173085","0.0-8.0-1.0-1.0-0.0-1.16","5","4","5","5","5","4","3","4","4","4","4","1","-2","1","-2","0","1","1","1","5","4","5","4","3","4","4","4","4","4","4","7","7","6","6","7","5","6","6","5","5","5","4","5","3","3","4","5","4","5","3","4","5","2","3","4","3","5","5","2","2","3","3","3","3","3","5","5","5","7","3","5","7","2","6","3","7","3","6","574675236746690560","杨","21","Female","[""坏她"",""坏我"",""好她"",""好我""]","[""弱她"",""弱我"",""强她"",""强我""]","","","","","","","","","","","","","","","","","","","","","","","","","","","","","","feedback_test","","","","","","","",""
"695","","f","psychophysics","44","174782","0.0-8.0-1.0-1.0-0.0-0.17","5","4","5","5","5","4","3","4","4","4","4","1","-2","1","-2","0","1","1","1","5","4","5","4","3","4","4","4","4","4","4","7","7","6","6","7","5","6","6","5","5","5","4","5","3","3","4","5","4","5","3","4","5","2","3","4","3","5","5","2","2","3","3","3","3","3","5","5","5","7","3","5","7","2","6","3","7","3","6","574675236746690560","杨","21","Female","[""坏她"",""坏我"",""好她"",""好我""]","[""弱她"",""弱我"",""强她"",""强我""]","","","","","","","","nonmatch","","","","","","","","","","key","f","16.63710891089136","640","356","f","true","nonmatch","img/circle.png","强她","强我","prac_ALT2_ability","practice_ability","","","","","","","",""
"null","<span style='color:GreenYellow; font-size: 70px;'>正确! </span>","null","html-keyboard-response","45","175284","0.0-8.0-1.0-1.0-0.0-1.17","5","4","5","5","5","4","3","4","4","4","4","1","-2","1","-2","0","1","1","1","5","4","5","4","3","4","4","4","4","4","4","7","7","6","6","7","5","6","6","5","5","5","4","5","3","3","4","5","4","5","3","4","5","2","3","4","3","5","5","2","2","3","3","3","3","3","5","5","5","7","3","5","7","2","6","3","7","3","6","574675236746690560","杨","21","Female","[""坏她"",""坏我"",""好她"",""好我""]","[""弱她"",""弱我"",""强她"",""强我""]","","","","","","","","","","","","","","","","","","","","","","","","","","","","","","feedback_test","","","","","","","",""
"805","","f","psychophysics","46","177092","0.0-8.0-1.0-1.0-0.0-0.18","5","4","5","5","5","4","3","4","4","4","4","1","-2","1","-2","0","1","1","1","5","4","5","4","3","4","4","4","4","4","4","7","7","6","6","7","5","6","6","5","5","5","4","5","3","3","4","5","4","5","3","4","5","2","3","4","3","5","5","2","2","3","3","3","3","3","5","5","5","7","3","5","7","2","6","3","7","3","6","574675236746690560","杨","21","Female","[""坏她"",""坏我"",""好她"",""好我""]","[""弱她"",""弱我"",""强她"",""强我""]","","","","","","","","nonmatch","","","","","","","","","","key","f","16.668803738317806","640","356","j","false","match","img/square.png","弱她","弱她","prac_ALT2_ability","practice_ability","","","","","","","",""
"null","<span style='color:red; font-size: 70px;'>错误! </span>","null","html-keyboard-response","47","177596","0.0-8.0-1.0-1.0-0.0-1.18","5","4","5","5","5","4","3","4","4","4","4","1","-2","1","-2","0","1","1","1","5","4","5","4","3","4","4","4","4","4","4","7","7","6","6","7","5","6","6","5","5","5","4","5","3","3","4","5","4","5","3","4","5","2","3","4","3","5","5","2","2","3","3","3","3","3","5","5","5","7","3","5","7","2","6","3","7","3","6","574675236746690560","杨","21","Female","[""坏她"",""坏我"",""好她"",""好我""]","[""弱她"",""弱我"",""强她"",""强我""]","","","","","","","","","","","","","","","","","","","","","","","","","","","","","","feedback_test","","","","","","","",""
"428","","f","psychophysics","48","179346","0.0-8.0-1.0-1.0-0.0-0.19","5","4","5","5","5","4","3","4","4","4","4","1","-2","1","-2","0","1","1","1","5","4","5","4","3","4","4","4","4","4","4","7","7","6","6","7","5","6","6","5","5","5","4","5","3","3","4","5","4","5","3","4","5","2","3","4","3","5","5","2","2","3","3","3","3","3","5","5","5","7","3","5","7","2","6","3","7","3","6","574675236746690560","杨","21","Female","[""坏她"",""坏我"",""好她"",""好我""]","[""弱她"",""弱我"",""强她"",""强我""]","","","","","","","","nonmatch","","","","","","","","","","key","f","16.670259615384566","640","356","f","true","nonmatch","img/diamond.png","强我","强她","prac_ALT2_ability","practice_ability","","","","","","","",""
"null","<span style='color:GreenYellow; font-size: 70px;'>正确! </span>","null","html-keyboard-response","49","179848","0.0-8.0-1.0-1.0-0.0-1.19","5","4","5","5","5","4","3","4","4","4","4","1","-2","1","-2","0","1","1","1","5","4","5","4","3","4","4","4","4","4","4","7","7","6","6","7","5","6","6","5","5","5","4","5","3","3","4","5","4","5","3","4","5","2","3","4","3","5","5","2","2","3","3","3","3","3","5","5","5","7","3","5","7","2","6","3","7","3","6","574675236746690560","杨","21","Female","[""坏她"",""坏我"",""好她"",""好我""]","[""弱她"",""弱我"",""强她"",""强我""]","","","","","","","","","","","","","","","","","","","","","","","","","","","","","","feedback_test","","","","","","","",""
"737","","f","psychophysics","50","181587","0.0-8.0-1.0-1.0-0.0-0.20","5","4","5","5","5","4","3","4","4","4","4","1","-2","1","-2","0","1","1","1","5","4","5","4","3","4","4","4","4","4","4","7","7","6","6","7","5","6","6","5","5","5","4","5","3","3","4","5","4","5","3","4","5","2","3","4","3","5","5","2","2","3","3","3","3","3","5","5","5","7","3","5","7","2","6","3","7","3","6","574675236746690560","杨","21","Female","[""坏她"",""坏我"",""好她"",""好我""]","[""弱她"",""弱我"",""强她"",""强我""]","","","","","","","","nonmatch","","","","","","","","","","key","f","16.668155339805892","640","356","f","true","nonmatch","img/circle.png","弱她","强我","prac_ALT2_ability","practice_ability","","","","","","","",""
"null","<span style='color:GreenYellow; font-size: 70px;'>正确! </span>","null","html-keyboard-response","51","182089","0.0-8.0-1.0-1.0-0.0-1.20","5","4","5","5","5","4","3","4","4","4","4","1","-2","1","-2","0","1","1","1","5","4","5","4","3","4","4","4","4","4","4","7","7","6","6","7","5","6","6","5","5","5","4","5","3","3","4","5","4","5","3","4","5","2","3","4","3","5","5","2","2","3","3","3","3","3","5","5","5","7","3","5","7","2","6","3","7","3","6","574675236746690560","杨","21","Female","[""坏她"",""坏我"",""好她"",""好我""]","[""弱她"",""弱我"",""强她"",""强我""]","","","","","","","","","","","","","","","","","","","","","","","","","","","","","","feedback_test","","","","","","","",""
"595","","j","psychophysics","52","183687","0.0-8.0-1.0-1.0-0.0-0.21","5","4","5","5","5","4","3","4","4","4","4","1","-2","1","-2","0","1","1","1","5","4","5","4","3","4","4","4","4","4","4","7","7","6","6","7","5","6","6","5","5","5","4","5","3","3","4","5","4","5","3","4","5","2","3","4","3","5","5","2","2","3","3","3","3","3","5","5","5","7","3","5","7","2","6","3","7","3","6","574675236746690560","杨","21","Female","[""坏她"",""坏我"",""好她"",""好我""]","[""弱她"",""弱我"",""强她"",""强我""]","","","","","","","","match","","","","","","","","","","key","j","16.66743157894755","640","356","j","true","match","img/pentagon.png","弱我","弱我","prac_ALT2_ability","practice_ability","","","","","","","",""
"null","<span style='color:GreenYellow; font-size: 70px;'>正确! </span>","null","html-keyboard-response","53","184189","0.0-8.0-1.0-1.0-0.0-1.21","5","4","5","5","5","4","3","4","4","4","4","1","-2","1","-2","0","1","1","1","5","4","5","4","3","4","4","4","4","4","4","7","7","6","6","7","5","6","6","5","5","5","4","5","3","3","4","5","4","5","3","4","5","2","3","4","3","5","5","2","2","3","3","3","3","3","5","5","5","7","3","5","7","2","6","3","7","3","6","574675236746690560","杨","21","Female","[""坏她"",""坏我"",""好她"",""好我""]","[""弱她"",""弱我"",""强她"",""强我""]","","","","","","","","","","","","","","","","","","","","","","","","","","","","","","feedback_test","","","","","","","",""
"86","","f","psychophysics","54","186005","0.0-8.0-1.0-1.0-0.0-0.22","5","4","5","5","5","4","3","4","4","4","4","1","-2","1","-2","0","1","1","1","5","4","5","4","3","4","4","4","4","4","4","7","7","6","6","7","5","6","6","5","5","5","4","5","3","3","4","5","4","5","3","4","5","2","3","4","3","5","5","2","2","3","3","3","3","3","5","5","5","7","3","5","7","2","6","3","7","3","6","574675236746690560","杨","21","Female","[""坏她"",""坏我"",""好她"",""好我""]","[""弱她"",""弱我"",""强她"",""强我""]","","","","","","","","nonmatch","","","","","","","","","","key","f","16.64432407407407","640","356","j","false","match","img/diamond.png","强她","强她","prac_ALT2_ability","practice_ability","","","","","","","",""
"null","<span style='color:yellow; font-size: 70px;'>过快! </span>","null","html-keyboard-response","55","186507","0.0-8.0-1.0-1.0-0.0-1.22","5","4","5","5","5","4","3","4","4","4","4","1","-2","1","-2","0","1","1","1","5","4","5","4","3","4","4","4","4","4","4","7","7","6","6","7","5","6","6","5","5","5","4","5","3","3","4","5","4","5","3","4","5","2","3","4","3","5","5","2","2","3","3","3","3","3","5","5","5","7","3","5","7","2","6","3","7","3","6","574675236746690560","杨","21","Female","[""坏她"",""坏我"",""好她"",""好我""]","[""弱她"",""弱我"",""强她"",""强我""]","","","","","","","","","","","","","","","","","","","","","","","","","","","","","","feedback_test","","","","","","","",""
"935","","j","psychophysics","56","188446","0.0-8.0-1.0-1.0-0.0-0.23","5","4","5","5","5","4","3","4","4","4","4","1","-2","1","-2","0","1","1","1","5","4","5","4","3","4","4","4","4","4","4","7","7","6","6","7","5","6","6","5","5","5","4","5","3","3","4","5","4","5","3","4","5","2","3","4","3","5","5","2","2","3","3","3","3","3","5","5","5","7","3","5","7","2","6","3","7","3","6","574675236746690560","杨","21","Female","[""坏她"",""坏我"",""好她"",""好我""]","[""弱她"",""弱我"",""强她"",""强我""]","","","","","","","","match","","","","","","","","","","key","j","16.664973913043553","640","356","j","true","match","img/square.png","弱她","弱她","prac_ALT2_ability","practice_ability","","","","","","","",""
"null","<span style='color:GreenYellow; font-size: 70px;'>正确! </span>","null","html-keyboard-response","57","188947","0.0-8.0-1.0-1.0-0.0-1.23","5","4","5","5","5","4","3","4","4","4","4","1","-2","1","-2","0","1","1","1","5","4","5","4","3","4","4","4","4","4","4","7","7","6","6","7","5","6","6","5","5","5","4","5","3","3","4","5","4","5","3","4","5","2","3","4","3","5","5","2","2","3","3","3","3","3","5","5","5","7","3","5","7","2","6","3","7","3","6","574675236746690560","杨","21","Female","[""坏她"",""坏我"",""好她"",""好我""]","[""弱她"",""弱我"",""强她"",""强我""]","","","","","","","","","","","","","","","","","","","","","","","","","","","","","","feedback_test","","","","","","","",""
"681","","j","psychophysics","58","190632","0.0-8.0-1.0-1.0-0.0-0.24","5","4","5","5","5","4","3","4","4","4","4","1","-2","1","-2","0","1","1","1","5","4","5","4","3","4","4","4","4","4","4","7","7","6","6","7","5","6","6","5","5","5","4","5","3","3","4","5","4","5","3","4","5","2","3","4","3","5","5","2","2","3","3","3","3","3","5","5","5","7","3","5","7","2","6","3","7","3","6","574675236746690560","杨","21","Female","[""坏她"",""坏我"",""好她"",""好我""]","[""弱她"",""弱我"",""强她"",""强我""]","","","","","","","","match","","","","","","","","","","key","j","16.66915000000008","640","356","j","true","match","img/circle.png","强我","强我","prac_ALT2_ability","practice_ability","","","","","","","",""
"null","<span style='color:GreenYellow; font-size: 70px;'>正确! </span>","null","html-keyboard-response","59","191918","0.0-8.0-1.0-1.0-0.0-1.24","5","4","5","5","5","4","3","4","4","4","4","1","-2","1","-2","0","1","1","1","5","4","5","4","3","4","4","4","4","4","4","7","7","6","6","7","5","6","6","5","5","5","4","5","3","3","4","5","4","5","3","4","5","2","3","4","3","5","5","2","2","3","3","3","3","3","5","5","5","7","3","5","7","2","6","3","7","3","6","574675236746690560","杨","21","Female","[""坏她"",""坏我"",""好她"",""好我""]","[""弱她"",""弱我"",""强她"",""强我""]","","","","","","","","","","","","","","","","","","","","","","","","","","","","","","feedback_test","","","","","","","",""
"null","","null","psychophysics","60","194124","0.0-8.0-1.0-1.0-0.0-0.25","5","4","5","5","5","4","3","4","4","4","4","1","-2","1","-2","0","1","1","1","5","4","5","4","3","4","4","4","4","4","4","7","7","6","6","7","5","6","6","5","5","5","4","5","3","3","4","5","4","5","3","4","5","2","3","4","3","5","5","2","2","3","3","3","3","3","5","5","5","7","3","5","7","2","6","3","7","3","6","574675236746690560","杨","21","Female","[""坏她"",""坏我"",""好她"",""好我""]","[""弱她"",""弱我"",""强她"",""强我""]","","","","","","","","null","","","","","","","","","","key","null","16.65246564885517","640","356","j","false","match","img/square.png","弱她","弱她","prac_ALT2_ability","practice_ability","","","","","","","",""
"null","<span class='add_' style='color:yellow; font-size: 70px;'> 太慢! </span>","null","html-keyboard-response","61","194626","0.0-8.0-1.0-1.0-0.0-1.25","5","4","5","5","5","4","3","4","4","4","4","1","-2","1","-2","0","1","1","1","5","4","5","4","3","4","4","4","4","4","4","7","7","6","6","7","5","6","6","5","5","5","4","5","3","3","4","5","4","5","3","4","5","2","3","4","3","5","5","2","2","3","3","3","3","3","5","5","5","7","3","5","7","2","6","3","7","3","6","574675236746690560","杨","21","Female","[""坏她"",""坏我"",""好她"",""好我""]","[""弱她"",""弱我"",""强她"",""强我""]","","","","","","","","","","","","","","","","","","","","","","","","","","","","","","feedback_test","","","","","","","",""
"822","","f","psychophysics","62","196450","0.0-8.0-1.0-1.0-0.0-0.26","5","4","5","5","5","4","3","4","4","4","4","1","-2","1","-2","0","1","1","1","5","4","5","4","3","4","4","4","4","4","4","7","7","6","6","7","5","6","6","5","5","5","4","5","3","3","4","5","4","5","3","4","5","2","3","4","3","5","5","2","2","3","3","3","3","3","5","5","5","7","3","5","7","2","6","3","7","3","6","574675236746690560","杨","21","Female","[""坏她"",""坏我"",""好她"",""好我""]","[""弱她"",""弱我"",""强她"",""强我""]","","","","","","","","nonmatch","","","","","","","","","","key","f","16.667814814814914","640","356","f","true","nonmatch","img/circle.png","强她","强我","prac_ALT2_ability","practice_ability","","","","","","","",""
"null","<span style='color:GreenYellow; font-size: 70px;'>正确! </span>","null","html-keyboard-response","63","196952","0.0-8.0-1.0-1.0-0.0-1.26","5","4","5","5","5","4","3","4","4","4","4","1","-2","1","-2","0","1","1","1","5","4","5","4","3","4","4","4","4","4","4","7","7","6","6","7","5","6","6","5","5","5","4","5","3","3","4","5","4","5","3","4","5","2","3","4","3","5","5","2","2","3","3","3","3","3","5","5","5","7","3","5","7","2","6","3","7","3","6","574675236746690560","杨","21","Female","[""坏她"",""坏我"",""好她"",""好我""]","[""弱她"",""弱我"",""强她"",""强我""]","","","","","","","","","","","","","","","","","","","","","","","","","","","","","","feedback_test","","","","","","","",""
"951","","j","psychophysics","64","198906","0.0-8.0-1.0-1.0-0.0-0.27","5","4","5","5","5","4","3","4","4","4","4","1","-2","1","-2","0","1","1","1","5","4","5","4","3","4","4","4","4","4","4","7","7","6","6","7","5","6","6","5","5","5","4","5","3","3","4","5","4","5","3","4","5","2","3","4","3","5","5","2","2","3","3","3","3","3","5","5","5","7","3","5","7","2","6","3","7","3","6","574675236746690560","杨","21","Female","[""坏她"",""坏我"",""好她"",""好我""]","[""弱她"",""弱我"",""强她"",""强我""]","","","","","","","","match","","","","","","","","","","key","j","16.644474137930956","640","356","j","true","match","img/diamond.png","强她","强她","prac_ALT2_ability","practice_ability","","","","","","","",""
"null","<span style='color:GreenYellow; font-size: 70px;'>正确! </span>","null","html-keyboard-response","65","199407","0.0-8.0-1.0-1.0-0.0-1.27","5","4","5","5","5","4","3","4","4","4","4","1","-2","1","-2","0","1","1","1","5","4","5","4","3","4","4","4","4","4","4","7","7","6","6","7","5","6","6","5","5","5","4","5","3","3","4","5","4","5","3","4","5","2","3","4","3","5","5","2","2","3","3","3","3","3","5","5","5","7","3","5","7","2","6","3","7","3","6","574675236746690560","杨","21","Female","[""坏她"",""坏我"",""好她"",""好我""]","[""弱她"",""弱我"",""强她"",""强我""]","","","","","","","","","","","","","","","","","","","","","","","","","","","","","","feedback_test","","","","","","","",""
"967","","f","psychophysics","66","201378","0.0-8.0-1.0-1.0-0.0-0.28","5","4","5","5","5","4","3","4","4","4","4","1","-2","1","-2","0","1","1","1","5","4","5","4","3","4","4","4","4","4","4","7","7","6","6","7","5","6","6","5","5","5","4","5","3","3","4","5","4","5","3","4","5","2","3","4","3","5","5","2","2","3","3","3","3","3","5","5","5","7","3","5","7","2","6","3","7","3","6","574675236746690560","杨","21","Female","[""坏她"",""坏我"",""好她"",""好我""]","[""弱她"",""弱我"",""强她"",""强我""]","","","","","","","","nonmatch","","","","","","","","","","key","f","16.65445299145296","640","356","f","true","nonmatch","img/circle.png","弱我","强我","prac_ALT2_ability","practice_ability","","","","","","","",""
"null","<span style='color:GreenYellow; font-size: 70px;'>正确! </span>","null","html-keyboard-response","67","201885","0.0-8.0-1.0-1.0-0.0-1.28","5","4","5","5","5","4","3","4","4","4","4","1","-2","1","-2","0","1","1","1","5","4","5","4","3","4","4","4","4","4","4","7","7","6","6","7","5","6","6","5","5","5","4","5","3","3","4","5","4","5","3","4","5","2","3","4","3","5","5","2","2","3","3","3","3","3","5","5","5","7","3","5","7","2","6","3","7","3","6","574675236746690560","杨","21","Female","[""坏她"",""坏我"",""好她"",""好我""]","[""弱她"",""弱我"",""强她"",""强我""]","","","","","","","","","","","","","","","","","","","","","","","","","","","","","","feedback_test","","","","","","","",""
"781","","j","psychophysics","68","203669","0.0-8.0-1.0-1.0-0.0-0.29","5","4","5","5","5","4","3","4","4","4","4","1","-2","1","-2","0","1","1","1","5","4","5","4","3","4","4","4","4","4","4","7","7","6","6","7","5","6","6","5","5","5","4","5","3","3","4","5","4","5","3","4","5","2","3","4","3","5","5","2","2","3","3","3","3","3","5","5","5","7","3","5","7","2","6","3","7","3","6","574675236746690560","杨","21","Female","[""坏她"",""坏我"",""好她"",""好我""]","[""弱她"",""弱我"",""强她"",""强我""]","","","","","","","","match","","","","","","","","","","key","j","16.641122641509185","640","356","j","true","match","img/circle.png","强我","强我","prac_ALT2_ability","practice_ability","","","","","","","",""
"null","<span style='color:GreenYellow; font-size: 70px;'>正确! </span>","null","html-keyboard-response","69","204918","0.0-8.0-1.0-1.0-0.0-1.29","5","4","5","5","5","4","3","4","4","4","4","1","-2","1","-2","0","1","1","1","5","4","5","4","3","4","4","4","4","4","4","7","7","6","6","7","5","6","6","5","5","5","4","5","3","3","4","5","4","5","3","4","5","2","3","4","3","5","5","2","2","3","3","3","3","3","5","5","5","7","3","5","7","2","6","3","7","3","6","574675236746690560","杨","21","Female","[""坏她"",""坏我"",""好她"",""好我""]","[""弱她"",""弱我"",""强她"",""强我""]","","","","","","","","","","","","","","","","","","","","","","","","","","","","","","feedback_test","","","","","","","",""
"694","","f","psychophysics","70","206615","0.0-8.0-1.0-1.0-0.0-0.30","5","4","5","5","5","4","3","4","4","4","4","1","-2","1","-2","0","1","1","1","5","4","5","4","3","4","4","4","4","4","4","7","7","6","6","7","5","6","6","5","5","5","4","5","3","3","4","5","4","5","3","4","5","2","3","4","3","5","5","2","2","3","3","3","3","3","5","5","5","7","3","5","7","2","6","3","7","3","6","574675236746690560","杨","21","Female","[""坏她"",""坏我"",""好她"",""好我""]","[""弱她"",""弱我"",""强她"",""强我""]","","","","","","","","nonmatch","","","","","","","","","","key","f","16.656495049504777","640","356","f","true","nonmatch","img/circle.png","弱她","强我","prac_ALT2_ability","practice_ability","","","","","","","",""
"null","<span style='color:GreenYellow; font-size: 70px;'>正确! </span>","null","html-keyboard-response","71","207116","0.0-8.0-1.0-1.0-0.0-1.30","5","4","5","5","5","4","3","4","4","4","4","1","-2","1","-2","0","1","1","1","5","4","5","4","3","4","4","4","4","4","4","7","7","6","6","7","5","6","6","5","5","5","4","5","3","3","4","5","4","5","3","4","5","2","3","4","3","5","5","2","2","3","3","3","3","3","5","5","5","7","3","5","7","2","6","3","7","3","6","574675236746690560","杨","21","Female","[""坏她"",""坏我"",""好她"",""好我""]","[""弱她"",""弱我"",""强她"",""强我""]","","","","","","","","","","","","","","","","","","","","","","","","","","","","","","feedback_test","","","","","","","",""
"629","","j","psychophysics","72","208748","0.0-8.0-1.0-1.0-0.0-0.31","5","4","5","5","5","4","3","4","4","4","4","1","-2","1","-2","0","1","1","1","5","4","5","4","3","4","4","4","4","4","4","7","7","6","6","7","5","6","6","5","5","5","4","5","3","3","4","5","4","5","3","4","5","2","3","4","3","5","5","2","2","3","3","3","3","3","5","5","5","7","3","5","7","2","6","3","7","3","6","574675236746690560","杨","21","Female","[""坏她"",""坏我"",""好她"",""好我""]","[""弱她"",""弱我"",""强她"",""强我""]","","","","","","","","match","","","","","","","","","","key","j","16.6643711340208","640","356","j","true","match","img/circle.png","强我","强我","prac_ALT2_ability","practice_ability","","","","","","","",""
"null","<span style='color:GreenYellow; font-size: 70px;'>正确! </span>","null","html-keyboard-response","73","209251","0.0-8.0-1.0-1.0-0.0-1.31","5","4","5","5","5","4","3","4","4","4","4","1","-2","1","-2","0","1","1","1","5","4","5","4","3","4","4","4","4","4","4","7","7","6","6","7","5","6","6","5","5","5","4","5","3","3","4","5","4","5","3","4","5","2","3","4","3","5","5","2","2","3","3","3","3","3","5","5","5","7","3","5","7","2","6","3","7","3","6","574675236746690560","杨","21","Female","[""坏她"",""坏我"",""好她"",""好我""]","[""弱她"",""弱我"",""强她"",""强我""]","","","","","","","","","","","","","","","","","","","","","","","","","","","","","","feedback_test","","","","","","","",""
"722","","f","psychophysics","74","210975","0.0-8.0-1.0-1.0-0.0-0.32","5","4","5","5","5","4","3","4","4","4","4","1","-2","1","-2","0","1","1","1","5","4","5","4","3","4","4","4","4","4","4","7","7","6","6","7","5","6","6","5","5","5","4","5","3","3","4","5","4","5","3","4","5","2","3","4","3","5","5","2","2","3","3","3","3","3","5","5","5","7","3","5","7","2","6","3","7","3","6","574675236746690560","杨","21","Female","[""坏她"",""坏我"",""好她"",""好我""]","[""弱她"",""弱我"",""强她"",""强我""]","","","","","","","","nonmatch","","","","","","","","","","key","f","16.65807843137237","640","356","f","true","nonmatch","img/pentagon.png","弱她","弱我","prac_ALT2_ability","practice_ability","","","","","","","",""
"null","<span style='color:GreenYellow; font-size: 70px;'>正确! </span>","null","html-keyboard-response","75","211477","0.0-8.0-1.0-1.0-0.0-1.32","5","4","5","5","5","4","3","4","4","4","4","1","-2","1","-2","0","1","1","1","5","4","5","4","3","4","4","4","4","4","4","7","7","6","6","7","5","6","6","5","5","5","4","5","3","3","4","5","4","5","3","4","5","2","3","4","3","5","5","2","2","3","3","3","3","3","5","5","5","7","3","5","7","2","6","3","7","3","6","574675236746690560","杨","21","Female","[""坏她"",""坏我"",""好她"",""好我""]","[""弱她"",""弱我"",""强她"",""强我""]","","","","","","","","","","","","","","","","","","","","","","","","","","","","","","feedback_test","","","","","","","",""
"386","","j","psychophysics","76","213305","0.0-8.0-1.0-1.0-0.0-0.33","5","4","5","5","5","4","3","4","4","4","4","1","-2","1","-2","0","1","1","1","5","4","5","4","3","4","4","4","4","4","4","7","7","6","6","7","5","6","6","5","5","5","4","5","3","3","4","5","4","5","3","4","5","2","3","4","3","5","5","2","2","3","3","3","3","3","5","5","5","7","3","5","7","2","6","3","7","3","6","574675236746690560","杨","21","Female","[""坏她"",""坏我"",""好她"",""好我""]","[""弱她"",""弱我"",""强她"",""强我""]","","","","","","","","match","","","","","","","","","","key","j","16.66824074074059","640","356","f","false","nonmatch","img/square.png","弱我","弱她","prac_ALT2_ability","practice_ability","","","","","","","",""
"null","<span style='color:red; font-size: 70px;'>错误! </span>","null","html-keyboard-response","77","213808","0.0-8.0-1.0-1.0-0.0-1.33","5","4","5","5","5","4","3","4","4","4","4","1","-2","1","-2","0","1","1","1","5","4","5","4","3","4","4","4","4","4","4","7","7","6","6","7","5","6","6","5","5","5","4","5","3","3","4","5","4","5","3","4","5","2","3","4","3","5","5","2","2","3","3","3","3","3","5","5","5","7","3","5","7","2","6","3","7","3","6","574675236746690560","杨","21","Female","[""坏她"",""坏我"",""好她"",""好我""]","[""弱她"",""弱我"",""强她"",""强我""]","","","","","","","","","","","","","","","","","","","","","","","","","","","","","","feedback_test","","","","","","","",""
"1003","","j","psychophysics","78","215814","0.0-8.0-1.0-1.0-0.0-0.34","5","4","5","5","5","4","3","4","4","4","4","1","-2","1","-2","0","1","1","1","5","4","5","4","3","4","4","4","4","4","4","7","7","6","6","7","5","6","6","5","5","5","4","5","3","3","4","5","4","5","3","4","5","2","3","4","3","5","5","2","2","3","3","3","3","3","5","5","5","7","3","5","7","2","6","3","7","3","6","574675236746690560","杨","21","Female","[""坏她"",""坏我"",""好她"",""好我""]","[""弱她"",""弱我"",""强她"",""强我""]","","","","","","","","match","","","","","","","","","","key","j","16.667470588235325","640","356","j","true","match","img/diamond.png","强她","强她","prac_ALT2_ability","practice_ability","","","","","","","",""
"null","<span style='color:GreenYellow; font-size: 70px;'>正确! </span>","null","html-keyboard-response","79","216315","0.0-8.0-1.0-1.0-0.0-1.34","5","4","5","5","5","4","3","4","4","4","4","1","-2","1","-2","0","1","1","1","5","4","5","4","3","4","4","4","4","4","4","7","7","6","6","7","5","6","6","5","5","5","4","5","3","3","4","5","4","5","3","4","5","2","3","4","3","5","5","2","2","3","3","3","3","3","5","5","5","7","3","5","7","2","6","3","7","3","6","574675236746690560","杨","21","Female","[""坏她"",""坏我"",""好她"",""好我""]","[""弱她"",""弱我"",""强她"",""强我""]","","","","","","","","","","","","","","","","","","","","","","","","","","","","","","feedback_test","","","","","","","",""
"908","","j","psychophysics","80","218226","0.0-8.0-1.0-1.0-0.0-0.35","5","4","5","5","5","4","3","4","4","4","4","1","-2","1","-2","0","1","1","1","5","4","5","4","3","4","4","4","4","4","4","7","7","6","6","7","5","6","6","5","5","5","4","5","3","3","4","5","4","5","3","4","5","2","3","4","3","5","5","2","2","3","3","3","3","3","5","5","5","7","3","5","7","2","6","3","7","3","6","574675236746690560","杨","21","Female","[""坏她"",""坏我"",""好她"",""好我""]","[""弱她"",""弱我"",""强她"",""强我""]","","","","","","","","match","","","","","","","","","","key","j","16.66584955752195","640","356","j","true","match","img/pentagon.png","弱我","弱我","prac_ALT2_ability","practice_ability","","","","","","","",""
"null","<span style='color:GreenYellow; font-size: 70px;'>正确! </span>","null","html-keyboard-response","81","218742","0.0-8.0-1.0-1.0-0.0-1.35","5","4","5","5","5","4","3","4","4","4","4","1","-2","1","-2","0","1","1","1","5","4","5","4","3","4","4","4","4","4","4","7","7","6","6","7","5","6","6","5","5","5","4","5","3","3","4","5","4","5","3","4","5","2","3","4","3","5","5","2","2","3","3","3","3","3","5","5","5","7","3","5","7","2","6","3","7","3","6","574675236746690560","杨","21","Female","[""坏她"",""坏我"",""好她"",""好我""]","[""弱她"",""弱我"",""强她"",""强我""]","","","","","","","","","","","","","","","","","","","","","","","","","","","","","","feedback_test","","","","","","","",""
"599","","f","psychophysics","82","220346","0.0-8.0-1.0-1.0-0.0-0.36","5","4","5","5","5","4","3","4","4","4","4","1","-2","1","-2","0","1","1","1","5","4","5","4","3","4","4","4","4","4","4","7","7","6","6","7","5","6","6","5","5","5","4","5","3","3","4","5","4","5","3","4","5","2","3","4","3","5","5","2","2","3","3","3","3","3","5","5","5","7","3","5","7","2","6","3","7","3","6","574675236746690560","杨","21","Female","[""坏她"",""坏我"",""好她"",""好我""]","[""弱她"",""弱我"",""强她"",""强我""]","","","","","","","","nonmatch","","","","","","","","","","key","f","16.66578947368421","640","356","f","true","nonmatch","img/square.png","强她","弱她","prac_ALT2_ability","practice_ability","","","","","","","",""
"null","<span style='color:GreenYellow; font-size: 70px;'>正确! </span>","null","html-keyboard-response","83","220853","0.0-8.0-1.0-1.0-0.0-1.36","5","4","5","5","5","4","3","4","4","4","4","1","-2","1","-2","0","1","1","1","5","4","5","4","3","4","4","4","4","4","4","7","7","6","6","7","5","6","6","5","5","5","4","5","3","3","4","5","4","5","3","4","5","2","3","4","3","5","5","2","2","3","3","3","3","3","5","5","5","7","3","5","7","2","6","3","7","3","6","574675236746690560","杨","21","Female","[""坏她"",""坏我"",""好她"",""好我""]","[""弱她"",""弱我"",""强她"",""强我""]","","","","","","","","","","","","","","","","","","","","","","","","","","","","","","feedback_test","","","","","","","",""
"781","","j","psychophysics","84","222637","0.0-8.0-1.0-1.0-0.0-0.37","5","4","5","5","5","4","3","4","4","4","4","1","-2","1","-2","0","1","1","1","5","4","5","4","3","4","4","4","4","4","4","7","7","6","6","7","5","6","6","5","5","5","4","5","3","3","4","5","4","5","3","4","5","2","3","4","3","5","5","2","2","3","3","3","3","3","5","5","5","7","3","5","7","2","6","3","7","3","6","574675236746690560","杨","21","Female","[""坏她"",""坏我"",""好她"",""好我""]","[""弱她"",""弱我"",""强她"",""强我""]","","","","","","","","match","","","","","","","","","","key","j","16.62970754716991","640","356","j","true","match","img/diamond.png","强她","强她","prac_ALT2_ability","practice_ability","","","","","","","",""
"null","<span style='color:GreenYellow; font-size: 70px;'>正确! </span>","null","html-keyboard-response","85","223139","0.0-8.0-1.0-1.0-0.0-1.37","5","4","5","5","5","4","3","4","4","4","4","1","-2","1","-2","0","1","1","1","5","4","5","4","3","4","4","4","4","4","4","7","7","6","6","7","5","6","6","5","5","5","4","5","3","3","4","5","4","5","3","4","5","2","3","4","3","5","5","2","2","3","3","3","3","3","5","5","5","7","3","5","7","2","6","3","7","3","6","574675236746690560","杨","21","Female","[""坏她"",""坏我"",""好她"",""好我""]","[""弱她"",""弱我"",""强她"",""强我""]","","","","","","","","","","","","","","","","","","","","","","","","","","","","","","feedback_test","","","","","","","",""
"153","","f","psychophysics","86","225072","0.0-8.0-1.0-1.0-0.0-0.38","5","4","5","5","5","4","3","4","4","4","4","1","-2","1","-2","0","1","1","1","5","4","5","4","3","4","4","4","4","4","4","7","7","6","6","7","5","6","6","5","5","5","4","5","3","3","4","5","4","5","3","4","5","2","3","4","3","5","5","2","2","3","3","3","3","3","5","5","5","7","3","5","7","2","6","3","7","3","6","574675236746690560","杨","21","Female","[""坏她"",""坏我"",""好她"",""好我""]","[""弱她"",""弱我"",""强她"",""强我""]","","","","","","","","nonmatch","","","","","","","","","","key","f","16.664556521739122","640","356","j","false","match","img/square.png","弱她","弱她","prac_ALT2_ability","practice_ability","","","","","","","",""
"null","<span style='color:yellow; font-size: 70px;'>过快! </span>","null","html-keyboard-response","87","225574","0.0-8.0-1.0-1.0-0.0-1.38","5","4","5","5","5","4","3","4","4","4","4","1","-2","1","-2","0","1","1","1","5","4","5","4","3","4","4","4","4","4","4","7","7","6","6","7","5","6","6","5","5","5","4","5","3","3","4","5","4","5","3","4","5","2","3","4","3","5","5","2","2","3","3","3","3","3","5","5","5","7","3","5","7","2","6","3","7","3","6","574675236746690560","杨","21","Female","[""坏她"",""坏我"",""好她"",""好我""]","[""弱她"",""弱我"",""强她"",""强我""]","","","","","","","","","","","","","","","","","","","","","","","","","","","","","","feedback_test","","","","","","","",""
"794","","f","psychophysics","88","227371","0.0-8.0-1.0-1.0-0.0-0.39","5","4","5","5","5","4","3","4","4","4","4","1","-2","1","-2","0","1","1","1","5","4","5","4","3","4","4","4","4","4","4","7","7","6","6","7","5","6","6","5","5","5","4","5","3","3","4","5","4","5","3","4","5","2","3","4","3","5","5","2","2","3","3","3","3","3","5","5","5","7","3","5","7","2","6","3","7","3","6","574675236746690560","杨","21","Female","[""坏她"",""坏我"",""好她"",""好我""]","[""弱她"",""弱我"",""强她"",""强我""]","","","","","","","","nonmatch","","","","","","","","","","key","f","16.655377358490576","640","356","f","true","nonmatch","img/diamond.png","弱她","强她","prac_ALT2_ability","practice_ability","","","","","","","",""
"null","<span style='color:GreenYellow; font-size: 70px;'>正确! </span>","null","html-keyboard-response","89","227874","0.0-8.0-1.0-1.0-0.0-1.39","5","4","5","5","5","4","3","4","4","4","4","1","-2","1","-2","0","1","1","1","5","4","5","4","3","4","4","4","4","4","4","7","7","6","6","7","5","6","6","5","5","5","4","5","3","3","4","5","4","5","3","4","5","2","3","4","3","5","5","2","2","3","3","3","3","3","5","5","5","7","3","5","7","2","6","3","7","3","6","574675236746690560","杨","21","Female","[""坏她"",""坏我"",""好她"",""好我""]","[""弱她"",""弱我"",""强她"",""强我""]","","","","","","","","","","","","","","","","","","","","","","","","","","","","","","feedback_test","","","","","","","",""
"744","","f","psychophysics","90","229621","0.0-8.0-1.0-1.0-0.0-0.40","5","4","5","5","5","4","3","4","4","4","4","1","-2","1","-2","0","1","1","1","5","4","5","4","3","4","4","4","4","4","4","7","7","6","6","7","5","6","6","5","5","5","4","5","3","3","4","5","4","5","3","4","5","2","3","4","3","5","5","2","2","3","3","3","3","3","5","5","5","7","3","5","7","2","6","3","7","3","6","574675236746690560","杨","21","Female","[""坏她"",""坏我"",""好她"",""好我""]","[""弱她"",""弱我"",""强她"",""强我""]","","","","","","","","nonmatch","","","","","","","","","","key","f","16.669644230769055","640","356","f","true","nonmatch","img/pentagon.png","强我","弱我","prac_ALT2_ability","practice_ability","","","","","","","",""
"null","<span style='color:GreenYellow; font-size: 70px;'>正确! </span>","null","html-keyboard-response","91","230918","0.0-8.0-1.0-1.0-0.0-1.40","5","4","5","5","5","4","3","4","4","4","4","1","-2","1","-2","0","1","1","1","5","4","5","4","3","4","4","4","4","4","4","7","7","6","6","7","5","6","6","5","5","5","4","5","3","3","4","5","4","5","3","4","5","2","3","4","3","5","5","2","2","3","3","3","3","3","5","5","5","7","3","5","7","2","6","3","7","3","6","574675236746690560","杨","21","Female","[""坏她"",""坏我"",""好她"",""好我""]","[""弱她"",""弱我"",""强她"",""强我""]","","","","","","","","","","","","","","","","","","","","","","","","","","","","","","feedback_test","","","","","","","",""
"604","","j","psychophysics","92","232525","0.0-8.0-1.0-1.0-0.0-0.41","5","4","5","5","5","4","3","4","4","4","4","1","-2","1","-2","0","1","1","1","5","4","5","4","3","4","4","4","4","4","4","7","7","6","6","7","5","6","6","5","5","5","4","5","3","3","4","5","4","5","3","4","5","2","3","4","3","5","5","2","2","3","3","3","3","3","5","5","5","7","3","5","7","2","6","3","7","3","6","574675236746690560","杨","21","Female","[""坏她"",""坏我"",""好她"",""好我""]","[""弱她"",""弱我"",""强她"",""强我""]","","","","","","","","match","","","","","","","","","","key","j","16.628000000000036","640","356","j","true","match","img/pentagon.png","弱我","弱我","prac_ALT2_ability","practice_ability","","","","","","","",""
"null","<span style='color:GreenYellow; font-size: 70px;'>正确! </span>","null","html-keyboard-response","93","233034","0.0-8.0-1.0-1.0-0.0-1.41","5","4","5","5","5","4","3","4","4","4","4","1","-2","1","-2","0","1","1","1","5","4","5","4","3","4","4","4","4","4","4","7","7","6","6","7","5","6","6","5","5","5","4","5","3","3","4","5","4","5","3","4","5","2","3","4","3","5","5","2","2","3","3","3","3","3","5","5","5","7","3","5","7","2","6","3","7","3","6","574675236746690560","杨","21","Female","[""坏她"",""坏我"",""好她"",""好我""]","[""弱她"",""弱我"",""强她"",""强我""]","","","","","","","","","","","","","","","","","","","","","","","","","","","","","","feedback_test","","","","","","","",""
"859","","f","psychophysics","94","234896","0.0-8.0-1.0-1.0-0.0-0.42","5","4","5","5","5","4","3","4","4","4","4","1","-2","1","-2","0","1","1","1","5","4","5","4","3","4","4","4","4","4","4","7","7","6","6","7","5","6","6","5","5","5","4","5","3","3","4","5","4","5","3","4","5","2","3","4","3","5","5","2","2","3","3","3","3","3","5","5","5","7","3","5","7","2","6","3","7","3","6","574675236746690560","杨","21","Female","[""坏她"",""坏我"",""好她"",""好我""]","[""弱她"",""弱我"",""强她"",""强我""]","","","","","","","","nonmatch","","","","","","","","","","key","f","16.667234234234186","640","356","f","true","nonmatch","img/diamond.png","强我","强她","prac_ALT2_ability","practice_ability","","","","","","","",""
"null","<span style='color:GreenYellow; font-size: 70px;'>正确! </span>","null","html-keyboard-response","95","235398","0.0-8.0-1.0-1.0-0.0-1.42","5","4","5","5","5","4","3","4","4","4","4","1","-2","1","-2","0","1","1","1","5","4","5","4","3","4","4","4","4","4","4","7","7","6","6","7","5","6","6","5","5","5","4","5","3","3","4","5","4","5","3","4","5","2","3","4","3","5","5","2","2","3","3","3","3","3","5","5","5","7","3","5","7","2","6","3","7","3","6","574675236746690560","杨","21","Female","[""坏她"",""坏我"",""好她"",""好我""]","[""弱她"",""弱我"",""强她"",""强我""]","","","","","","","","","","","","","","","","","","","","","","","","","","","","","","feedback_test","","","","","","","",""
"832","","f","psychophysics","96","237232","0.0-8.0-1.0-1.0-0.0-0.43","5","4","5","5","5","4","3","4","4","4","4","1","-2","1","-2","0","1","1","1","5","4","5","4","3","4","4","4","4","4","4","7","7","6","6","7","5","6","6","5","5","5","4","5","3","3","4","5","4","5","3","4","5","2","3","4","3","5","5","2","2","3","3","3","3","3","5","5","5","7","3","5","7","2","6","3","7","3","6","574675236746690560","杨","21","Female","[""坏她"",""坏我"",""好她"",""好我""]","[""弱她"",""弱我"",""强她"",""强我""]","","","","","","","","nonmatch","","","","","","","","","","key","f","16.664990825688044","640","356","f","true","nonmatch","img/pentagon.png","强她","弱我","prac_ALT2_ability","practice_ability","","","","","","","",""
"null","<span style='color:GreenYellow; font-size: 70px;'>正确! </span>","null","html-keyboard-response","97","237918","0.0-8.0-1.0-1.0-0.0-1.43","5","4","5","5","5","4","3","4","4","4","4","1","-2","1","-2","0","1","1","1","5","4","5","4","3","4","4","4","4","4","4","7","7","6","6","7","5","6","6","5","5","5","4","5","3","3","4","5","4","5","3","4","5","2","3","4","3","5","5","2","2","3","3","3","3","3","5","5","5","7","3","5","7","2","6","3","7","3","6","574675236746690560","杨","21","Female","[""坏她"",""坏我"",""好她"",""好我""]","[""弱她"",""弱我"",""强她"",""强我""]","","","","","","","","","","","","","","","","","","","","","","","","","","","","","","feedback_test","","","","","","","",""
"null","","null","psychophysics","98","240123","0.0-8.0-1.0-1.0-0.0-0.44","5","4","5","5","5","4","3","4","4","4","4","1","-2","1","-2","0","1","1","1","5","4","5","4","3","4","4","4","4","4","4","7","7","6","6","7","5","6","6","5","5","5","4","5","3","3","4","5","4","5","3","4","5","2","3","4","3","5","5","2","2","3","3","3","3","3","5","5","5","7","3","5","7","2","6","3","7","3","6","574675236746690560","杨","21","Female","[""坏她"",""坏我"",""好她"",""好我""]","[""弱她"",""弱我"",""强她"",""强我""]","","","","","","","","null","","","","","","","","","","key","null","16.669259541984808","640","356","j","false","match","img/square.png","弱她","弱她","prac_ALT2_ability","practice_ability","","","","","","","",""
"null","<span class='add_' style='color:yellow; font-size: 70px;'> 太慢! </span>","null","html-keyboard-response","99","240626","0.0-8.0-1.0-1.0-0.0-1.44","5","4","5","5","5","4","3","4","4","4","4","1","-2","1","-2","0","1","1","1","5","4","5","4","3","4","4","4","4","4","4","7","7","6","6","7","5","6","6","5","5","5","4","5","3","3","4","5","4","5","3","4","5","2","3","4","3","5","5","2","2","3","3","3","3","3","5","5","5","7","3","5","7","2","6","3","7","3","6","574675236746690560","杨","21","Female","[""坏她"",""坏我"",""好她"",""好我""]","[""弱她"",""弱我"",""强她"",""强我""]","","","","","","","","","","","","","","","","","","","","","","","","","","","","","","feedback_test","","","","","","","",""
"763","","f","psychophysics","100","242391","0.0-8.0-1.0-1.0-0.0-0.45","5","4","5","5","5","4","3","4","4","4","4","1","-2","1","-2","0","1","1","1","5","4","5","4","3","4","4","4","4","4","4","7","7","6","6","7","5","6","6","5","5","5","4","5","3","3","4","5","4","5","3","4","5","2","3","4","3","5","5","2","2","3","3","3","3","3","5","5","5","7","3","5","7","2","6","3","7","3","6","574675236746690560","杨","21","Female","[""坏她"",""坏我"",""好她"",""好我""]","[""弱她"",""弱我"",""强她"",""强我""]","","","","","","","","nonmatch","","","","","","","","","","key","f","16.66650961538471","640","356","f","true","nonmatch","img/square.png","强我","弱她","prac_ALT2_ability","practice_ability","","","","","","","",""
"null","<span style='color:GreenYellow; font-size: 70px;'>正确! </span>","null","html-keyboard-response","101","242902","0.0-8.0-1.0-1.0-0.0-1.45","5","4","5","5","5","4","3","4","4","4","4","1","-2","1","-2","0","1","1","1","5","4","5","4","3","4","4","4","4","4","4","7","7","6","6","7","5","6","6","5","5","5","4","5","3","3","4","5","4","5","3","4","5","2","3","4","3","5","5","2","2","3","3","3","3","3","5","5","5","7","3","5","7","2","6","3","7","3","6","574675236746690560","杨","21","Female","[""坏她"",""坏我"",""好她"",""好我""]","[""弱她"",""弱我"",""强她"",""强我""]","","","","","","","","","","","","","","","","","","","","","","","","","","","","","","feedback_test","","","","","","","",""
"840","","f","psychophysics","102","244744","0.0-8.0-1.0-1.0-0.0-0.46","5","4","5","5","5","4","3","4","4","4","4","1","-2","1","-2","0","1","1","1","5","4","5","4","3","4","4","4","4","4","4","7","7","6","6","7","5","6","6","5","5","5","4","5","3","3","4","5","4","5","3","4","5","2","3","4","3","5","5","2","2","3","3","3","3","3","5","5","5","7","3","5","7","2","6","3","7","3","6","574675236746690560","杨","21","Female","[""坏她"",""坏我"",""好她"",""好我""]","[""弱她"",""弱我"",""强她"",""强我""]","","","","","","","","nonmatch","","","","","","","","","","key","f","16.654192660550464","640","356","f","true","nonmatch","img/diamond.png","弱我","强她","prac_ALT2_ability","practice_ability","","","","","","","",""
"null","<span style='color:GreenYellow; font-size: 70px;'>正确! </span>","null","html-keyboard-response","103","245252","0.0-8.0-1.0-1.0-0.0-1.46","5","4","5","5","5","4","3","4","4","4","4","1","-2","1","-2","0","1","1","1","5","4","5","4","3","4","4","4","4","4","4","7","7","6","6","7","5","6","6","5","5","5","4","5","3","3","4","5","4","5","3","4","5","2","3","4","3","5","5","2","2","3","3","3","3","3","5","5","5","7","3","5","7","2","6","3","7","3","6","574675236746690560","杨","21","Female","[""坏她"",""坏我"",""好她"",""好我""]","[""弱她"",""弱我"",""强她"",""强我""]","","","","","","","","","","","","","","","","","","","","","","","","","","","","","","feedback_test","","","","","","","",""
"602","","j","psychophysics","104","246862","0.0-8.0-1.0-1.0-0.0-0.47","5","4","5","5","5","4","3","4","4","4","4","1","-2","1","-2","0","1","1","1","5","4","5","4","3","4","4","4","4","4","4","7","7","6","6","7","5","6","6","5","5","5","4","5","3","3","4","5","4","5","3","4","5","2","3","4","3","5","5","2","2","3","3","3","3","3","5","5","5","7","3","5","7","2","6","3","7","3","6","574675236746690560","杨","21","Female","[""坏她"",""坏我"",""好她"",""好我""]","[""弱她"",""弱我"",""强她"",""强我""]","","","","","","","","match","","","","","","","","","","key","j","16.6131145833333","640","356","j","true","match","img/pentagon.png","弱我","弱我","prac_ALT2_ability","practice_ability","","","","","","","",""
"null","<span style='color:GreenYellow; font-size: 70px;'>正确! </span>","null","html-keyboard-response","105","247364","0.0-8.0-1.0-1.0-0.0-1.47","5","4","5","5","5","4","3","4","4","4","4","1","-2","1","-2","0","1","1","1","5","4","5","4","3","4","4","4","4","4","4","7","7","6","6","7","5","6","6","5","5","5","4","5","3","3","4","5","4","5","3","4","5","2","3","4","3","5","5","2","2","3","3","3","3","3","5","5","5","7","3","5","7","2","6","3","7","3","6","574675236746690560","杨","21","Female","[""坏她"",""坏我"",""好她"",""好我""]","[""弱她"",""弱我"",""强她"",""强我""]","","","","","","","","","","","","","","","","","","","","","","","","","","","","","","feedback_test","","","","","","","",""
"4893","<style>.context{color:white; font-size: 35px; line-height:40px}</style>                          <div><p class='context'>您正确回答了71% 的试次。</p><p class='context'>您的平均反应时为757毫秒。</p><p class='context'>恭喜您完成练习。按空格键进入正式实验。</p><p class='footer' style='color:white;font-size: 35px; line-height:40px;'>请在进入正式实验实验之前将您的<span style='color: lightgreen;'>食指</span>放在电脑键盘的相应键位上进行按键。</p>"," ","html-keyboard-response","106","252263","0.0-8.0-1.0-2.0","5","4","5","5","5","4","3","4","4","4","4","1","-2","1","-2","0","1","1","1","5","4","5","4","3","4","4","4","4","4","4","7","7","6","6","7","5","6","6","5","5","5","4","5","3","3","4","5","4","5","3","4","5","2","3","4","3","5","5","2","2","3","3","3","3","3","5","5","5","7","3","5","7","2","6","3","7","3","6","574675236746690560","杨","21","Female","[""坏她"",""坏我"",""好她"",""好我""]","[""弱她"",""弱我"",""强她"",""强我""]","","","","","","","","","","","","","","","","","","","","","","","","","","","","","","","","","","","","","",""
"1336","
  <p style='color: white; font-size: 22px'>请您将手指放在按键上，准备进入正式的匹配任务。</p>
  <p> <div style = ""color: green""><按空格键进入下一阶段的匹配任务></div></p>
  "," ","html-keyboard-response","107","253606","0.0-8.0-1.0-3.0","5","4","5","5","5","4","3","4","4","4","4","1","-2","1","-2","0","1","1","1","5","4","5","4","3","4","4","4","4","4","4","7","7","6","6","7","5","6","6","5","5","5","4","5","3","3","4","5","4","5","3","4","5","2","3","4","3","5","5","2","2","3","3","3","3","3","5","5","5","7","3","5","7","2","6","3","7","3","6","574675236746690560","杨","21","Female","[""坏她"",""坏我"",""好她"",""好我""]","[""弱她"",""弱我"",""强她"",""强我""]","","","","","","","","","","","","","","","","","","","","","","","","","","","","","","","","","","","","","",""
"876","","j","psychophysics","108","255486","0.0-8.0-1.0-4.0-0.0-0.0","5","4","5","5","5","4","3","4","4","4","4","1","-2","1","-2","0","1","1","1","5","4","5","4","3","4","4","4","4","4","4","7","7","6","6","7","5","6","6","5","5","5","4","5","3","3","4","5","4","5","3","4","5","2","3","4","3","5","5","2","2","3","3","3","3","3","5","5","5","7","3","5","7","2","6","3","7","3","6","574675236746690560","杨","21","Female","[""坏她"",""坏我"",""好她"",""好我""]","[""弱她"",""弱我"",""强她"",""强我""]","","","","","","","","match","","","","","","","","","","key","j","16.665714285714525","640","356","j","true","match","img/square.png","弱她","弱她","ALT2","ability","","","","","","","",""
"null","<span style='color:GreenYellow; font-size: 70px;'>正确! </span>","null","html-keyboard-response","109","255988","0.0-8.0-1.0-4.0-0.0-1.0","5","4","5","5","5","4","3","4","4","4","4","1","-2","1","-2","0","1","1","1","5","4","5","4","3","4","4","4","4","4","4","7","7","6","6","7","5","6","6","5","5","5","4","5","3","3","4","5","4","5","3","4","5","2","3","4","3","5","5","2","2","3","3","3","3","3","5","5","5","7","3","5","7","2","6","3","7","3","6","574675236746690560","杨","21","Female","[""坏她"",""坏我"",""好她"",""好我""]","[""弱她"",""弱我"",""强她"",""强我""]","","","","","","","","","","","","","","","","","","","","","","","","","","","","","","feedback_test","","","","","","","",""
"690","","f","psychophysics","110","257680","0.0-8.0-1.0-4.0-0.0-0.1","5","4","5","5","5","4","3","4","4","4","4","1","-2","1","-2","0","1","1","1","5","4","5","4","3","4","4","4","4","4","4","7","7","6","6","7","5","6","6","5","5","5","4","5","3","3","4","5","4","5","3","4","5","2","3","4","3","5","5","2","2","3","3","3","3","3","5","5","5","7","3","5","7","2","6","3","7","3","6","574675236746690560","杨","21","Female","[""坏她"",""坏我"",""好她"",""好我""]","[""弱她"",""弱我"",""强她"",""强我""]","","","","","","","","nonmatch","","","","","","","","","","key","f","16.620742574257495","640","356","j","false","match","img/diamond.png","强她","强她","ALT2","ability","","","","","","","",""
"null","<span style='color:red; font-size: 70px;'>错误! </span>","null","html-keyboard-response","111","258182","0.0-8.0-1.0-4.0-0.0-1.1","5","4","5","5","5","4","3","4","4","4","4","1","-2","1","-2","0","1","1","1","5","4","5","4","3","4","4","4","4","4","4","7","7","6","6","7","5","6","6","5","5","5","4","5","3","3","4","5","4","5","3","4","5","2","3","4","3","5","5","2","2","3","3","3","3","3","5","5","5","7","3","5","7","2","6","3","7","3","6","574675236746690560","杨","21","Female","[""坏她"",""坏我"",""好她"",""好我""]","[""弱她"",""弱我"",""强她"",""强我""]","","","","","","","","","","","","","","","","","","","","","","","","","","","","","","feedback_test","","","","","","","",""
"640","","f","psychophysics","112","259826","0.0-8.0-1.0-4.0-0.0-0.2","5","4","5","5","5","4","3","4","4","4","4","1","-2","1","-2","0","1","1","1","5","4","5","4","3","4","4","4","4","4","4","7","7","6","6","7","5","6","6","5","5","5","4","5","3","3","4","5","4","5","3","4","5","2","3","4","3","5","5","2","2","3","3","3","3","3","5","5","5","7","3","5","7","2","6","3","7","3","6","574675236746690560","杨","21","Female","[""坏她"",""坏我"",""好她"",""好我""]","[""弱她"",""弱我"",""强她"",""强我""]","","","","","","","","nonmatch","","","","","","","","","","key","f","16.670855670103133","640","356","f","true","nonmatch","img/circle.png","弱她","强我","ALT2","ability","","","","","","","",""
"null","<span style='color:GreenYellow; font-size: 70px;'>正确! </span>","null","html-keyboard-response","113","260327","0.0-8.0-1.0-4.0-0.0-1.2","5","4","5","5","5","4","3","4","4","4","4","1","-2","1","-2","0","1","1","1","5","4","5","4","3","4","4","4","4","4","4","7","7","6","6","7","5","6","6","5","5","5","4","5","3","3","4","5","4","5","3","4","5","2","3","4","3","5","5","2","2","3","3","3","3","3","5","5","5","7","3","5","7","2","6","3","7","3","6","574675236746690560","杨","21","Female","[""坏她"",""坏我"",""好她"",""好我""]","[""弱她"",""弱我"",""强她"",""强我""]","","","","","","","","","","","","","","","","","","","","","","","","","","","","","","feedback_test","","","","","","","",""
"621","","j","psychophysics","114","261951","0.0-8.0-1.0-4.0-0.0-0.3","5","4","5","5","5","4","3","4","4","4","4","1","-2","1","-2","0","1","1","1","5","4","5","4","3","4","4","4","4","4","4","7","7","6","6","7","5","6","6","5","5","5","4","5","3","3","4","5","4","5","3","4","5","2","3","4","3","5","5","2","2","3","3","3","3","3","5","5","5","7","3","5","7","2","6","3","7","3","6","574675236746690560","杨","21","Female","[""坏她"",""坏我"",""好她"",""好我""]","[""弱她"",""弱我"",""强她"",""强我""]","","","","","","","","match","","","","","","","","","","key","j","16.667156250000215","640","356","j","true","match","img/pentagon.png","弱我","弱我","ALT2","ability","","","","","","","",""
"null","<span style='color:GreenYellow; font-size: 70px;'>正确! </span>","null","html-keyboard-response","115","262453","0.0-8.0-1.0-4.0-0.0-1.3","5","4","5","5","5","4","3","4","4","4","4","1","-2","1","-2","0","1","1","1","5","4","5","4","3","4","4","4","4","4","4","7","7","6","6","7","5","6","6","5","5","5","4","5","3","3","4","5","4","5","3","4","5","2","3","4","3","5","5","2","2","3","3","3","3","3","5","5","5","7","3","5","7","2","6","3","7","3","6","574675236746690560","杨","21","Female","[""坏她"",""坏我"",""好她"",""好我""]","[""弱她"",""弱我"",""强她"",""强我""]","","","","","","","","","","","","","","","","","","","","","","","","","","","","","","feedback_test","","","","","","","",""
"132","","f","psychophysics","116","264050","0.0-8.0-1.0-4.0-0.0-0.4","5","4","5","5","5","4","3","4","4","4","4","1","-2","1","-2","0","1","1","1","5","4","5","4","3","4","4","4","4","4","4","7","7","6","6","7","5","6","6","5","5","5","4","5","3","3","4","5","4","5","3","4","5","2","3","4","3","5","5","2","2","3","3","3","3","3","5","5","5","7","3","5","7","2","6","3","7","3","6","574675236746690560","杨","21","Female","[""坏她"",""坏我"",""好她"",""好我""]","[""弱她"",""弱我"",""强她"",""强我""]","","","","","","","","nonmatch","","","","","","","","","","key","f","16.668894736841935","640","356","f","true","nonmatch","img/circle.png","强她","强我","ALT2","ability","","","","","","","",""
"null","<span style='color:yellow; font-size: 70px;'>过快! </span>","null","html-keyboard-response","117","264551","0.0-8.0-1.0-4.0-0.0-1.4","5","4","5","5","5","4","3","4","4","4","4","1","-2","1","-2","0","1","1","1","5","4","5","4","3","4","4","4","4","4","4","7","7","6","6","7","5","6","6","5","5","5","4","5","3","3","4","5","4","5","3","4","5","2","3","4","3","5","5","2","2","3","3","3","3","3","5","5","5","7","3","5","7","2","6","3","7","3","6","574675236746690560","杨","21","Female","[""坏她"",""坏我"",""好她"",""好我""]","[""弱她"",""弱我"",""强她"",""强我""]","","","","","","","","","","","","","","","","","","","","","","","","","","","","","","feedback_test","","","","","","","",""
"660","","j","psychophysics","118","266213","0.0-8.0-1.0-4.0-0.0-0.5","5","4","5","5","5","4","3","4","4","4","4","1","-2","1","-2","0","1","1","1","5","4","5","4","3","4","4","4","4","4","4","7","7","6","6","7","5","6","6","5","5","5","4","5","3","3","4","5","4","5","3","4","5","2","3","4","3","5","5","2","2","3","3","3","3","3","5","5","5","7","3","5","7","2","6","3","7","3","6","574675236746690560","杨","21","Female","[""坏她"",""坏我"",""好她"",""好我""]","[""弱她"",""弱我"",""强她"",""强我""]","","","","","","","","match","","","","","","","","","","key","j","16.664282828283078","640","356","j","true","match","img/circle.png","强我","强我","ALT2","ability","","","","","","","",""
"null","<span style='color:GreenYellow; font-size: 70px;'>正确! </span>","null","html-keyboard-response","119","266715","0.0-8.0-1.0-4.0-0.0-1.5","5","4","5","5","5","4","3","4","4","4","4","1","-2","1","-2","0","1","1","1","5","4","5","4","3","4","4","4","4","4","4","7","7","6","6","7","5","6","6","5","5","5","4","5","3","3","4","5","4","5","3","4","5","2","3","4","3","5","5","2","2","3","3","3","3","3","5","5","5","7","3","5","7","2","6","3","7","3","6","574675236746690560","杨","21","Female","[""坏她"",""坏我"",""好她"",""好我""]","[""弱她"",""弱我"",""强她"",""强我""]","","","","","","","","","","","","","","","","","","","","","","","","","","","","","","feedback_test","","","","","","","",""
"964","","f","psychophysics","120","268682","0.0-8.0-1.0-4.0-0.0-0.6","5","4","5","5","5","4","3","4","4","4","4","1","-2","1","-2","0","1","1","1","5","4","5","4","3","4","4","4","4","4","4","7","7","6","6","7","5","6","6","5","5","5","4","5","3","3","4","5","4","5","3","4","5","2","3","4","3","5","5","2","2","3","3","3","3","3","5","5","5","7","3","5","7","2","6","3","7","3","6","574675236746690560","杨","21","Female","[""坏她"",""坏我"",""好她"",""好我""]","[""弱她"",""弱我"",""强她"",""强我""]","","","","","","","","nonmatch","","","","","","","","","","key","f","16.66717094017101","640","356","f","true","nonmatch","img/diamond.png","弱我","强她","ALT2","ability","","","","","","","",""
"null","<span style='color:GreenYellow; font-size: 70px;'>正确! </span>","null","html-keyboard-response","121","269918","0.0-8.0-1.0-4.0-0.0-1.6","5","4","5","5","5","4","3","4","4","4","4","1","-2","1","-2","0","1","1","1","5","4","5","4","3","4","4","4","4","4","4","7","7","6","6","7","5","6","6","5","5","5","4","5","3","3","4","5","4","5","3","4","5","2","3","4","3","5","5","2","2","3","3","3","3","3","5","5","5","7","3","5","7","2","6","3","7","3","6","574675236746690560","杨","21","Female","[""坏她"",""坏我"",""好她"",""好我""]","[""弱她"",""弱我"",""强她"",""强我""]","","","","","","","","","","","","","","","","","","","","","","","","","","","","","","feedback_test","","","","","","","",""
"null","","null","psychophysics","122","272121","0.0-8.0-1.0-4.0-0.0-0.7","5","4","5","5","5","4","3","4","4","4","4","1","-2","1","-2","0","1","1","1","5","4","5","4","3","4","4","4","4","4","4","7","7","6","6","7","5","6","6","5","5","5","4","5","3","3","4","5","4","5","3","4","5","2","3","4","3","5","5","2","2","3","3","3","3","3","5","5","5","7","3","5","7","2","6","3","7","3","6","574675236746690560","杨","21","Female","[""坏她"",""坏我"",""好她"",""好我""]","[""弱她"",""弱我"",""强她"",""强我""]","","","","","","","","null","","","","","","","","","","key","null","16.66910687022894","640","356","f","false","nonmatch","img/diamond.png","弱她","强她","ALT2","ability","","","","","","","",""
"null","<span class='add_' style='color:yellow; font-size: 70px;'> 太慢! </span>","null","html-keyboard-response","123","272622","0.0-8.0-1.0-4.0-0.0-1.7","5","4","5","5","5","4","3","4","4","4","4","1","-2","1","-2","0","1","1","1","5","4","5","4","3","4","4","4","4","4","4","7","7","6","6","7","5","6","6","5","5","5","4","5","3","3","4","5","4","5","3","4","5","2","3","4","3","5","5","2","2","3","3","3","3","3","5","5","5","7","3","5","7","2","6","3","7","3","6","574675236746690560","杨","21","Female","[""坏她"",""坏我"",""好她"",""好我""]","[""弱她"",""弱我"",""强她"",""强我""]","","","","","","","","","","","","","","","","","","","","","","","","","","","","","","feedback_test","","","","","","","",""
"770","","f","psychophysics","124","274395","0.0-8.0-1.0-4.0-0.0-0.8","5","4","5","5","5","4","3","4","4","4","4","1","-2","1","-2","0","1","1","1","5","4","5","4","3","4","4","4","4","4","4","7","7","6","6","7","5","6","6","5","5","5","4","5","3","3","4","5","4","5","3","4","5","2","3","4","3","5","5","2","2","3","3","3","3","3","5","5","5","7","3","5","7","2","6","3","7","3","6","574675236746690560","杨","21","Female","[""坏她"",""坏我"",""好她"",""好我""]","[""弱她"",""弱我"",""强她"",""强我""]","","","","","","","","nonmatch","","","","","","","","","","key","f","16.607943396226236","640","356","f","true","nonmatch","img/pentagon.png","强我","弱我","ALT2","ability","","","","","","","",""
"null","<span style='color:GreenYellow; font-size: 70px;'>正确! </span>","null","html-keyboard-response","125","274897","0.0-8.0-1.0-4.0-0.0-1.8","5","4","5","5","5","4","3","4","4","4","4","1","-2","1","-2","0","1","1","1","5","4","5","4","3","4","4","4","4","4","4","7","7","6","6","7","5","6","6","5","5","5","4","5","3","3","4","5","4","5","3","4","5","2","3","4","3","5","5","2","2","3","3","3","3","3","5","5","5","7","3","5","7","2","6","3","7","3","6","574675236746690560","杨","21","Female","[""坏她"",""坏我"",""好她"",""好我""]","[""弱她"",""弱我"",""强她"",""强我""]","","","","","","","","","","","","","","","","","","","","","","","","","","","","","","feedback_test","","","","","","","",""
"894","","f","psychophysics","126","276793","0.0-8.0-1.0-4.0-0.0-0.9","5","4","5","5","5","4","3","4","4","4","4","1","-2","1","-2","0","1","1","1","5","4","5","4","3","4","4","4","4","4","4","7","7","6","6","7","5","6","6","5","5","5","4","5","3","3","4","5","4","5","3","4","5","2","3","4","3","5","5","2","2","3","3","3","3","3","5","5","5","7","3","5","7","2","6","3","7","3","6","574675236746690560","杨","21","Female","[""坏她"",""坏我"",""好她"",""好我""]","[""弱她"",""弱我"",""强她"",""强我""]","","","","","","","","nonmatch","","","","","","","","","","key","f","16.670125000000034","640","356","f","true","nonmatch","img/circle.png","弱我","强我","ALT2","ability","","","","","","","",""
"null","<span style='color:GreenYellow; font-size: 70px;'>正确! </span>","null","html-keyboard-response","127","277295","0.0-8.0-1.0-4.0-0.0-1.9","5","4","5","5","5","4","3","4","4","4","4","1","-2","1","-2","0","1","1","1","5","4","5","4","3","4","4","4","4","4","4","7","7","6","6","7","5","6","6","5","5","5","4","5","3","3","4","5","4","5","3","4","5","2","3","4","3","5","5","2","2","3","3","3","3","3","5","5","5","7","3","5","7","2","6","3","7","3","6","574675236746690560","杨","21","Female","[""坏她"",""坏我"",""好她"",""好我""]","[""弱她"",""弱我"",""强她"",""强我""]","","","","","","","","","","","","","","","","","","","","","","","","","","","","","","feedback_test","","","","","","","",""
"649","","j","psychophysics","128","278947","0.0-8.0-1.0-4.0-0.0-0.10","5","4","5","5","5","4","3","4","4","4","4","1","-2","1","-2","0","1","1","1","5","4","5","4","3","4","4","4","4","4","4","7","7","6","6","7","5","6","6","5","5","5","4","5","3","3","4","5","4","5","3","4","5","2","3","4","3","5","5","2","2","3","3","3","3","3","5","5","5","7","3","5","7","2","6","3","7","3","6","574675236746690560","杨","21","Female","[""坏她"",""坏我"",""好她"",""好我""]","[""弱她"",""弱我"",""强她"",""强我""]","","","","","","","","match","","","","","","","","","","key","j","16.66897959183671","640","356","j","true","match","img/circle.png","强我","强我","ALT2","ability","","","","","","","",""
"null","<span style='color:GreenYellow; font-size: 70px;'>正确! </span>","null","html-keyboard-response","129","279450","0.0-8.0-1.0-4.0-0.0-1.10","5","4","5","5","5","4","3","4","4","4","4","1","-2","1","-2","0","1","1","1","5","4","5","4","3","4","4","4","4","4","4","7","7","6","6","7","5","6","6","5","5","5","4","5","3","3","4","5","4","5","3","4","5","2","3","4","3","5","5","2","2","3","3","3","3","3","5","5","5","7","3","5","7","2","6","3","7","3","6","574675236746690560","杨","21","Female","[""坏她"",""坏我"",""好她"",""好我""]","[""弱她"",""弱我"",""强她"",""强我""]","","","","","","","","","","","","","","","","","","","","","","","","","","","","","","feedback_test","","","","","","","",""
"680","","f","psychophysics","130","281132","0.0-8.0-1.0-4.0-0.0-0.11","5","4","5","5","5","4","3","4","4","4","4","1","-2","1","-2","0","1","1","1","5","4","5","4","3","4","4","4","4","4","4","7","7","6","6","7","5","6","6","5","5","5","4","5","3","3","4","5","4","5","3","4","5","2","3","4","3","5","5","2","2","3","3","3","3","3","5","5","5","7","3","5","7","2","6","3","7","3","6","574675236746690560","杨","21","Female","[""坏她"",""坏我"",""好她"",""好我""]","[""弱她"",""弱我"",""强她"",""强我""]","","","","","","","","nonmatch","","","","","","","","","","key","f","16.66756999999983","640","356","f","true","nonmatch","img/square.png","强我","弱她","ALT2","ability","","","","","","","",""
"null","<span style='color:GreenYellow; font-size: 70px;'>正确! </span>","null","html-keyboard-response","131","281634","0.0-8.0-1.0-4.0-0.0-1.11","5","4","5","5","5","4","3","4","4","4","4","1","-2","1","-2","0","1","1","1","5","4","5","4","3","4","4","4","4","4","4","7","7","6","6","7","5","6","6","5","5","5","4","5","3","3","4","5","4","5","3","4","5","2","3","4","3","5","5","2","2","3","3","3","3","3","5","5","5","7","3","5","7","2","6","3","7","3","6","574675236746690560","杨","21","Female","[""坏她"",""坏我"",""好她"",""好我""]","[""弱她"",""弱我"",""强她"",""强我""]","","","","","","","","","","","","","","","","","","","","","","","","","","","","","","feedback_test","","","","","","","",""
"557","","j","psychophysics","132","283475","0.0-8.0-1.0-4.0-0.0-0.12","5","4","5","5","5","4","3","4","4","4","4","1","-2","1","-2","0","1","1","1","5","4","5","4","3","4","4","4","4","4","4","7","7","6","6","7","5","6","6","5","5","5","4","5","3","3","4","5","4","5","3","4","5","2","3","4","3","5","5","2","2","3","3","3","3","3","5","5","5","7","3","5","7","2","6","3","7","3","6","574675236746690560","杨","21","Female","[""坏她"",""坏我"",""好她"",""好我""]","[""弱她"",""弱我"",""强她"",""强我""]","","","","","","","","match","","","","","","","","","","key","j","16.6633119266053","640","356","j","true","match","img/square.png","弱她","弱她","ALT2","ability","","","","","","","",""
"null","<span style='color:GreenYellow; font-size: 70px;'>正确! </span>","null","html-keyboard-response","133","283976","0.0-8.0-1.0-4.0-0.0-1.12","5","4","5","5","5","4","3","4","4","4","4","1","-2","1","-2","0","1","1","1","5","4","5","4","3","4","4","4","4","4","4","7","7","6","6","7","5","6","6","5","5","5","4","5","3","3","4","5","4","5","3","4","5","2","3","4","3","5","5","2","2","3","3","3","3","3","5","5","5","7","3","5","7","2","6","3","7","3","6","574675236746690560","杨","21","Female","[""坏她"",""坏我"",""好她"",""好我""]","[""弱她"",""弱我"",""强她"",""强我""]","","","","","","","","","","","","","","","","","","","","","","","","","","","","","","feedback_test","","","","","","","",""
"839","","j","psychophysics","134","285818","0.0-8.0-1.0-4.0-0.0-0.13","5","4","5","5","5","4","3","4","4","4","4","1","-2","1","-2","0","1","1","1","5","4","5","4","3","4","4","4","4","4","4","7","7","6","6","7","5","6","6","5","5","5","4","5","3","3","4","5","4","5","3","4","5","2","3","4","3","5","5","2","2","3","3","3","3","3","5","5","5","7","3","5","7","2","6","3","7","3","6","574675236746690560","杨","21","Female","[""坏她"",""坏我"",""好她"",""好我""]","[""弱她"",""弱我"",""强她"",""强我""]","","","","","","","","match","","","","","","","","","","key","j","16.66750458715571","640","356","f","false","nonmatch","img/pentagon.png","强她","弱我","ALT2","ability","","","","","","","",""
"null","<span style='color:red; font-size: 70px;'>错误! </span>","null","html-keyboard-response","135","286319","0.0-8.0-1.0-4.0-0.0-1.13","5","4","5","5","5","4","3","4","4","4","4","1","-2","1","-2","0","1","1","1","5","4","5","4","3","4","4","4","4","4","4","7","7","6","6","7","5","6","6","5","5","5","4","5","3","3","4","5","4","5","3","4","5","2","3","4","3","5","5","2","2","3","3","3","3","3","5","5","5","7","3","5","7","2","6","3","7","3","6","574675236746690560","杨","21","Female","[""坏她"",""坏我"",""好她"",""好我""]","[""弱她"",""弱我"",""强她"",""强我""]","","","","","","","","","","","","","","","","","","","","","","","","","","","","","","feedback_test","","","","","","","",""
"605","","j","psychophysics","136","287927","0.0-8.0-1.0-4.0-0.0-0.14","5","4","5","5","5","4","3","4","4","4","4","1","-2","1","-2","0","1","1","1","5","4","5","4","3","4","4","4","4","4","4","7","7","6","6","7","5","6","6","5","5","5","4","5","3","3","4","5","4","5","3","4","5","2","3","4","3","5","5","2","2","3","3","3","3","3","5","5","5","7","3","5","7","2","6","3","7","3","6","574675236746690560","杨","21","Female","[""坏她"",""坏我"",""好她"",""好我""]","[""弱她"",""弱我"",""强她"",""强我""]","","","","","","","","match","","","","","","","","","","key","j","16.671126315789298","640","356","j","true","match","img/circle.png","强我","强我","ALT2","ability","","","","","","","",""
"null","<span style='color:GreenYellow; font-size: 70px;'>正确! </span>","null","html-keyboard-response","137","288428","0.0-8.0-1.0-4.0-0.0-1.14","5","4","5","5","5","4","3","4","4","4","4","1","-2","1","-2","0","1","1","1","5","4","5","4","3","4","4","4","4","4","4","7","7","6","6","7","5","6","6","5","5","5","4","5","3","3","4","5","4","5","3","4","5","2","3","4","3","5","5","2","2","3","3","3","3","3","5","5","5","7","3","5","7","2","6","3","7","3","6","574675236746690560","杨","21","Female","[""坏她"",""坏我"",""好她"",""好我""]","[""弱她"",""弱我"",""强她"",""强我""]","","","","","","","","","","","","","","","","","","","","","","","","","","","","","","feedback_test","","","","","","","",""
"315","","j","psychophysics","138","290233","0.0-8.0-1.0-4.0-0.0-0.15","5","4","5","5","5","4","3","4","4","4","4","1","-2","1","-2","0","1","1","1","5","4","5","4","3","4","4","4","4","4","4","7","7","6","6","7","5","6","6","5","5","5","4","5","3","3","4","5","4","5","3","4","5","2","3","4","3","5","5","2","2","3","3","3","3","3","5","5","5","7","3","5","7","2","6","3","7","3","6","574675236746690560","杨","21","Female","[""坏她"",""坏我"",""好她"",""好我""]","[""弱她"",""弱我"",""强她"",""强我""]","","","","","","","","match","","","","","","","","","","key","j","16.666224299065625","640","356","j","true","match","img/pentagon.png","弱我","弱我","ALT2","ability","","","","","","","",""
"null","<span style='color:GreenYellow; font-size: 70px;'>正确! </span>","null","html-keyboard-response","139","290735","0.0-8.0-1.0-4.0-0.0-1.15","5","4","5","5","5","4","3","4","4","4","4","1","-2","1","-2","0","1","1","1","5","4","5","4","3","4","4","4","4","4","4","7","7","6","6","7","5","6","6","5","5","5","4","5","3","3","4","5","4","5","3","4","5","2","3","4","3","5","5","2","2","3","3","3","3","3","5","5","5","7","3","5","7","2","6","3","7","3","6","574675236746690560","杨","21","Female","[""坏她"",""坏我"",""好她"",""好我""]","[""弱她"",""弱我"",""强她"",""强我""]","","","","","","","","","","","","","","","","","","","","","","","","","","","","","","feedback_test","","","","","","","",""
