"rt","stimulus","response","trial_type","trial_index","time_elapsed","internal_node_id","swb_1","swb_2","swb_3","swb_4","swb_5","LOT_1","LOT_2","LOT_3","LOT_4","LOT_5","LOT_6","IPC_1","IPC_2","IPC_3","IPC_4","IPC_5","IPC_6","IPC_7","IPC_8","MorIden_1","MorIden_2","MorIden_3","MorIden_4","MorIden_5","MorIden_6","MorIden_7","MorIden_8","MorIden_9","MorIden_10","moralSeImag_1","moralSeImag_2","moralSeImag_3","moralSeImag_4","moralSeImag_5","moralSeImag_6","moralSeImag_7","moralSeImag_8","moralSeImag_9","sde_1","sde_2","sde_3","sde_4","sde_5","sde_6","sde_7","sde_8","sde_9","sde_10","sde_11","sde_12","sde_13","sde_14","sde_15","sde_16","sde_17","sde_18","sde_19","sde_20","IM_1","IM_2","IM_3","IM_4","IM_5","IM_6","IM_7","IM_8","IM_9","IM_10","IM_11","IM_12","IM_13","IM_14","IM_15","IM_16","IM_17","IM_18","IM_19","IM_20","subj_idx","friend_name","ParticipantID","Sex","Word","Word2","value","success","timeout","failed_images","failed_audio","failed_video","user_agent","responses","item_order","radio_event_ids","radio_event_times","key_event_times","mouse_event_times","straightlining","zigzagging","honeypot","task_id","screen_id","time_stamp","response_type","key_press","avg_frame_time","center_x","center_y","person","word","valence","domain","math","correct_response","correct","status","view_history","identity","duration","Image","condition","question_order"
"61513","
   <p><div style='color:white; font-size: 25px'>您好，欢迎参加本次实验。</div></p>
   <p><div style='color:white; font-size: 25px'>为充分保障您的权利，请确保您已经知晓并同意《参与实验同意书》以及《数据公开知情同意书》。</div></p>
   <p><div style='color:white; font-size: 25px'>如果您未见过上述内容，请咨询实验员。</div></p>
   <p style='color:white; font-size: 25px'>如果您选择继续实验，则表示您已经清楚两份知情同意书的内容并同意。</p>
   <p><div style = ""color: red;font-size:30px;"">请确保您记得day0的实验编号，您将在本次实验输入该编号，若您忘记，请咨询实验员后作答。</div></p>
   <p> <div style = ""color: green""><按空格键至下页></div> </p>
   "," ","html-keyboard-response","0","61516","0.0-0.0","3","2","4","2","3","4","2","5","3","4","4","1","0","-1","-1","-2","-1","-2","1","4","5","5","5","4","2","2","3","1","3","1","5","2","2","3","6","3","6","4","5","5","2","5","4","2","3","6","4","2","7","3","7","6","6","5","6","5","6","6","6","5","5","6","5","2","6","3","6","7","5","5","3","4","5","6","3","4","3","7","595218143807275008","林","577","Male","[""好我"",""坏我"",""坏他"",""好他""]","[""强我"",""弱我"",""弱他"",""强他""]","","","","","","","","","","","","","","","","","","","","","","","","","","","","","","","","","","","","","",""
"","","","call-function","1","61517","0.0-1.0-0.0","3","2","4","2","3","4","2","5","3","4","4","1","0","-1","-1","-2","-1","-2","1","4","5","5","5","4","2","2","3","1","3","1","5","2","2","3","6","3","6","4","5","5","2","5","4","2","3","6","4","2","7","3","7","6","6","5","6","5","6","6","6","5","5","6","5","2","6","3","6","7","5","5","3","4","5","6","3","4","3","7","595218143807275008","林","577","Male","[""好我"",""坏我"",""坏他"",""好他""]","[""强我"",""弱我"",""弱他"",""强他""]","","","","","","","","","","","","","","","","","","","","","","","","","","","","","","","","","","","","","",""
"27635","","[{""name"":""Sex"",""value"":""0""},{""name"":""friend_name"",""value"":""林""},{""name"":""ParticipantID"",""value"":""577""}]","survey-html-form","2","89157","0.0-1.0-1.0","3","2","4","2","3","4","2","5","3","4","4","1","0","-1","-1","-2","-1","-2","1","4","5","5","5","4","2","2","3","1","3","1","5","2","2","3","6","3","6","4","5","5","2","5","4","2","3","6","4","2","7","3","7","6","6","5","6","5","6","6","6","5","5","6","5","2","6","3","6","7","5","5","3","4","5","6","3","4","3","7","595218143807275008","林","577","Male","[""好我"",""坏我"",""坏他"",""好他""]","[""强我"",""弱我"",""弱他"",""强他""]","","","","","","","","","","","","","","","","","","","","","","","","","","","","","","","","","","","","","",""
"","","","preload","3","89521","0.0-2.0","3","2","4","2","3","4","2","5","3","4","4","1","0","-1","-1","-2","-1","-2","1","4","5","5","5","4","2","2","3","1","3","1","5","2","2","3","6","3","6","4","5","5","2","5","4","2","3","6","4","2","7","3","7","6","6","5","6","5","6","6","6","5","5","6","5","2","6","3","6","7","5","5","3","4","5","6","3","4","3","7","595218143807275008","林","577","Male","[""好我"",""坏我"",""坏他"",""好他""]","[""强我"",""弱我"",""弱他"",""强他""]","","true","false","[]","[]","[]","","","","","","","","","","","","","","","","","","","","","","","","","","","","","","","",""
"","","","fullscreen","4","90436","0.0-3.0","3","2","4","2","3","4","2","5","3","4","4","1","0","-1","-1","-2","-1","-2","1","4","5","5","5","4","2","2","3","1","3","1","5","2","2","3","6","3","6","4","5","5","2","5","4","2","3","6","4","2","7","3","7","6","6","5","6","5","6","6","6","5","5","6","5","2","6","3","6","7","5","5","3","4","5","6","3","4","3","7","595218143807275008","林","577","Male","[""好我"",""坏我"",""坏他"",""好他""]","[""强我"",""弱我"",""弱他"",""强他""]","","true","","","","","{}","","","","","","","","","","","","","","","","","","","","","","","","","","","","","","",""
"35381.19999998808","","{""Q01"":""3"",""Q02"":""2"",""Q03"":""4"",""Q04"":""2"",""Q05"":""3""}","survey-template","5","125826","0.0-4.0","3","2","4","2","3","4","2","5","3","4","4","1","0","-1","-1","-2","-1","-2","1","4","5","5","5","4","2","2","3","1","3","1","5","2","2","3","6","3","6","4","5","5","2","5","4","2","3","6","4","2","7","3","7","6","6","5","6","5","6","6","6","5","5","6","5","2","6","3","6","7","5","5","3","4","5","6","3","4","3","7","595218143807275008","林","577","Male","[""好我"",""坏我"",""坏他"",""好他""]","[""强我"",""弱我"",""弱他"",""强他""]","","","","","","","","{""Q01"":""3"",""Q02"":""2"",""Q03"":""4"",""Q04"":""2"",""Q05"":""3""}","[0,1,2,3,4]","[""Q01"",""Q02"",""Q03"",""Q04"",""Q05""]","[17829.59999999404,19615.79999998212,22413.5,27927.29999998212,34459.5]","[]","[17829.59999999404,19615.79999998212,22413.5,26583.09999999404,27927.29999998212,34459.5,35379.59999999404]","0.4","0.5","0","","","","","","","","","","","","","","","","","","","","","",""
"32081","","{""Q01"":""4"",""Q02"":""2"",""Q03"":""5"",""Q04"":""3"",""Q05"":""4"",""Q06"":""4""}","survey-template","6","157913","0.0-5.0","3","2","4","2","3","4","2","5","3","4","4","1","0","-1","-1","-2","-1","-2","1","4","5","5","5","4","2","2","3","1","3","1","5","2","2","3","6","3","6","4","5","5","2","5","4","2","3","6","4","2","7","3","7","6","6","5","6","5","6","6","6","5","5","6","5","2","6","3","6","7","5","5","3","4","5","6","3","4","3","7","595218143807275008","林","577","Male","[""好我"",""坏我"",""坏他"",""好他""]","[""强我"",""弱我"",""弱他"",""强他""]","","","","","","","","{""Q01"":""4"",""Q02"":""2"",""Q03"":""5"",""Q04"":""3"",""Q05"":""4"",""Q06"":""4""}","[0,1,2,3,4,5]","[""Q01"",""Q02"",""Q02"",""Q03"",""Q04"",""Q05"",""Q06""]","[4155.5999999940395,8231.59999999404,10743.5,13091.300000011921,19325.80000001192,26975.69999998808,30599.69999998808]","[]","[3329.5,4155.5999999940395,8231.59999999404,10743.5,13091.300000011921,19325.80000001192,26975.69999998808,30599.69999998808,32079.59999999404]","0.5","0.4","0","","","","","","","","","","","","","","","","","","","","","",""
"39643.30000001192","","{""Q01"":""1"",""Q02"":""0"",""Q03"":""-1"",""Q04"":""-1"",""Q05"":""-2"",""Q06"":""-1"",""Q07"":""-2"",""Q08"":""1""}","survey-template","7","197562","0.0-6.0","3","2","4","2","3","4","2","5","3","4","4","1","0","-1","-1","-2","-1","-2","1","4","5","5","5","4","2","2","3","1","3","1","5","2","2","3","6","3","6","4","5","5","2","5","4","2","3","6","4","2","7","3","7","6","6","5","6","5","6","6","6","5","5","6","5","2","6","3","6","7","5","5","3","4","5","6","3","4","3","7","595218143807275008","林","577","Male","[""好我"",""坏我"",""坏他"",""好他""]","[""强我"",""弱我"",""弱他"",""强他""]","","","","","","","","{""Q01"":""1"",""Q02"":""0"",""Q03"":""-1"",""Q04"":""-1"",""Q05"":""-2"",""Q06"":""-1"",""Q07"":""-2"",""Q08"":""1""}","[0,1,2,3,4,5,6,7]","[""Q01"",""Q02"",""Q03"",""Q04"",""Q05"",""Q06"",""Q07"",""Q08"",""Q08""]","[5782.300000011921,12945.90000000596,17417.70000001788,24210.20000001788,25270.20000001788,26777.80000001192,31683.90000000596,36791.60000002384,38763.80000001192]","[]","[5782.300000011921,12369.700000017881,12945.90000000596,17417.70000001788,21363.90000000596,24210.20000001788,25270.20000001788,26777.80000001192,31683.90000000596,36791.60000002384,38763.80000001192,39641.90000000596]","0.375","0.7142857142857143","0","","","","","","","","","","","","","","","","","","","","","",""
"29144","
    <p><div style='color:white;font-size:35px; line-height:20px;'>词汇评估任务</div></p><br>
    <p><div style='color:white;font-size:25px; line-height:20px;'>请再次回忆该亲密的朋友，你们至少2年前就认识了，并且最近2年经常见面。</div></p>
    <p><div style='color:white;font-size:25px; line-height:20px;'>在本实验中，您将会看到一些形容词。</div></p>
    <p><div style='color:yellow;font-size:25px; line-height:20px;'>您的任务是判断这些形容词是否符合对您自己或您的朋友的描述。</div></p><p style='font-size:35px'>符合按<span style=""color:lightgreen""> j 键</span>，不符合按<span style=""color:red""> f 键</span></p>","0","html-button-response","8","226712","0.0-7.0-0.0","3","2","4","2","3","4","2","5","3","4","4","1","0","-1","-1","-2","-1","-2","1","4","5","5","5","4","2","2","3","1","3","1","5","2","2","3","6","3","6","4","5","5","2","5","4","2","3","6","4","2","7","3","7","6","6","5","6","5","6","6","6","5","5","6","5","2","6","3","6","7","5","5","3","4","5","6","3","4","3","7","595218143807275008","林","577","Male","[""好我"",""坏我"",""坏他"",""好他""]","[""强我"",""弱我"",""弱他"",""强他""]","","","","","","","","","","","","","","","","","SRET_EW","EW_instructions","Sun Nov 26 2023 17:38:18 GMT+0800 (中国标准时间)","","","","","","","","","","","","","","","","","","",""
"1789","","f","psychophysics","9","229508","0.0-7.0-1.0-0.0","3","2","4","2","3","4","2","5","3","4","4","1","0","-1","-1","-2","-1","-2","1","4","5","5","5","4","2","2","3","1","3","1","5","2","2","3","6","3","6","4","5","5","2","5","4","2","3","6","4","2","7","3","7","6","6","5","6","5","6","6","6","5","5","6","5","2","6","3","6","7","5","5","3","4","5","6","3","4","3","7","595218143807275008","林","577","Male","[""好我"",""坏我"",""坏他"",""好他""]","[""强我"",""弱我"",""弱他"",""强他""]","","","","","","","","no","","","","","","","","","SRET_EW","EW_practice","","key","f","16.651982035928107","799.9999682108573","445.8333156175091","朋友","忠实","Positive","morality","","","","","","","","","",""
"1085","","f","psychophysics","10","231596","0.0-7.0-1.0-0.1","3","2","4","2","3","4","2","5","3","4","4","1","0","-1","-1","-2","-1","-2","1","4","5","5","5","4","2","2","3","1","3","1","5","2","2","3","6","3","6","4","5","5","2","5","4","2","3","6","4","2","7","3","7","6","6","5","6","5","6","6","6","5","5","6","5","2","6","3","6","7","5","5","3","4","5","6","3","4","3","7","595218143807275008","林","577","Male","[""好我"",""坏我"",""坏他"",""好他""]","[""强我"",""弱我"",""弱他"",""强他""]","","","","","","","","no","","","","","","","","","SRET_EW","EW_practice","","key","f","16.65346399999992","799.9999682108573","445.8333156175091","自己","刻板","Negative","ability","","","","","","","","","",""
"1029","","j","psychophysics","11","233626","0.0-7.0-1.0-0.2","3","2","4","2","3","4","2","5","3","4","4","1","0","-1","-1","-2","-1","-2","1","4","5","5","5","4","2","2","3","1","3","1","5","2","2","3","6","3","6","4","5","5","2","5","4","2","3","6","4","2","7","3","7","6","6","5","6","5","6","6","6","5","5","6","5","2","6","3","6","7","5","5","3","4","5","6","3","4","3","7","595218143807275008","林","577","Male","[""好我"",""坏我"",""坏他"",""好他""]","[""强我"",""弱我"",""弱他"",""强他""]","","","","","","","","yes","","","","","","","","","SRET_EW","EW_practice","","key","j","16.653776859504042","799.9999682108573","445.8333156175091","朋友","徇私","Negative","morality","","","","","","","","","",""
"1211","","f","psychophysics","12","235839","0.0-7.0-1.0-0.3","3","2","4","2","3","4","2","5","3","4","4","1","0","-1","-1","-2","-1","-2","1","4","5","5","5","4","2","2","3","1","3","1","5","2","2","3","6","3","6","4","5","5","2","5","4","2","3","6","4","2","7","3","7","6","6","5","6","5","6","6","6","5","5","6","5","2","6","3","6","7","5","5","3","4","5","6","3","4","3","7","595218143807275008","林","577","Male","[""好我"",""坏我"",""坏他"",""好他""]","[""强我"",""弱我"",""弱他"",""强他""]","","","","","","","","no","","","","","","","","","SRET_EW","EW_practice","","key","f","16.653840909090913","799.9999682108573","445.8333156175091","自己","严谨","Positive","ability","","","","","","","","","",""
"8147","
    <p><div style='color:white;font-size:35px; line-height:20px;'>请您再次阅读实验要求</div></p><br>
    <p><div style='color:white;font-size:25px; line-height:20px;'>请回忆某一个亲密的朋友，你们至少2年前就认识了，并且最近2年经常见面。</div></p>
    <p><div style='color:white;font-size:25px; line-height:20px;'>在本实验中，您将会看到一些形容词。</div></p>
    <p><div style='color:yellow;font-size:25px; line-height:20px;'>您的任务是判断这些形容词是否符合对您自己或您的朋友的描述。</div></p>
    <p><div class='footer' style='font-size:25px; line-height:20px;'>如果对本实验还有不清楚之处，请立即向实验员咨询。</p><p style='font-size:25px; line-height:20px;'>如果您明白了规则：</p><p style='font-size:22px; line-height:20px;'>请按 继续 进入正式实验</p>
    </div>
    <p style='font-size:35px'>符合按<span style=""color:lightgreen""> j 键</span>，不符合按<span style=""color:red""> f 键</span></p>","0","html-button-response","13","243987","0.0-7.0-2.0","3","2","4","2","3","4","2","5","3","4","4","1","0","-1","-1","-2","-1","-2","1","4","5","5","5","4","2","2","3","1","3","1","5","2","2","3","6","3","6","4","5","5","2","5","4","2","3","6","4","2","7","3","7","6","6","5","6","5","6","6","6","5","5","6","5","2","6","3","6","7","5","5","3","4","5","6","3","4","3","7","595218143807275008","林","577","Male","[""好我"",""坏我"",""坏他"",""好他""]","[""强我"",""弱我"",""弱他"",""强他""]","","","","","","","","","","","","","","","","","SRET_EW","prac_instructions","Sun Nov 26 2023 17:38:18 GMT+0800 (中国标准时间)","","","","","","","","","","","","","","","","","","",""
"2941","","j","psychophysics","14","247930","0.0-7.0-3.0-0.0","3","2","4","2","3","4","2","5","3","4","4","1","0","-1","-1","-2","-1","-2","1","4","5","5","5","4","2","2","3","1","3","1","5","2","2","3","6","3","6","4","5","5","2","5","4","2","3","6","4","2","7","3","7","6","6","5","6","5","6","6","6","5","5","6","5","2","6","3","6","7","5","5","3","4","5","6","3","4","3","7","595218143807275008","林","577","Male","[""好我"",""坏我"",""坏他"",""好他""]","[""强我"",""弱我"",""弱他"",""强他""]","","","","","","","","yes","","","","","","","","","SRET","EW_formal","","key","j","16.652810126582217","799.9999682108573","445.8333156175091","朋友","迷糊","Negative","ability","","","","","","","","","",""
"1012","","f","psychophysics","15","249944","0.0-7.0-3.0-0.1","3","2","4","2","3","4","2","5","3","4","4","1","0","-1","-1","-2","-1","-2","1","4","5","5","5","4","2","2","3","1","3","1","5","2","2","3","6","3","6","4","5","5","2","5","4","2","3","6","4","2","7","3","7","6","6","5","6","5","6","6","6","5","5","6","5","2","6","3","6","7","5","5","3","4","5","6","3","4","3","7","595218143807275008","林","577","Male","[""好我"",""坏我"",""坏他"",""好他""]","[""强我"",""弱我"",""弱他"",""强他""]","","","","","","","","no","","","","","","","","","SRET","EW_formal","","key","f","16.653016666666613","799.9999682108573","445.8333156175091","朋友","务实","Positive","ability","","","","","","","","","",""
"902","","f","psychophysics","16","251847","0.0-7.0-3.0-0.2","3","2","4","2","3","4","2","5","3","4","4","1","0","-1","-1","-2","-1","-2","1","4","5","5","5","4","2","2","3","1","3","1","5","2","2","3","6","3","6","4","5","5","2","5","4","2","3","6","4","2","7","3","7","6","6","5","6","5","6","6","6","5","5","6","5","2","6","3","6","7","5","5","3","4","5","6","3","4","3","7","595218143807275008","林","577","Male","[""好我"",""坏我"",""坏他"",""好他""]","[""强我"",""弱我"",""弱他"",""强他""]","","","","","","","","no","","","","","","","","","SRET","EW_formal","","key","f","16.652955752212517","799.9999682108573","445.8333156175091","自己","坚贞","Positive","morality","","","","","","","","","",""
"872","","j","psychophysics","17","253721","0.0-7.0-3.0-0.3","3","2","4","2","3","4","2","5","3","4","4","1","0","-1","-1","-2","-1","-2","1","4","5","5","5","4","2","2","3","1","3","1","5","2","2","3","6","3","6","4","5","5","2","5","4","2","3","6","4","2","7","3","7","6","6","5","6","5","6","6","6","5","5","6","5","2","6","3","6","7","5","5","3","4","5","6","3","4","3","7","595218143807275008","林","577","Male","[""好我"",""坏我"",""坏他"",""好他""]","[""强我"",""弱我"",""弱他"",""强他""]","","","","","","","","yes","","","","","","","","","SRET","EW_formal","","key","j","16.65381250000012","799.9999682108573","445.8333156175091","自己","说谎","Negative","morality","","","","","","","","","",""
"867","","f","psychophysics","18","255590","0.0-7.0-3.0-0.4","3","2","4","2","3","4","2","5","3","4","4","1","0","-1","-1","-2","-1","-2","1","4","5","5","5","4","2","2","3","1","3","1","5","2","2","3","6","3","6","4","5","5","2","5","4","2","3","6","4","2","7","3","7","6","6","5","6","5","6","6","6","5","5","6","5","2","6","3","6","7","5","5","3","4","5","6","3","4","3","7","595218143807275008","林","577","Male","[""好我"",""坏我"",""坏他"",""好他""]","[""强我"",""弱我"",""弱他"",""强他""]","","","","","","","","no","","","","","","","","","SRET","EW_formal","","key","f","16.652882882882892","799.9999682108573","445.8333156175091","朋友","果断","Positive","ability","","","","","","","","","",""
"985","","f","psychophysics","19","257577","0.0-7.0-3.0-0.5","3","2","4","2","3","4","2","5","3","4","4","1","0","-1","-1","-2","-1","-2","1","4","5","5","5","4","2","2","3","1","3","1","5","2","2","3","6","3","6","4","5","5","2","5","4","2","3","6","4","2","7","3","7","6","6","5","6","5","6","6","6","5","5","6","5","2","6","3","6","7","5","5","3","4","5","6","3","4","3","7","595218143807275008","林","577","Male","[""好我"",""坏我"",""坏他"",""好他""]","[""强我"",""弱我"",""弱他"",""强他""]","","","","","","","","no","","","","","","","","","SRET","EW_formal","","key","f","16.653347457627127","799.9999682108573","445.8333156175091","朋友","正气","Positive","morality","","","","","","","","","",""
"815","","f","psychophysics","20","259393","0.0-7.0-3.0-0.6","3","2","4","2","3","4","2","5","3","4","4","1","0","-1","-1","-2","-1","-2","1","4","5","5","5","4","2","2","3","1","3","1","5","2","2","3","6","3","6","4","5","5","2","5","4","2","3","6","4","2","7","3","7","6","6","5","6","5","6","6","6","5","5","6","5","2","6","3","6","7","5","5","3","4","5","6","3","4","3","7","595218143807275008","林","577","Male","[""好我"",""坏我"",""坏他"",""好他""]","[""强我"",""弱我"",""弱他"",""强他""]","","","","","","","","no","","","","","","","","","SRET","EW_formal","","key","f","16.652916666666528","799.9999682108573","445.8333156175091","朋友","刻苦","Positive","ability","","","","","","","","","",""
"1019","","f","psychophysics","21","261415","0.0-7.0-3.0-0.7","3","2","4","2","3","4","2","5","3","4","4","1","0","-1","-1","-2","-1","-2","1","4","5","5","5","4","2","2","3","1","3","1","5","2","2","3","6","3","6","4","5","5","2","5","4","2","3","6","4","2","7","3","7","6","6","5","6","5","6","6","6","5","5","6","5","2","6","3","6","7","5","5","3","4","5","6","3","4","3","7","595218143807275008","林","577","Male","[""好我"",""坏我"",""坏他"",""好他""]","[""强我"",""弱我"",""弱他"",""强他""]","","","","","","","","no","","","","","","","","","SRET","EW_formal","","key","f","16.653487603305905","799.9999682108573","445.8333156175091","自己","仁厚","Positive","morality","","","","","","","","","",""
"1071","","f","psychophysics","22","263487","0.0-7.0-3.0-0.8","3","2","4","2","3","4","2","5","3","4","4","1","0","-1","-1","-2","-1","-2","1","4","5","5","5","4","2","2","3","1","3","1","5","2","2","3","6","3","6","4","5","5","2","5","4","2","3","6","4","2","7","3","7","6","6","5","6","5","6","6","6","5","5","6","5","2","6","3","6","7","5","5","3","4","5","6","3","4","3","7","595218143807275008","林","577","Male","[""好我"",""坏我"",""坏他"",""好他""]","[""强我"",""弱我"",""弱他"",""强他""]","","","","","","","","no","","","","","","","","","SRET","EW_formal","","key","f","16.653772357723494","799.9999682108573","445.8333156175091","朋友","无私","Positive","morality","","","","","","","","","",""
"1051","","f","psychophysics","23","265540","0.0-7.0-3.0-0.9","3","2","4","2","3","4","2","5","3","4","4","1","0","-1","-1","-2","-1","-2","1","4","5","5","5","4","2","2","3","1","3","1","5","2","2","3","6","3","6","4","5","5","2","5","4","2","3","6","4","2","7","3","7","6","6","5","6","5","6","6","6","5","5","6","5","2","6","3","6","7","5","5","3","4","5","6","3","4","3","7","595218143807275008","林","577","Male","[""好我"",""坏我"",""坏他"",""好他""]","[""强我"",""弱我"",""弱他"",""强他""]","","","","","","","","no","","","","","","","","","SRET","EW_formal","","key","f","16.65300819672144","799.9999682108573","445.8333156175091","朋友","厚道","Positive","morality","","","","","","","","","",""
"1272","","j","psychophysics","24","267816","0.0-7.0-3.0-0.10","3","2","4","2","3","4","2","5","3","4","4","1","0","-1","-1","-2","-1","-2","1","4","5","5","5","4","2","2","3","1","3","1","5","2","2","3","6","3","6","4","5","5","2","5","4","2","3","6","4","2","7","3","7","6","6","5","6","5","6","6","6","5","5","6","5","2","6","3","6","7","5","5","3","4","5","6","3","4","3","7","595218143807275008","林","577","Male","[""好我"",""坏我"",""坏他"",""好他""]","[""强我"",""弱我"",""弱他"",""强他""]","","","","","","","","yes","","","","","","","","","SRET","EW_formal","","key","j","16.653514705882543","799.9999682108573","445.8333156175091","自己","逞能","Negative","ability","","","","","","","","","",""
"1490","","j","psychophysics","25","270307","0.0-7.0-3.0-0.11","3","2","4","2","3","4","2","5","3","4","4","1","0","-1","-1","-2","-1","-2","1","4","5","5","5","4","2","2","3","1","3","1","5","2","2","3","6","3","6","4","5","5","2","5","4","2","3","6","4","2","7","3","7","6","6","5","6","5","6","6","6","5","5","6","5","2","6","3","6","7","5","5","3","4","5","6","3","4","3","7","595218143807275008","林","577","Male","[""好我"",""坏我"",""坏他"",""好他""]","[""强我"",""弱我"",""弱他"",""强他""]","","","","","","","","yes","","","","","","","","","SRET","EW_formal","","key","j","16.65310067114078","799.9999682108573","445.8333156175091","朋友","庸碌","Negative","ability","","","","","","","","","",""
"1404","","f","psychophysics","26","272713","0.0-7.0-3.0-0.12","3","2","4","2","3","4","2","5","3","4","4","1","0","-1","-1","-2","-1","-2","1","4","5","5","5","4","2","2","3","1","3","1","5","2","2","3","6","3","6","4","5","5","2","5","4","2","3","6","4","2","7","3","7","6","6","5","6","5","6","6","6","5","5","6","5","2","6","3","6","7","5","5","3","4","5","6","3","4","3","7","595218143807275008","林","577","Male","[""好我"",""坏我"",""坏他"",""好他""]","[""强我"",""弱我"",""弱他"",""强他""]","","","","","","","","no","","","","","","","","","SRET","EW_formal","","key","f","16.653146853147017","799.9999682108573","445.8333156175091","朋友","粗心","Negative","ability","","","","","","","","","",""
"1090","","f","psychophysics","27","274804","0.0-7.0-3.0-0.13","3","2","4","2","3","4","2","5","3","4","4","1","0","-1","-1","-2","-1","-2","1","4","5","5","5","4","2","2","3","1","3","1","5","2","2","3","6","3","6","4","5","5","2","5","4","2","3","6","4","2","7","3","7","6","6","5","6","5","6","6","6","5","5","6","5","2","6","3","6","7","5","5","3","4","5","6","3","4","3","7","595218143807275008","林","577","Male","[""好我"",""坏我"",""坏他"",""好他""]","[""强我"",""弱我"",""弱他"",""强他""]","","","","","","","","no","","","","","","","","","SRET","EW_formal","","key","f","16.6532080000001","799.9999682108573","445.8333156175091","自己","善良","Positive","morality","","","","","","","","","",""
"1048","","j","psychophysics","28","276853","0.0-7.0-3.0-0.14","3","2","4","2","3","4","2","5","3","4","4","1","0","-1","-1","-2","-1","-2","1","4","5","5","5","4","2","2","3","1","3","1","5","2","2","3","6","3","6","4","5","5","2","5","4","2","3","6","4","2","7","3","7","6","6","5","6","5","6","6","6","5","5","6","5","2","6","3","6","7","5","5","3","4","5","6","3","4","3","7","595218143807275008","林","577","Male","[""好我"",""坏我"",""坏他"",""好他""]","[""强我"",""弱我"",""弱他"",""强他""]","","","","","","","","yes","","","","","","","","","SRET","EW_formal","","key","j","16.652967213114845","799.9999682108573","445.8333156175091","朋友","不孝","Negative","morality","","","","","","","","","",""
"847","","j","psychophysics","29","278702","0.0-7.0-3.0-0.15","3","2","4","2","3","4","2","5","3","4","4","1","0","-1","-1","-2","-1","-2","1","4","5","5","5","4","2","2","3","1","3","1","5","2","2","3","6","3","6","4","5","5","2","5","4","2","3","6","4","2","7","3","7","6","6","5","6","5","6","6","6","5","5","6","5","2","6","3","6","7","5","5","3","4","5","6","3","4","3","7","595218143807275008","林","577","Male","[""好我"",""坏我"",""坏他"",""好他""]","[""强我"",""弱我"",""弱他"",""强他""]","","","","","","","","yes","","","","","","","","","SRET","EW_formal","","key","j","16.65284545454567","799.9999682108573","445.8333156175091","自己","弱智","Negative","ability","","","","","","","","","",""
"836","","j","psychophysics","30","280541","0.0-7.0-3.0-0.16","3","2","4","2","3","4","2","5","3","4","4","1","0","-1","-1","-2","-1","-2","1","4","5","5","5","4","2","2","3","1","3","1","5","2","2","3","6","3","6","4","5","5","2","5","4","2","3","6","4","2","7","3","7","6","6","5","6","5","6","6","6","5","5","6","5","2","6","3","6","7","5","5","3","4","5","6","3","4","3","7","595218143807275008","林","577","Male","[""好我"",""坏我"",""坏他"",""好他""]","[""强我"",""弱我"",""弱他"",""强他""]","","","","","","","","yes","","","","","","","","","SRET","EW_formal","","key","j","16.654036697247513","799.9999682108573","445.8333156175091","朋友","黑心","Negative","morality","","","","","","","","","",""
"1174","","f","psychophysics","31","282715","0.0-7.0-3.0-0.17","3","2","4","2","3","4","2","5","3","4","4","1","0","-1","-1","-2","-1","-2","1","4","5","5","5","4","2","2","3","1","3","1","5","2","2","3","6","3","6","4","5","5","2","5","4","2","3","6","4","2","7","3","7","6","6","5","6","5","6","6","6","5","5","6","5","2","6","3","6","7","5","5","3","4","5","6","3","4","3","7","595218143807275008","林","577","Male","[""好我"",""坏我"",""坏他"",""好他""]","[""强我"",""弱我"",""弱他"",""强他""]","","","","","","","","no","","","","","","","","","SRET","EW_formal","","key","f","16.653369230768966","799.9999682108573","445.8333156175091","自己","坦荡","Positive","morality","","","","","","","","","",""
"737","","f","psychophysics","32","284454","0.0-7.0-3.0-0.18","3","2","4","2","3","4","2","5","3","4","4","1","0","-1","-1","-2","-1","-2","1","4","5","5","5","4","2","2","3","1","3","1","5","2","2","3","6","3","6","4","5","5","2","5","4","2","3","6","4","2","7","3","7","6","6","5","6","5","6","6","6","5","5","6","5","2","6","3","6","7","5","5","3","4","5","6","3","4","3","7","595218143807275008","林","577","Male","[""好我"",""坏我"",""坏他"",""好他""]","[""强我"",""弱我"",""弱他"",""强他""]","","","","","","","","no","","","","","","","","","SRET","EW_formal","","key","f","16.653660194174662","799.9999682108573","445.8333156175091","自己","诚信","Positive","morality","","","","","","","","","",""
"1061","","f","psychophysics","33","286516","0.0-7.0-3.0-0.19","3","2","4","2","3","4","2","5","3","4","4","1","0","-1","-1","-2","-1","-2","1","4","5","5","5","4","2","2","3","1","3","1","5","2","2","3","6","3","6","4","5","5","2","5","4","2","3","6","4","2","7","3","7","6","6","5","6","5","6","6","6","5","5","6","5","2","6","3","6","7","5","5","3","4","5","6","3","4","3","7","595218143807275008","林","577","Male","[""好我"",""坏我"",""坏他"",""好他""]","[""强我"",""弱我"",""弱他"",""强他""]","","","","","","","","no","","","","","","","","","SRET","EW_formal","","key","f","16.653471544715273","799.9999682108573","445.8333156175091","朋友","专注","Positive","ability","","","","","","","","","",""
"1187","","f","psychophysics","34","288704","0.0-7.0-3.0-0.20","3","2","4","2","3","4","2","5","3","4","4","1","0","-1","-1","-2","-1","-2","1","4","5","5","5","4","2","2","3","1","3","1","5","2","2","3","6","3","6","4","5","5","2","5","4","2","3","6","4","2","7","3","7","6","6","5","6","5","6","6","6","5","5","6","5","2","6","3","6","7","5","5","3","4","5","6","3","4","3","7","595218143807275008","林","577","Male","[""好我"",""坏我"",""坏他"",""好他""]","[""强我"",""弱我"",""弱他"",""强他""]","","","","","","","","no","","","","","","","","","SRET","EW_formal","","key","f","16.653500000000125","799.9999682108573","445.8333156175091","自己","远见","Positive","ability","","","","","","","","","",""
"1381","","f","psychophysics","35","291089","0.0-7.0-3.0-0.21","3","2","4","2","3","4","2","5","3","4","4","1","0","-1","-1","-2","-1","-2","1","4","5","5","5","4","2","2","3","1","3","1","5","2","2","3","6","3","6","4","5","5","2","5","4","2","3","6","4","2","7","3","7","6","6","5","6","5","6","6","6","5","5","6","5","2","6","3","6","7","5","5","3","4","5","6","3","4","3","7","595218143807275008","林","577","Male","[""好我"",""坏我"",""坏他"",""好他""]","[""强我"",""弱我"",""弱他"",""强他""]","","","","","","","","no","","","","","","","","","SRET","EW_formal","","key","f","16.6528181818182","799.9999682108573","445.8333156175091","自己","中用","Positive","ability","","","","","","","","","",""
"858","","f","psychophysics","36","292947","0.0-7.0-3.0-0.22","3","2","4","2","3","4","2","5","3","4","4","1","0","-1","-1","-2","-1","-2","1","4","5","5","5","4","2","2","3","1","3","1","5","2","2","3","6","3","6","4","5","5","2","5","4","2","3","6","4","2","7","3","7","6","6","5","6","5","6","6","6","5","5","6","5","2","6","3","6","7","5","5","3","4","5","6","3","4","3","7","595218143807275008","林","577","Male","[""好我"",""坏我"",""坏他"",""好他""]","[""强我"",""弱我"",""弱他"",""强他""]","","","","","","","","no","","","","","","","","","SRET","EW_formal","","key","f","16.652663636363684","799.9999682108573","445.8333156175091","自己","周到","Positive","ability","","","","","","","","","",""
"1004","","j","psychophysics","37","294952","0.0-7.0-3.0-0.23","3","2","4","2","3","4","2","5","3","4","4","1","0","-1","-1","-2","-1","-2","1","4","5","5","5","4","2","2","3","1","3","1","5","2","2","3","6","3","6","4","5","5","2","5","4","2","3","6","4","2","7","3","7","6","6","5","6","5","6","6","6","5","5","6","5","2","6","3","6","7","5","5","3","4","5","6","3","4","3","7","595218143807275008","林","577","Male","[""好我"",""坏我"",""坏他"",""好他""]","[""强我"",""弱我"",""弱他"",""强他""]","","","","","","","","yes","","","","","","","","","SRET","EW_formal","","key","j","16.65310000000027","799.9999682108573","445.8333156175091","自己","浅薄","Negative","ability","","","","","","","","","",""
"1308","","f","psychophysics","38","297262","0.0-7.0-3.0-0.24","3","2","4","2","3","4","2","5","3","4","4","1","0","-1","-1","-2","-1","-2","1","4","5","5","5","4","2","2","3","1","3","1","5","2","2","3","6","3","6","4","5","5","2","5","4","2","3","6","4","2","7","3","7","6","6","5","6","5","6","6","6","5","5","6","5","2","6","3","6","7","5","5","3","4","5","6","3","4","3","7","595218143807275008","林","577","Male","[""好我"",""坏我"",""坏他"",""好他""]","[""强我"",""弱我"",""弱他"",""强他""]","","","","","","","","no","","","","","","","","","SRET","EW_formal","","key","f","16.653131386861258","799.9999682108573","445.8333156175091","朋友","敏捷","Positive","ability","","","","","","","","","",""
"1006","","f","psychophysics","39","299269","0.0-7.0-3.0-0.25","3","2","4","2","3","4","2","5","3","4","4","1","0","-1","-1","-2","-1","-2","1","4","5","5","5","4","2","2","3","1","3","1","5","2","2","3","6","3","6","4","5","5","2","5","4","2","3","6","4","2","7","3","7","6","6","5","6","5","6","6","6","5","5","6","5","2","6","3","6","7","5","5","3","4","5","6","3","4","3","7","595218143807275008","林","577","Male","[""好我"",""坏我"",""坏他"",""好他""]","[""强我"",""弱我"",""弱他"",""强他""]","","","","","","","","no","","","","","","","","","SRET","EW_formal","","key","f","16.652766666666626","799.9999682108573","445.8333156175091","朋友","顶事","Positive","ability","","","","","","","","","",""
"1298","","j","psychophysics","40","301568","0.0-7.0-3.0-0.26","3","2","4","2","3","4","2","5","3","4","4","1","0","-1","-1","-2","-1","-2","1","4","5","5","5","4","2","2","3","1","3","1","5","2","2","3","6","3","6","4","5","5","2","5","4","2","3","6","4","2","7","3","7","6","6","5","6","5","6","6","6","5","5","6","5","2","6","3","6","7","5","5","3","4","5","6","3","4","3","7","595218143807275008","林","577","Male","[""好我"",""坏我"",""坏他"",""好他""]","[""强我"",""弱我"",""弱他"",""强他""]","","","","","","","","yes","","","","","","","","","SRET","EW_formal","","key","j","16.653394160584043","799.9999682108573","445.8333156175091","自己","狡狯","Negative","morality","","","","","","","","","",""
"1450","","j","psychophysics","41","304020","0.0-7.0-3.0-0.27","3","2","4","2","3","4","2","5","3","4","4","1","0","-1","-1","-2","-1","-2","1","4","5","5","5","4","2","2","3","1","3","1","5","2","2","3","6","3","6","4","5","5","2","5","4","2","3","6","4","2","7","3","7","6","6","5","6","5","6","6","6","5","5","6","5","2","6","3","6","7","5","5","3","4","5","6","3","4","3","7","595218143807275008","林","577","Male","[""好我"",""坏我"",""坏他"",""好他""]","[""强我"",""弱我"",""弱他"",""强他""]","","","","","","","","yes","","","","","","","","","SRET","EW_formal","","key","j","16.65284246575344","799.9999682108573","445.8333156175091","自己","拖拉","Negative","ability","","","","","","","","","",""
"1306","","f","psychophysics","42","306328","0.0-7.0-3.0-0.28","3","2","4","2","3","4","2","5","3","4","4","1","0","-1","-1","-2","-1","-2","1","4","5","5","5","4","2","2","3","1","3","1","5","2","2","3","6","3","6","4","5","5","2","5","4","2","3","6","4","2","7","3","7","6","6","5","6","5","6","6","6","5","5","6","5","2","6","3","6","7","5","5","3","4","5","6","3","4","3","7","595218143807275008","林","577","Male","[""好我"",""坏我"",""坏他"",""好他""]","[""强我"",""弱我"",""弱他"",""强他""]","","","","","","","","no","","","","","","","","","SRET","EW_formal","","key","f","16.652724637680745","799.9999682108573","445.8333156175091","朋友","精干","Positive","ability","","","","","","","","","",""
"847","","j","psychophysics","43","308177","0.0-7.0-3.0-0.29","3","2","4","2","3","4","2","5","3","4","4","1","0","-1","-1","-2","-1","-2","1","4","5","5","5","4","2","2","3","1","3","1","5","2","2","3","6","3","6","4","5","5","2","5","4","2","3","6","4","2","7","3","7","6","6","5","6","5","6","6","6","5","5","6","5","2","6","3","6","7","5","5","3","4","5","6","3","4","3","7","595218143807275008","林","577","Male","[""好我"",""坏我"",""坏他"",""好他""]","[""强我"",""弱我"",""弱他"",""强他""]","","","","","","","","yes","","","","","","","","","SRET","EW_formal","","key","j","16.652981818182162","799.9999682108573","445.8333156175091","自己","无知","Negative","ability","","","","","","","","","",""
"1001","","j","psychophysics","44","310179","0.0-7.0-3.0-0.30","3","2","4","2","3","4","2","5","3","4","4","1","0","-1","-1","-2","-1","-2","1","4","5","5","5","4","2","2","3","1","3","1","5","2","2","3","6","3","6","4","5","5","2","5","4","2","3","6","4","2","7","3","7","6","6","5","6","5","6","6","6","5","5","6","5","2","6","3","6","7","5","5","3","4","5","6","3","4","3","7","595218143807275008","林","577","Male","[""好我"",""坏我"",""坏他"",""好他""]","[""强我"",""弱我"",""弱他"",""强他""]","","","","","","","","yes","","","","","","","","","SRET","EW_formal","","key","j","16.653731092436928","799.9999682108573","445.8333156175091","朋友","盲目","Negative","ability","","","","","","","","","",""
"952","","j","psychophysics","45","312133","0.0-7.0-3.0-0.31","3","2","4","2","3","4","2","5","3","4","4","1","0","-1","-1","-2","-1","-2","1","4","5","5","5","4","2","2","3","1","3","1","5","2","2","3","6","3","6","4","5","5","2","5","4","2","3","6","4","2","7","3","7","6","6","5","6","5","6","6","6","5","5","6","5","2","6","3","6","7","5","5","3","4","5","6","3","4","3","7","595218143807275008","林","577","Male","[""好我"",""坏我"",""坏他"",""好他""]","[""强我"",""弱我"",""弱他"",""强他""]","","","","","","","","yes","","","","","","","","","SRET","EW_formal","","key","j","16.653387931034526","799.9999682108573","445.8333156175091","自己","罪恶","Negative","morality","","","","","","","","","",""
"1089","","j","psychophysics","46","314225","0.0-7.0-3.0-0.32","3","2","4","2","3","4","2","5","3","4","4","1","0","-1","-1","-2","-1","-2","1","4","5","5","5","4","2","2","3","1","3","1","5","2","2","3","6","3","6","4","5","5","2","5","4","2","3","6","4","2","7","3","7","6","6","5","6","5","6","6","6","5","5","6","5","2","6","3","6","7","5","5","3","4","5","6","3","4","3","7","595218143807275008","林","577","Male","[""好我"",""坏我"",""坏他"",""好他""]","[""强我"",""弱我"",""弱他"",""强他""]","","","","","","","","yes","","","","","","","","","SRET","EW_formal","","key","j","16.653592000000177","799.9999682108573","445.8333156175091","自己","无为","Negative","ability","","","","","","","","","",""
"858","","j","psychophysics","47","316085","0.0-7.0-3.0-0.33","3","2","4","2","3","4","2","5","3","4","4","1","0","-1","-1","-2","-1","-2","1","4","5","5","5","4","2","2","3","1","3","1","5","2","2","3","6","3","6","4","5","5","2","5","4","2","3","6","4","2","7","3","7","6","6","5","6","5","6","6","6","5","5","6","5","2","6","3","6","7","5","5","3","4","5","6","3","4","3","7","595218143807275008","林","577","Male","[""好我"",""坏我"",""坏他"",""好他""]","[""强我"",""弱我"",""弱他"",""强他""]","","","","","","","","yes","","","","","","","","","SRET","EW_formal","","key","j","16.65303603603624","799.9999682108573","445.8333156175091","自己","混账","Negative","morality","","","","","","","","","",""
"1267","","f","psychophysics","48","318354","0.0-7.0-3.0-0.34","3","2","4","2","3","4","2","5","3","4","4","1","0","-1","-1","-2","-1","-2","1","4","5","5","5","4","2","2","3","1","3","1","5","2","2","3","6","3","6","4","5","5","2","5","4","2","3","6","4","2","7","3","7","6","6","5","6","5","6","6","6","5","5","6","5","2","6","3","6","7","5","5","3","4","5","6","3","4","3","7","595218143807275008","林","577","Male","[""好我"",""坏我"",""坏他"",""好他""]","[""强我"",""弱我"",""弱他"",""强他""]","","","","","","","","no","","","","","","","","","SRET","EW_formal","","key","f","16.653370370370492","799.9999682108573","445.8333156175091","朋友","低劣","Negative","morality","","","","","","","","","",""
"1178","","f","psychophysics","49","320534","0.0-7.0-3.0-0.35","3","2","4","2","3","4","2","5","3","4","4","1","0","-1","-1","-2","-1","-2","1","4","5","5","5","4","2","2","3","1","3","1","5","2","2","3","6","3","6","4","5","5","2","5","4","2","3","6","4","2","7","3","7","6","6","5","6","5","6","6","6","5","5","6","5","2","6","3","6","7","5","5","3","4","5","6","3","4","3","7","595218143807275008","林","577","Male","[""好我"",""坏我"",""坏他"",""好他""]","[""强我"",""弱我"",""弱他"",""强他""]","","","","","","","","no","","","","","","","","","SRET","EW_formal","","key","f","16.65281538461568","799.9999682108573","445.8333156175091","自己","高尚","Positive","morality","","","","","","","","","",""
"1794","","f","psychophysics","50","323329","0.0-7.0-3.0-0.36","3","2","4","2","3","4","2","5","3","4","4","1","0","-1","-1","-2","-1","-2","1","4","5","5","5","4","2","2","3","1","3","1","5","2","2","3","6","3","6","4","5","5","2","5","4","2","3","6","4","2","7","3","7","6","6","5","6","5","6","6","6","5","5","6","5","2","6","3","6","7","5","5","3","4","5","6","3","4","3","7","595218143807275008","林","577","Male","[""好我"",""坏我"",""坏他"",""好他""]","[""强我"",""弱我"",""弱他"",""强他""]","","","","","","","","no","","","","","","","","","SRET","EW_formal","","key","f","16.653185628742484","799.9999682108573","445.8333156175091","朋友","骁勇","Positive","ability","","","","","","","","","",""
"1130","","j","psychophysics","51","325461","0.0-7.0-3.0-0.37","3","2","4","2","3","4","2","5","3","4","4","1","0","-1","-1","-2","-1","-2","1","4","5","5","5","4","2","2","3","1","3","1","5","2","2","3","6","3","6","4","5","5","2","5","4","2","3","6","4","2","7","3","7","6","6","5","6","5","6","6","6","5","5","6","5","2","6","3","6","7","5","5","3","4","5","6","3","4","3","7","595218143807275008","林","577","Male","[""好我"",""坏我"",""坏他"",""好他""]","[""强我"",""弱我"",""弱他"",""强他""]","","","","","","","","yes","","","","","","","","","SRET","EW_formal","","key","j","16.65330708661441","799.9999682108573","445.8333156175091","自己","贪污","Negative","morality","","","","","","","","","",""
"1630","","j","psychophysics","52","328093","0.0-7.0-3.0-0.38","3","2","4","2","3","4","2","5","3","4","4","1","0","-1","-1","-2","-1","-2","1","4","5","5","5","4","2","2","3","1","3","1","5","2","2","3","6","3","6","4","5","5","2","5","4","2","3","6","4","2","7","3","7","6","6","5","6","5","6","6","6","5","5","6","5","2","6","3","6","7","5","5","3","4","5","6","3","4","3","7","595218143807275008","林","577","Male","[""好我"",""坏我"",""坏他"",""好他""]","[""强我"",""弱我"",""弱他"",""强他""]","","","","","","","","yes","","","","","","","","","SRET","EW_formal","","key","j","16.65352229299365","799.9999682108573","445.8333156175091","朋友","拙笨","Negative","ability","","","","","","","","","",""
"1063","","f","psychophysics","53","330159","0.0-7.0-3.0-0.39","3","2","4","2","3","4","2","5","3","4","4","1","0","-1","-1","-2","-1","-2","1","4","5","5","5","4","2","2","3","1","3","1","5","2","2","3","6","3","6","4","5","5","2","5","4","2","3","6","4","2","7","3","7","6","6","5","6","5","6","6","6","5","5","6","5","2","6","3","6","7","5","5","3","4","5","6","3","4","3","7","595218143807275008","林","577","Male","[""好我"",""坏我"",""坏他"",""好他""]","[""强我"",""弱我"",""弱他"",""强他""]","","","","","","","","no","","","","","","","","","SRET","EW_formal","","key","f","16.653243902438923","799.9999682108573","445.8333156175091","自己","守时","Positive","morality","","","","","","","","","",""
"1384","","f","psychophysics","54","332546","0.0-7.0-3.0-0.40","3","2","4","2","3","4","2","5","3","4","4","1","0","-1","-1","-2","-1","-2","1","4","5","5","5","4","2","2","3","1","3","1","5","2","2","3","6","3","6","4","5","5","2","5","4","2","3","6","4","2","7","3","7","6","6","5","6","5","6","6","6","5","5","6","5","2","6","3","6","7","5","5","3","4","5","6","3","4","3","7","595218143807275008","林","577","Male","[""好我"",""坏我"",""坏他"",""好他""]","[""强我"",""弱我"",""弱他"",""强他""]","","","","","","","","no","","","","","","","","","SRET","EW_formal","","key","f","16.652894366197255","799.9999682108573","445.8333156175091","朋友","犹豫","Negative","ability","","","","","","","","","",""
"797","","j","psychophysics","55","334345","0.0-7.0-3.0-0.41","3","2","4","2","3","4","2","5","3","4","4","1","0","-1","-1","-2","-1","-2","1","4","5","5","5","4","2","2","3","1","3","1","5","2","2","3","6","3","6","4","5","5","2","5","4","2","3","6","4","2","7","3","7","6","6","5","6","5","6","6","6","5","5","6","5","2","6","3","6","7","5","5","3","4","5","6","3","4","3","7","595218143807275008","林","577","Male","[""好我"",""坏我"",""坏他"",""好他""]","[""强我"",""弱我"",""弱他"",""强他""]","","","","","","","","yes","","","","","","","","","SRET","EW_formal","","key","j","16.652962616822144","799.9999682108573","445.8333156175091","朋友","背叛","Negative","morality","","","","","","","","","",""
"1222","","f","psychophysics","56","336568","0.0-7.0-3.0-0.42","3","2","4","2","3","4","2","5","3","4","4","1","0","-1","-1","-2","-1","-2","1","4","5","5","5","4","2","2","3","1","3","1","5","2","2","3","6","3","6","4","5","5","2","5","4","2","3","6","4","2","7","3","7","6","6","5","6","5","6","6","6","5","5","6","5","2","6","3","6","7","5","5","3","4","5","6","3","4","3","7","595218143807275008","林","577","Male","[""好我"",""坏我"",""坏他"",""好他""]","[""强我"",""弱我"",""弱他"",""强他""]","","","","","","","","no","","","","","","","","","SRET","EW_formal","","key","f","16.653022556390642","799.9999682108573","445.8333156175091","自己","果决","Positive","ability","","","","","","","","","",""
"830","","f","psychophysics","57","338400","0.0-7.0-3.0-0.43","3","2","4","2","3","4","2","5","3","4","4","1","0","-1","-1","-2","-1","-2","1","4","5","5","5","4","2","2","3","1","3","1","5","2","2","3","6","3","6","4","5","5","2","5","4","2","3","6","4","2","7","3","7","6","6","5","6","5","6","6","6","5","5","6","5","2","6","3","6","7","5","5","3","4","5","6","3","4","3","7","595218143807275008","林","577","Male","[""好我"",""坏我"",""坏他"",""好他""]","[""强我"",""弱我"",""弱他"",""强他""]","","","","","","","","no","","","","","","","","","SRET","EW_formal","","key","f","16.65359633027548","799.9999682108573","445.8333156175091","自己","博学","Positive","ability","","","","","","","","","",""
"1101","","f","psychophysics","58","340502","0.0-7.0-3.0-0.44","3","2","4","2","3","4","2","5","3","4","4","1","0","-1","-1","-2","-1","-2","1","4","5","5","5","4","2","2","3","1","3","1","5","2","2","3","6","3","6","4","5","5","2","5","4","2","3","6","4","2","7","3","7","6","6","5","6","5","6","6","6","5","5","6","5","2","6","3","6","7","5","5","3","4","5","6","3","4","3","7","595218143807275008","林","577","Male","[""好我"",""坏我"",""坏他"",""好他""]","[""强我"",""弱我"",""弱他"",""强他""]","","","","","","","","no","","","","","","","","","SRET","EW_formal","","key","f","16.652880000000355","799.9999682108573","445.8333156175091","自己","业余","Negative","ability","","","","","","","","","",""
"1049","","f","psychophysics","59","342554","0.0-7.0-3.0-0.45","3","2","4","2","3","4","2","5","3","4","4","1","0","-1","-1","-2","-1","-2","1","4","5","5","5","4","2","2","3","1","3","1","5","2","2","3","6","3","6","4","5","5","2","5","4","2","3","6","4","2","7","3","7","6","6","5","6","5","6","6","6","5","5","6","5","2","6","3","6","7","5","5","3","4","5","6","3","4","3","7","595218143807275008","林","577","Male","[""好我"",""坏我"",""坏他"",""好他""]","[""强我"",""弱我"",""弱他"",""强他""]","","","","","","","","no","","","","","","","","","SRET","EW_formal","","key","f","16.652680327868676","799.9999682108573","445.8333156175091","朋友","敬业","Positive","morality","","","","","","","","","",""
"733","","f","psychophysics","60","344288","0.0-7.0-3.0-0.46","3","2","4","2","3","4","2","5","3","4","4","1","0","-1","-1","-2","-1","-2","1","4","5","5","5","4","2","2","3","1","3","1","5","2","2","3","6","3","6","4","5","5","2","5","4","2","3","6","4","2","7","3","7","6","6","5","6","5","6","6","6","5","5","6","5","2","6","3","6","7","5","5","3","4","5","6","3","4","3","7","595218143807275008","林","577","Male","[""好我"",""坏我"",""坏他"",""好他""]","[""强我"",""弱我"",""弱他"",""强他""]","","","","","","","","no","","","","","","","","","SRET","EW_formal","","key","f","16.653601941747535","799.9999682108573","445.8333156175091","朋友","勤恳","Positive","morality","","","","","","","","","",""
"729","","f","psychophysics","61","346019","0.0-7.0-3.0-0.47","3","2","4","2","3","4","2","5","3","4","4","1","0","-1","-1","-2","-1","-2","1","4","5","5","5","4","2","2","3","1","3","1","5","2","2","3","6","3","6","4","5","5","2","5","4","2","3","6","4","2","7","3","7","6","6","5","6","5","6","6","6","5","5","6","5","2","6","3","6","7","5","5","3","4","5","6","3","4","3","7","595218143807275008","林","577","Male","[""好我"",""坏我"",""坏他"",""好他""]","[""强我"",""弱我"",""弱他"",""强他""]","","","","","","","","no","","","","","","","","","SRET","EW_formal","","key","f","16.653126213592206","799.9999682108573","445.8333156175091","自己","努力","Positive","ability","","","","","","","","","",""
"955","","f","psychophysics","62","347975","0.0-7.0-3.0-0.48","3","2","4","2","3","4","2","5","3","4","4","1","0","-1","-1","-2","-1","-2","1","4","5","5","5","4","2","2","3","1","3","1","5","2","2","3","6","3","6","4","5","5","2","5","4","2","3","6","4","2","7","3","7","6","6","5","6","5","6","6","6","5","5","6","5","2","6","3","6","7","5","5","3","4","5","6","3","4","3","7","595218143807275008","林","577","Male","[""好我"",""坏我"",""坏他"",""好他""]","[""强我"",""弱我"",""弱他"",""强他""]","","","","","","","","no","","","","","","","","","SRET","EW_formal","","key","f","16.653239316239347","799.9999682108573","445.8333156175091","朋友","好心","Positive","morality","","","","","","","","","",""
"826","","j","psychophysics","63","349812","0.0-7.0-3.0-0.49","3","2","4","2","3","4","2","5","3","4","4","1","0","-1","-1","-2","-1","-2","1","4","5","5","5","4","2","2","3","1","3","1","5","2","2","3","6","3","6","4","5","5","2","5","4","2","3","6","4","2","7","3","7","6","6","5","6","5","6","6","6","5","5","6","5","2","6","3","6","7","5","5","3","4","5","6","3","4","3","7","595218143807275008","林","577","Male","[""好我"",""坏我"",""坏他"",""好他""]","[""强我"",""弱我"",""弱他"",""强他""]","","","","","","","","yes","","","","","","","","","SRET","EW_formal","","key","j","16.653376146788933","799.9999682108573","445.8333156175091","朋友","拖延","Negative","ability","","","","","","","","","",""
"731","","j","psychophysics","64","351545","0.0-7.0-3.0-0.50","3","2","4","2","3","4","2","5","3","4","4","1","0","-1","-1","-2","-1","-2","1","4","5","5","5","4","2","2","3","1","3","1","5","2","2","3","6","3","6","4","5","5","2","5","4","2","3","6","4","2","7","3","7","6","6","5","6","5","6","6","6","5","5","6","5","2","6","3","6","7","5","5","3","4","5","6","3","4","3","7","595218143807275008","林","577","Male","[""好我"",""坏我"",""坏他"",""好他""]","[""强我"",""弱我"",""弱他"",""强他""]","","","","","","","","yes","","","","","","","","","SRET","EW_formal","","key","j","16.652417475728374","799.9999682108573","445.8333156175091","朋友","淫乱","Negative","morality","","","","","","","","","",""
"1543","","f","psychophysics","65","354091","0.0-7.0-3.0-0.51","3","2","4","2","3","4","2","5","3","4","4","1","0","-1","-1","-2","-1","-2","1","4","5","5","5","4","2","2","3","1","3","1","5","2","2","3","6","3","6","4","5","5","2","5","4","2","3","6","4","2","7","3","7","6","6","5","6","5","6","6","6","5","5","6","5","2","6","3","6","7","5","5","3","4","5","6","3","4","3","7","595218143807275008","林","577","Male","[""好我"",""坏我"",""坏他"",""好他""]","[""强我"",""弱我"",""弱他"",""强他""]","","","","","","","","no","","","","","","","","","SRET","EW_formal","","key","f","16.653177631579304","799.9999682108573","445.8333156175091","自己","扎实","Positive","ability","","","","","","","","","",""
"700","","f","psychophysics","66","355792","0.0-7.0-3.0-0.52","3","2","4","2","3","4","2","5","3","4","4","1","0","-1","-1","-2","-1","-2","1","4","5","5","5","4","2","2","3","1","3","1","5","2","2","3","6","3","6","4","5","5","2","5","4","2","3","6","4","2","7","3","7","6","6","5","6","5","6","6","6","5","5","6","5","2","6","3","6","7","5","5","3","4","5","6","3","4","3","7","595218143807275008","林","577","Male","[""好我"",""坏我"",""坏他"",""好他""]","[""强我"",""弱我"",""弱他"",""强他""]","","","","","","","","no","","","","","","","","","SRET","EW_formal","","key","f","16.653089108910887","799.9999682108573","445.8333156175091","自己","懂行","Positive","ability","","","","","","","","","",""
"700","","j","psychophysics","67","357493","0.0-7.0-3.0-0.53","3","2","4","2","3","4","2","5","3","4","4","1","0","-1","-1","-2","-1","-2","1","4","5","5","5","4","2","2","3","1","3","1","5","2","2","3","6","3","6","4","5","5","2","5","4","2","3","6","4","2","7","3","7","6","6","5","6","5","6","6","6","5","5","6","5","2","6","3","6","7","5","5","3","4","5","6","3","4","3","7","595218143807275008","林","577","Male","[""好我"",""坏我"",""坏他"",""好他""]","[""强我"",""弱我"",""弱他"",""强他""]","","","","","","","","yes","","","","","","","","","SRET","EW_formal","","key","j","16.652999999999796","799.9999682108573","445.8333156175091","朋友","不端","Negative","morality","","","","","","","","","",""
"921","","f","psychophysics","68","359416","0.0-7.0-3.0-0.54","3","2","4","2","3","4","2","5","3","4","4","1","0","-1","-1","-2","-1","-2","1","4","5","5","5","4","2","2","3","1","3","1","5","2","2","3","6","3","6","4","5","5","2","5","4","2","3","6","4","2","7","3","7","6","6","5","6","5","6","6","6","5","5","6","5","2","6","3","6","7","5","5","3","4","5","6","3","4","3","7","595218143807275008","林","577","Male","[""好我"",""坏我"",""坏他"",""好他""]","[""强我"",""弱我"",""弱他"",""强他""]","","","","","","","","no","","","","","","","","","SRET","EW_formal","","key","f","16.65353913043484","799.9999682108573","445.8333156175091","自己","忠良","Positive","morality","","","","","","","","","",""
"781","","j","psychophysics","69","361198","0.0-7.0-3.0-0.55","3","2","4","2","3","4","2","5","3","4","4","1","0","-1","-1","-2","-1","-2","1","4","5","5","5","4","2","2","3","1","3","1","5","2","2","3","6","3","6","4","5","5","2","5","4","2","3","6","4","2","7","3","7","6","6","5","6","5","6","6","6","5","5","6","5","2","6","3","6","7","5","5","3","4","5","6","3","4","3","7","595218143807275008","林","577","Male","[""好我"",""坏我"",""坏他"",""好他""]","[""强我"",""弱我"",""弱他"",""强他""]","","","","","","","","yes","","","","","","","","","SRET","EW_formal","","key","j","16.654160377358632","799.9999682108573","445.8333156175091","朋友","智慧","Positive","ability","","","","","","","","","",""
"967","","j","psychophysics","70","363166","0.0-7.0-3.0-0.56","3","2","4","2","3","4","2","5","3","4","4","1","0","-1","-1","-2","-1","-2","1","4","5","5","5","4","2","2","3","1","3","1","5","2","2","3","6","3","6","4","5","5","2","5","4","2","3","6","4","2","7","3","7","6","6","5","6","5","6","6","6","5","5","6","5","2","6","3","6","7","5","5","3","4","5","6","3","4","3","7","595218143807275008","林","577","Male","[""好我"",""坏我"",""坏他"",""好他""]","[""强我"",""弱我"",""弱他"",""强他""]","","","","","","","","yes","","","","","","","","","SRET","EW_formal","","key","j","16.65311965811948","799.9999682108573","445.8333156175091","自己","淡泊","Positive","morality","","","","","","","","","",""
"887","","f","psychophysics","71","365054","0.0-7.0-3.0-0.57","3","2","4","2","3","4","2","5","3","4","4","1","0","-1","-1","-2","-1","-2","1","4","5","5","5","4","2","2","3","1","3","1","5","2","2","3","6","3","6","4","5","5","2","5","4","2","3","6","4","2","7","3","7","6","6","5","6","5","6","6","6","5","5","6","5","2","6","3","6","7","5","5","3","4","5","6","3","4","3","7","595218143807275008","林","577","Male","[""好我"",""坏我"",""坏他"",""好他""]","[""强我"",""弱我"",""弱他"",""强他""]","","","","","","","","no","","","","","","","","","SRET","EW_formal","","key","f","16.652892857142433","799.9999682108573","445.8333156175091","自己","无耻","Negative","morality","","","","","","","","","",""
"1114","","j","psychophysics","72","367171","0.0-7.0-3.0-0.58","3","2","4","2","3","4","2","5","3","4","4","1","0","-1","-1","-2","-1","-2","1","4","5","5","5","4","2","2","3","1","3","1","5","2","2","3","6","3","6","4","5","5","2","5","4","2","3","6","4","2","7","3","7","6","6","5","6","5","6","6","6","5","5","6","5","2","6","3","6","7","5","5","3","4","5","6","3","4","3","7","595218143807275008","林","577","Male","[""好我"",""坏我"",""坏他"",""好他""]","[""强我"",""弱我"",""弱他"",""强他""]","","","","","","","","yes","","","","","","","","","SRET","EW_formal","","key","j","19.984180952380743","799.9999682108573","445.8333156175091","自己","逞强","Negative","ability","","","","","","","","","",""
"1403","","j","psychophysics","73","369576","0.0-7.0-3.0-0.59","3","2","4","2","3","4","2","5","3","4","4","1","0","-1","-1","-2","-1","-2","1","4","5","5","5","4","2","2","3","1","3","1","5","2","2","3","6","3","6","4","5","5","2","5","4","2","3","6","4","2","7","3","7","6","6","5","6","5","6","6","6","5","5","6","5","2","6","3","6","7","5","5","3","4","5","6","3","4","3","7","595218143807275008","林","577","Male","[""好我"",""坏我"",""坏他"",""好他""]","[""强我"",""弱我"",""弱他"",""强他""]","","","","","","","","yes","","","","","","","","","SRET","EW_formal","","key","j","16.652659722222275","799.9999682108573","445.8333156175091","自己","愚痴","Negative","ability","","","","","","","","","",""
"1105","","j","psychophysics","74","371683","0.0-7.0-3.0-0.60","3","2","4","2","3","4","2","5","3","4","4","1","0","-1","-1","-2","-1","-2","1","4","5","5","5","4","2","2","3","1","3","1","5","2","2","3","6","3","6","4","5","5","2","5","4","2","3","6","4","2","7","3","7","6","6","5","6","5","6","6","6","5","5","6","5","2","6","3","6","7","5","5","3","4","5","6","3","4","3","7","595218143807275008","林","577","Male","[""好我"",""坏我"",""坏他"",""好他""]","[""强我"",""弱我"",""弱他"",""强他""]","","","","","","","","yes","","","","","","","","","SRET","EW_formal","","key","j","16.65329600000009","799.9999682108573","445.8333156175091","自己","不良","Negative","morality","","","","","","","","","",""
"853","","f","psychophysics","75","373538","0.0-7.0-3.0-0.61","3","2","4","2","3","4","2","5","3","4","4","1","0","-1","-1","-2","-1","-2","1","4","5","5","5","4","2","2","3","1","3","1","5","2","2","3","6","3","6","4","5","5","2","5","4","2","3","6","4","2","7","3","7","6","6","5","6","5","6","6","6","5","5","6","5","2","6","3","6","7","5","5","3","4","5","6","3","4","3","7","595218143807275008","林","577","Male","[""好我"",""坏我"",""坏他"",""好他""]","[""强我"",""弱我"",""弱他"",""强他""]","","","","","","","","no","","","","","","","","","SRET","EW_formal","","key","f","16.653054054054067","799.9999682108573","445.8333156175091","朋友","不仁","Negative","morality","","","","","","","","","",""
"704","","j","psychophysics","76","375245","0.0-7.0-3.0-0.62","3","2","4","2","3","4","2","5","3","4","4","1","0","-1","-1","-2","-1","-2","1","4","5","5","5","4","2","2","3","1","3","1","5","2","2","3","6","3","6","4","5","5","2","5","4","2","3","6","4","2","7","3","7","6","6","5","6","5","6","6","6","5","5","6","5","2","6","3","6","7","5","5","3","4","5","6","3","4","3","7","595218143807275008","林","577","Male","[""好我"",""坏我"",""坏他"",""好他""]","[""强我"",""弱我"",""弱他"",""强他""]","","","","","","","","yes","","","","","","","","","SRET","EW_formal","","key","j","16.652960396039827","799.9999682108573","445.8333156175091","自己","奸诈","Negative","morality","","","","","","","","","",""
"984","","j","psychophysics","77","377230","0.0-7.0-3.0-0.63","3","2","4","2","3","4","2","5","3","4","4","1","0","-1","-1","-2","-1","-2","1","4","5","5","5","4","2","2","3","1","3","1","5","2","2","3","6","3","6","4","5","5","2","5","4","2","3","6","4","2","7","3","7","6","6","5","6","5","6","6","6","5","5","6","5","2","6","3","6","7","5","5","3","4","5","6","3","4","3","7","595218143807275008","林","577","Male","[""好我"",""坏我"",""坏他"",""好他""]","[""强我"",""弱我"",""弱他"",""强他""]","","","","","","","","yes","","","","","","","","","SRET","EW_formal","","key","j","16.653127118644218","799.9999682108573","445.8333156175091","朋友","短视","Negative","ability","","","","","","","","","",""
"1002","","j","psychophysics","78","379234","0.0-7.0-3.0-0.64","3","2","4","2","3","4","2","5","3","4","4","1","0","-1","-1","-2","-1","-2","1","4","5","5","5","4","2","2","3","1","3","1","5","2","2","3","6","3","6","4","5","5","2","5","4","2","3","6","4","2","7","3","7","6","6","5","6","5","6","6","6","5","5","6","5","2","6","3","6","7","5","5","3","4","5","6","3","4","3","7","595218143807275008","林","577","Male","[""好我"",""坏我"",""坏他"",""好他""]","[""强我"",""弱我"",""弱他"",""强他""]","","","","","","","","yes","","","","","","","","","SRET","EW_formal","","key","j","16.65289166666674","799.9999682108573","445.8333156175091","朋友","偏私","Negative","morality","","","","","","","","","",""
"836","","f","psychophysics","79","381072","0.0-7.0-3.0-0.65","3","2","4","2","3","4","2","5","3","4","4","1","0","-1","-1","-2","-1","-2","1","4","5","5","5","4","2","2","3","1","3","1","5","2","2","3","6","3","6","4","5","5","2","5","4","2","3","6","4","2","7","3","7","6","6","5","6","5","6","6","6","5","5","6","5","2","6","3","6","7","5","5","3","4","5","6","3","4","3","7","595218143807275008","林","577","Male","[""好我"",""坏我"",""坏他"",""好他""]","[""强我"",""弱我"",""弱他"",""强他""]","","","","","","","","no","","","","","","","","","SRET","EW_formal","","key","f","16.65317431192657","799.9999682108573","445.8333156175091","朋友","利落","Positive","ability","","","","","","","","","",""
"949","","f","psychophysics","80","383026","0.0-7.0-3.0-0.66","3","2","4","2","3","4","2","5","3","4","4","1","0","-1","-1","-2","-1","-2","1","4","5","5","5","4","2","2","3","1","3","1","5","2","2","3","6","3","6","4","5","5","2","5","4","2","3","6","4","2","7","3","7","6","6","5","6","5","6","6","6","5","5","6","5","2","6","3","6","7","5","5","3","4","5","6","3","4","3","7","595218143807275008","林","577","Male","[""好我"",""坏我"",""坏他"",""好他""]","[""强我"",""弱我"",""弱他"",""强他""]","","","","","","","","no","","","","","","","","","SRET","EW_formal","","key","f","16.652784482758605","799.9999682108573","445.8333156175091","自己","变通","Positive","ability","","","","","","","","","",""
"1095","","j","psychophysics","81","385123","0.0-7.0-3.0-0.67","3","2","4","2","3","4","2","5","3","4","4","1","0","-1","-1","-2","-1","-2","1","4","5","5","5","4","2","2","3","1","3","1","5","2","2","3","6","3","6","4","5","5","2","5","4","2","3","6","4","2","7","3","7","6","6","5","6","5","6","6","6","5","5","6","5","2","6","3","6","7","5","5","3","4","5","6","3","4","3","7","595218143807275008","林","577","Male","[""好我"",""坏我"",""坏他"",""好他""]","[""强我"",""弱我"",""弱他"",""强他""]","","","","","","","","yes","","","","","","","","","SRET","EW_formal","","key","j","16.653007999999915","799.9999682108573","445.8333156175091","自己","蛇蝎","Negative","morality","","","","","","","","","",""
"728","","f","psychophysics","82","386854","0.0-7.0-3.0-0.68","3","2","4","2","3","4","2","5","3","4","4","1","0","-1","-1","-2","-1","-2","1","4","5","5","5","4","2","2","3","1","3","1","5","2","2","3","6","3","6","4","5","5","2","5","4","2","3","6","4","2","7","3","7","6","6","5","6","5","6","6","6","5","5","6","5","2","6","3","6","7","5","5","3","4","5","6","3","4","3","7","595218143807275008","林","577","Male","[""好我"",""坏我"",""坏他"",""好他""]","[""强我"",""弱我"",""弱他"",""强他""]","","","","","","","","no","","","","","","","","","SRET","EW_formal","","key","f","16.653184466019333","799.9999682108573","445.8333156175091","自己","君子","Positive","morality","","","","","","","","","",""
"1111","","j","psychophysics","83","388966","0.0-7.0-3.0-0.69","3","2","4","2","3","4","2","5","3","4","4","1","0","-1","-1","-2","-1","-2","1","4","5","5","5","4","2","2","3","1","3","1","5","2","2","3","6","3","6","4","5","5","2","5","4","2","3","6","4","2","7","3","7","6","6","5","6","5","6","6","6","5","5","6","5","2","6","3","6","7","5","5","3","4","5","6","3","4","3","7","595218143807275008","林","577","Male","[""好我"",""坏我"",""坏他"",""好他""]","[""强我"",""弱我"",""弱他"",""强他""]","","","","","","","","yes","","","","","","","","","SRET","EW_formal","","key","j","16.653150793650955","799.9999682108573","445.8333156175091","朋友","马虎","Negative","ability","","","","","","","","","",""
"618","","j","psychophysics","84","390586","0.0-7.0-3.0-0.70","3","2","4","2","3","4","2","5","3","4","4","1","0","-1","-1","-2","-1","-2","1","4","5","5","5","4","2","2","3","1","3","1","5","2","2","3","6","3","6","4","5","5","2","5","4","2","3","6","4","2","7","3","7","6","6","5","6","5","6","6","6","5","5","6","5","2","6","3","6","7","5","5","3","4","5","6","3","4","3","7","595218143807275008","林","577","Male","[""好我"",""坏我"",""坏他"",""好他""]","[""强我"",""弱我"",""弱他"",""强他""]","","","","","","","","yes","","","","","","","","","SRET","EW_formal","","key","j","16.653947916667068","799.9999682108573","445.8333156175091","朋友","笨蛋","Negative","ability","","","","","","","","","",""
"687","","f","psychophysics","85","392275","0.0-7.0-3.0-0.71","3","2","4","2","3","4","2","5","3","4","4","1","0","-1","-1","-2","-1","-2","1","4","5","5","5","4","2","2","3","1","3","1","5","2","2","3","6","3","6","4","5","5","2","5","4","2","3","6","4","2","7","3","7","6","6","5","6","5","6","6","6","5","5","6","5","2","6","3","6","7","5","5","3","4","5","6","3","4","3","7","595218143807275008","林","577","Male","[""好我"",""坏我"",""坏他"",""好他""]","[""强我"",""弱我"",""弱他"",""强他""]","","","","","","","","no","","","","","","","","","SRET","EW_formal","","key","f","16.653059405940333","799.9999682108573","445.8333156175091","朋友","礼貌","Positive","morality","","","","","","","","","",""
"1110","","j","psychophysics","86","394387","0.0-7.0-3.0-0.72","3","2","4","2","3","4","2","5","3","4","4","1","0","-1","-1","-2","-1","-2","1","4","5","5","5","4","2","2","3","1","3","1","5","2","2","3","6","3","6","4","5","5","2","5","4","2","3","6","4","2","7","3","7","6","6","5","6","5","6","6","6","5","5","6","5","2","6","3","6","7","5","5","3","4","5","6","3","4","3","7","595218143807275008","林","577","Male","[""好我"",""坏我"",""坏他"",""好他""]","[""强我"",""弱我"",""弱他"",""强他""]","","","","","","","","yes","","","","","","","","","SRET","EW_formal","","key","j","16.65299999999993","799.9999682108573","445.8333156175091","朋友","草率","Negative","ability","","","","","","","","","",""
"689","","j","psychophysics","87","396078","0.0-7.0-3.0-0.73","3","2","4","2","3","4","2","5","3","4","4","1","0","-1","-1","-2","-1","-2","1","4","5","5","5","4","2","2","3","1","3","1","5","2","2","3","6","3","6","4","5","5","2","5","4","2","3","6","4","2","7","3","7","6","6","5","6","5","6","6","6","5","5","6","5","2","6","3","6","7","5","5","3","4","5","6","3","4","3","7","595218143807275008","林","577","Male","[""好我"",""坏我"",""坏他"",""好他""]","[""强我"",""弱我"",""弱他"",""强他""]","","","","","","","","yes","","","","","","","","","SRET","EW_formal","","key","j","16.65332999999984","799.9999682108573","445.8333156175091","自己","沉着","Positive","ability","","","","","","","","","",""
"697","","j","psychophysics","88","397778","0.0-7.0-3.0-0.74","3","2","4","2","3","4","2","5","3","4","4","1","0","-1","-1","-2","-1","-2","1","4","5","5","5","4","2","2","3","1","3","1","5","2","2","3","6","3","6","4","5","5","2","5","4","2","3","6","4","2","7","3","7","6","6","5","6","5","6","6","6","5","5","6","5","2","6","3","6","7","5","5","3","4","5","6","3","4","3","7","595218143807275008","林","577","Male","[""好我"",""坏我"",""坏他"",""好他""]","[""强我"",""弱我"",""弱他"",""强他""]","","","","","","","","yes","","","","","","","","","SRET","EW_formal","","key","j","16.65323762376251","799.9999682108573","445.8333156175091","自己","窝囊","Negative","ability","","","","","","","","","",""
"721","","f","psychophysics","89","399501","0.0-7.0-3.0-0.75","3","2","4","2","3","4","2","5","3","4","4","1","0","-1","-1","-2","-1","-2","1","4","5","5","5","4","2","2","3","1","3","1","5","2","2","3","6","3","6","4","5","5","2","5","4","2","3","6","4","2","7","3","7","6","6","5","6","5","6","6","6","5","5","6","5","2","6","3","6","7","5","5","3","4","5","6","3","4","3","7","595218143807275008","林","577","Male","[""好我"",""坏我"",""坏他"",""好他""]","[""强我"",""弱我"",""弱他"",""强他""]","","","","","","","","no","","","","","","","","","SRET","EW_formal","","key","f","16.652718446602325","799.9999682108573","445.8333156175091","自己","忠诚","Positive","morality","","","","","","","","","",""
"929","","j","psychophysics","90","401432","0.0-7.0-3.0-0.76","3","2","4","2","3","4","2","5","3","4","4","1","0","-1","-1","-2","-1","-2","1","4","5","5","5","4","2","2","3","1","3","1","5","2","2","3","6","3","6","4","5","5","2","5","4","2","3","6","4","2","7","3","7","6","6","5","6","5","6","6","6","5","5","6","5","2","6","3","6","7","5","5","3","4","5","6","3","4","3","7","595218143807275008","林","577","Male","[""好我"",""坏我"",""坏他"",""好他""]","[""强我"",""弱我"",""弱他"",""强他""]","","","","","","","","yes","","","","","","","","","SRET","EW_formal","","key","j","16.65333043478237","799.9999682108573","445.8333156175091","朋友","势利","Negative","morality","","","","","","","","","",""
"804","","j","psychophysics","91","403237","0.0-7.0-3.0-0.77","3","2","4","2","3","4","2","5","3","4","4","1","0","-1","-1","-2","-1","-2","1","4","5","5","5","4","2","2","3","1","3","1","5","2","2","3","6","3","6","4","5","5","2","5","4","2","3","6","4","2","7","3","7","6","6","5","6","5","6","6","6","5","5","6","5","2","6","3","6","7","5","5","3","4","5","6","3","4","3","7","595218143807275008","林","577","Male","[""好我"",""坏我"",""坏他"",""好他""]","[""强我"",""弱我"",""弱他"",""强他""]","","","","","","","","yes","","","","","","","","","SRET","EW_formal","","key","j","16.65322429906505","799.9999682108573","445.8333156175091","自己","下流","Negative","morality","","","","","","","","","",""
"707","","j","psychophysics","92","404945","0.0-7.0-3.0-0.78","3","2","4","2","3","4","2","5","3","4","4","1","0","-1","-1","-2","-1","-2","1","4","5","5","5","4","2","2","3","1","3","1","5","2","2","3","6","3","6","4","5","5","2","5","4","2","3","6","4","2","7","3","7","6","6","5","6","5","6","6","6","5","5","6","5","2","6","3","6","7","5","5","3","4","5","6","3","4","3","7","595218143807275008","林","577","Male","[""好我"",""坏我"",""坏他"",""好他""]","[""强我"",""弱我"",""弱他"",""强他""]","","","","","","","","yes","","","","","","","","","SRET","EW_formal","","key","j","16.654421568627345","799.9999682108573","445.8333156175091","朋友","娴熟","Positive","ability","","","","","","","","","",""
"897","","j","psychophysics","93","406844","0.0-7.0-3.0-0.79","3","2","4","2","3","4","2","5","3","4","4","1","0","-1","-1","-2","-1","-2","1","4","5","5","5","4","2","2","3","1","3","1","5","2","2","3","6","3","6","4","5","5","2","5","4","2","3","6","4","2","7","3","7","6","6","5","6","5","6","6","6","5","5","6","5","2","6","3","6","7","5","5","3","4","5","6","3","4","3","7","595218143807275008","林","577","Male","[""好我"",""坏我"",""坏他"",""好他""]","[""强我"",""弱我"",""弱他"",""强他""]","","","","","","","","yes","","","","","","","","","SRET","EW_formal","","key","j","16.653185840707945","799.9999682108573","445.8333156175091","朋友","伪善","Negative","morality","","","","","","","","","",""
"755","","f","psychophysics","94","408602","0.0-7.0-3.0-0.80","3","2","4","2","3","4","2","5","3","4","4","1","0","-1","-1","-2","-1","-2","1","4","5","5","5","4","2","2","3","1","3","1","5","2","2","3","6","3","6","4","5","5","2","5","4","2","3","6","4","2","7","3","7","6","6","5","6","5","6","6","6","5","5","6","5","2","6","3","6","7","5","5","3","4","5","6","3","4","3","7","595218143807275008","林","577","Male","[""好我"",""坏我"",""坏他"",""好他""]","[""强我"",""弱我"",""弱他"",""强他""]","","","","","","","","no","","","","","","","","","SRET","EW_formal","","key","f","16.652903846153304","799.9999682108573","445.8333156175091","朋友","谦逊","Positive","morality","","","","","","","","","",""
"756","","f","psychophysics","95","410360","0.0-7.0-3.0-0.81","3","2","4","2","3","4","2","5","3","4","4","1","0","-1","-1","-2","-1","-2","1","4","5","5","5","4","2","2","3","1","3","1","5","2","2","3","6","3","6","4","5","5","2","5","4","2","3","6","4","2","7","3","7","6","6","5","6","5","6","6","6","5","5","6","5","2","6","3","6","7","5","5","3","4","5","6","3","4","3","7","595218143807275008","林","577","Male","[""好我"",""坏我"",""坏他"",""好他""]","[""强我"",""弱我"",""弱他"",""强他""]","","","","","","","","no","","","","","","","","","SRET","EW_formal","","key","f","16.65338095238133","799.9999682108573","445.8333156175091","朋友","廉正","Positive","morality","","","","","","","","","",""
"895","","j","psychophysics","96","412256","0.0-7.0-3.0-0.82","3","2","4","2","3","4","2","5","3","4","4","1","0","-1","-1","-2","-1","-2","1","4","5","5","5","4","2","2","3","1","3","1","5","2","2","3","6","3","6","4","5","5","2","5","4","2","3","6","4","2","7","3","7","6","6","5","6","5","6","6","6","5","5","6","5","2","6","3","6","7","5","5","3","4","5","6","3","4","3","7","595218143807275008","林","577","Male","[""好我"",""坏我"",""坏他"",""好他""]","[""强我"",""弱我"",""弱他"",""强他""]","","","","","","","","yes","","","","","","","","","SRET","EW_formal","","key","j","16.65336283185855","799.9999682108573","445.8333156175091","自己","缺德","Negative","morality","","","","","","","","","",""
"777","","j","psychophysics","97","414034","0.0-7.0-3.0-0.83","3","2","4","2","3","4","2","5","3","4","4","1","0","-1","-1","-2","-1","-2","1","4","5","5","5","4","2","2","3","1","3","1","5","2","2","3","6","3","6","4","5","5","2","5","4","2","3","6","4","2","7","3","7","6","6","5","6","5","6","6","6","5","5","6","5","2","6","3","6","7","5","5","3","4","5","6","3","4","3","7","595218143807275008","林","577","Male","[""好我"",""坏我"",""坏他"",""好他""]","[""强我"",""弱我"",""弱他"",""强他""]","","","","","","","","yes","","","","","","","","","SRET","EW_formal","","key","j","16.652399999999798","799.9999682108573","445.8333156175091","朋友","侠义","Positive","morality","","","","","","","","","",""
"700","","f","psychophysics","98","415737","0.0-7.0-3.0-0.84","3","2","4","2","3","4","2","5","3","4","4","1","0","-1","-1","-2","-1","-2","1","4","5","5","5","4","2","2","3","1","3","1","5","2","2","3","6","3","6","4","5","5","2","5","4","2","3","6","4","2","7","3","7","6","6","5","6","5","6","6","6","5","5","6","5","2","6","3","6","7","5","5","3","4","5","6","3","4","3","7","595218143807275008","林","577","Male","[""好我"",""坏我"",""坏他"",""好他""]","[""强我"",""弱我"",""弱他"",""强他""]","","","","","","","","no","","","","","","","","","SRET","EW_formal","","key","f","16.65257843137278","799.9999682108573","445.8333156175091","自己","主见","Positive","ability","","","","","","","","","",""
"681","","f","psychophysics","99","417420","0.0-7.0-3.0-0.85","3","2","4","2","3","4","2","5","3","4","4","1","0","-1","-1","-2","-1","-2","1","4","5","5","5","4","2","2","3","1","3","1","5","2","2","3","6","3","6","4","5","5","2","5","4","2","3","6","4","2","7","3","7","6","6","5","6","5","6","6","6","5","5","6","5","2","6","3","6","7","5","5","3","4","5","6","3","4","3","7","595218143807275008","林","577","Male","[""好我"",""坏我"",""坏他"",""好他""]","[""强我"",""弱我"",""弱他"",""强他""]","","","","","","","","no","","","","","","","","","SRET","EW_formal","","key","f","16.653050000000512","799.9999682108573","445.8333156175091","朋友","素养","Positive","morality","","","","","","","","","",""
"781","","j","psychophysics","100","419204","0.0-7.0-3.0-0.86","3","2","4","2","3","4","2","5","3","4","4","1","0","-1","-1","-2","-1","-2","1","4","5","5","5","4","2","2","3","1","3","1","5","2","2","3","6","3","6","4","5","5","2","5","4","2","3","6","4","2","7","3","7","6","6","5","6","5","6","6","6","5","5","6","5","2","6","3","6","7","5","5","3","4","5","6","3","4","3","7","595218143807275008","林","577","Male","[""好我"",""坏我"",""坏他"",""好他""]","[""强我"",""弱我"",""弱他"",""强他""]","","","","","","","","yes","","","","","","","","","SRET","EW_formal","","key","j","16.65345283018871","799.9999682108573","445.8333156175091","朋友","低俗","Negative","morality","","","","","","","","","",""
"797","","j","psychophysics","101","421001","0.0-7.0-3.0-0.87","3","2","4","2","3","4","2","5","3","4","4","1","0","-1","-1","-2","-1","-2","1","4","5","5","5","4","2","2","3","1","3","1","5","2","2","3","6","3","6","4","5","5","2","5","4","2","3","6","4","2","7","3","7","6","6","5","6","5","6","6","6","5","5","6","5","2","6","3","6","7","5","5","3","4","5","6","3","4","3","7","595218143807275008","林","577","Male","[""好我"",""坏我"",""坏他"",""好他""]","[""强我"",""弱我"",""弱他"",""强他""]","","","","","","","","yes","","","","","","","","","SRET","EW_formal","","key","j","16.653635514018813","799.9999682108573","445.8333156175091","自己","缓慢","Negative","ability","","","","","","","","","",""
"2886","
    <p><div style='color:white;font-size:35px; line-height:20px;'>计算任务</div></p><br>
    <p><div style='color:red;font-size:25px; line-height:20px;'>接下来，您将看到一些四则运算题，<b>请从键盘选择 0-9 进行反应。</b></div></p>
    <p><div style='color:red;font-size:25px; line-height:20px;'>请尽可能快地进行计算，计算的速度和正确率将影响报酬的发放。</div></p>
    <p><div class='footer' style='color:white;font-size:25px; line-height:20px;'>如果对本实验还有不清楚之处，请立即向实验员咨询。</p><p style='color:white;font-size:25px; line-height:20px;'>如果您明白了规则：</p><p style='color:white;font-size:22px; line-height:20px;'>请按 继续 进入练习</p>
    </div>
    ","0","html-button-response","102","423888","0.0-7.0-4.0","3","2","4","2","3","4","2","5","3","4","4","1","0","-1","-1","-2","-1","-2","1","4","5","5","5","4","2","2","3","1","3","1","5","2","2","3","6","3","6","4","5","5","2","5","4","2","3","6","4","2","7","3","7","6","6","5","6","5","6","6","6","5","5","6","5","2","6","3","6","7","5","5","3","4","5","6","3","4","3","7","595218143807275008","林","577","Male","[""好我"",""坏我"",""坏他"",""好他""]","[""强我"",""弱我"",""弱他"",""强他""]","","","","","","","","","","","","","","","","","SRET_math","math_instructions","Sun Nov 26 2023 17:38:18 GMT+0800 (中国标准时间)","","","","","","","","","","","","","","","","","","",""
"2323","","3","psychophysics","103","426215","0.0-7.0-5.0-0.0","3","2","4","2","3","4","2","5","3","4","4","1","0","-1","-1","-2","-1","-2","1","4","5","5","5","4","2","2","3","1","3","1","5","2","2","3","6","3","6","4","5","5","2","5","4","2","3","6","4","2","7","3","7","6","6","5","6","5","6","6","6","5","5","6","5","2","6","3","6","7","5","5","3","4","5","6","3","4","3","7","595218143807275008","林","577","Male","[""好我"",""坏我"",""坏他"",""好他""]","[""强我"",""弱我"",""弱他"",""强他""]","","","","","","","","3","","","","","","","","","SRET","SRET_math_calculate","","key","3","16.652614285714144","799.9999682108573","445.8333156175091","","","","","1+2= ?","3","1","","","","","","",""
"2480","","2","psychophysics","104","428699","0.0-7.0-5.0-0.1","3","2","4","2","3","4","2","5","3","4","4","1","0","-1","-1","-2","-1","-2","1","4","5","5","5","4","2","2","3","1","3","1","5","2","2","3","6","3","6","4","5","5","2","5","4","2","3","6","4","2","7","3","7","6","6","5","6","5","6","6","6","5","5","6","5","2","6","3","6","7","5","5","3","4","5","6","3","4","3","7","595218143807275008","林","577","Male","[""好我"",""坏我"",""坏他"",""好他""]","[""强我"",""弱我"",""弱他"",""强他""]","","","","","","","","2","","","","","","","","","SRET","SRET_math_calculate","","key","2","16.653351351351326","799.9999682108573","445.8333156175091","","","","","8-6= ?","2","1","","","","","","",""
"2343","","9","psychophysics","105","431043","0.0-7.0-5.0-0.2","3","2","4","2","3","4","2","5","3","4","4","1","0","-1","-1","-2","-1","-2","1","4","5","5","5","4","2","2","3","1","3","1","5","2","2","3","6","3","6","4","5","5","2","5","4","2","3","6","4","2","7","3","7","6","6","5","6","5","6","6","6","5","5","6","5","2","6","3","6","7","5","5","3","4","5","6","3","4","3","7","595218143807275008","林","577","Male","[""好我"",""坏我"",""坏他"",""好他""]","[""强我"",""弱我"",""弱他"",""强他""]","","","","","","","","9","","","","","","","","","SRET","SRET_math_calculate","","key","9","16.6537642857143","799.9999682108573","445.8333156175091","","","","","7+2= ?","9","1","","","","","","",""
"2252","","7","psychophysics","106","433296","0.0-7.0-5.0-0.3","3","2","4","2","3","4","2","5","3","4","4","1","0","-1","-1","-2","-1","-2","1","4","5","5","5","4","2","2","3","1","3","1","5","2","2","3","6","3","6","4","5","5","2","5","4","2","3","6","4","2","7","3","7","6","6","5","6","5","6","6","6","5","5","6","5","2","6","3","6","7","5","5","3","4","5","6","3","4","3","7","595218143807275008","林","577","Male","[""好我"",""坏我"",""坏他"",""好他""]","[""强我"",""弱我"",""弱他"",""强他""]","","","","","","","","7","","","","","","","","","SRET","SRET_math_calculate","","key","7","16.653597014925335","799.9999682108573","445.8333156175091","","","","","5+2= ?","7","1","","","","","","",""
"2081","","0","psychophysics","107","435379","0.0-7.0-5.0-0.4","3","2","4","2","3","4","2","5","3","4","4","1","0","-1","-1","-2","-1","-2","1","4","5","5","5","4","2","2","3","1","3","1","5","2","2","3","6","3","6","4","5","5","2","5","4","2","3","6","4","2","7","3","7","6","6","5","6","5","6","6","6","5","5","6","5","2","6","3","6","7","5","5","3","4","5","6","3","4","3","7","595218143807275008","林","577","Male","[""好我"",""坏我"",""坏他"",""好他""]","[""强我"",""弱我"",""弱他"",""强他""]","","","","","","","","0","","","","","","","","","SRET","SRET_math_calculate","","key","0","16.652991935484028","799.9999682108573","445.8333156175091","","","","","6*0= ?","0","1","","","","","","",""
"2299","","8","psychophysics","108","437680","0.0-7.0-5.0-0.5","3","2","4","2","3","4","2","5","3","4","4","1","0","-1","-1","-2","-1","-2","1","4","5","5","5","4","2","2","3","1","3","1","5","2","2","3","6","3","6","4","5","5","2","5","4","2","3","6","4","2","7","3","7","6","6","5","6","5","6","6","6","5","5","6","5","2","6","3","6","7","5","5","3","4","5","6","3","4","3","7","595218143807275008","林","577","Male","[""好我"",""坏我"",""坏他"",""好他""]","[""强我"",""弱我"",""弱他"",""强他""]","","","","","","","","8","","","","","","","","","SRET","SRET_math_calculate","","key","8","16.653299270072836","799.9999682108573","445.8333156175091","","","","","6+2= ?","8","1","","","","","","",""
"2346","","5","psychophysics","109","440033","0.0-7.0-5.0-0.6","3","2","4","2","3","4","2","5","3","4","4","1","0","-1","-1","-2","-1","-2","1","4","5","5","5","4","2","2","3","1","3","1","5","2","2","3","6","3","6","4","5","5","2","5","4","2","3","6","4","2","7","3","7","6","6","5","6","5","6","6","6","5","5","6","5","2","6","3","6","7","5","5","3","4","5","6","3","4","3","7","595218143807275008","林","577","Male","[""好我"",""坏我"",""坏他"",""好他""]","[""强我"",""弱我"",""弱他"",""强他""]","","","","","","","","5","","","","","","","","","SRET","SRET_math_calculate","","key","5","16.652907801418422","799.9999682108573","445.8333156175091","","","","","15-10= ?","5","1","","","","","","",""
"3070","","8","psychophysics","110","443105","0.0-7.0-5.0-0.7","3","2","4","2","3","4","2","5","3","4","4","1","0","-1","-1","-2","-1","-2","1","4","5","5","5","4","2","2","3","1","3","1","5","2","2","3","6","3","6","4","5","5","2","5","4","2","3","6","4","2","7","3","7","6","6","5","6","5","6","6","6","5","5","6","5","2","6","3","6","7","5","5","3","4","5","6","3","4","3","7","595218143807275008","林","577","Male","[""好我"",""坏我"",""坏他"",""好他""]","[""强我"",""弱我"",""弱他"",""强他""]","","","","","","","","8","","","","","","","","","SRET","SRET_math_calculate","","key","8","16.6529289617485","799.9999682108573","445.8333156175091","","","","","50-42= ?","8","1","","","","","","",""
"2222","","3","psychophysics","111","445328","0.0-7.0-5.0-0.8","3","2","4","2","3","4","2","5","3","4","4","1","0","-1","-1","-2","-1","-2","1","4","5","5","5","4","2","2","3","1","3","1","5","2","2","3","6","3","6","4","5","5","2","5","4","2","3","6","4","2","7","3","7","6","6","5","6","5","6","6","6","5","5","6","5","2","6","3","6","7","5","5","3","4","5","6","3","4","3","7","595218143807275008","林","577","Male","[""好我"",""坏我"",""坏他"",""好他""]","[""强我"",""弱我"",""弱他"",""强他""]","","","","","","","","3","","","","","","","","","SRET","SRET_math_calculate","","key","3","16.652962406014908","799.9999682108573","445.8333156175091","","","","","21/7=  ?","3","1","","","","","","",""
"2840","","7","psychophysics","112","448169","0.0-7.0-5.0-0.9","3","2","4","2","3","4","2","5","3","4","4","1","0","-1","-1","-2","-1","-2","1","4","5","5","5","4","2","2","3","1","3","1","5","2","2","3","6","3","6","4","5","5","2","5","4","2","3","6","4","2","7","3","7","6","6","5","6","5","6","6","6","5","5","6","5","2","6","3","6","7","5","5","3","4","5","6","3","4","3","7","595218143807275008","林","577","Male","[""好我"",""坏我"",""坏他"",""好他""]","[""强我"",""弱我"",""弱他"",""强他""]","","","","","","","","7","","","","","","","","","SRET","SRET_math_calculate","","key","7","16.653349112425847","799.9999682108573","445.8333156175091","","","","","13-6= ?","7","1","","","","","","",""
"2211","","5","psychophysics","113","450382","0.0-7.0-5.0-0.10","3","2","4","2","3","4","2","5","3","4","4","1","0","-1","-1","-2","-1","-2","1","4","5","5","5","4","2","2","3","1","3","1","5","2","2","3","6","3","6","4","5","5","2","5","4","2","3","6","4","2","7","3","7","6","6","5","6","5","6","6","6","5","5","6","5","2","6","3","6","7","5","5","3","4","5","6","3","4","3","7","595218143807275008","林","577","Male","[""好我"",""坏我"",""坏他"",""好他""]","[""强我"",""弱我"",""弱他"",""强他""]","","","","","","","","5","","","","","","","","","SRET","SRET_math_calculate","","key","5","16.653431818181573","799.9999682108573","445.8333156175091","","","","","9-4= ?","5","1","","","","","","",""
"2124","","2","psychophysics","114","452507","0.0-7.0-5.0-0.11","3","2","4","2","3","4","2","5","3","4","4","1","0","-1","-1","-2","-1","-2","1","4","5","5","5","4","2","2","3","1","3","1","5","2","2","3","6","3","6","4","5","5","2","5","4","2","3","6","4","2","7","3","7","6","6","5","6","5","6","6","6","5","5","6","5","2","6","3","6","7","5","5","3","4","5","6","3","4","3","7","595218143807275008","林","577","Male","[""好我"",""坏我"",""坏他"",""好他""]","[""强我"",""弱我"",""弱他"",""强他""]","","","","","","","","2","","","","","","","","","SRET","SRET_math_calculate","","key","2","16.653031496062972","799.9999682108573","445.8333156175091","","","","","1+1= ?","2","1","","","","","","",""
"2216","","4","psychophysics","115","454725","0.0-7.0-5.0-0.12","3","2","4","2","3","4","2","5","3","4","4","1","0","-1","-1","-2","-1","-2","1","4","5","5","5","4","2","2","3","1","3","1","5","2","2","3","6","3","6","4","5","5","2","5","4","2","3","6","4","2","7","3","7","6","6","5","6","5","6","6","6","5","5","6","5","2","6","3","6","7","5","5","3","4","5","6","3","4","3","7","595218143807275008","林","577","Male","[""好我"",""坏我"",""坏他"",""好他""]","[""强我"",""弱我"",""弱他"",""强他""]","","","","","","","","4","","","","","","","","","SRET","SRET_math_calculate","","key","4","16.65312121212121","799.9999682108573","445.8333156175091","","","","","13-9= ?","4","1","","","","","","",""
"2344","","8","psychophysics","116","457070","0.0-7.0-5.0-0.13","3","2","4","2","3","4","2","5","3","4","4","1","0","-1","-1","-2","-1","-2","1","4","5","5","5","4","2","2","3","1","3","1","5","2","2","3","6","3","6","4","5","5","2","5","4","2","3","6","4","2","7","3","7","6","6","5","6","5","6","6","6","5","5","6","5","2","6","3","6","7","5","5","3","4","5","6","3","4","3","7","595218143807275008","林","577","Male","[""好我"",""坏我"",""坏他"",""好他""]","[""强我"",""弱我"",""弱他"",""强他""]","","","","","","","","8","","","","","","","","","SRET","SRET_math_calculate","","key","8","16.652342857143125","799.9999682108573","445.8333156175091","","","","","3+5= ?","8","1","","","","","","",""
"2929","","8","psychophysics","117","460001","0.0-7.0-5.0-0.14","3","2","4","2","3","4","2","5","3","4","4","1","0","-1","-1","-2","-1","-2","1","4","5","5","5","4","2","2","3","1","3","1","5","2","2","3","6","3","6","4","5","5","2","5","4","2","3","6","4","2","7","3","7","6","6","5","6","5","6","6","6","5","5","6","5","2","6","3","6","7","5","5","3","4","5","6","3","4","3","7","595218143807275008","林","577","Male","[""好我"",""坏我"",""坏他"",""好他""]","[""强我"",""弱我"",""弱他"",""强他""]","","","","","","","","8","","","","","","","","","SRET","SRET_math_calculate","","key","8","16.653148571428776","799.9999682108573","445.8333156175091","","","","","72/9= ?","8","1","","","","","","",""
"2653","","5","psychophysics","118","462656","0.0-7.0-5.0-0.15","3","2","4","2","3","4","2","5","3","4","4","1","0","-1","-1","-2","-1","-2","1","4","5","5","5","4","2","2","3","1","3","1","5","2","2","3","6","3","6","4","5","5","2","5","4","2","3","6","4","2","7","3","7","6","6","5","6","5","6","6","6","5","5","6","5","2","6","3","6","7","5","5","3","4","5","6","3","4","3","7","595218143807275008","林","577","Male","[""好我"",""坏我"",""坏他"",""好他""]","[""强我"",""弱我"",""弱他"",""强他""]","","","","","","","","5","","","","","","","","","SRET","SRET_math_calculate","","key","5","16.65281645569632","799.9999682108573","445.8333156175091","","","","","16-11= ?","5","1","","","","","","",""
"2597","","9","psychophysics","119","465255","0.0-7.0-5.0-0.16","3","2","4","2","3","4","2","5","3","4","4","1","0","-1","-1","-2","-1","-2","1","4","5","5","5","4","2","2","3","1","3","1","5","2","2","3","6","3","6","4","5","5","2","5","4","2","3","6","4","2","7","3","7","6","6","5","6","5","6","6","6","5","5","6","5","2","6","3","6","7","5","5","3","4","5","6","3","4","3","7","595218143807275008","林","577","Male","[""好我"",""坏我"",""坏他"",""好他""]","[""强我"",""弱我"",""弱他"",""强他""]","","","","","","","","9","","","","","","","","","SRET","SRET_math_calculate","","key","9","16.653529032258195","799.9999682108573","445.8333156175091","","","","","18/2= ?","9","1","","","","","","",""
"1987","","0","psychophysics","120","467244","0.0-7.0-5.0-0.17","3","2","4","2","3","4","2","5","3","4","4","1","0","-1","-1","-2","-1","-2","1","4","5","5","5","4","2","2","3","1","3","1","5","2","2","3","6","3","6","4","5","5","2","5","4","2","3","6","4","2","7","3","7","6","6","5","6","5","6","6","6","5","5","6","5","2","6","3","6","7","5","5","3","4","5","6","3","4","3","7","595218143807275008","林","577","Male","[""好我"",""坏我"",""坏他"",""好他""]","[""强我"",""弱我"",""弱他"",""强他""]","","","","","","","","0","","","","","","","","","SRET","SRET_math_calculate","","key","0","16.65293277310943","799.9999682108573","445.8333156175091","","","","","7*0= ?","0","1","","","","","","",""
"2779","","5","psychophysics","121","470025","0.0-7.0-5.0-0.18","3","2","4","2","3","4","2","5","3","4","4","1","0","-1","-1","-2","-1","-2","1","4","5","5","5","4","2","2","3","1","3","1","5","2","2","3","6","3","6","4","5","5","2","5","4","2","3","6","4","2","7","3","7","6","6","5","6","5","6","6","6","5","5","6","5","2","6","3","6","7","5","5","3","4","5","6","3","4","3","7","595218143807275008","林","577","Male","[""好我"",""坏我"",""坏他"",""好他""]","[""强我"",""弱我"",""弱他"",""强他""]","","","","","","","","5","","","","","","","","","SRET","SRET_math_calculate","","key","5","16.652873493976124","799.9999682108573","445.8333156175091","","","","","5/1= ?","5","1","","","","","","",""
"3591","","8","psychophysics","122","473617","0.0-7.0-5.0-0.19","3","2","4","2","3","4","2","5","3","4","4","1","0","-1","-1","-2","-1","-2","1","4","5","5","5","4","2","2","3","1","3","1","5","2","2","3","6","3","6","4","5","5","2","5","4","2","3","6","4","2","7","3","7","6","6","5","6","5","6","6","6","5","5","6","5","2","6","3","6","7","5","5","3","4","5","6","3","4","3","7","595218143807275008","林","577","Male","[""好我"",""坏我"",""坏他"",""好他""]","[""强我"",""弱我"",""弱他"",""强他""]","","","","","","","","8","","","","","","","","","SRET","SRET_math_calculate","","key","8","16.65322897196274","799.9999682108573","445.8333156175091","","","","","56/7= ?","8","1","","","","","","",""
"2314","","3","psychophysics","123","475937","0.0-7.0-5.0-0.20","3","2","4","2","3","4","2","5","3","4","4","1","0","-1","-1","-2","-1","-2","1","4","5","5","5","4","2","2","3","1","3","1","5","2","2","3","6","3","6","4","5","5","2","5","4","2","3","6","4","2","7","3","7","6","6","5","6","5","6","6","6","5","5","6","5","2","6","3","6","7","5","5","3","4","5","6","3","4","3","7","595218143807275008","林","577","Male","[""好我"",""坏我"",""坏他"",""好他""]","[""强我"",""弱我"",""弱他"",""强他""]","","","","","","","","3","","","","","","","","","SRET","SRET_math_calculate","","key","3","16.653122302158167","799.9999682108573","445.8333156175091","","","","","9/3= ?","3","1","","","","","","",""
"2163","","6","psychophysics","124","478102","0.0-7.0-5.0-0.21","3","2","4","2","3","4","2","5","3","4","4","1","0","-1","-1","-2","-1","-2","1","4","5","5","5","4","2","2","3","1","3","1","5","2","2","3","6","3","6","4","5","5","2","5","4","2","3","6","4","2","7","3","7","6","6","5","6","5","6","6","6","5","5","6","5","2","6","3","6","7","5","5","3","4","5","6","3","4","3","7","595218143807275008","林","577","Male","[""好我"",""坏我"",""坏他"",""好他""]","[""强我"",""弱我"",""弱他"",""强他""]","","","","","","","","6","","","","","","","","","SRET","SRET_math_calculate","","key","6","16.653968992248238","799.9999682108573","445.8333156175091","","","","","4+2= ?","6","1","","","","","","",""
"2530","","2","psychophysics","125","480634","0.0-7.0-5.0-0.22","3","2","4","2","3","4","2","5","3","4","4","1","0","-1","-1","-2","-1","-2","1","4","5","5","5","4","2","2","3","1","3","1","5","2","2","3","6","3","6","4","5","5","2","5","4","2","3","6","4","2","7","3","7","6","6","5","6","5","6","6","6","5","5","6","5","2","6","3","6","7","5","5","3","4","5","6","3","4","3","7","595218143807275008","林","577","Male","[""好我"",""坏我"",""坏他"",""好他""]","[""强我"",""弱我"",""弱他"",""强他""]","","","","","","","","2","","","","","","","","","SRET","SRET_math_calculate","","key","2","16.653079470198612","799.9999682108573","445.8333156175091","","","","","19-17= ?","2","1","","","","","","",""
"2879","","7","psychophysics","126","483515","0.0-7.0-5.0-0.23","3","2","4","2","3","4","2","5","3","4","4","1","0","-1","-1","-2","-1","-2","1","4","5","5","5","4","2","2","3","1","3","1","5","2","2","3","6","3","6","4","5","5","2","5","4","2","3","6","4","2","7","3","7","6","6","5","6","5","6","6","6","5","5","6","5","2","6","3","6","7","5","5","3","4","5","6","3","4","3","7","595218143807275008","林","577","Male","[""好我"",""坏我"",""坏他"",""好他""]","[""强我"",""弱我"",""弱他"",""强他""]","","","","","","","","7","","","","","","","","","SRET","SRET_math_calculate","","key","7","16.653052325581463","799.9999682108573","445.8333156175091","","","","","14-9= ?","5","0","","","","","","",""
"2418","","9","psychophysics","127","485934","0.0-7.0-5.0-0.24","3","2","4","2","3","4","2","5","3","4","4","1","0","-1","-1","-2","-1","-2","1","4","5","5","5","4","2","2","3","1","3","1","5","2","2","3","6","3","6","4","5","5","2","5","4","2","3","6","4","2","7","3","7","6","6","5","6","5","6","6","6","5","5","6","5","2","6","3","6","7","5","5","3","4","5","6","3","4","3","7","595218143807275008","林","577","Male","[""好我"",""坏我"",""坏他"",""好他""]","[""强我"",""弱我"",""弱他"",""强他""]","","","","","","","","9","","","","","","","","","SRET","SRET_math_calculate","","key","9","16.65327083333331","799.9999682108573","445.8333156175091","","","","","3+6= ?","9","1","","","","","","",""
"2018","","9","psychophysics","128","487954","0.0-7.0-5.0-0.25","3","2","4","2","3","4","2","5","3","4","4","1","0","-1","-1","-2","-1","-2","1","4","5","5","5","4","2","2","3","1","3","1","5","2","2","3","6","3","6","4","5","5","2","5","4","2","3","6","4","2","7","3","7","6","6","5","6","5","6","6","6","5","5","6","5","2","6","3","6","7","5","5","3","4","5","6","3","4","3","7","595218143807275008","林","577","Male","[""好我"",""坏我"",""坏他"",""好他""]","[""强我"",""弱我"",""弱他"",""强他""]","","","","","","","","9","","","","","","","","","SRET","SRET_math_calculate","","key","9","16.652999999999885","799.9999682108573","445.8333156175091","","","","","8+1= ?","9","1","","","","","","",""
"3738","","8","psychophysics","129","491693","0.0-7.0-5.0-0.26","3","2","4","2","3","4","2","5","3","4","4","1","0","-1","-1","-2","-1","-2","1","4","5","5","5","4","2","2","3","1","3","1","5","2","2","3","6","3","6","4","5","5","2","5","4","2","3","6","4","2","7","3","7","6","6","5","6","5","6","6","6","5","5","6","5","2","6","3","6","7","5","5","3","4","5","6","3","4","3","7","595218143807275008","林","577","Male","[""好我"",""坏我"",""坏他"",""好他""]","[""强我"",""弱我"",""弱他"",""强他""]","","","","","","","","8","","","","","","","","","SRET","SRET_math_calculate","","key","8","16.65305803571417","799.9999682108573","445.8333156175091","","","","","13-5= ?","8","1","","","","","","",""
"2211","","6","psychophysics","130","493906","0.0-7.0-5.0-0.27","3","2","4","2","3","4","2","5","3","4","4","1","0","-1","-1","-2","-1","-2","1","4","5","5","5","4","2","2","3","1","3","1","5","2","2","3","6","3","6","4","5","5","2","5","4","2","3","6","4","2","7","3","7","6","6","5","6","5","6","6","6","5","5","6","5","2","6","3","6","7","5","5","3","4","5","6","3","4","3","7","595218143807275008","林","577","Male","[""好我"",""坏我"",""坏他"",""好他""]","[""强我"",""弱我"",""弱他"",""强他""]","","","","","","","","6","","","","","","","","","SRET","SRET_math_calculate","","key","6","16.653492424242415","799.9999682108573","445.8333156175091","","","","","2+4= ?","6","1","","","","","","",""
"2312","","7","psychophysics","131","496220","0.0-7.0-5.0-0.28","3","2","4","2","3","4","2","5","3","4","4","1","0","-1","-1","-2","-1","-2","1","4","5","5","5","4","2","2","3","1","3","1","5","2","2","3","6","3","6","4","5","5","2","5","4","2","3","6","4","2","7","3","7","6","6","5","6","5","6","6","6","5","5","6","5","2","6","3","6","7","5","5","3","4","5","6","3","4","3","7","595218143807275008","林","577","Male","[""好我"",""坏我"",""坏他"",""好他""]","[""强我"",""弱我"",""弱他"",""强他""]","","","","","","","","7","","","","","","","","","SRET","SRET_math_calculate","","key","7","16.65256521739133","799.9999682108573","445.8333156175091","","","","","1+6= ?","7","1","","","","","","",""
"2507","","9","psychophysics","132","498728","0.0-7.0-5.0-0.29","3","2","4","2","3","4","2","5","3","4","4","1","0","-1","-1","-2","-1","-2","1","4","5","5","5","4","2","2","3","1","3","1","5","2","2","3","6","3","6","4","5","5","2","5","4","2","3","6","4","2","7","3","7","6","6","5","6","5","6","6","6","5","5","6","5","2","6","3","6","7","5","5","3","4","5","6","3","4","3","7","595218143807275008","林","577","Male","[""好我"",""坏我"",""坏他"",""好他""]","[""强我"",""弱我"",""弱他"",""强他""]","","","","","","","","9","","","","","","","","","SRET","SRET_math_calculate","","key","9","16.653489932885876","799.9999682108573","445.8333156175091","","","","","2+7= ?","9","1","","","","","","",""
"2697","","8","psychophysics","133","501426","0.0-7.0-5.0-0.30","3","2","4","2","3","4","2","5","3","4","4","1","0","-1","-1","-2","-1","-2","1","4","5","5","5","4","2","2","3","1","3","1","5","2","2","3","6","3","6","4","5","5","2","5","4","2","3","6","4","2","7","3","7","6","6","5","6","5","6","6","6","5","5","6","5","2","6","3","6","7","5","5","3","4","5","6","3","4","3","7","595218143807275008","林","577","Male","[""好我"",""坏我"",""坏他"",""好他""]","[""强我"",""弱我"",""弱他"",""强他""]","","","","","","","","8","","","","","","","","","SRET","SRET_math_calculate","","key","8","16.652863354037475","799.9999682108573","445.8333156175091","","","","","4*2= ?","8","1","","","","","","",""
"2510","","2","psychophysics","134","503938","0.0-7.0-5.0-0.31","3","2","4","2","3","4","2","5","3","4","4","1","0","-1","-1","-2","-1","-2","1","4","5","5","5","4","2","2","3","1","3","1","5","2","2","3","6","3","6","4","5","5","2","5","4","2","3","6","4","2","7","3","7","6","6","5","6","5","6","6","6","5","5","6","5","2","6","3","6","7","5","5","3","4","5","6","3","4","3","7","595218143807275008","林","577","Male","[""好我"",""坏我"",""坏他"",""好他""]","[""强我"",""弱我"",""弱他"",""强他""]","","","","","","","","2","","","","","","","","","SRET","SRET_math_calculate","","key","2","16.653419999999848","799.9999682108573","445.8333156175091","","","","","5-3= ?","2","1","","","","","","",""
"2556","","7","psychophysics","135","506496","0.0-7.0-5.0-0.32","3","2","4","2","3","4","2","5","3","4","4","1","0","-1","-1","-2","-1","-2","1","4","5","5","5","4","2","2","3","1","3","1","5","2","2","3","6","3","6","4","5","5","2","5","4","2","3","6","4","2","7","3","7","6","6","5","6","5","6","6","6","5","5","6","5","2","6","3","6","7","5","5","3","4","5","6","3","4","3","7","595218143807275008","林","577","Male","[""好我"",""坏我"",""坏他"",""好他""]","[""强我"",""弱我"",""弱他"",""强他""]","","","","","","","","7","","","","","","","","","SRET","SRET_math_calculate","","key","7","16.653189542483815","799.9999682108573","445.8333156175091","","","","","11-4= ?","7","1","","","","","","",""
"2163","","2","psychophysics","136","508660","0.0-7.0-5.0-0.33","3","2","4","2","3","4","2","5","3","4","4","1","0","-1","-1","-2","-1","-2","1","4","5","5","5","4","2","2","3","1","3","1","5","2","2","3","6","3","6","4","5","5","2","5","4","2","3","6","4","2","7","3","7","6","6","5","6","5","6","6","6","5","5","6","5","2","6","3","6","7","5","5","3","4","5","6","3","4","3","7","595218143807275008","林","577","Male","[""好我"",""坏我"",""坏他"",""好他""]","[""强我"",""弱我"",""弱他"",""强他""]","","","","","","","","2","","","","","","","","","SRET","SRET_math_calculate","","key","2","16.65234108527133","799.9999682108573","445.8333156175091","","","","","9-7= ?","2","1","","","","","","",""
"2347","","6","psychophysics","137","511008","0.0-7.0-5.0-0.34","3","2","4","2","3","4","2","5","3","4","4","1","0","-1","-1","-2","-1","-2","1","4","5","5","5","4","2","2","3","1","3","1","5","2","2","3","6","3","6","4","5","5","2","5","4","2","3","6","4","2","7","3","7","6","6","5","6","5","6","6","6","5","5","6","5","2","6","3","6","7","5","5","3","4","5","6","3","4","3","7","595218143807275008","林","577","Male","[""好我"",""坏我"",""坏他"",""好他""]","[""强我"",""弱我"",""弱他"",""强他""]","","","","","","","","6","","","","","","","","","SRET","SRET_math_calculate","","key","6","16.652621428571624","799.9999682108573","445.8333156175091","","","","","3*2= ?","6","1","","","","","","",""
"2140","","8","psychophysics","138","513150","0.0-7.0-5.0-0.35","3","2","4","2","3","4","2","5","3","4","4","1","0","-1","-1","-2","-1","-2","1","4","5","5","5","4","2","2","3","1","3","1","5","2","2","3","6","3","6","4","5","5","2","5","4","2","3","6","4","2","7","3","7","6","6","5","6","5","6","6","6","5","5","6","5","2","6","3","6","7","5","5","3","4","5","6","3","4","3","7","595218143807275008","林","577","Male","[""好我"",""坏我"",""坏他"",""好他""]","[""强我"",""弱我"",""弱他"",""强他""]","","","","","","","","8","","","","","","","","","SRET","SRET_math_calculate","","key","8","16.653102362204862","799.9999682108573","445.8333156175091","","","","","4+4= ?","8","1","","","","","","",""
