"rt","stimulus","response","trial_type","trial_index","time_elapsed","internal_node_id","swb_1","swb_2","swb_3","swb_4","swb_5","LOT_1","LOT_2","LOT_3","LOT_4","LOT_5","LOT_6","IPC_1","IPC_2","IPC_3","IPC_4","IPC_5","IPC_6","IPC_7","IPC_8","MorIden_1","MorIden_2","MorIden_3","MorIden_4","MorIden_5","MorIden_6","MorIden_7","MorIden_8","MorIden_9","MorIden_10","moralSeImag_1","moralSeImag_2","moralSeImag_3","moralSeImag_4","moralSeImag_5","moralSeImag_6","moralSeImag_7","moralSeImag_8","moralSeImag_9","sde_1","sde_2","sde_3","sde_4","sde_5","sde_6","sde_7","sde_8","sde_9","sde_10","sde_11","sde_12","sde_13","sde_14","sde_15","sde_16","sde_17","sde_18","sde_19","sde_20","IM_1","IM_2","IM_3","IM_4","IM_5","IM_6","IM_7","IM_8","IM_9","IM_10","IM_11","IM_12","IM_13","IM_14","IM_15","IM_16","IM_17","IM_18","IM_19","IM_20","subj_idx","friend_name","ParticipantID","Sex","Word","Word2","value","success","timeout","failed_images","failed_audio","failed_video","user_agent","responses","item_order","radio_event_ids","radio_event_times","key_event_times","mouse_event_times","straightlining","zigzagging","honeypot","view_history","response_type","key_press","avg_frame_time","center_x","center_y","correct_response","correct","identity","Image","word","condition","task_id","screen_id","time_stamp","person","valence","domain","math","status","duration","question_order"
"5544","
   <p><div style='color:white; font-size: 25px'>您好，欢迎参加本次实验。</div></p>
   <p><div style='color:white; font-size: 25px'>为充分保障您的权利，请确保您已经知晓并同意《参与实验同意书》以及《数据公开知情同意书》。</div></p>
   <p><div style='color:white; font-size: 25px'>如果您未见过上述内容，请咨询实验员。</div></p>
   <p style='color:white; font-size: 25px'>如果您选择继续实验，则表示您已经清楚两份知情同意书的内容并同意。</p>
   <p><div style = ""color: red;font-size:30px;"">请确保您记得day0的实验编号，您将在本次实验输入该编号，若您忘记，请咨询实验员后作答。</div></p>
   <p> <div style = ""color: green""><按空格键至下页></div> </p>
   "," ","html-keyboard-response","0","5546","0.0-0.0","5","5","4","4","3","5","3","5","2","2","5","1","1","1","2","0","1","2","1","5","4","5","4","4","4","4","4","4","4","4","5","5","5","3","7","5","5","5","6","5","6","6","7","2","6","5","5","5","6","5","6","3","5","6","5","6","7","6","1","3","3","5","3","6","7","7","7","7","3","5","3","2","2","5","3","7","6","7","765496939306553346","刘","171","Male","[""好我"",""好他"",""坏他"",""坏我""]","[""强我"",""强他"",""弱他"",""弱我""]","","","","","","","","","","","","","","","","","","","","","","","","","","","","","","","","","","","","","",""
"","","","call-function","1","5546","0.0-1.0-0.0","5","5","4","4","3","5","3","5","2","2","5","1","1","1","2","0","1","2","1","5","4","5","4","4","4","4","4","4","4","4","5","5","5","3","7","5","5","5","6","5","6","6","7","2","6","5","5","5","6","5","6","3","5","6","5","6","7","6","1","3","3","5","3","6","7","7","7","7","3","5","3","2","2","5","3","7","6","7","765496939306553346","刘","171","Male","[""好我"",""好他"",""坏他"",""坏我""]","[""强我"",""强他"",""弱他"",""弱我""]","","","","","","","","","","","","","","","","","","","","","","","","","","","","","","","","","","","","","",""
"10572","","[{""name"":""friend_name"",""value"":""刘""},{""name"":""ParticipantID"",""value"":""171""}]","survey-html-form","2","16120","0.0-1.0-1.0","5","5","4","4","3","5","3","5","2","2","5","1","1","1","2","0","1","2","1","5","4","5","4","4","4","4","4","4","4","4","5","5","5","3","7","5","5","5","6","5","6","6","7","2","6","5","5","5","6","5","6","3","5","6","5","6","7","6","1","3","3","5","3","6","7","7","7","7","3","5","3","2","2","5","3","7","6","7","765496939306553346","刘","171","Male","[""好我"",""好他"",""坏他"",""坏我""]","[""强我"",""强他"",""弱他"",""弱我""]","","","","","","","","","","","","","","","","","","","","","","","","","","","","","","","","","","","","","",""
"","","","preload","3","17002","0.0-2.0","5","5","4","4","3","5","3","5","2","2","5","1","1","1","2","0","1","2","1","5","4","5","4","4","4","4","4","4","4","4","5","5","5","3","7","5","5","5","6","5","6","6","7","2","6","5","5","5","6","5","6","3","5","6","5","6","7","6","1","3","3","5","3","6","7","7","7","7","3","5","3","2","2","5","3","7","6","7","765496939306553346","刘","171","Male","[""好我"",""好他"",""坏他"",""坏我""]","[""强我"",""强他"",""弱他"",""弱我""]","","true","false","[]","[]","[]","","","","","","","","","","","","","","","","","","","","","","","","","","","","","","","",""
"","","","fullscreen","4","18915","0.0-3.0","5","5","4","4","3","5","3","5","2","2","5","1","1","1","2","0","1","2","1","5","4","5","4","4","4","4","4","4","4","4","5","5","5","3","7","5","5","5","6","5","6","6","7","2","6","5","5","5","6","5","6","3","5","6","5","6","7","6","1","3","3","5","3","6","7","7","7","7","3","5","3","2","2","5","3","7","6","7","765496939306553346","刘","171","Male","[""好我"",""好他"",""坏他"",""坏我""]","[""强我"",""强他"",""弱他"",""弱我""]","","true","","","","","{}","","","","","","","","","","","","","","","","","","","","","","","","","","","","","","",""
"14323.899999976158","","{""Q01"":""5"",""Q02"":""5"",""Q03"":""4"",""Q04"":""4"",""Q05"":""3""}","survey-template","5","33241","0.0-4.0","5","5","4","4","3","5","3","5","2","2","5","1","1","1","2","0","1","2","1","5","4","5","4","4","4","4","4","4","4","4","5","5","5","3","7","5","5","5","6","5","6","6","7","2","6","5","5","5","6","5","6","3","5","6","5","6","7","6","1","3","3","5","3","6","7","7","7","7","3","5","3","2","2","5","3","7","6","7","765496939306553346","刘","171","Male","[""好我"",""好他"",""坏他"",""坏我""]","[""强我"",""强他"",""弱他"",""弱我""]","","","","","","","","{""Q01"":""5"",""Q02"":""5"",""Q03"":""4"",""Q04"":""4"",""Q05"":""3""}","[0,1,2,3,4]","[""Q01"",""Q02"",""Q03"",""Q04"",""Q05""]","[3199.0999999046326,4300.299999952316,5558.399999976158,7905.799999952316,12844.399999976158]","[]","[3199.0999999046326,4300.299999952316,5558.399999976158,7905.799999952316,12844.399999976158,14322.699999928474]","0.4","0.5","0","","","","","","","","","","","","","","","","","","","","","",""
"14860.599999904633","","{""Q01"":""5"",""Q02"":""3"",""Q03"":""5"",""Q04"":""2"",""Q05"":""2"",""Q06"":""5""}","survey-template","6","48105","0.0-5.0","5","5","4","4","3","5","3","5","2","2","5","1","1","1","2","0","1","2","1","5","4","5","4","4","4","4","4","4","4","4","5","5","5","3","7","5","5","5","6","5","6","6","7","2","6","5","5","5","6","5","6","3","5","6","5","6","7","6","1","3","3","5","3","6","7","7","7","7","3","5","3","2","2","5","3","7","6","7","765496939306553346","刘","171","Male","[""好我"",""好他"",""坏他"",""坏我""]","[""强我"",""强他"",""弱他"",""弱我""]","","","","","","","","{""Q01"":""5"",""Q02"":""3"",""Q03"":""5"",""Q04"":""2"",""Q05"":""2"",""Q06"":""5""}","[0,1,2,3,4,5]","[""Q01"",""Q02"",""Q03"",""Q04"",""Q05"",""Q06""]","[2589.5,4641.699999928474,6559.5,10185.599999904633,11511.5,14216]","[]","[2589.5,4641.699999928474,6559.5,10185.599999904633,11511.5,14216,14859.799999952316]","0.5","0.4","0","","","","","","","","","","","","","","","","","","","","","",""
"19766.5","","{""Q01"":""1"",""Q02"":""1"",""Q03"":""1"",""Q04"":""2"",""Q05"":""0"",""Q06"":""1"",""Q07"":""2"",""Q08"":""1""}","survey-template","7","67874","0.0-6.0","5","5","4","4","3","5","3","5","2","2","5","1","1","1","2","0","1","2","1","5","4","5","4","4","4","4","4","4","4","4","5","5","5","3","7","5","5","5","6","5","6","6","7","2","6","5","5","5","6","5","6","3","5","6","5","6","7","6","1","3","3","5","3","6","7","7","7","7","3","5","3","2","2","5","3","7","6","7","765496939306553346","刘","171","Male","[""好我"",""好他"",""坏他"",""坏我""]","[""强我"",""强他"",""弱他"",""弱我""]","","","","","","","","{""Q01"":""1"",""Q02"":""1"",""Q03"":""1"",""Q04"":""2"",""Q05"":""0"",""Q06"":""1"",""Q07"":""2"",""Q08"":""1""}","[0,1,2,3,4,5,6,7]","[""Q01"",""Q02"",""Q03"",""Q04"",""Q05"",""Q05"",""Q06"",""Q07"",""Q08""]","[3018.2999999523163,4132.899999976158,6550.299999952316,9587.600000023842,11631.899999976158,12918.399999976158,14894.299999952316,17378.299999952316,18926.399999976158]","[]","[2372.2999999523163,3018.2999999523163,4132.899999976158,6064.5,6550.299999952316,9057.799999952316,9587.600000023842,11631.899999976158,12918.399999976158,14894.299999952316,16842.299999952316,17378.299999952316,18926.399999976158,19765.700000047684]","0.625","0.5714285714285714","0","","","","","","","","","","","","","","","","","","","","","",""
"15263","","","instructions","8","83140","0.0-7.0","5","5","4","4","3","5","3","5","2","2","5","1","1","1","2","0","1","2","1","5","4","5","4","4","4","4","4","4","4","4","5","5","5","3","7","5","5","5","6","5","6","6","7","2","6","5","5","5","6","5","6","3","5","6","5","6","7","6","1","3","3","5","3","6","7","7","7","7","3","5","3","2","2","5","3","7","6","7","765496939306553346","刘","171","Male","[""好我"",""好他"",""坏他"",""坏我""]","[""强我"",""强他"",""弱他"",""弱我""]","","","","","","","","","","","","","","","","","[{""page_index"":0,""viewing_time"":15263}]","","","","","","","","","","","","","","","","","","","","",""
"156960","","","instructions","9","240101","0.0-8.0-1.0-0.0","5","5","4","4","3","5","3","5","2","2","5","1","1","1","2","0","1","2","1","5","4","5","4","4","4","4","4","4","4","4","5","5","5","3","7","5","5","5","6","5","6","6","7","2","6","5","5","5","6","5","6","3","5","6","5","6","7","6","1","3","3","5","3","6","7","7","7","7","3","5","3","2","2","5","3","7","6","7","765496939306553346","刘","171","Male","[""好我"",""好他"",""坏他"",""坏我""]","[""强我"",""强他"",""弱他"",""弱我""]","","","","","","","","","","","","","","","","","[{""page_index"":0,""viewing_time"":29251},{""page_index"":1,""viewing_time"":64725},{""page_index"":2,""viewing_time"":4553},{""page_index"":3,""viewing_time"":58431}]","","","","","","","","","","","","","","","","","","","","",""
"682","","j","psychophysics","10","241787","0.0-8.0-1.0-1.0-0.0-0.0","5","5","4","4","3","5","3","5","2","2","5","1","1","1","2","0","1","2","1","5","4","5","4","4","4","4","4","4","4","4","5","5","5","3","7","5","5","5","6","5","6","6","7","2","6","5","5","5","6","5","6","3","5","6","5","6","7","6","1","3","3","5","3","6","7","7","7","7","3","5","3","2","2","5","3","7","6","7","765496939306553346","刘","171","Male","[""好我"",""好他"",""坏他"",""坏我""]","[""强我"",""强他"",""弱他"",""弱我""]","","","","","","","","match","","","","","","","","","","key","j","16.660899999999966","768","428","j","true","match","img/square.png","强我","强我","prac_ALT2_ability","practice_ability","","","","","","","",""
"null","<span style='color:GreenYellow; font-size: 70px;'>正确! </span>","null","html-keyboard-response","11","242289","0.0-8.0-1.0-1.0-0.0-1.0","5","5","4","4","3","5","3","5","2","2","5","1","1","1","2","0","1","2","1","5","4","5","4","4","4","4","4","4","4","4","5","5","5","3","7","5","5","5","6","5","6","6","7","2","6","5","5","5","6","5","6","3","5","6","5","6","7","6","1","3","3","5","3","6","7","7","7","7","3","5","3","2","2","5","3","7","6","7","765496939306553346","刘","171","Male","[""好我"",""好他"",""坏他"",""坏我""]","[""强我"",""强他"",""弱他"",""弱我""]","","","","","","","","","","","","","","","","","","","","","","","","","","","","","","feedback_test","","","","","","","",""
"665","","f","psychophysics","12","243955","0.0-8.0-1.0-1.0-0.0-0.1","5","5","4","4","3","5","3","5","2","2","5","1","1","1","2","0","1","2","1","5","4","5","4","4","4","4","4","4","4","4","5","5","5","3","7","5","5","5","6","5","6","6","7","2","6","5","5","5","6","5","6","3","5","6","5","6","7","6","1","3","3","5","3","6","7","7","7","7","3","5","3","2","2","5","3","7","6","7","765496939306553346","刘","171","Male","[""好我"",""好他"",""坏他"",""坏我""]","[""强我"",""强他"",""弱他"",""弱我""]","","","","","","","","nonmatch","","","","","","","","","","key","f","16.66172727272726","768","428","f","true","nonmatch","img/triangle.png","强我","强他","prac_ALT2_ability","practice_ability","","","","","","","",""
"null","<span style='color:GreenYellow; font-size: 70px;'>正确! </span>","null","html-keyboard-response","13","244456","0.0-8.0-1.0-1.0-0.0-1.1","5","5","4","4","3","5","3","5","2","2","5","1","1","1","2","0","1","2","1","5","4","5","4","4","4","4","4","4","4","4","5","5","5","3","7","5","5","5","6","5","6","6","7","2","6","5","5","5","6","5","6","3","5","6","5","6","7","6","1","3","3","5","3","6","7","7","7","7","3","5","3","2","2","5","3","7","6","7","765496939306553346","刘","171","Male","[""好我"",""好他"",""坏他"",""坏我""]","[""强我"",""强他"",""弱他"",""弱我""]","","","","","","","","","","","","","","","","","","","","","","","","","","","","","","feedback_test","","","","","","","",""
"1068","","f","psychophysics","14","246525","0.0-8.0-1.0-1.0-0.0-0.2","5","5","4","4","3","5","3","5","2","2","5","1","1","1","2","0","1","2","1","5","4","5","4","4","4","4","4","4","4","4","5","5","5","3","7","5","5","5","6","5","6","6","7","2","6","5","5","5","6","5","6","3","5","6","5","6","7","6","1","3","3","5","3","6","7","7","7","7","3","5","3","2","2","5","3","7","6","7","765496939306553346","刘","171","Male","[""好我"",""好他"",""坏他"",""坏我""]","[""强我"",""强他"",""弱他"",""弱我""]","","","","","","","","nonmatch","","","","","","","","","","key","f","16.66468292682922","768","428","f","true","nonmatch","img/hexagon.png","弱他","弱我","prac_ALT2_ability","practice_ability","","","","","","","",""
"null","<span style='color:GreenYellow; font-size: 70px;'>正确! </span>","null","html-keyboard-response","15","247027","0.0-8.0-1.0-1.0-0.0-1.2","5","5","4","4","3","5","3","5","2","2","5","1","1","1","2","0","1","2","1","5","4","5","4","4","4","4","4","4","4","4","5","5","5","3","7","5","5","5","6","5","6","6","7","2","6","5","5","5","6","5","6","3","5","6","5","6","7","6","1","3","3","5","3","6","7","7","7","7","3","5","3","2","2","5","3","7","6","7","765496939306553346","刘","171","Male","[""好我"",""好他"",""坏他"",""坏我""]","[""强我"",""强他"",""弱他"",""弱我""]","","","","","","","","","","","","","","","","","","","","","","","","","","","","","","feedback_test","","","","","","","",""
"1154","","j","psychophysics","16","249184","0.0-8.0-1.0-1.0-0.0-0.3","5","5","4","4","3","5","3","5","2","2","5","1","1","1","2","0","1","2","1","5","4","5","4","4","4","4","4","4","4","4","5","5","5","3","7","5","5","5","6","5","6","6","7","2","6","5","5","5","6","5","6","3","5","6","5","6","7","6","1","3","3","5","3","6","7","7","7","7","3","5","3","2","2","5","3","7","6","7","765496939306553346","刘","171","Male","[""好我"",""好他"",""坏他"",""坏我""]","[""强我"",""强他"",""弱他"",""弱我""]","","","","","","","","match","","","","","","","","","","key","j","16.660658914728728","768","428","j","true","match","img/hexagon.png","弱我","弱我","prac_ALT2_ability","practice_ability","","","","","","","",""
"null","<span style='color:GreenYellow; font-size: 70px;'>正确! </span>","null","html-keyboard-response","17","249685","0.0-8.0-1.0-1.0-0.0-1.3","5","5","4","4","3","5","3","5","2","2","5","1","1","1","2","0","1","2","1","5","4","5","4","4","4","4","4","4","4","4","5","5","5","3","7","5","5","5","6","5","6","6","7","2","6","5","5","5","6","5","6","3","5","6","5","6","7","6","1","3","3","5","3","6","7","7","7","7","3","5","3","2","2","5","3","7","6","7","765496939306553346","刘","171","Male","[""好我"",""好他"",""坏他"",""坏我""]","[""强我"",""强他"",""弱他"",""弱我""]","","","","","","","","","","","","","","","","","","","","","","","","","","","","","","feedback_test","","","","","","","",""
"1040","","f","psychophysics","18","251726","0.0-8.0-1.0-1.0-0.0-0.4","5","5","4","4","3","5","3","5","2","2","5","1","1","1","2","0","1","2","1","5","4","5","4","4","4","4","4","4","4","4","5","5","5","3","7","5","5","5","6","5","6","6","7","2","6","5","5","5","6","5","6","3","5","6","5","6","7","6","1","3","3","5","3","6","7","7","7","7","3","5","3","2","2","5","3","7","6","7","765496939306553346","刘","171","Male","[""好我"",""好他"",""坏他"",""坏我""]","[""强我"",""强他"",""弱他"",""弱我""]","","","","","","","","nonmatch","","","","","","","","","","key","f","16.6576115702479","768","428","j","false","match","img/ellipse.png","弱他","弱他","prac_ALT2_ability","practice_ability","","","","","","","",""
"null","<span style='color:red; font-size: 70px;'>错误! </span>","null","html-keyboard-response","19","252227","0.0-8.0-1.0-1.0-0.0-1.4","5","5","4","4","3","5","3","5","2","2","5","1","1","1","2","0","1","2","1","5","4","5","4","4","4","4","4","4","4","4","5","5","5","3","7","5","5","5","6","5","6","6","7","2","6","5","5","5","6","5","6","3","5","6","5","6","7","6","1","3","3","5","3","6","7","7","7","7","3","5","3","2","2","5","3","7","6","7","765496939306553346","刘","171","Male","[""好我"",""好他"",""坏他"",""坏我""]","[""强我"",""强他"",""弱他"",""弱我""]","","","","","","","","","","","","","","","","","","","","","","","","","","","","","","feedback_test","","","","","","","",""
"775","","j","psychophysics","20","254006","0.0-8.0-1.0-1.0-0.0-0.5","5","5","4","4","3","5","3","5","2","2","5","1","1","1","2","0","1","2","1","5","4","5","4","4","4","4","4","4","4","4","5","5","5","3","7","5","5","5","6","5","6","6","7","2","6","5","5","5","6","5","6","3","5","6","5","6","7","6","1","3","3","5","3","6","7","7","7","7","3","5","3","2","2","5","3","7","6","7","765496939306553346","刘","171","Male","[""好我"",""好他"",""坏他"",""坏我""]","[""强我"",""强他"",""弱他"",""弱我""]","","","","","","","","match","","","","","","","","","","key","j","16.66248571428559","768","428","j","true","match","img/triangle.png","强他","强他","prac_ALT2_ability","practice_ability","","","","","","","",""
"null","<span style='color:GreenYellow; font-size: 70px;'>正确! </span>","null","html-keyboard-response","21","254507","0.0-8.0-1.0-1.0-0.0-1.5","5","5","4","4","3","5","3","5","2","2","5","1","1","1","2","0","1","2","1","5","4","5","4","4","4","4","4","4","4","4","5","5","5","3","7","5","5","5","6","5","6","6","7","2","6","5","5","5","6","5","6","3","5","6","5","6","7","6","1","3","3","5","3","6","7","7","7","7","3","5","3","2","2","5","3","7","6","7","765496939306553346","刘","171","Male","[""好我"",""好他"",""坏他"",""坏我""]","[""强我"",""强他"",""弱他"",""弱我""]","","","","","","","","","","","","","","","","","","","","","","","","","","","","","","feedback_test","","","","","","","",""
"790","","j","psychophysics","22","256298","0.0-8.0-1.0-1.0-0.0-0.6","5","5","4","4","3","5","3","5","2","2","5","1","1","1","2","0","1","2","1","5","4","5","4","4","4","4","4","4","4","4","5","5","5","3","7","5","5","5","6","5","6","6","7","2","6","5","5","5","6","5","6","3","5","6","5","6","7","6","1","3","3","5","3","6","7","7","7","7","3","5","3","2","2","5","3","7","6","7","765496939306553346","刘","171","Male","[""好我"",""好他"",""坏他"",""坏我""]","[""强我"",""强他"",""弱他"",""弱我""]","","","","","","","","match","","","","","","","","","","key","j","16.66128037383189","768","428","j","true","match","img/triangle.png","强他","强他","prac_ALT2_ability","practice_ability","","","","","","","",""
"null","<span style='color:GreenYellow; font-size: 70px;'>正确! </span>","null","html-keyboard-response","23","256799","0.0-8.0-1.0-1.0-0.0-1.6","5","5","4","4","3","5","3","5","2","2","5","1","1","1","2","0","1","2","1","5","4","5","4","4","4","4","4","4","4","4","5","5","5","3","7","5","5","5","6","5","6","6","7","2","6","5","5","5","6","5","6","3","5","6","5","6","7","6","1","3","3","5","3","6","7","7","7","7","3","5","3","2","2","5","3","7","6","7","765496939306553346","刘","171","Male","[""好我"",""好他"",""坏他"",""坏我""]","[""强我"",""强他"",""弱他"",""弱我""]","","","","","","","","","","","","","","","","","","","","","","","","","","","","","","feedback_test","","","","","","","",""
"996","","f","psychophysics","24","258797","0.0-8.0-1.0-1.0-0.0-0.7","5","5","4","4","3","5","3","5","2","2","5","1","1","1","2","0","1","2","1","5","4","5","4","4","4","4","4","4","4","4","5","5","5","3","7","5","5","5","6","5","6","6","7","2","6","5","5","5","6","5","6","3","5","6","5","6","7","6","1","3","3","5","3","6","7","7","7","7","3","5","3","2","2","5","3","7","6","7","765496939306553346","刘","171","Male","[""好我"",""好他"",""坏他"",""坏我""]","[""强我"",""强他"",""弱他"",""弱我""]","","","","","","","","nonmatch","","","","","","","","","","key","f","16.6635798319329","768","428","f","true","nonmatch","img/square.png","弱我","强我","prac_ALT2_ability","practice_ability","","","","","","","",""
"null","<span style='color:GreenYellow; font-size: 70px;'>正确! </span>","null","html-keyboard-response","25","259299","0.0-8.0-1.0-1.0-0.0-1.7","5","5","4","4","3","5","3","5","2","2","5","1","1","1","2","0","1","2","1","5","4","5","4","4","4","4","4","4","4","4","5","5","5","3","7","5","5","5","6","5","6","6","7","2","6","5","5","5","6","5","6","3","5","6","5","6","7","6","1","3","3","5","3","6","7","7","7","7","3","5","3","2","2","5","3","7","6","7","765496939306553346","刘","171","Male","[""好我"",""好他"",""坏他"",""坏我""]","[""强我"",""强他"",""弱他"",""弱我""]","","","","","","","","","","","","","","","","","","","","","","","","","","","","","","feedback_test","","","","","","","",""
"815","","j","psychophysics","26","261115","0.0-8.0-1.0-1.0-0.0-0.8","5","5","4","4","3","5","3","5","2","2","5","1","1","1","2","0","1","2","1","5","4","5","4","4","4","4","4","4","4","4","5","5","5","3","7","5","5","5","6","5","6","6","7","2","6","5","5","5","6","5","6","3","5","6","5","6","7","6","1","3","3","5","3","6","7","7","7","7","3","5","3","2","2","5","3","7","6","7","765496939306553346","刘","171","Male","[""好我"",""好他"",""坏他"",""坏我""]","[""强我"",""强他"",""弱他"",""弱我""]","","","","","","","","match","","","","","","","","","","key","j","16.660638888888773","768","428","j","true","match","img/hexagon.png","弱我","弱我","prac_ALT2_ability","practice_ability","","","","","","","",""
"null","<span style='color:GreenYellow; font-size: 70px;'>正确! </span>","null","html-keyboard-response","27","261616","0.0-8.0-1.0-1.0-0.0-1.8","5","5","4","4","3","5","3","5","2","2","5","1","1","1","2","0","1","2","1","5","4","5","4","4","4","4","4","4","4","4","5","5","5","3","7","5","5","5","6","5","6","6","7","2","6","5","5","5","6","5","6","3","5","6","5","6","7","6","1","3","3","5","3","6","7","7","7","7","3","5","3","2","2","5","3","7","6","7","765496939306553346","刘","171","Male","[""好我"",""好他"",""坏他"",""坏我""]","[""强我"",""强他"",""弱他"",""弱我""]","","","","","","","","","","","","","","","","","","","","","","","","","","","","","","feedback_test","","","","","","","",""
"816","","f","psychophysics","28","263434","0.0-8.0-1.0-1.0-0.0-0.9","5","5","4","4","3","5","3","5","2","2","5","1","1","1","2","0","1","2","1","5","4","5","4","4","4","4","4","4","4","4","5","5","5","3","7","5","5","5","6","5","6","6","7","2","6","5","5","5","6","5","6","3","5","6","5","6","7","6","1","3","3","5","3","6","7","7","7","7","3","5","3","2","2","5","3","7","6","7","765496939306553346","刘","171","Male","[""好我"",""好他"",""坏他"",""坏我""]","[""强我"",""强他"",""弱他"",""弱我""]","","","","","","","","nonmatch","","","","","","","","","","key","f","16.66264814814807","768","428","f","true","nonmatch","img/triangle.png","弱他","强他","prac_ALT2_ability","practice_ability","","","","","","","",""
"null","<span style='color:GreenYellow; font-size: 70px;'>正确! </span>","null","html-keyboard-response","29","263936","0.0-8.0-1.0-1.0-0.0-1.9","5","5","4","4","3","5","3","5","2","2","5","1","1","1","2","0","1","2","1","5","4","5","4","4","4","4","4","4","4","4","5","5","5","3","7","5","5","5","6","5","6","6","7","2","6","5","5","5","6","5","6","3","5","6","5","6","7","6","1","3","3","5","3","6","7","7","7","7","3","5","3","2","2","5","3","7","6","7","765496939306553346","刘","171","Male","[""好我"",""好他"",""坏他"",""坏我""]","[""强我"",""强他"",""弱他"",""弱我""]","","","","","","","","","","","","","","","","","","","","","","","","","","","","","","feedback_test","","","","","","","",""
"847","","f","psychophysics","30","265783","0.0-8.0-1.0-1.0-0.0-0.10","5","5","4","4","3","5","3","5","2","2","5","1","1","1","2","0","1","2","1","5","4","5","4","4","4","4","4","4","4","4","5","5","5","3","7","5","5","5","6","5","6","6","7","2","6","5","5","5","6","5","6","3","5","6","5","6","7","6","1","3","3","5","3","6","7","7","7","7","3","5","3","2","2","5","3","7","6","7","765496939306553346","刘","171","Male","[""好我"",""好他"",""坏他"",""坏我""]","[""强我"",""强他"",""弱他"",""弱我""]","","","","","","","","nonmatch","","","","","","","","","","key","f","16.662027272727045","768","428","f","true","nonmatch","img/triangle.png","弱我","强他","prac_ALT2_ability","practice_ability","","","","","","","",""
"null","<span style='color:GreenYellow; font-size: 70px;'>正确! </span>","null","html-keyboard-response","31","266285","0.0-8.0-1.0-1.0-0.0-1.10","5","5","4","4","3","5","3","5","2","2","5","1","1","1","2","0","1","2","1","5","4","5","4","4","4","4","4","4","4","4","5","5","5","3","7","5","5","5","6","5","6","6","7","2","6","5","5","5","6","5","6","3","5","6","5","6","7","6","1","3","3","5","3","6","7","7","7","7","3","5","3","2","2","5","3","7","6","7","765496939306553346","刘","171","Male","[""好我"",""好他"",""坏他"",""坏我""]","[""强我"",""强他"",""弱他"",""弱我""]","","","","","","","","","","","","","","","","","","","","","","","","","","","","","","feedback_test","","","","","","","",""
"1063","","f","psychophysics","32","268351","0.0-8.0-1.0-1.0-0.0-0.11","5","5","4","4","3","5","3","5","2","2","5","1","1","1","2","0","1","2","1","5","4","5","4","4","4","4","4","4","4","4","5","5","5","3","7","5","5","5","6","5","6","6","7","2","6","5","5","5","6","5","6","3","5","6","5","6","7","6","1","3","3","5","3","6","7","7","7","7","3","5","3","2","2","5","3","7","6","7","765496939306553346","刘","171","Male","[""好我"",""好他"",""坏他"",""坏我""]","[""强我"",""强他"",""弱他"",""弱我""]","","","","","","","","nonmatch","","","","","","","","","","key","f","16.661414634146276","768","428","f","true","nonmatch","img/ellipse.png","强我","弱他","prac_ALT2_ability","practice_ability","","","","","","","",""
"null","<span style='color:GreenYellow; font-size: 70px;'>正确! </span>","null","html-keyboard-response","33","268851","0.0-8.0-1.0-1.0-0.0-1.11","5","5","4","4","3","5","3","5","2","2","5","1","1","1","2","0","1","2","1","5","4","5","4","4","4","4","4","4","4","4","5","5","5","3","7","5","5","5","6","5","6","6","7","2","6","5","5","5","6","5","6","3","5","6","5","6","7","6","1","3","3","5","3","6","7","7","7","7","3","5","3","2","2","5","3","7","6","7","765496939306553346","刘","171","Male","[""好我"",""好他"",""坏他"",""坏我""]","[""强我"",""强他"",""弱他"",""弱我""]","","","","","","","","","","","","","","","","","","","","","","","","","","","","","","feedback_test","","","","","","","",""
"1098","","f","psychophysics","34","270951","0.0-8.0-1.0-1.0-0.0-0.12","5","5","4","4","3","5","3","5","2","2","5","1","1","1","2","0","1","2","1","5","4","5","4","4","4","4","4","4","4","4","5","5","5","3","7","5","5","5","6","5","6","6","7","2","6","5","5","5","6","5","6","3","5","6","5","6","7","6","1","3","3","5","3","6","7","7","7","7","3","5","3","2","2","5","3","7","6","7","765496939306553346","刘","171","Male","[""好我"",""好他"",""坏他"",""坏我""]","[""强我"",""强他"",""弱他"",""弱我""]","","","","","","","","nonmatch","","","","","","","","","","key","f","16.661552000000142","768","428","f","true","nonmatch","img/hexagon.png","强我","弱我","prac_ALT2_ability","practice_ability","","","","","","","",""
"null","<span style='color:GreenYellow; font-size: 70px;'>正确! </span>","null","html-keyboard-response","35","271453","0.0-8.0-1.0-1.0-0.0-1.12","5","5","4","4","3","5","3","5","2","2","5","1","1","1","2","0","1","2","1","5","4","5","4","4","4","4","4","4","4","4","5","5","5","3","7","5","5","5","6","5","6","6","7","2","6","5","5","5","6","5","6","3","5","6","5","6","7","6","1","3","3","5","3","6","7","7","7","7","3","5","3","2","2","5","3","7","6","7","765496939306553346","刘","171","Male","[""好我"",""好他"",""坏他"",""坏我""]","[""强我"",""强他"",""弱他"",""弱我""]","","","","","","","","","","","","","","","","","","","","","","","","","","","","","","feedback_test","","","","","","","",""
"835","","f","psychophysics","36","273293","0.0-8.0-1.0-1.0-0.0-0.13","5","5","4","4","3","5","3","5","2","2","5","1","1","1","2","0","1","2","1","5","4","5","4","4","4","4","4","4","4","4","5","5","5","3","7","5","5","5","6","5","6","6","7","2","6","5","5","5","6","5","6","3","5","6","5","6","7","6","1","3","3","5","3","6","7","7","7","7","3","5","3","2","2","5","3","7","6","7","765496939306553346","刘","171","Male","[""好我"",""好他"",""坏他"",""坏我""]","[""强我"",""强他"",""弱他"",""弱我""]","","","","","","","","nonmatch","","","","","","","","","","key","f","16.659816513761317","768","428","f","true","nonmatch","img/ellipse.png","弱我","弱他","prac_ALT2_ability","practice_ability","","","","","","","",""
"null","<span style='color:GreenYellow; font-size: 70px;'>正确! </span>","null","html-keyboard-response","37","273799","0.0-8.0-1.0-1.0-0.0-1.13","5","5","4","4","3","5","3","5","2","2","5","1","1","1","2","0","1","2","1","5","4","5","4","4","4","4","4","4","4","4","5","5","5","3","7","5","5","5","6","5","6","6","7","2","6","5","5","5","6","5","6","3","5","6","5","6","7","6","1","3","3","5","3","6","7","7","7","7","3","5","3","2","2","5","3","7","6","7","765496939306553346","刘","171","Male","[""好我"",""好他"",""坏他"",""坏我""]","[""强我"",""强他"",""弱他"",""弱我""]","","","","","","","","","","","","","","","","","","","","","","","","","","","","","","feedback_test","","","","","","","",""
"746","","j","psychophysics","38","275546","0.0-8.0-1.0-1.0-0.0-0.14","5","5","4","4","3","5","3","5","2","2","5","1","1","1","2","0","1","2","1","5","4","5","4","4","4","4","4","4","4","4","5","5","5","3","7","5","5","5","6","5","6","6","7","2","6","5","5","5","6","5","6","3","5","6","5","6","7","6","1","3","3","5","3","6","7","7","7","7","3","5","3","2","2","5","3","7","6","7","765496939306553346","刘","171","Male","[""好我"",""好他"",""坏他"",""坏我""]","[""强我"",""强他"",""弱他"",""弱我""]","","","","","","","","match","","","","","","","","","","key","j","16.662144230769346","768","428","j","true","match","img/triangle.png","强他","强他","prac_ALT2_ability","practice_ability","","","","","","","",""
"null","<span style='color:GreenYellow; font-size: 70px;'>正确! </span>","null","html-keyboard-response","39","276048","0.0-8.0-1.0-1.0-0.0-1.14","5","5","4","4","3","5","3","5","2","2","5","1","1","1","2","0","1","2","1","5","4","5","4","4","4","4","4","4","4","4","5","5","5","3","7","5","5","5","6","5","6","6","7","2","6","5","5","5","6","5","6","3","5","6","5","6","7","6","1","3","3","5","3","6","7","7","7","7","3","5","3","2","2","5","3","7","6","7","765496939306553346","刘","171","Male","[""好我"",""好他"",""坏他"",""坏我""]","[""强我"",""强他"",""弱他"",""弱我""]","","","","","","","","","","","","","","","","","","","","","","","","","","","","","","feedback_test","","","","","","","",""
"997","","j","psychophysics","40","278046","0.0-8.0-1.0-1.0-0.0-0.15","5","5","4","4","3","5","3","5","2","2","5","1","1","1","2","0","1","2","1","5","4","5","4","4","4","4","4","4","4","4","5","5","5","3","7","5","5","5","6","5","6","6","7","2","6","5","5","5","6","5","6","3","5","6","5","6","7","6","1","3","3","5","3","6","7","7","7","7","3","5","3","2","2","5","3","7","6","7","765496939306553346","刘","171","Male","[""好我"",""好他"",""坏他"",""坏我""]","[""强我"",""强他"",""弱他"",""弱我""]","","","","","","","","match","","","","","","","","","","key","j","16.656873949579875","768","428","j","true","match","img/ellipse.png","弱他","弱他","prac_ALT2_ability","practice_ability","","","","","","","",""
"null","<span style='color:GreenYellow; font-size: 70px;'>正确! </span>","null","html-keyboard-response","41","278547","0.0-8.0-1.0-1.0-0.0-1.15","5","5","4","4","3","5","3","5","2","2","5","1","1","1","2","0","1","2","1","5","4","5","4","4","4","4","4","4","4","4","5","5","5","3","7","5","5","5","6","5","6","6","7","2","6","5","5","5","6","5","6","3","5","6","5","6","7","6","1","3","3","5","3","6","7","7","7","7","3","5","3","2","2","5","3","7","6","7","765496939306553346","刘","171","Male","[""好我"",""好他"",""坏他"",""坏我""]","[""强我"",""强他"",""弱他"",""弱我""]","","","","","","","","","","","","","","","","","","","","","","","","","","","","","","feedback_test","","","","","","","",""
"909","","j","psychophysics","42","280457","0.0-8.0-1.0-1.0-0.0-0.16","5","5","4","4","3","5","3","5","2","2","5","1","1","1","2","0","1","2","1","5","4","5","4","4","4","4","4","4","4","4","5","5","5","3","7","5","5","5","6","5","6","6","7","2","6","5","5","5","6","5","6","3","5","6","5","6","7","6","1","3","3","5","3","6","7","7","7","7","3","5","3","2","2","5","3","7","6","7","765496939306553346","刘","171","Male","[""好我"",""好他"",""坏他"",""坏我""]","[""强我"",""强他"",""弱他"",""弱我""]","","","","","","","","match","","","","","","","","","","key","j","16.662780701754137","768","428","j","true","match","img/square.png","强我","强我","prac_ALT2_ability","practice_ability","","","","","","","",""
"null","<span style='color:GreenYellow; font-size: 70px;'>正确! </span>","null","html-keyboard-response","43","280959","0.0-8.0-1.0-1.0-0.0-1.16","5","5","4","4","3","5","3","5","2","2","5","1","1","1","2","0","1","2","1","5","4","5","4","4","4","4","4","4","4","4","5","5","5","3","7","5","5","5","6","5","6","6","7","2","6","5","5","5","6","5","6","3","5","6","5","6","7","6","1","3","3","5","3","6","7","7","7","7","3","5","3","2","2","5","3","7","6","7","765496939306553346","刘","171","Male","[""好我"",""好他"",""坏他"",""坏我""]","[""强我"",""强他"",""弱他"",""弱我""]","","","","","","","","","","","","","","","","","","","","","","","","","","","","","","feedback_test","","","","","","","",""
"770","","f","psychophysics","44","282730","0.0-8.0-1.0-1.0-0.0-0.17","5","5","4","4","3","5","3","5","2","2","5","1","1","1","2","0","1","2","1","5","4","5","4","4","4","4","4","4","4","4","5","5","5","3","7","5","5","5","6","5","6","6","7","2","6","5","5","5","6","5","6","3","5","6","5","6","7","6","1","3","3","5","3","6","7","7","7","7","3","5","3","2","2","5","3","7","6","7","765496939306553346","刘","171","Male","[""好我"",""好他"",""坏他"",""坏我""]","[""强我"",""强他"",""弱他"",""弱我""]","","","","","","","","nonmatch","","","","","","","","","","key","f","16.663314285714158","768","428","j","false","match","img/ellipse.png","弱他","弱他","prac_ALT2_ability","practice_ability","","","","","","","",""
"null","<span style='color:red; font-size: 70px;'>错误! </span>","null","html-keyboard-response","45","283231","0.0-8.0-1.0-1.0-0.0-1.17","5","5","4","4","3","5","3","5","2","2","5","1","1","1","2","0","1","2","1","5","4","5","4","4","4","4","4","4","4","4","5","5","5","3","7","5","5","5","6","5","6","6","7","2","6","5","5","5","6","5","6","3","5","6","5","6","7","6","1","3","3","5","3","6","7","7","7","7","3","5","3","2","2","5","3","7","6","7","765496939306553346","刘","171","Male","[""好我"",""好他"",""坏他"",""坏我""]","[""强我"",""强他"",""弱他"",""弱我""]","","","","","","","","","","","","","","","","","","","","","","","","","","","","","","feedback_test","","","","","","","",""
"797","","j","psychophysics","46","285030","0.0-8.0-1.0-1.0-0.0-0.18","5","5","4","4","3","5","3","5","2","2","5","1","1","1","2","0","1","2","1","5","4","5","4","4","4","4","4","4","4","4","5","5","5","3","7","5","5","5","6","5","6","6","7","2","6","5","5","5","6","5","6","3","5","6","5","6","7","6","1","3","3","5","3","6","7","7","7","7","3","5","3","2","2","5","3","7","6","7","765496939306553346","刘","171","Male","[""好我"",""好他"",""坏他"",""坏我""]","[""强我"",""强他"",""弱他"",""弱我""]","","","","","","","","match","","","","","","","","","","key","j","16.665196261682034","768","428","j","true","match","img/hexagon.png","弱我","弱我","prac_ALT2_ability","practice_ability","","","","","","","",""
"null","<span style='color:GreenYellow; font-size: 70px;'>正确! </span>","null","html-keyboard-response","47","285531","0.0-8.0-1.0-1.0-0.0-1.18","5","5","4","4","3","5","3","5","2","2","5","1","1","1","2","0","1","2","1","5","4","5","4","4","4","4","4","4","4","4","5","5","5","3","7","5","5","5","6","5","6","6","7","2","6","5","5","5","6","5","6","3","5","6","5","6","7","6","1","3","3","5","3","6","7","7","7","7","3","5","3","2","2","5","3","7","6","7","765496939306553346","刘","171","Male","[""好我"",""好他"",""坏他"",""坏我""]","[""强我"",""强他"",""弱他"",""弱我""]","","","","","","","","","","","","","","","","","","","","","","","","","","","","","","feedback_test","","","","","","","",""
"840","","j","psychophysics","48","287372","0.0-8.0-1.0-1.0-0.0-0.19","5","5","4","4","3","5","3","5","2","2","5","1","1","1","2","0","1","2","1","5","4","5","4","4","4","4","4","4","4","4","5","5","5","3","7","5","5","5","6","5","6","6","7","2","6","5","5","5","6","5","6","3","5","6","5","6","7","6","1","3","3","5","3","6","7","7","7","7","3","5","3","2","2","5","3","7","6","7","765496939306553346","刘","171","Male","[""好我"",""好他"",""坏他"",""坏我""]","[""强我"",""强他"",""弱他"",""弱我""]","","","","","","","","match","","","","","","","","","","key","j","16.659936363636305","768","428","j","true","match","img/square.png","强我","强我","prac_ALT2_ability","practice_ability","","","","","","","",""
"null","<span style='color:GreenYellow; font-size: 70px;'>正确! </span>","null","html-keyboard-response","49","287874","0.0-8.0-1.0-1.0-0.0-1.19","5","5","4","4","3","5","3","5","2","2","5","1","1","1","2","0","1","2","1","5","4","5","4","4","4","4","4","4","4","4","5","5","5","3","7","5","5","5","6","5","6","6","7","2","6","5","5","5","6","5","6","3","5","6","5","6","7","6","1","3","3","5","3","6","7","7","7","7","3","5","3","2","2","5","3","7","6","7","765496939306553346","刘","171","Male","[""好我"",""好他"",""坏他"",""坏我""]","[""强我"",""强他"",""弱他"",""弱我""]","","","","","","","","","","","","","","","","","","","","","","","","","","","","","","feedback_test","","","","","","","",""
"678","","j","psychophysics","50","289553","0.0-8.0-1.0-1.0-0.0-0.20","5","5","4","4","3","5","3","5","2","2","5","1","1","1","2","0","1","2","1","5","4","5","4","4","4","4","4","4","4","4","5","5","5","3","7","5","5","5","6","5","6","6","7","2","6","5","5","5","6","5","6","3","5","6","5","6","7","6","1","3","3","5","3","6","7","7","7","7","3","5","3","2","2","5","3","7","6","7","765496939306553346","刘","171","Male","[""好我"",""好他"",""坏他"",""坏我""]","[""强我"",""强他"",""弱他"",""弱我""]","","","","","","","","match","","","","","","","","","","key","j","16.66226000000024","768","428","f","false","nonmatch","img/ellipse.png","强他","弱他","prac_ALT2_ability","practice_ability","","","","","","","",""
"null","<span style='color:red; font-size: 70px;'>错误! </span>","null","html-keyboard-response","51","290054","0.0-8.0-1.0-1.0-0.0-1.20","5","5","4","4","3","5","3","5","2","2","5","1","1","1","2","0","1","2","1","5","4","5","4","4","4","4","4","4","4","4","5","5","5","3","7","5","5","5","6","5","6","6","7","2","6","5","5","5","6","5","6","3","5","6","5","6","7","6","1","3","3","5","3","6","7","7","7","7","3","5","3","2","2","5","3","7","6","7","765496939306553346","刘","171","Male","[""好我"",""好他"",""坏他"",""坏我""]","[""强我"",""强他"",""弱他"",""弱我""]","","","","","","","","","","","","","","","","","","","","","","","","","","","","","","feedback_test","","","","","","","",""
"996","","f","psychophysics","52","292052","0.0-8.0-1.0-1.0-0.0-0.21","5","5","4","4","3","5","3","5","2","2","5","1","1","1","2","0","1","2","1","5","4","5","4","4","4","4","4","4","4","4","5","5","5","3","7","5","5","5","6","5","6","6","7","2","6","5","5","5","6","5","6","3","5","6","5","6","7","6","1","3","3","5","3","6","7","7","7","7","3","5","3","2","2","5","3","7","6","7","765496939306553346","刘","171","Male","[""好我"",""好他"",""坏他"",""坏我""]","[""强我"",""强他"",""弱他"",""弱我""]","","","","","","","","nonmatch","","","","","","","","","","key","f","16.660411764706186","768","428","f","true","nonmatch","img/hexagon.png","强他","弱我","prac_ALT2_ability","practice_ability","","","","","","","",""
"null","<span style='color:GreenYellow; font-size: 70px;'>正确! </span>","null","html-keyboard-response","53","292553","0.0-8.0-1.0-1.0-0.0-1.21","5","5","4","4","3","5","3","5","2","2","5","1","1","1","2","0","1","2","1","5","4","5","4","4","4","4","4","4","4","4","5","5","5","3","7","5","5","5","6","5","6","6","7","2","6","5","5","5","6","5","6","3","5","6","5","6","7","6","1","3","3","5","3","6","7","7","7","7","3","5","3","2","2","5","3","7","6","7","765496939306553346","刘","171","Male","[""好我"",""好他"",""坏他"",""坏我""]","[""强我"",""强他"",""弱他"",""弱我""]","","","","","","","","","","","","","","","","","","","","","","","","","","","","","","feedback_test","","","","","","","",""
"737","","f","psychophysics","54","294291","0.0-8.0-1.0-1.0-0.0-0.22","5","5","4","4","3","5","3","5","2","2","5","1","1","1","2","0","1","2","1","5","4","5","4","4","4","4","4","4","4","4","5","5","5","3","7","5","5","5","6","5","6","6","7","2","6","5","5","5","6","5","6","3","5","6","5","6","7","6","1","3","3","5","3","6","7","7","7","7","3","5","3","2","2","5","3","7","6","7","765496939306553346","刘","171","Male","[""好我"",""好他"",""坏他"",""坏我""]","[""强我"",""强他"",""弱他"",""弱我""]","","","","","","","","nonmatch","","","","","","","","","","key","f","16.663970873786646","768","428","f","true","nonmatch","img/square.png","弱他","强我","prac_ALT2_ability","practice_ability","","","","","","","",""
"null","<span style='color:GreenYellow; font-size: 70px;'>正确! </span>","null","html-keyboard-response","55","294793","0.0-8.0-1.0-1.0-0.0-1.22","5","5","4","4","3","5","3","5","2","2","5","1","1","1","2","0","1","2","1","5","4","5","4","4","4","4","4","4","4","4","5","5","5","3","7","5","5","5","6","5","6","6","7","2","6","5","5","5","6","5","6","3","5","6","5","6","7","6","1","3","3","5","3","6","7","7","7","7","3","5","3","2","2","5","3","7","6","7","765496939306553346","刘","171","Male","[""好我"",""好他"",""坏他"",""坏我""]","[""强我"",""强他"",""弱他"",""弱我""]","","","","","","","","","","","","","","","","","","","","","","","","","","","","","","feedback_test","","","","","","","",""
"924","","f","psychophysics","56","296719","0.0-8.0-1.0-1.0-0.0-0.23","5","5","4","4","3","5","3","5","2","2","5","1","1","1","2","0","1","2","1","5","4","5","4","4","4","4","4","4","4","4","5","5","5","3","7","5","5","5","6","5","6","6","7","2","6","5","5","5","6","5","6","3","5","6","5","6","7","6","1","3","3","5","3","6","7","7","7","7","3","5","3","2","2","5","3","7","6","7","765496939306553346","刘","171","Male","[""好我"",""好他"",""坏他"",""坏我""]","[""强我"",""强他"",""弱他"",""弱我""]","","","","","","","","nonmatch","","","","","","","","","","key","f","16.664591304347447","768","428","f","true","nonmatch","img/square.png","强他","强我","prac_ALT2_ability","practice_ability","","","","","","","",""
"null","<span style='color:GreenYellow; font-size: 70px;'>正确! </span>","null","html-keyboard-response","57","297220","0.0-8.0-1.0-1.0-0.0-1.23","5","5","4","4","3","5","3","5","2","2","5","1","1","1","2","0","1","2","1","5","4","5","4","4","4","4","4","4","4","4","5","5","5","3","7","5","5","5","6","5","6","6","7","2","6","5","5","5","6","5","6","3","5","6","5","6","7","6","1","3","3","5","3","6","7","7","7","7","3","5","3","2","2","5","3","7","6","7","765496939306553346","刘","171","Male","[""好我"",""好他"",""坏他"",""坏我""]","[""强我"",""强他"",""弱他"",""弱我""]","","","","","","","","","","","","","","","","","","","","","","","","","","","","","","feedback_test","","","","","","","",""
"771","","j","psychophysics","58","298992","0.0-8.0-1.0-1.0-0.0-0.24","5","5","4","4","3","5","3","5","2","2","5","1","1","1","2","0","1","2","1","5","4","5","4","4","4","4","4","4","4","4","5","5","5","3","7","5","5","5","6","5","6","6","7","2","6","5","5","5","6","5","6","3","5","6","5","6","7","6","1","3","3","5","3","6","7","7","7","7","3","5","3","2","2","5","3","7","6","7","765496939306553346","刘","171","Male","[""好我"",""好他"",""坏他"",""坏我""]","[""强我"",""强他"",""弱他"",""弱我""]","","","","","","","","match","","","","","","","","","","key","j","16.65924761904725","768","428","j","true","match","img/square.png","强我","强我","prac_ALT2_ability","practice_ability","","","","","","","",""
"null","<span style='color:GreenYellow; font-size: 70px;'>正确! </span>","null","html-keyboard-response","59","299494","0.0-8.0-1.0-1.0-0.0-1.24","5","5","4","4","3","5","3","5","2","2","5","1","1","1","2","0","1","2","1","5","4","5","4","4","4","4","4","4","4","4","5","5","5","3","7","5","5","5","6","5","6","6","7","2","6","5","5","5","6","5","6","3","5","6","5","6","7","6","1","3","3","5","3","6","7","7","7","7","3","5","3","2","2","5","3","7","6","7","765496939306553346","刘","171","Male","[""好我"",""好他"",""坏他"",""坏我""]","[""强我"",""强他"",""弱他"",""弱我""]","","","","","","","","","","","","","","","","","","","","","","","","","","","","","","feedback_test","","","","","","","",""
"null","","null","psychophysics","60","301699","0.0-8.0-1.0-1.0-0.0-0.25","5","5","4","4","3","5","3","5","2","2","5","1","1","1","2","0","1","2","1","5","4","5","4","4","4","4","4","4","4","4","5","5","5","3","7","5","5","5","6","5","6","6","7","2","6","5","5","5","6","5","6","3","5","6","5","6","7","6","1","3","3","5","3","6","7","7","7","7","3","5","3","2","2","5","3","7","6","7","765496939306553346","刘","171","Male","[""好我"",""好他"",""坏他"",""坏我""]","[""强我"",""强他"",""弱他"",""弱我""]","","","","","","","","null","","","","","","","","","","key","null","16.66105343511449","768","428","j","false","match","img/hexagon.png","弱我","弱我","prac_ALT2_ability","practice_ability","","","","","","","",""
"null","<span class='add_' style='color:yellow; font-size: 70px;'> 太慢! </span>","null","html-keyboard-response","61","302201","0.0-8.0-1.0-1.0-0.0-1.25","5","5","4","4","3","5","3","5","2","2","5","1","1","1","2","0","1","2","1","5","4","5","4","4","4","4","4","4","4","4","5","5","5","3","7","5","5","5","6","5","6","6","7","2","6","5","5","5","6","5","6","3","5","6","5","6","7","6","1","3","3","5","3","6","7","7","7","7","3","5","3","2","2","5","3","7","6","7","765496939306553346","刘","171","Male","[""好我"",""好他"",""坏他"",""坏我""]","[""强我"",""强他"",""弱他"",""弱我""]","","","","","","","","","","","","","","","","","","","","","","","","","","","","","","feedback_test","","","","","","","",""
"744","","j","psychophysics","62","303947","0.0-8.0-1.0-1.0-0.0-0.26","5","5","4","4","3","5","3","5","2","2","5","1","1","1","2","0","1","2","1","5","4","5","4","4","4","4","4","4","4","4","5","5","5","3","7","5","5","5","6","5","6","6","7","2","6","5","5","5","6","5","6","3","5","6","5","6","7","6","1","3","3","5","3","6","7","7","7","7","3","5","3","2","2","5","3","7","6","7","765496939306553346","刘","171","Male","[""好我"",""好他"",""坏他"",""坏我""]","[""强我"",""强他"",""弱他"",""弱我""]","","","","","","","","match","","","","","","","","","","key","j","16.65986538461528","768","428","f","false","nonmatch","img/square.png","弱我","强我","prac_ALT2_ability","practice_ability","","","","","","","",""
"null","<span style='color:red; font-size: 70px;'>错误! </span>","null","html-keyboard-response","63","304450","0.0-8.0-1.0-1.0-0.0-1.26","5","5","4","4","3","5","3","5","2","2","5","1","1","1","2","0","1","2","1","5","4","5","4","4","4","4","4","4","4","4","5","5","5","3","7","5","5","5","6","5","6","6","7","2","6","5","5","5","6","5","6","3","5","6","5","6","7","6","1","3","3","5","3","6","7","7","7","7","3","5","3","2","2","5","3","7","6","7","765496939306553346","刘","171","Male","[""好我"",""好他"",""坏他"",""坏我""]","[""强我"",""强他"",""弱他"",""弱我""]","","","","","","","","","","","","","","","","","","","","","","","","","","","","","","feedback_test","","","","","","","",""
"855","","f","psychophysics","64","306306","0.0-8.0-1.0-1.0-0.0-0.27","5","5","4","4","3","5","3","5","2","2","5","1","1","1","2","0","1","2","1","5","4","5","4","4","4","4","4","4","4","4","5","5","5","3","7","5","5","5","6","5","6","6","7","2","6","5","5","5","6","5","6","3","5","6","5","6","7","6","1","3","3","5","3","6","7","7","7","7","3","5","3","2","2","5","3","7","6","7","765496939306553346","刘","171","Male","[""好我"",""好他"",""坏他"",""坏我""]","[""强我"",""强他"",""弱他"",""弱我""]","","","","","","","","nonmatch","","","","","","","","","","key","f","16.66180000000009","768","428","f","true","nonmatch","img/triangle.png","弱他","强他","prac_ALT2_ability","practice_ability","","","","","","","",""
"null","<span style='color:GreenYellow; font-size: 70px;'>正确! </span>","null","html-keyboard-response","65","306807","0.0-8.0-1.0-1.0-0.0-1.27","5","5","4","4","3","5","3","5","2","2","5","1","1","1","2","0","1","2","1","5","4","5","4","4","4","4","4","4","4","4","5","5","5","3","7","5","5","5","6","5","6","6","7","2","6","5","5","5","6","5","6","3","5","6","5","6","7","6","1","3","3","5","3","6","7","7","7","7","3","5","3","2","2","5","3","7","6","7","765496939306553346","刘","171","Male","[""好我"",""好他"",""坏他"",""坏我""]","[""强我"",""强他"",""弱他"",""弱我""]","","","","","","","","","","","","","","","","","","","","","","","","","","","","","","feedback_test","","","","","","","",""
"859","","f","psychophysics","66","308667","0.0-8.0-1.0-1.0-0.0-0.28","5","5","4","4","3","5","3","5","2","2","5","1","1","1","2","0","1","2","1","5","4","5","4","4","4","4","4","4","4","4","5","5","5","3","7","5","5","5","6","5","6","6","7","2","6","5","5","5","6","5","6","3","5","6","5","6","7","6","1","3","3","5","3","6","7","7","7","7","3","5","3","2","2","5","3","7","6","7","765496939306553346","刘","171","Male","[""好我"",""好他"",""坏他"",""坏我""]","[""强我"",""强他"",""弱他"",""弱我""]","","","","","","","","nonmatch","","","","","","","","","","key","f","16.662909909909768","768","428","f","true","nonmatch","img/hexagon.png","强我","弱我","prac_ALT2_ability","practice_ability","","","","","","","",""
"null","<span style='color:GreenYellow; font-size: 70px;'>正确! </span>","null","html-keyboard-response","67","309168","0.0-8.0-1.0-1.0-0.0-1.28","5","5","4","4","3","5","3","5","2","2","5","1","1","1","2","0","1","2","1","5","4","5","4","4","4","4","4","4","4","4","5","5","5","3","7","5","5","5","6","5","6","6","7","2","6","5","5","5","6","5","6","3","5","6","5","6","7","6","1","3","3","5","3","6","7","7","7","7","3","5","3","2","2","5","3","7","6","7","765496939306553346","刘","171","Male","[""好我"",""好他"",""坏他"",""坏我""]","[""强我"",""强他"",""弱他"",""弱我""]","","","","","","","","","","","","","","","","","","","","","","","","","","","","","","feedback_test","","","","","","","",""
"861","","f","psychophysics","68","311032","0.0-8.0-1.0-1.0-0.0-0.29","5","5","4","4","3","5","3","5","2","2","5","1","1","1","2","0","1","2","1","5","4","5","4","4","4","4","4","4","4","4","5","5","5","3","7","5","5","5","6","5","6","6","7","2","6","5","5","5","6","5","6","3","5","6","5","6","7","6","1","3","3","5","3","6","7","7","7","7","3","5","3","2","2","5","3","7","6","7","765496939306553346","刘","171","Male","[""好我"",""好他"",""坏他"",""坏我""]","[""强我"",""强他"",""弱他"",""弱我""]","","","","","","","","nonmatch","","","","","","","","","","key","f","16.658810810811044","768","428","f","true","nonmatch","img/hexagon.png","强他","弱我","prac_ALT2_ability","practice_ability","","","","","","","",""
"null","<span style='color:GreenYellow; font-size: 70px;'>正确! </span>","null","html-keyboard-response","69","311533","0.0-8.0-1.0-1.0-0.0-1.29","5","5","4","4","3","5","3","5","2","2","5","1","1","1","2","0","1","2","1","5","4","5","4","4","4","4","4","4","4","4","5","5","5","3","7","5","5","5","6","5","6","6","7","2","6","5","5","5","6","5","6","3","5","6","5","6","7","6","1","3","3","5","3","6","7","7","7","7","3","5","3","2","2","5","3","7","6","7","765496939306553346","刘","171","Male","[""好我"",""好他"",""坏他"",""坏我""]","[""强我"",""强他"",""弱他"",""弱我""]","","","","","","","","","","","","","","","","","","","","","","","","","","","","","","feedback_test","","","","","","","",""
"1021","","f","psychophysics","70","313555","0.0-8.0-1.0-1.0-0.0-0.30","5","5","4","4","3","5","3","5","2","2","5","1","1","1","2","0","1","2","1","5","4","5","4","4","4","4","4","4","4","4","5","5","5","3","7","5","5","5","6","5","6","6","7","2","6","5","5","5","6","5","6","3","5","6","5","6","7","6","1","3","3","5","3","6","7","7","7","7","3","5","3","2","2","5","3","7","6","7","765496939306553346","刘","171","Male","[""好我"",""好他"",""坏他"",""坏我""]","[""强我"",""强他"",""弱他"",""弱我""]","","","","","","","","nonmatch","","","","","","","","","","key","f","16.664258333333418","768","428","f","true","nonmatch","img/hexagon.png","弱他","弱我","prac_ALT2_ability","practice_ability","","","","","","","",""
"null","<span style='color:GreenYellow; font-size: 70px;'>正确! </span>","null","html-keyboard-response","71","314057","0.0-8.0-1.0-1.0-0.0-1.30","5","5","4","4","3","5","3","5","2","2","5","1","1","1","2","0","1","2","1","5","4","5","4","4","4","4","4","4","4","4","5","5","5","3","7","5","5","5","6","5","6","6","7","2","6","5","5","5","6","5","6","3","5","6","5","6","7","6","1","3","3","5","3","6","7","7","7","7","3","5","3","2","2","5","3","7","6","7","765496939306553346","刘","171","Male","[""好我"",""好他"",""坏他"",""坏我""]","[""强我"",""强他"",""弱他"",""弱我""]","","","","","","","","","","","","","","","","","","","","","","","","","","","","","","feedback_test","","","","","","","",""
"883","","j","psychophysics","72","315943","0.0-8.0-1.0-1.0-0.0-0.31","5","5","4","4","3","5","3","5","2","2","5","1","1","1","2","0","1","2","1","5","4","5","4","4","4","4","4","4","4","4","5","5","5","3","7","5","5","5","6","5","6","6","7","2","6","5","5","5","6","5","6","3","5","6","5","6","7","6","1","3","3","5","3","6","7","7","7","7","3","5","3","2","2","5","3","7","6","7","765496939306553346","刘","171","Male","[""好我"",""好他"",""坏他"",""坏我""]","[""强我"",""强他"",""弱他"",""弱我""]","","","","","","","","match","","","","","","","","","","key","j","16.661419642856863","768","428","j","true","match","img/hexagon.png","弱我","弱我","prac_ALT2_ability","practice_ability","","","","","","","",""
"null","<span style='color:GreenYellow; font-size: 70px;'>正确! </span>","null","html-keyboard-response","73","316444","0.0-8.0-1.0-1.0-0.0-1.31","5","5","4","4","3","5","3","5","2","2","5","1","1","1","2","0","1","2","1","5","4","5","4","4","4","4","4","4","4","4","5","5","5","3","7","5","5","5","6","5","6","6","7","2","6","5","5","5","6","5","6","3","5","6","5","6","7","6","1","3","3","5","3","6","7","7","7","7","3","5","3","2","2","5","3","7","6","7","765496939306553346","刘","171","Male","[""好我"",""好他"",""坏他"",""坏我""]","[""强我"",""强他"",""弱他"",""弱我""]","","","","","","","","","","","","","","","","","","","","","","","","","","","","","","feedback_test","","","","","","","",""
"1023","","f","psychophysics","74","318468","0.0-8.0-1.0-1.0-0.0-0.32","5","5","4","4","3","5","3","5","2","2","5","1","1","1","2","0","1","2","1","5","4","5","4","4","4","4","4","4","4","4","5","5","5","3","7","5","5","5","6","5","6","6","7","2","6","5","5","5","6","5","6","3","5","6","5","6","7","6","1","3","3","5","3","6","7","7","7","7","3","5","3","2","2","5","3","7","6","7","765496939306553346","刘","171","Male","[""好我"",""好他"",""坏他"",""坏我""]","[""强我"",""强他"",""弱他"",""弱我""]","","","","","","","","nonmatch","","","","","","","","","","key","f","16.663616666666833","768","428","j","false","match","img/ellipse.png","弱他","弱他","prac_ALT2_ability","practice_ability","","","","","","","",""
"null","<span style='color:red; font-size: 70px;'>错误! </span>","null","html-keyboard-response","75","318969","0.0-8.0-1.0-1.0-0.0-1.32","5","5","4","4","3","5","3","5","2","2","5","1","1","1","2","0","1","2","1","5","4","5","4","4","4","4","4","4","4","4","5","5","5","3","7","5","5","5","6","5","6","6","7","2","6","5","5","5","6","5","6","3","5","6","5","6","7","6","1","3","3","5","3","6","7","7","7","7","3","5","3","2","2","5","3","7","6","7","765496939306553346","刘","171","Male","[""好我"",""好他"",""坏他"",""坏我""]","[""强我"",""强他"",""弱他"",""弱我""]","","","","","","","","","","","","","","","","","","","","","","","","","","","","","","feedback_test","","","","","","","",""
"974","","f","psychophysics","76","320945","0.0-8.0-1.0-1.0-0.0-0.33","5","5","4","4","3","5","3","5","2","2","5","1","1","1","2","0","1","2","1","5","4","5","4","4","4","4","4","4","4","4","5","5","5","3","7","5","5","5","6","5","6","6","7","2","6","5","5","5","6","5","6","3","5","6","5","6","7","6","1","3","3","5","3","6","7","7","7","7","3","5","3","2","2","5","3","7","6","7","765496939306553346","刘","171","Male","[""好我"",""好他"",""坏他"",""坏我""]","[""强我"",""强他"",""弱他"",""弱我""]","","","","","","","","nonmatch","","","","","","","","","","key","f","16.66181355932189","768","428","f","true","nonmatch","img/ellipse.png","强他","弱他","prac_ALT2_ability","practice_ability","","","","","","","",""
"null","<span style='color:GreenYellow; font-size: 70px;'>正确! </span>","null","html-keyboard-response","77","321446","0.0-8.0-1.0-1.0-0.0-1.33","5","5","4","4","3","5","3","5","2","2","5","1","1","1","2","0","1","2","1","5","4","5","4","4","4","4","4","4","4","4","5","5","5","3","7","5","5","5","6","5","6","6","7","2","6","5","5","5","6","5","6","3","5","6","5","6","7","6","1","3","3","5","3","6","7","7","7","7","3","5","3","2","2","5","3","7","6","7","765496939306553346","刘","171","Male","[""好我"",""好他"",""坏他"",""坏我""]","[""强我"",""强他"",""弱他"",""弱我""]","","","","","","","","","","","","","","","","","","","","","","","","","","","","","","feedback_test","","","","","","","",""
"1070","","f","psychophysics","78","323517","0.0-8.0-1.0-1.0-0.0-0.34","5","5","4","4","3","5","3","5","2","2","5","1","1","1","2","0","1","2","1","5","4","5","4","4","4","4","4","4","4","4","5","5","5","3","7","5","5","5","6","5","6","6","7","2","6","5","5","5","6","5","6","3","5","6","5","6","7","6","1","3","3","5","3","6","7","7","7","7","3","5","3","2","2","5","3","7","6","7","765496939306553346","刘","171","Male","[""好我"",""好他"",""坏他"",""坏我""]","[""强我"",""强他"",""弱他"",""弱我""]","","","","","","","","nonmatch","","","","","","","","","","key","f","16.661934959349637","768","428","f","true","nonmatch","img/triangle.png","弱我","强他","prac_ALT2_ability","practice_ability","","","","","","","",""
"null","<span style='color:GreenYellow; font-size: 70px;'>正确! </span>","null","html-keyboard-response","79","324018","0.0-8.0-1.0-1.0-0.0-1.34","5","5","4","4","3","5","3","5","2","2","5","1","1","1","2","0","1","2","1","5","4","5","4","4","4","4","4","4","4","4","5","5","5","3","7","5","5","5","6","5","6","6","7","2","6","5","5","5","6","5","6","3","5","6","5","6","7","6","1","3","3","5","3","6","7","7","7","7","3","5","3","2","2","5","3","7","6","7","765496939306553346","刘","171","Male","[""好我"",""好他"",""坏他"",""坏我""]","[""强我"",""强他"",""弱他"",""弱我""]","","","","","","","","","","","","","","","","","","","","","","","","","","","","","","feedback_test","","","","","","","",""
"976","","j","psychophysics","80","326000","0.0-8.0-1.0-1.0-0.0-0.35","5","5","4","4","3","5","3","5","2","2","5","1","1","1","2","0","1","2","1","5","4","5","4","4","4","4","4","4","4","4","5","5","5","3","7","5","5","5","6","5","6","6","7","2","6","5","5","5","6","5","6","3","5","6","5","6","7","6","1","3","3","5","3","6","7","7","7","7","3","5","3","2","2","5","3","7","6","7","765496939306553346","刘","171","Male","[""好我"",""好他"",""坏他"",""坏我""]","[""强我"",""强他"",""弱他"",""弱我""]","","","","","","","","match","","","","","","","","","","key","j","16.663367521367533","768","428","j","true","match","img/ellipse.png","弱他","弱他","prac_ALT2_ability","practice_ability","","","","","","","",""
"null","<span style='color:GreenYellow; font-size: 70px;'>正确! </span>","null","html-keyboard-response","81","326501","0.0-8.0-1.0-1.0-0.0-1.35","5","5","4","4","3","5","3","5","2","2","5","1","1","1","2","0","1","2","1","5","4","5","4","4","4","4","4","4","4","4","5","5","5","3","7","5","5","5","6","5","6","6","7","2","6","5","5","5","6","5","6","3","5","6","5","6","7","6","1","3","3","5","3","6","7","7","7","7","3","5","3","2","2","5","3","7","6","7","765496939306553346","刘","171","Male","[""好我"",""好他"",""坏他"",""坏我""]","[""强我"",""强他"",""弱他"",""弱我""]","","","","","","","","","","","","","","","","","","","","","","","","","","","","","","feedback_test","","","","","","","",""
"1189","","j","psychophysics","82","328691","0.0-8.0-1.0-1.0-0.0-0.36","5","5","4","4","3","5","3","5","2","2","5","1","1","1","2","0","1","2","1","5","4","5","4","4","4","4","4","4","4","4","5","5","5","3","7","5","5","5","6","5","6","6","7","2","6","5","5","5","6","5","6","3","5","6","5","6","7","6","1","3","3","5","3","6","7","7","7","7","3","5","3","2","2","5","3","7","6","7","765496939306553346","刘","171","Male","[""好我"",""好他"",""坏他"",""坏我""]","[""强我"",""强他"",""弱他"",""弱我""]","","","","","","","","match","","","","","","","","","","key","j","16.663999999999977","768","428","j","true","match","img/triangle.png","强他","强他","prac_ALT2_ability","practice_ability","","","","","","","",""
"null","<span style='color:GreenYellow; font-size: 70px;'>正确! </span>","null","html-keyboard-response","83","329192","0.0-8.0-1.0-1.0-0.0-1.36","5","5","4","4","3","5","3","5","2","2","5","1","1","1","2","0","1","2","1","5","4","5","4","4","4","4","4","4","4","4","5","5","5","3","7","5","5","5","6","5","6","6","7","2","6","5","5","5","6","5","6","3","5","6","5","6","7","6","1","3","3","5","3","6","7","7","7","7","3","5","3","2","2","5","3","7","6","7","765496939306553346","刘","171","Male","[""好我"",""好他"",""坏他"",""坏我""]","[""强我"",""强他"",""弱他"",""弱我""]","","","","","","","","","","","","","","","","","","","","","","","","","","","","","","feedback_test","","","","","","","",""
"861","","f","psychophysics","84","331055","0.0-8.0-1.0-1.0-0.0-0.37","5","5","4","4","3","5","3","5","2","2","5","1","1","1","2","0","1","2","1","5","4","5","4","4","4","4","4","4","4","4","5","5","5","3","7","5","5","5","6","5","6","6","7","2","6","5","5","5","6","5","6","3","5","6","5","6","7","6","1","3","3","5","3","6","7","7","7","7","3","5","3","2","2","5","3","7","6","7","765496939306553346","刘","171","Male","[""好我"",""好他"",""坏他"",""坏我""]","[""强我"",""强他"",""弱他"",""弱我""]","","","","","","","","nonmatch","","","","","","","","","","key","f","16.663468468468636","768","428","f","true","nonmatch","img/triangle.png","强我","强他","prac_ALT2_ability","practice_ability","","","","","","","",""
"null","<span style='color:GreenYellow; font-size: 70px;'>正确! </span>","null","html-keyboard-response","85","331556","0.0-8.0-1.0-1.0-0.0-1.37","5","5","4","4","3","5","3","5","2","2","5","1","1","1","2","0","1","2","1","5","4","5","4","4","4","4","4","4","4","4","5","5","5","3","7","5","5","5","6","5","6","6","7","2","6","5","5","5","6","5","6","3","5","6","5","6","7","6","1","3","3","5","3","6","7","7","7","7","3","5","3","2","2","5","3","7","6","7","765496939306553346","刘","171","Male","[""好我"",""好他"",""坏他"",""坏我""]","[""强我"",""强他"",""弱他"",""弱我""]","","","","","","","","","","","","","","","","","","","","","","","","","","","","","","feedback_test","","","","","","","",""
"754","","j","psychophysics","86","333311","0.0-8.0-1.0-1.0-0.0-0.38","5","5","4","4","3","5","3","5","2","2","5","1","1","1","2","0","1","2","1","5","4","5","4","4","4","4","4","4","4","4","5","5","5","3","7","5","5","5","6","5","6","6","7","2","6","5","5","5","6","5","6","3","5","6","5","6","7","6","1","3","3","5","3","6","7","7","7","7","3","5","3","2","2","5","3","7","6","7","765496939306553346","刘","171","Male","[""好我"",""好他"",""坏他"",""坏我""]","[""强我"",""强他"",""弱他"",""弱我""]","","","","","","","","match","","","","","","","","","","key","j","16.664019230769416","768","428","j","true","match","img/hexagon.png","弱我","弱我","prac_ALT2_ability","practice_ability","","","","","","","",""
"null","<span style='color:GreenYellow; font-size: 70px;'>正确! </span>","null","html-keyboard-response","87","333822","0.0-8.0-1.0-1.0-0.0-1.38","5","5","4","4","3","5","3","5","2","2","5","1","1","1","2","0","1","2","1","5","4","5","4","4","4","4","4","4","4","4","5","5","5","3","7","5","5","5","6","5","6","6","7","2","6","5","5","5","6","5","6","3","5","6","5","6","7","6","1","3","3","5","3","6","7","7","7","7","3","5","3","2","2","5","3","7","6","7","765496939306553346","刘","171","Male","[""好我"",""好他"",""坏他"",""坏我""]","[""强我"",""强他"",""弱他"",""弱我""]","","","","","","","","","","","","","","","","","","","","","","","","","","","","","","feedback_test","","","","","","","",""
"790","","f","psychophysics","88","335614","0.0-8.0-1.0-1.0-0.0-0.39","5","5","4","4","3","5","3","5","2","2","5","1","1","1","2","0","1","2","1","5","4","5","4","4","4","4","4","4","4","4","5","5","5","3","7","5","5","5","6","5","6","6","7","2","6","5","5","5","6","5","6","3","5","6","5","6","7","6","1","3","3","5","3","6","7","7","7","7","3","5","3","2","2","5","3","7","6","7","765496939306553346","刘","171","Male","[""好我"",""好他"",""坏他"",""坏我""]","[""强我"",""强他"",""弱他"",""弱我""]","","","","","","","","nonmatch","","","","","","","","","","key","f","16.66150943396222","768","428","j","false","match","img/ellipse.png","弱他","弱他","prac_ALT2_ability","practice_ability","","","","","","","",""
"null","<span style='color:red; font-size: 70px;'>错误! </span>","null","html-keyboard-response","89","336115","0.0-8.0-1.0-1.0-0.0-1.39","5","5","4","4","3","5","3","5","2","2","5","1","1","1","2","0","1","2","1","5","4","5","4","4","4","4","4","4","4","4","5","5","5","3","7","5","5","5","6","5","6","6","7","2","6","5","5","5","6","5","6","3","5","6","5","6","7","6","1","3","3","5","3","6","7","7","7","7","3","5","3","2","2","5","3","7","6","7","765496939306553346","刘","171","Male","[""好我"",""好他"",""坏他"",""坏我""]","[""强我"",""强他"",""弱他"",""弱我""]","","","","","","","","","","","","","","","","","","","","","","","","","","","","","","feedback_test","","","","","","","",""
"627","","j","psychophysics","90","337747","0.0-8.0-1.0-1.0-0.0-0.40","5","5","4","4","3","5","3","5","2","2","5","1","1","1","2","0","1","2","1","5","4","5","4","4","4","4","4","4","4","4","5","5","5","3","7","5","5","5","6","5","6","6","7","2","6","5","5","5","6","5","6","3","5","6","5","6","7","6","1","3","3","5","3","6","7","7","7","7","3","5","3","2","2","5","3","7","6","7","765496939306553346","刘","171","Male","[""好我"",""好他"",""坏他"",""坏我""]","[""强我"",""强他"",""弱他"",""弱我""]","","","","","","","","match","","","","","","","","","","key","j","16.659895833333092","768","428","j","true","match","img/square.png","强我","强我","prac_ALT2_ability","practice_ability","","","","","","","",""
"null","<span style='color:GreenYellow; font-size: 70px;'>正确! </span>","null","html-keyboard-response","91","338251","0.0-8.0-1.0-1.0-0.0-1.40","5","5","4","4","3","5","3","5","2","2","5","1","1","1","2","0","1","2","1","5","4","5","4","4","4","4","4","4","4","4","5","5","5","3","7","5","5","5","6","5","6","6","7","2","6","5","5","5","6","5","6","3","5","6","5","6","7","6","1","3","3","5","3","6","7","7","7","7","3","5","3","2","2","5","3","7","6","7","765496939306553346","刘","171","Male","[""好我"",""好他"",""坏他"",""坏我""]","[""强我"",""强他"",""弱他"",""弱我""]","","","","","","","","","","","","","","","","","","","","","","","","","","","","","","feedback_test","","","","","","","",""
"843","","f","psychophysics","92","340095","0.0-8.0-1.0-1.0-0.0-0.41","5","5","4","4","3","5","3","5","2","2","5","1","1","1","2","0","1","2","1","5","4","5","4","4","4","4","4","4","4","4","5","5","5","3","7","5","5","5","6","5","6","6","7","2","6","5","5","5","6","5","6","3","5","6","5","6","7","6","1","3","3","5","3","6","7","7","7","7","3","5","3","2","2","5","3","7","6","7","765496939306553346","刘","171","Male","[""好我"",""好他"",""坏他"",""坏我""]","[""强我"",""强他"",""弱他"",""弱我""]","","","","","","","","nonmatch","","","","","","","","","","key","f","16.66411009174291","768","428","f","true","nonmatch","img/square.png","弱他","强我","prac_ALT2_ability","practice_ability","","","","","","","",""
"null","<span style='color:GreenYellow; font-size: 70px;'>正确! </span>","null","html-keyboard-response","93","340596","0.0-8.0-1.0-1.0-0.0-1.41","5","5","4","4","3","5","3","5","2","2","5","1","1","1","2","0","1","2","1","5","4","5","4","4","4","4","4","4","4","4","5","5","5","3","7","5","5","5","6","5","6","6","7","2","6","5","5","5","6","5","6","3","5","6","5","6","7","6","1","3","3","5","3","6","7","7","7","7","3","5","3","2","2","5","3","7","6","7","765496939306553346","刘","171","Male","[""好我"",""好他"",""坏他"",""坏我""]","[""强我"",""强他"",""弱他"",""弱我""]","","","","","","","","","","","","","","","","","","","","","","","","","","","","","","feedback_test","","","","","","","",""
"687","","j","psychophysics","94","342285","0.0-8.0-1.0-1.0-0.0-0.42","5","5","4","4","3","5","3","5","2","2","5","1","1","1","2","0","1","2","1","5","4","5","4","4","4","4","4","4","4","4","5","5","5","3","7","5","5","5","6","5","6","6","7","2","6","5","5","5","6","5","6","3","5","6","5","6","7","6","1","3","3","5","3","6","7","7","7","7","3","5","3","2","2","5","3","7","6","7","765496939306553346","刘","171","Male","[""好我"",""好他"",""坏他"",""坏我""]","[""强我"",""强他"",""弱他"",""弱我""]","","","","","","","","match","","","","","","","","","","key","j","16.660349999999745","768","428","j","true","match","img/triangle.png","强他","强他","prac_ALT2_ability","practice_ability","","","","","","","",""
"null","<span style='color:GreenYellow; font-size: 70px;'>正确! </span>","null","html-keyboard-response","95","342786","0.0-8.0-1.0-1.0-0.0-1.42","5","5","4","4","3","5","3","5","2","2","5","1","1","1","2","0","1","2","1","5","4","5","4","4","4","4","4","4","4","4","5","5","5","3","7","5","5","5","6","5","6","6","7","2","6","5","5","5","6","5","6","3","5","6","5","6","7","6","1","3","3","5","3","6","7","7","7","7","3","5","3","2","2","5","3","7","6","7","765496939306553346","刘","171","Male","[""好我"",""好他"",""坏他"",""坏我""]","[""强我"",""强他"",""弱他"",""弱我""]","","","","","","","","","","","","","","","","","","","","","","","","","","","","","","feedback_test","","","","","","","",""
"1014","","f","psychophysics","96","344802","0.0-8.0-1.0-1.0-0.0-0.43","5","5","4","4","3","5","3","5","2","2","5","1","1","1","2","0","1","2","1","5","4","5","4","4","4","4","4","4","4","4","5","5","5","3","7","5","5","5","6","5","6","6","7","2","6","5","5","5","6","5","6","3","5","6","5","6","7","6","1","3","3","5","3","6","7","7","7","7","3","5","3","2","2","5","3","7","6","7","765496939306553346","刘","171","Male","[""好我"",""好他"",""坏他"",""坏我""]","[""强我"",""强他"",""弱他"",""弱我""]","","","","","","","","nonmatch","","","","","","","","","","key","f","16.661341666666463","768","428","f","true","nonmatch","img/ellipse.png","弱我","弱他","prac_ALT2_ability","practice_ability","","","","","","","",""
"null","<span style='color:GreenYellow; font-size: 70px;'>正确! </span>","null","html-keyboard-response","97","345303","0.0-8.0-1.0-1.0-0.0-1.43","5","5","4","4","3","5","3","5","2","2","5","1","1","1","2","0","1","2","1","5","4","5","4","4","4","4","4","4","4","4","5","5","5","3","7","5","5","5","6","5","6","6","7","2","6","5","5","5","6","5","6","3","5","6","5","6","7","6","1","3","3","5","3","6","7","7","7","7","3","5","3","2","2","5","3","7","6","7","765496939306553346","刘","171","Male","[""好我"",""好他"",""坏他"",""坏我""]","[""强我"",""强他"",""弱他"",""弱我""]","","","","","","","","","","","","","","","","","","","","","","","","","","","","","","feedback_test","","","","","","","",""
"900","","f","psychophysics","98","347206","0.0-8.0-1.0-1.0-0.0-0.44","5","5","4","4","3","5","3","5","2","2","5","1","1","1","2","0","1","2","1","5","4","5","4","4","4","4","4","4","4","4","5","5","5","3","7","5","5","5","6","5","6","6","7","2","6","5","5","5","6","5","6","3","5","6","5","6","7","6","1","3","3","5","3","6","7","7","7","7","3","5","3","2","2","5","3","7","6","7","765496939306553346","刘","171","Male","[""好我"",""好他"",""坏他"",""坏我""]","[""强我"",""强他"",""弱他"",""弱我""]","","","","","","","","nonmatch","","","","","","","","","","key","f","16.661477876105963","768","428","f","true","nonmatch","img/ellipse.png","强我","弱他","prac_ALT2_ability","practice_ability","","","","","","","",""
"null","<span style='color:GreenYellow; font-size: 70px;'>正确! </span>","null","html-keyboard-response","99","347706","0.0-8.0-1.0-1.0-0.0-1.44","5","5","4","4","3","5","3","5","2","2","5","1","1","1","2","0","1","2","1","5","4","5","4","4","4","4","4","4","4","4","5","5","5","3","7","5","5","5","6","5","6","6","7","2","6","5","5","5","6","5","6","3","5","6","5","6","7","6","1","3","3","5","3","6","7","7","7","7","3","5","3","2","2","5","3","7","6","7","765496939306553346","刘","171","Male","[""好我"",""好他"",""坏他"",""坏我""]","[""强我"",""强他"",""弱他"",""弱我""]","","","","","","","","","","","","","","","","","","","","","","","","","","","","","","feedback_test","","","","","","","",""
"546","","j","psychophysics","100","349253","0.0-8.0-1.0-1.0-0.0-0.45","5","5","4","4","3","5","3","5","2","2","5","1","1","1","2","0","1","2","1","5","4","5","4","4","4","4","4","4","4","4","5","5","5","3","7","5","5","5","6","5","6","6","7","2","6","5","5","5","6","5","6","3","5","6","5","6","7","6","1","3","3","5","3","6","7","7","7","7","3","5","3","2","2","5","3","7","6","7","765496939306553346","刘","171","Male","[""好我"",""好他"",""坏他"",""坏我""]","[""强我"",""强他"",""弱他"",""弱我""]","","","","","","","","match","","","","","","","","","","key","j","16.66473913043497","768","428","j","true","match","img/square.png","强我","强我","prac_ALT2_ability","practice_ability","","","","","","","",""
"null","<span style='color:GreenYellow; font-size: 70px;'>正确! </span>","null","html-keyboard-response","101","349754","0.0-8.0-1.0-1.0-0.0-1.45","5","5","4","4","3","5","3","5","2","2","5","1","1","1","2","0","1","2","1","5","4","5","4","4","4","4","4","4","4","4","5","5","5","3","7","5","5","5","6","5","6","6","7","2","6","5","5","5","6","5","6","3","5","6","5","6","7","6","1","3","3","5","3","6","7","7","7","7","3","5","3","2","2","5","3","7","6","7","765496939306553346","刘","171","Male","[""好我"",""好他"",""坏他"",""坏我""]","[""强我"",""强他"",""弱他"",""弱我""]","","","","","","","","","","","","","","","","","","","","","","","","","","","","","","feedback_test","","","","","","","",""
"914","","f","psychophysics","102","351669","0.0-8.0-1.0-1.0-0.0-0.46","5","5","4","4","3","5","3","5","2","2","5","1","1","1","2","0","1","2","1","5","4","5","4","4","4","4","4","4","4","4","5","5","5","3","7","5","5","5","6","5","6","6","7","2","6","5","5","5","6","5","6","3","5","6","5","6","7","6","1","3","3","5","3","6","7","7","7","7","3","5","3","2","2","5","3","7","6","7","765496939306553346","刘","171","Male","[""好我"",""好他"",""坏他"",""坏我""]","[""强我"",""强他"",""弱他"",""弱我""]","","","","","","","","nonmatch","","","","","","","","","","key","f","16.661692982455797","768","428","f","true","nonmatch","img/square.png","强他","强我","prac_ALT2_ability","practice_ability","","","","","","","",""
"null","<span style='color:GreenYellow; font-size: 70px;'>正确! </span>","null","html-keyboard-response","103","352170","0.0-8.0-1.0-1.0-0.0-1.46","5","5","4","4","3","5","3","5","2","2","5","1","1","1","2","0","1","2","1","5","4","5","4","4","4","4","4","4","4","4","5","5","5","3","7","5","5","5","6","5","6","6","7","2","6","5","5","5","6","5","6","3","5","6","5","6","7","6","1","3","3","5","3","6","7","7","7","7","3","5","3","2","2","5","3","7","6","7","765496939306553346","刘","171","Male","[""好我"",""好他"",""坏他"",""坏我""]","[""强我"",""强他"",""弱他"",""弱我""]","","","","","","","","","","","","","","","","","","","","","","","","","","","","","","feedback_test","","","","","","","",""
"692","","j","psychophysics","104","353864","0.0-8.0-1.0-1.0-0.0-0.47","5","5","4","4","3","5","3","5","2","2","5","1","1","1","2","0","1","2","1","5","4","5","4","4","4","4","4","4","4","4","5","5","5","3","7","5","5","5","6","5","6","6","7","2","6","5","5","5","6","5","6","3","5","6","5","6","7","6","1","3","3","5","3","6","7","7","7","7","3","5","3","2","2","5","3","7","6","7","765496939306553346","刘","171","Male","[""好我"",""好他"",""坏他"",""坏我""]","[""强我"",""强他"",""弱他"",""弱我""]","","","","","","","","match","","","","","","","","","","key","j","16.66032673267297","768","428","j","true","match","img/triangle.png","强他","强他","prac_ALT2_ability","practice_ability","","","","","","","",""
"null","<span style='color:GreenYellow; font-size: 70px;'>正确! </span>","null","html-keyboard-response","105","354366","0.0-8.0-1.0-1.0-0.0-1.47","5","5","4","4","3","5","3","5","2","2","5","1","1","1","2","0","1","2","1","5","4","5","4","4","4","4","4","4","4","4","5","5","5","3","7","5","5","5","6","5","6","6","7","2","6","5","5","5","6","5","6","3","5","6","5","6","7","6","1","3","3","5","3","6","7","7","7","7","3","5","3","2","2","5","3","7","6","7","765496939306553346","刘","171","Male","[""好我"",""好他"",""坏他"",""坏我""]","[""强我"",""强他"",""弱他"",""弱我""]","","","","","","","","","","","","","","","","","","","","","","","","","","","","","","feedback_test","","","","","","","",""
"12728","<style>.context{color:white; font-size: 35px; line-height:40px}</style>                          <div><p class='context'>您正确回答了85% 的试次。</p><p class='context'>您的平均反应时为874毫秒。</p><p class='context'>恭喜您完成练习。按空格键进入正式实验。</p><p class='footer' style='color:white;font-size: 35px; line-height:40px;'>请在进入正式实验实验之前将您的<span style='color: lightgreen;'>食指</span>放在电脑键盘的相应键位上进行按键。</p>"," ","html-keyboard-response","106","367096","0.0-8.0-1.0-2.0","5","5","4","4","3","5","3","5","2","2","5","1","1","1","2","0","1","2","1","5","4","5","4","4","4","4","4","4","4","4","5","5","5","3","7","5","5","5","6","5","6","6","7","2","6","5","5","5","6","5","6","3","5","6","5","6","7","6","1","3","3","5","3","6","7","7","7","7","3","5","3","2","2","5","3","7","6","7","765496939306553346","刘","171","Male","[""好我"",""好他"",""坏他"",""坏我""]","[""强我"",""强他"",""弱他"",""弱我""]","","","","","","","","","","","","","","","","","","","","","","","","","","","","","","","","","","","","","",""
"5088","
  <p style='color: white; font-size: 22px'>请您将手指放在按键上，准备进入正式的匹配任务。</p>
  <p> <div style = ""color: green""><按空格键进入下一阶段的匹配任务></div></p>
  "," ","html-keyboard-response","107","372188","0.0-8.0-1.0-3.0","5","5","4","4","3","5","3","5","2","2","5","1","1","1","2","0","1","2","1","5","4","5","4","4","4","4","4","4","4","4","5","5","5","3","7","5","5","5","6","5","6","6","7","2","6","5","5","5","6","5","6","3","5","6","5","6","7","6","1","3","3","5","3","6","7","7","7","7","3","5","3","2","2","5","3","7","6","7","765496939306553346","刘","171","Male","[""好我"",""好他"",""坏他"",""坏我""]","[""强我"",""强他"",""弱他"",""弱我""]","","","","","","","","","","","","","","","","","","","","","","","","","","","","","","","","","","","","","",""
"516","","j","psychophysics","108","373707","0.0-8.0-1.0-4.0-0.0-0.0","5","5","4","4","3","5","3","5","2","2","5","1","1","1","2","0","1","2","1","5","4","5","4","4","4","4","4","4","4","4","5","5","5","3","7","5","5","5","6","5","6","6","7","2","6","5","5","5","6","5","6","3","5","6","5","6","7","6","1","3","3","5","3","6","7","7","7","7","3","5","3","2","2","5","3","7","6","7","765496939306553346","刘","171","Male","[""好我"",""好他"",""坏他"",""坏我""]","[""强我"",""强他"",""弱他"",""弱我""]","","","","","","","","match","","","","","","","","","","key","j","16.666666666666668","768","428","j","true","match","img/square.png","强我","强我","ALT2","ability","","","","","","","",""
"null","<span style='color:GreenYellow; font-size: 70px;'>正确! </span>","null","html-keyboard-response","109","374208","0.0-8.0-1.0-4.0-0.0-1.0","5","5","4","4","3","5","3","5","2","2","5","1","1","1","2","0","1","2","1","5","4","5","4","4","4","4","4","4","4","4","5","5","5","3","7","5","5","5","6","5","6","6","7","2","6","5","5","5","6","5","6","3","5","6","5","6","7","6","1","3","3","5","3","6","7","7","7","7","3","5","3","2","2","5","3","7","6","7","765496939306553346","刘","171","Male","[""好我"",""好他"",""坏他"",""坏我""]","[""强我"",""强他"",""弱他"",""弱我""]","","","","","","","","","","","","","","","","","","","","","","","","","","","","","","feedback_test","","","","","","","",""
"1001","","f","psychophysics","110","376210","0.0-8.0-1.0-4.0-0.0-0.1","5","5","4","4","3","5","3","5","2","2","5","1","1","1","2","0","1","2","1","5","4","5","4","4","4","4","4","4","4","4","5","5","5","3","7","5","5","5","6","5","6","6","7","2","6","5","5","5","6","5","6","3","5","6","5","6","7","6","1","3","3","5","3","6","7","7","7","7","3","5","3","2","2","5","3","7","6","7","765496939306553346","刘","171","Male","[""好我"",""好他"",""坏他"",""坏我""]","[""强我"",""强他"",""弱他"",""弱我""]","","","","","","","","nonmatch","","","","","","","","","","key","f","16.66266386554588","768","428","j","false","match","img/ellipse.png","弱他","弱他","ALT2","ability","","","","","","","",""
"null","<span style='color:red; font-size: 70px;'>错误! </span>","null","html-keyboard-response","111","376713","0.0-8.0-1.0-4.0-0.0-1.1","5","5","4","4","3","5","3","5","2","2","5","1","1","1","2","0","1","2","1","5","4","5","4","4","4","4","4","4","4","4","5","5","5","3","7","5","5","5","6","5","6","6","7","2","6","5","5","5","6","5","6","3","5","6","5","6","7","6","1","3","3","5","3","6","7","7","7","7","3","5","3","2","2","5","3","7","6","7","765496939306553346","刘","171","Male","[""好我"",""好他"",""坏他"",""坏我""]","[""强我"",""强他"",""弱他"",""弱我""]","","","","","","","","","","","","","","","","","","","","","","","","","","","","","","feedback_test","","","","","","","",""
"819","","f","psychophysics","112","378534","0.0-8.0-1.0-4.0-0.0-0.2","5","5","4","4","3","5","3","5","2","2","5","1","1","1","2","0","1","2","1","5","4","5","4","4","4","4","4","4","4","4","5","5","5","3","7","5","5","5","6","5","6","6","7","2","6","5","5","5","6","5","6","3","5","6","5","6","7","6","1","3","3","5","3","6","7","7","7","7","3","5","3","2","2","5","3","7","6","7","765496939306553346","刘","171","Male","[""好我"",""好他"",""坏他"",""坏我""]","[""强我"",""强他"",""弱他"",""弱我""]","","","","","","","","nonmatch","","","","","","","","","","key","f","16.660453703703414","768","428","f","true","nonmatch","img/hexagon.png","强他","弱我","ALT2","ability","","","","","","","",""
"null","<span style='color:GreenYellow; font-size: 70px;'>正确! </span>","null","html-keyboard-response","113","379035","0.0-8.0-1.0-4.0-0.0-1.2","5","5","4","4","3","5","3","5","2","2","5","1","1","1","2","0","1","2","1","5","4","5","4","4","4","4","4","4","4","4","5","5","5","3","7","5","5","5","6","5","6","6","7","2","6","5","5","5","6","5","6","3","5","6","5","6","7","6","1","3","3","5","3","6","7","7","7","7","3","5","3","2","2","5","3","7","6","7","765496939306553346","刘","171","Male","[""好我"",""好他"",""坏他"",""坏我""]","[""强我"",""强他"",""弱他"",""弱我""]","","","","","","","","","","","","","","","","","","","","","","","","","","","","","","feedback_test","","","","","","","",""
"792","","j","psychophysics","114","380830","0.0-8.0-1.0-4.0-0.0-0.3","5","5","4","4","3","5","3","5","2","2","5","1","1","1","2","0","1","2","1","5","4","5","4","4","4","4","4","4","4","4","5","5","5","3","7","5","5","5","6","5","6","6","7","2","6","5","5","5","6","5","6","3","5","6","5","6","7","6","1","3","3","5","3","6","7","7","7","7","3","5","3","2","2","5","3","7","6","7","765496939306553346","刘","171","Male","[""好我"",""好他"",""坏他"",""坏我""]","[""强我"",""强他"",""弱他"",""弱我""]","","","","","","","","match","","","","","","","","","","key","j","16.659896226415306","768","428","j","true","match","img/ellipse.png","弱他","弱他","ALT2","ability","","","","","","","",""
"null","<span style='color:GreenYellow; font-size: 70px;'>正确! </span>","null","html-keyboard-response","115","381333","0.0-8.0-1.0-4.0-0.0-1.3","5","5","4","4","3","5","3","5","2","2","5","1","1","1","2","0","1","2","1","5","4","5","4","4","4","4","4","4","4","4","5","5","5","3","7","5","5","5","6","5","6","6","7","2","6","5","5","5","6","5","6","3","5","6","5","6","7","6","1","3","3","5","3","6","7","7","7","7","3","5","3","2","2","5","3","7","6","7","765496939306553346","刘","171","Male","[""好我"",""好他"",""坏他"",""坏我""]","[""强我"",""强他"",""弱他"",""弱我""]","","","","","","","","","","","","","","","","","","","","","","","","","","","","","","feedback_test","","","","","","","",""
"520","","j","psychophysics","116","382858","0.0-8.0-1.0-4.0-0.0-0.4","5","5","4","4","3","5","3","5","2","2","5","1","1","1","2","0","1","2","1","5","4","5","4","4","4","4","4","4","4","4","5","5","5","3","7","5","5","5","6","5","6","6","7","2","6","5","5","5","6","5","6","3","5","6","5","6","7","6","1","3","3","5","3","6","7","7","7","7","3","5","3","2","2","5","3","7","6","7","765496939306553346","刘","171","Male","[""好我"",""好他"",""坏他"",""坏我""]","[""强我"",""强他"",""弱他"",""弱我""]","","","","","","","","match","","","","","","","","","","key","j","16.657711111111308","768","428","j","true","match","img/square.png","强我","强我","ALT2","ability","","","","","","","",""
"null","<span style='color:GreenYellow; font-size: 70px;'>正确! </span>","null","html-keyboard-response","117","383360","0.0-8.0-1.0-4.0-0.0-1.4","5","5","4","4","3","5","3","5","2","2","5","1","1","1","2","0","1","2","1","5","4","5","4","4","4","4","4","4","4","4","5","5","5","3","7","5","5","5","6","5","6","6","7","2","6","5","5","5","6","5","6","3","5","6","5","6","7","6","1","3","3","5","3","6","7","7","7","7","3","5","3","2","2","5","3","7","6","7","765496939306553346","刘","171","Male","[""好我"",""好他"",""坏他"",""坏我""]","[""强我"",""强他"",""弱他"",""弱我""]","","","","","","","","","","","","","","","","","","","","","","","","","","","","","","feedback_test","","","","","","","",""
"745","","f","psychophysics","118","385107","0.0-8.0-1.0-4.0-0.0-0.5","5","5","4","4","3","5","3","5","2","2","5","1","1","1","2","0","1","2","1","5","4","5","4","4","4","4","4","4","4","4","5","5","5","3","7","5","5","5","6","5","6","6","7","2","6","5","5","5","6","5","6","3","5","6","5","6","7","6","1","3","3","5","3","6","7","7","7","7","3","5","3","2","2","5","3","7","6","7","765496939306553346","刘","171","Male","[""好我"",""好他"",""坏他"",""坏我""]","[""强我"",""强他"",""弱他"",""弱我""]","","","","","","","","nonmatch","","","","","","","","","","key","f","16.664019230768854","768","428","f","true","nonmatch","img/square.png","弱他","强我","ALT2","ability","","","","","","","",""
"null","<span style='color:GreenYellow; font-size: 70px;'>正确! </span>","null","html-keyboard-response","119","385608","0.0-8.0-1.0-4.0-0.0-1.5","5","5","4","4","3","5","3","5","2","2","5","1","1","1","2","0","1","2","1","5","4","5","4","4","4","4","4","4","4","4","5","5","5","3","7","5","5","5","6","5","6","6","7","2","6","5","5","5","6","5","6","3","5","6","5","6","7","6","1","3","3","5","3","6","7","7","7","7","3","5","3","2","2","5","3","7","6","7","765496939306553346","刘","171","Male","[""好我"",""好他"",""坏他"",""坏我""]","[""强我"",""强他"",""弱他"",""弱我""]","","","","","","","","","","","","","","","","","","","","","","","","","","","","","","feedback_test","","","","","","","",""
"770","","j","psychophysics","120","387379","0.0-8.0-1.0-4.0-0.0-0.6","5","5","4","4","3","5","3","5","2","2","5","1","1","1","2","0","1","2","1","5","4","5","4","4","4","4","4","4","4","4","5","5","5","3","7","5","5","5","6","5","6","6","7","2","6","5","5","5","6","5","6","3","5","6","5","6","7","6","1","3","3","5","3","6","7","7","7","7","3","5","3","2","2","5","3","7","6","7","765496939306553346","刘","171","Male","[""好我"",""好他"",""坏他"",""坏我""]","[""强我"",""强他"",""弱他"",""弱我""]","","","","","","","","match","","","","","","","","","","key","j","16.660047619047553","768","428","j","true","match","img/triangle.png","强他","强他","ALT2","ability","","","","","","","",""
"null","<span style='color:GreenYellow; font-size: 70px;'>正确! </span>","null","html-keyboard-response","121","387879","0.0-8.0-1.0-4.0-0.0-1.6","5","5","4","4","3","5","3","5","2","2","5","1","1","1","2","0","1","2","1","5","4","5","4","4","4","4","4","4","4","4","5","5","5","3","7","5","5","5","6","5","6","6","7","2","6","5","5","5","6","5","6","3","5","6","5","6","7","6","1","3","3","5","3","6","7","7","7","7","3","5","3","2","2","5","3","7","6","7","765496939306553346","刘","171","Male","[""好我"",""好他"",""坏他"",""坏我""]","[""强我"",""强他"",""弱他"",""弱我""]","","","","","","","","","","","","","","","","","","","","","","","","","","","","","","feedback_test","","","","","","","",""
"788","","f","psychophysics","122","389669","0.0-8.0-1.0-4.0-0.0-0.7","5","5","4","4","3","5","3","5","2","2","5","1","1","1","2","0","1","2","1","5","4","5","4","4","4","4","4","4","4","4","5","5","5","3","7","5","5","5","6","5","6","6","7","2","6","5","5","5","6","5","6","3","5","6","5","6","7","6","1","3","3","5","3","6","7","7","7","7","3","5","3","2","2","5","3","7","6","7","765496939306553346","刘","171","Male","[""好我"",""好他"",""坏他"",""坏我""]","[""强我"",""强他"",""弱他"",""弱我""]","","","","","","","","nonmatch","","","","","","","","","","key","f","16.664065420560682","768","428","f","true","nonmatch","img/ellipse.png","强我","弱他","ALT2","ability","","","","","","","",""
"null","<span style='color:GreenYellow; font-size: 70px;'>正确! </span>","null","html-keyboard-response","123","390170","0.0-8.0-1.0-4.0-0.0-1.7","5","5","4","4","3","5","3","5","2","2","5","1","1","1","2","0","1","2","1","5","4","5","4","4","4","4","4","4","4","4","5","5","5","3","7","5","5","5","6","5","6","6","7","2","6","5","5","5","6","5","6","3","5","6","5","6","7","6","1","3","3","5","3","6","7","7","7","7","3","5","3","2","2","5","3","7","6","7","765496939306553346","刘","171","Male","[""好我"",""好他"",""坏他"",""坏我""]","[""强我"",""强他"",""弱他"",""弱我""]","","","","","","","","","","","","","","","","","","","","","","","","","","","","","","feedback_test","","","","","","","",""
"805","","f","psychophysics","124","391977","0.0-8.0-1.0-4.0-0.0-0.8","5","5","4","4","3","5","3","5","2","2","5","1","1","1","2","0","1","2","1","5","4","5","4","4","4","4","4","4","4","4","5","5","5","3","7","5","5","5","6","5","6","6","7","2","6","5","5","5","6","5","6","3","5","6","5","6","7","6","1","3","3","5","3","6","7","7","7","7","3","5","3","2","2","5","3","7","6","7","765496939306553346","刘","171","Male","[""好我"",""好他"",""坏他"",""坏我""]","[""强我"",""强他"",""弱他"",""弱我""]","","","","","","","","nonmatch","","","","","","","","","","key","f","16.660168224298854","768","428","f","true","nonmatch","img/triangle.png","弱他","强他","ALT2","ability","","","","","","","",""
"null","<span style='color:GreenYellow; font-size: 70px;'>正确! </span>","null","html-keyboard-response","125","392478","0.0-8.0-1.0-4.0-0.0-1.8","5","5","4","4","3","5","3","5","2","2","5","1","1","1","2","0","1","2","1","5","4","5","4","4","4","4","4","4","4","4","5","5","5","3","7","5","5","5","6","5","6","6","7","2","6","5","5","5","6","5","6","3","5","6","5","6","7","6","1","3","3","5","3","6","7","7","7","7","3","5","3","2","2","5","3","7","6","7","765496939306553346","刘","171","Male","[""好我"",""好他"",""坏他"",""坏我""]","[""强我"",""强他"",""弱他"",""弱我""]","","","","","","","","","","","","","","","","","","","","","","","","","","","","","","feedback_test","","","","","","","",""
"646","","j","psychophysics","126","394125","0.0-8.0-1.0-4.0-0.0-0.9","5","5","4","4","3","5","3","5","2","2","5","1","1","1","2","0","1","2","1","5","4","5","4","4","4","4","4","4","4","4","5","5","5","3","7","5","5","5","6","5","6","6","7","2","6","5","5","5","6","5","6","3","5","6","5","6","7","6","1","3","3","5","3","6","7","7","7","7","3","5","3","2","2","5","3","7","6","7","765496939306553346","刘","171","Male","[""好我"",""好他"",""坏他"",""坏我""]","[""强我"",""强他"",""弱他"",""弱我""]","","","","","","","","match","","","","","","","","","","key","j","16.66638775510186","768","428","f","false","nonmatch","img/square.png","强他","强我","ALT2","ability","","","","","","","",""
"null","<span style='color:red; font-size: 70px;'>错误! </span>","null","html-keyboard-response","127","394626","0.0-8.0-1.0-4.0-0.0-1.9","5","5","4","4","3","5","3","5","2","2","5","1","1","1","2","0","1","2","1","5","4","5","4","4","4","4","4","4","4","4","5","5","5","3","7","5","5","5","6","5","6","6","7","2","6","5","5","5","6","5","6","3","5","6","5","6","7","6","1","3","3","5","3","6","7","7","7","7","3","5","3","2","2","5","3","7","6","7","765496939306553346","刘","171","Male","[""好我"",""好他"",""坏他"",""坏我""]","[""强我"",""强他"",""弱他"",""弱我""]","","","","","","","","","","","","","","","","","","","","","","","","","","","","","","feedback_test","","","","","","","",""
"855","","f","psychophysics","128","396484","0.0-8.0-1.0-4.0-0.0-0.10","5","5","4","4","3","5","3","5","2","2","5","1","1","1","2","0","1","2","1","5","4","5","4","4","4","4","4","4","4","4","5","5","5","3","7","5","5","5","6","5","6","6","7","2","6","5","5","5","6","5","6","3","5","6","5","6","7","6","1","3","3","5","3","6","7","7","7","7","3","5","3","2","2","5","3","7","6","7","765496939306553346","刘","171","Male","[""好我"",""好他"",""坏他"",""坏我""]","[""强我"",""强他"",""弱他"",""弱我""]","","","","","","","","nonmatch","","","","","","","","","","key","f","16.66128828828821","768","428","f","true","nonmatch","img/hexagon.png","强我","弱我","ALT2","ability","","","","","","","",""
"null","<span style='color:GreenYellow; font-size: 70px;'>正确! </span>","null","html-keyboard-response","129","396984","0.0-8.0-1.0-4.0-0.0-1.10","5","5","4","4","3","5","3","5","2","2","5","1","1","1","2","0","1","2","1","5","4","5","4","4","4","4","4","4","4","4","5","5","5","3","7","5","5","5","6","5","6","6","7","2","6","5","5","5","6","5","6","3","5","6","5","6","7","6","1","3","3","5","3","6","7","7","7","7","3","5","3","2","2","5","3","7","6","7","765496939306553346","刘","171","Male","[""好我"",""好他"",""坏他"",""坏我""]","[""强我"",""强他"",""弱他"",""弱我""]","","","","","","","","","","","","","","","","","","","","","","","","","","","","","","feedback_test","","","","","","","",""
"759","","f","psychophysics","130","398745","0.0-8.0-1.0-4.0-0.0-0.11","5","5","4","4","3","5","3","5","2","2","5","1","1","1","2","0","1","2","1","5","4","5","4","4","4","4","4","4","4","4","5","5","5","3","7","5","5","5","6","5","6","6","7","2","6","5","5","5","6","5","6","3","5","6","5","6","7","6","1","3","3","5","3","6","7","7","7","7","3","5","3","2","2","5","3","7","6","7","765496939306553346","刘","171","Male","[""好我"",""好他"",""坏他"",""坏我""]","[""强我"",""强他"",""弱他"",""弱我""]","","","","","","","","nonmatch","","","","","","","","","","key","f","16.663990384615317","768","428","j","false","match","img/hexagon.png","弱我","弱我","ALT2","ability","","","","","","","",""
"null","<span style='color:red; font-size: 70px;'>错误! </span>","null","html-keyboard-response","131","399247","0.0-8.0-1.0-4.0-0.0-1.11","5","5","4","4","3","5","3","5","2","2","5","1","1","1","2","0","1","2","1","5","4","5","4","4","4","4","4","4","4","4","5","5","5","3","7","5","5","5","6","5","6","6","7","2","6","5","5","5","6","5","6","3","5","6","5","6","7","6","1","3","3","5","3","6","7","7","7","7","3","5","3","2","2","5","3","7","6","7","765496939306553346","刘","171","Male","[""好我"",""好他"",""坏他"",""坏我""]","[""强我"",""强他"",""弱他"",""弱我""]","","","","","","","","","","","","","","","","","","","","","","","","","","","","","","feedback_test","","","","","","","",""
"666","","j","psychophysics","132","400915","0.0-8.0-1.0-4.0-0.0-0.12","5","5","4","4","3","5","3","5","2","2","5","1","1","1","2","0","1","2","1","5","4","5","4","4","4","4","4","4","4","4","5","5","5","3","7","5","5","5","6","5","6","6","7","2","6","5","5","5","6","5","6","3","5","6","5","6","7","6","1","3","3","5","3","6","7","7","7","7","3","5","3","2","2","5","3","7","6","7","765496939306553346","刘","171","Male","[""好我"",""好他"",""坏他"",""坏我""]","[""强我"",""强他"",""弱他"",""弱我""]","","","","","","","","match","","","","","","","","","","key","j","16.660515151515185","768","428","j","true","match","img/square.png","强我","强我","ALT2","ability","","","","","","","",""
"null","<span style='color:GreenYellow; font-size: 70px;'>正确! </span>","null","html-keyboard-response","133","401416","0.0-8.0-1.0-4.0-0.0-1.12","5","5","4","4","3","5","3","5","2","2","5","1","1","1","2","0","1","2","1","5","4","5","4","4","4","4","4","4","4","4","5","5","5","3","7","5","5","5","6","5","6","6","7","2","6","5","5","5","6","5","6","3","5","6","5","6","7","6","1","3","3","5","3","6","7","7","7","7","3","5","3","2","2","5","3","7","6","7","765496939306553346","刘","171","Male","[""好我"",""好他"",""坏他"",""坏我""]","[""强我"",""强他"",""弱他"",""弱我""]","","","","","","","","","","","","","","","","","","","","","","","","","","","","","","feedback_test","","","","","","","",""
"718","","f","psychophysics","134","403135","0.0-8.0-1.0-4.0-0.0-0.13","5","5","4","4","3","5","3","5","2","2","5","1","1","1","2","0","1","2","1","5","4","5","4","4","4","4","4","4","4","4","5","5","5","3","7","5","5","5","6","5","6","6","7","2","6","5","5","5","6","5","6","3","5","6","5","6","7","6","1","3","3","5","3","6","7","7","7","7","3","5","3","2","2","5","3","7","6","7","765496939306553346","刘","171","Male","[""好我"",""好他"",""坏他"",""坏我""]","[""强我"",""强他"",""弱他"",""弱我""]","","","","","","","","nonmatch","","","","","","","","","","key","f","16.66076470588222","768","428","f","true","nonmatch","img/triangle.png","弱我","强他","ALT2","ability","","","","","","","",""
"null","<span style='color:GreenYellow; font-size: 70px;'>正确! </span>","null","html-keyboard-response","135","403636","0.0-8.0-1.0-4.0-0.0-1.13","5","5","4","4","3","5","3","5","2","2","5","1","1","1","2","0","1","2","1","5","4","5","4","4","4","4","4","4","4","4","5","5","5","3","7","5","5","5","6","5","6","6","7","2","6","5","5","5","6","5","6","3","5","6","5","6","7","6","1","3","3","5","3","6","7","7","7","7","3","5","3","2","2","5","3","7","6","7","765496939306553346","刘","171","Male","[""好我"",""好他"",""坏他"",""坏我""]","[""强我"",""强他"",""弱他"",""弱我""]","","","","","","","","","","","","","","","","","","","","","","","","","","","","","","feedback_test","","","","","","","",""
"661","","j","psychophysics","136","405298","0.0-8.0-1.0-4.0-0.0-0.14","5","5","4","4","3","5","3","5","2","2","5","1","1","1","2","0","1","2","1","5","4","5","4","4","4","4","4","4","4","4","5","5","5","3","7","5","5","5","6","5","6","6","7","2","6","5","5","5","6","5","6","3","5","6","5","6","7","6","1","3","3","5","3","6","7","7","7","7","3","5","3","2","2","5","3","7","6","7","765496939306553346","刘","171","Male","[""好我"",""好他"",""坏他"",""坏我""]","[""强我"",""强他"",""弱他"",""弱我""]","","","","","","","","match","","","","","","","","","","key","j","16.663747474747577","768","428","j","true","match","img/hexagon.png","弱我","弱我","ALT2","ability","","","","","","","",""
"null","<span style='color:GreenYellow; font-size: 70px;'>正确! </span>","null","html-keyboard-response","137","405799","0.0-8.0-1.0-4.0-0.0-1.14","5","5","4","4","3","5","3","5","2","2","5","1","1","1","2","0","1","2","1","5","4","5","4","4","4","4","4","4","4","4","5","5","5","3","7","5","5","5","6","5","6","6","7","2","6","5","5","5","6","5","6","3","5","6","5","6","7","6","1","3","3","5","3","6","7","7","7","7","3","5","3","2","2","5","3","7","6","7","765496939306553346","刘","171","Male","[""好我"",""好他"",""坏他"",""坏我""]","[""强我"",""强他"",""弱他"",""弱我""]","","","","","","","","","","","","","","","","","","","","","","","","","","","","","","feedback_test","","","","","","","",""
"716","","j","psychophysics","138","407517","0.0-8.0-1.0-4.0-0.0-0.15","5","5","4","4","3","5","3","5","2","2","5","1","1","1","2","0","1","2","1","5","4","5","4","4","4","4","4","4","4","4","5","5","5","3","7","5","5","5","6","5","6","6","7","2","6","5","5","5","6","5","6","3","5","6","5","6","7","6","1","3","3","5","3","6","7","7","7","7","3","5","3","2","2","5","3","7","6","7","765496939306553346","刘","171","Male","[""好我"",""好他"",""坏他"",""坏我""]","[""强我"",""强他"",""弱他"",""弱我""]","","","","","","","","match","","","","","","","","","","key","j","16.664117647059303","768","428","j","true","match","img/triangle.png","强他","强他","ALT2","ability","","","","","","","",""
"null","<span style='color:GreenYellow; font-size: 70px;'>正确! </span>","null","html-keyboard-response","139","408018","0.0-8.0-1.0-4.0-0.0-1.15","5","5","4","4","3","5","3","5","2","2","5","1","1","1","2","0","1","2","1","5","4","5","4","4","4","4","4","4","4","4","5","5","5","3","7","5","5","5","6","5","6","6","7","2","6","5","5","5","6","5","6","3","5","6","5","6","7","6","1","3","3","5","3","6","7","7","7","7","3","5","3","2","2","5","3","7","6","7","765496939306553346","刘","171","Male","[""好我"",""好他"",""坏他"",""坏我""]","[""强我"",""强他"",""弱他"",""弱我""]","","","","","","","","","","","","","","","","","","","","","","","","","","","","","","feedback_test","","","","","","","",""
"765","","f","psychophysics","140","409789","0.0-8.0-1.0-4.0-0.0-0.16","5","5","4","4","3","5","3","5","2","2","5","1","1","1","2","0","1","2","1","5","4","5","4","4","4","4","4","4","4","4","5","5","5","3","7","5","5","5","6","5","6","6","7","2","6","5","5","5","6","5","6","3","5","6","5","6","7","6","1","3","3","5","3","6","7","7","7","7","3","5","3","2","2","5","3","7","6","7","765496939306553346","刘","171","Male","[""好我"",""好他"",""坏他"",""坏我""]","[""强我"",""强他"",""弱他"",""弱我""]","","","","","","","","nonmatch","","","","","","","","","","key","f","16.663485714285414","768","428","f","true","nonmatch","img/triangle.png","强我","强他","ALT2","ability","","","","","","","",""
