"rt","stimulus","response","trial_type","trial_index","time_elapsed","internal_node_id","swb_1","swb_2","swb_3","swb_4","swb_5","LOT_1","LOT_2","LOT_3","LOT_4","LOT_5","LOT_6","IPC_1","IPC_2","IPC_3","IPC_4","IPC_5","IPC_6","IPC_7","IPC_8","MorIden_1","MorIden_2","MorIden_3","MorIden_4","MorIden_5","MorIden_6","MorIden_7","MorIden_8","MorIden_9","MorIden_10","moralSeImag_1","moralSeImag_2","moralSeImag_3","moralSeImag_4","moralSeImag_5","moralSeImag_6","moralSeImag_7","moralSeImag_8","moralSeImag_9","sde_1","sde_2","sde_3","sde_4","sde_5","sde_6","sde_7","sde_8","sde_9","sde_10","sde_11","sde_12","sde_13","sde_14","sde_15","sde_16","sde_17","sde_18","sde_19","sde_20","IM_1","IM_2","IM_3","IM_4","IM_5","IM_6","IM_7","IM_8","IM_9","IM_10","IM_11","IM_12","IM_13","IM_14","IM_15","IM_16","IM_17","IM_18","IM_19","IM_20","subj_idx","friend_name","ParticipantID","Sex","Word","Word2","value","success","timeout","failed_images","failed_audio","failed_video","user_agent","responses","item_order","radio_event_ids","radio_event_times","key_event_times","mouse_event_times","straightlining","zigzagging","honeypot","view_history","response_type","key_press","avg_frame_time","center_x","center_y","correct_response","correct","identity","Image","word","condition","task_id","screen_id","time_stamp","person","valence","domain","math","status","duration","question_order"
"5035","
   <p><div style='color:white; font-size: 25px'>您好，欢迎参加本次实验。</div></p>
   <p><div style='color:white; font-size: 25px'>为充分保障您的权利，请确保您已经知晓并同意《参与实验同意书》以及《数据公开知情同意书》。</div></p>
   <p><div style='color:white; font-size: 25px'>如果您未见过上述内容，请咨询实验员。</div></p>
   <p style='color:white; font-size: 25px'>如果您选择继续实验，则表示您已经清楚两份知情同意书的内容并同意。</p>
   <p><div style = ""color: red;font-size:30px;"">请确保您记得day0的实验编号，您将在本次实验输入该编号，若您忘记，请咨询实验员后作答。</div></p>
   <p> <div style = ""color: green""><按空格键至下页></div> </p>
   "," ","html-keyboard-response","0","5037","0.0-0.0","3","3","3","3","3","4","4","4","4","4","4","1","1","0","1","-1","0","0","0","4","4","2","4","4","4","4","4","4","4","5","5","5","5","5","4","4","5","5","5","3","3","5","5","3","3","5","5","3","3","3","5","3","4","3","3","3","3","4","3","3","5","3","3","5","3","5","5","5","5","3","3","5","5","3","3","3","3","3","708989653960622080","陈","192","Female","[""好我"",""坏我"",""好她"",""坏她""]","[""强我"",""弱我"",""强她"",""弱她""]","","","","","","","","","","","","","","","","","","","","","","","","","","","","","","","","","","","","","",""
"","","","call-function","1","5038","0.0-1.0-0.0","3","3","3","3","3","4","4","4","4","4","4","1","1","0","1","-1","0","0","0","4","4","2","4","4","4","4","4","4","4","5","5","5","5","5","4","4","5","5","5","3","3","5","5","3","3","5","5","3","3","3","5","3","4","3","3","3","3","4","3","3","5","3","3","5","3","5","5","5","5","3","3","5","5","3","3","3","3","3","708989653960622080","陈","192","Female","[""好我"",""坏我"",""好她"",""坏她""]","[""强我"",""弱我"",""强她"",""弱她""]","","","","","","","","","","","","","","","","","","","","","","","","","","","","","","","","","","","","","",""
"71087","","[{""name"":""Sex"",""value"":""1""},{""name"":""friend_name"",""value"":""陈""},{""name"":""ParticipantID"",""value"":""192""}]","survey-html-form","2","76126","0.0-1.0-1.0","3","3","3","3","3","4","4","4","4","4","4","1","1","0","1","-1","0","0","0","4","4","2","4","4","4","4","4","4","4","5","5","5","5","5","4","4","5","5","5","3","3","5","5","3","3","5","5","3","3","3","5","3","4","3","3","3","3","4","3","3","5","3","3","5","3","5","5","5","5","3","3","5","5","3","3","3","3","3","708989653960622080","陈","192","Female","[""好我"",""坏我"",""好她"",""坏她""]","[""强我"",""弱我"",""强她"",""弱她""]","","","","","","","","","","","","","","","","","","","","","","","","","","","","","","","","","","","","","",""
"","","","preload","3","76683","0.0-2.0","3","3","3","3","3","4","4","4","4","4","4","1","1","0","1","-1","0","0","0","4","4","2","4","4","4","4","4","4","4","5","5","5","5","5","4","4","5","5","5","3","3","5","5","3","3","5","5","3","3","3","5","3","4","3","3","3","3","4","3","3","5","3","3","5","3","5","5","5","5","3","3","5","5","3","3","3","3","3","708989653960622080","陈","192","Female","[""好我"",""坏我"",""好她"",""坏她""]","[""强我"",""弱我"",""强她"",""弱她""]","","true","false","[]","[]","[]","","","","","","","","","","","","","","","","","","","","","","","","","","","","","","","",""
"","","","fullscreen","4","79667","0.0-3.0","3","3","3","3","3","4","4","4","4","4","4","1","1","0","1","-1","0","0","0","4","4","2","4","4","4","4","4","4","4","5","5","5","5","5","4","4","5","5","5","3","3","5","5","3","3","5","5","3","3","3","5","3","4","3","3","3","3","4","3","3","5","3","3","5","3","5","5","5","5","3","3","5","5","3","3","3","3","3","708989653960622080","陈","192","Female","[""好我"",""坏我"",""好她"",""坏她""]","[""强我"",""弱我"",""强她"",""弱她""]","","true","","","","","{}","","","","","","","","","","","","","","","","","","","","","","","","","","","","","","",""
"23538.599999964237","","{""Q01"":""3"",""Q02"":""3"",""Q03"":""3"",""Q04"":""3"",""Q05"":""3""}","survey-template","5","103207","0.0-4.0","3","3","3","3","3","4","4","4","4","4","4","1","1","0","1","-1","0","0","0","4","4","2","4","4","4","4","4","4","4","5","5","5","5","5","4","4","5","5","5","3","3","5","5","3","3","5","5","3","3","3","5","3","4","3","3","3","3","4","3","3","5","3","3","5","3","5","5","5","5","3","3","5","5","3","3","3","3","3","708989653960622080","陈","192","Female","[""好我"",""坏我"",""好她"",""坏她""]","[""强我"",""弱我"",""强她"",""弱她""]","","","","","","","","{""Q01"":""3"",""Q02"":""3"",""Q03"":""3"",""Q04"":""3"",""Q05"":""3""}","[0,1,2,3,4]","[""Q01"",""Q02"",""Q01"",""Q02"",""Q01"",""Q02"",""Q03"",""Q04"",""Q05""]","[3322.099999964237,6505.899999976158,10177.800000011921,10873.800000011921,13345.899999976158,15425.899999976158,18850.19999998808,20601.80000001192,21537.69999998808]","[]","[2370.099999964237,3322.099999964237,6505.899999976158,8929.899999976158,9570.199999988079,10177.800000011921,10873.800000011921,13345.899999976158,14873.800000011921,15425.899999976158,18850.19999998808,19337.899999976158,20601.80000001192,21233.80000001192,21537.69999998808,23538]","1","0","0","","","","","","","","","","","","","","","","","","","","","",""
"45077","","{""Q01"":""4"",""Q02"":""4"",""Q03"":""4"",""Q04"":""4"",""Q05"":""4"",""Q06"":""4""}","survey-template","6","148287","0.0-5.0","3","3","3","3","3","4","4","4","4","4","4","1","1","0","1","-1","0","0","0","4","4","2","4","4","4","4","4","4","4","5","5","5","5","5","4","4","5","5","5","3","3","5","5","3","3","5","5","3","3","3","5","3","4","3","3","3","3","4","3","3","5","3","3","5","3","5","5","5","5","3","3","5","5","3","3","3","3","3","708989653960622080","陈","192","Female","[""好我"",""坏我"",""好她"",""坏她""]","[""强我"",""弱我"",""强她"",""弱她""]","","","","","","","","{""Q01"":""4"",""Q02"":""4"",""Q03"":""4"",""Q04"":""4"",""Q05"":""4"",""Q06"":""4""}","[0,1,2,3,4,5]","[""Q01"",""Q02"",""Q03"",""Q04"",""Q05"",""Q06"",""Q03"",""Q02"",""Q03""]","[2628.5,4956.600000023842,6236.600000023842,11332.600000023842,11900.900000035763,15636.600000023842,20708.600000023842,38580.60000002384,43372.5]","[]","[2628.5,4956.600000023842,6236.600000023842,9404.800000011921,11332.600000023842,11900.900000035763,15092.700000047684,15636.600000023842,20708.600000023842,37068.700000047684,37932.60000002384,38580.60000002384,43372.5,45076.700000047684]","0.5","0","0","","","","","","","","","","","","","","","","","","","","","",""
"23358.30000001192","","{""Q01"":""1"",""Q02"":""1"",""Q03"":""0"",""Q04"":""1"",""Q05"":""-1"",""Q06"":""0"",""Q07"":""0"",""Q08"":""0""}","survey-template","7","171647","0.0-6.0","3","3","3","3","3","4","4","4","4","4","4","1","1","0","1","-1","0","0","0","4","4","2","4","4","4","4","4","4","4","5","5","5","5","5","4","4","5","5","5","3","3","5","5","3","3","5","5","3","3","3","5","3","4","3","3","3","3","4","3","3","5","3","3","5","3","5","5","5","5","3","3","5","5","3","3","3","3","3","708989653960622080","陈","192","Female","[""好我"",""坏我"",""好她"",""坏她""]","[""强我"",""弱我"",""强她"",""弱她""]","","","","","","","","{""Q01"":""1"",""Q02"":""1"",""Q03"":""0"",""Q04"":""1"",""Q05"":""-1"",""Q06"":""0"",""Q07"":""0"",""Q08"":""0""}","[0,1,2,3,4,5,6,7]","[""Q01"",""Q02"",""Q03"",""Q04"",""Q05"",""Q06"",""Q07"",""Q08""]","[2717.7000000476837,4621.700000047684,9949.5,12165.700000047684,14557.700000047684,17549.80000001192,21429.600000023842,22629.600000023842]","[]","[2717.7000000476837,4621.700000047684,9949.5,12165.700000047684,14557.700000047684,17549.80000001192,20597.900000035763,21429.600000023842,22149.700000047684,22629.600000023842,23357.600000023842]","0.5","0.42857142857142855","0","","","","","","","","","","","","","","","","","","","","","",""
"29326","","","instructions","8","200974","0.0-7.0","3","3","3","3","3","4","4","4","4","4","4","1","1","0","1","-1","0","0","0","4","4","2","4","4","4","4","4","4","4","5","5","5","5","5","4","4","5","5","5","3","3","5","5","3","3","5","5","3","3","3","5","3","4","3","3","3","3","4","3","3","5","3","3","5","3","5","5","5","5","3","3","5","5","3","3","3","3","3","708989653960622080","陈","192","Female","[""好我"",""坏我"",""好她"",""坏她""]","[""强我"",""弱我"",""强她"",""弱她""]","","","","","","","","","","","","","","","","","[{""page_index"":0,""viewing_time"":29326}]","","","","","","","","","","","","","","","","","","","","",""
"48247","","","instructions","9","249222","0.0-8.0-0.0-0.0","3","3","3","3","3","4","4","4","4","4","4","1","1","0","1","-1","0","0","0","4","4","2","4","4","4","4","4","4","4","5","5","5","5","5","4","4","5","5","5","3","3","5","5","3","3","5","5","3","3","3","5","3","4","3","3","3","3","4","3","3","5","3","3","5","3","5","5","5","5","3","3","5","5","3","3","3","3","3","708989653960622080","陈","192","Female","[""好我"",""坏我"",""好她"",""坏她""]","[""强我"",""弱我"",""强她"",""弱她""]","","","","","","","","","","","","","","","","","[{""page_index"":0,""viewing_time"":9679},{""page_index"":1,""viewing_time"":34096},{""page_index"":2,""viewing_time"":2920},{""page_index"":3,""viewing_time"":1552}]","","","","","","","","","","","","","","","","","","","","",""
"928","","j","psychophysics","10","251152","0.0-8.0-0.0-1.0-0.0-0.0","3","3","3","3","3","4","4","4","4","4","4","1","1","0","1","-1","0","0","0","4","4","2","4","4","4","4","4","4","4","5","5","5","5","5","4","4","5","5","5","3","3","5","5","3","3","5","5","3","3","3","5","3","4","3","3","3","3","4","3","3","5","3","3","5","3","5","5","5","5","3","3","5","5","3","3","3","3","3","708989653960622080","陈","192","Female","[""好我"",""坏我"",""好她"",""坏她""]","[""强我"",""弱我"",""强她"",""弱她""]","","","","","","","","nonmatch","","","","","","","","","","key","j","16.68333043478247","1280","716","j","true","nonmatch","img/ellipse.png","好我","坏她","prac_ALT2_moral","practice_moral","","","","","","","",""
"null","<span style='color:GreenYellow; font-size: 70px;'>正确! </span>","null","html-keyboard-response","11","251663","0.0-8.0-0.0-1.0-0.0-1.0","3","3","3","3","3","4","4","4","4","4","4","1","1","0","1","-1","0","0","0","4","4","2","4","4","4","4","4","4","4","5","5","5","5","5","4","4","5","5","5","3","3","5","5","3","3","5","5","3","3","3","5","3","4","3","3","3","3","4","3","3","5","3","3","5","3","5","5","5","5","3","3","5","5","3","3","3","3","3","708989653960622080","陈","192","Female","[""好我"",""坏我"",""好她"",""坏她""]","[""强我"",""弱我"",""强她"",""弱她""]","","","","","","","","","","","","","","","","","","","","","","","","","","","","","","feedback_test","","","","","","","",""
"1167","","f","psychophysics","12","253833","0.0-8.0-0.0-1.0-0.0-0.1","3","3","3","3","3","4","4","4","4","4","4","1","1","0","1","-1","0","0","0","4","4","2","4","4","4","4","4","4","4","5","5","5","5","5","4","4","5","5","5","3","3","5","5","3","3","5","5","3","3","3","5","3","4","3","3","3","3","4","3","3","5","3","3","5","3","5","5","5","5","3","3","5","5","3","3","3","3","3","708989653960622080","陈","192","Female","[""好我"",""坏我"",""好她"",""坏她""]","[""强我"",""弱我"",""强她"",""弱她""]","","","","","","","","match","","","","","","","","","","key","f","16.682317829457364","1280","716","f","true","match","img/diamond.png","好我","好我","prac_ALT2_moral","practice_moral","","","","","","","",""
"null","<span style='color:GreenYellow; font-size: 70px;'>正确! </span>","null","html-keyboard-response","13","254334","0.0-8.0-0.0-1.0-0.0-1.1","3","3","3","3","3","4","4","4","4","4","4","1","1","0","1","-1","0","0","0","4","4","2","4","4","4","4","4","4","4","5","5","5","5","5","4","4","5","5","5","3","3","5","5","3","3","5","5","3","3","3","5","3","4","3","3","3","3","4","3","3","5","3","3","5","3","5","5","5","5","3","3","5","5","3","3","3","3","3","708989653960622080","陈","192","Female","[""好我"",""坏我"",""好她"",""坏她""]","[""强我"",""弱我"",""强她"",""弱她""]","","","","","","","","","","","","","","","","","","","","","","","","","","","","","","feedback_test","","","","","","","",""
"986","","f","psychophysics","14","256321","0.0-8.0-0.0-1.0-0.0-0.2","3","3","3","3","3","4","4","4","4","4","4","1","1","0","1","-1","0","0","0","4","4","2","4","4","4","4","4","4","4","5","5","5","5","5","4","4","5","5","5","3","3","5","5","3","3","5","5","3","3","3","5","3","4","3","3","3","3","4","3","3","5","3","3","5","3","5","5","5","5","3","3","5","5","3","3","3","3","3","708989653960622080","陈","192","Female","[""好我"",""坏我"",""好她"",""坏她""]","[""强我"",""弱我"",""强她"",""弱她""]","","","","","","","","match","","","","","","","","","","key","f","16.67998319327711","1280","716","f","true","match","img/hexagon.png","好她","好她","prac_ALT2_moral","practice_moral","","","","","","","",""
"null","<span style='color:GreenYellow; font-size: 70px;'>正确! </span>","null","html-keyboard-response","15","256821","0.0-8.0-0.0-1.0-0.0-1.2","3","3","3","3","3","4","4","4","4","4","4","1","1","0","1","-1","0","0","0","4","4","2","4","4","4","4","4","4","4","5","5","5","5","5","4","4","5","5","5","3","3","5","5","3","3","5","5","3","3","3","5","3","4","3","3","3","3","4","3","3","5","3","3","5","3","5","5","5","5","3","3","5","5","3","3","3","3","3","708989653960622080","陈","192","Female","[""好我"",""坏我"",""好她"",""坏她""]","[""强我"",""弱我"",""强她"",""弱她""]","","","","","","","","","","","","","","","","","","","","","","","","","","","","","","feedback_test","","","","","","","",""
"915","","j","psychophysics","16","258737","0.0-8.0-0.0-1.0-0.0-0.3","3","3","3","3","3","4","4","4","4","4","4","1","1","0","1","-1","0","0","0","4","4","2","4","4","4","4","4","4","4","5","5","5","5","5","4","4","5","5","5","3","3","5","5","3","3","5","5","3","3","3","5","3","4","3","3","3","3","4","3","3","5","3","3","5","3","5","5","5","5","3","3","5","5","3","3","3","3","3","708989653960622080","陈","192","Female","[""好我"",""坏我"",""好她"",""坏她""]","[""强我"",""弱我"",""强她"",""弱她""]","","","","","","","","nonmatch","","","","","","","","","","key","j","16.682451327433615","1280","716","j","true","nonmatch","img/diamond.png","好她","好我","prac_ALT2_moral","practice_moral","","","","","","","",""
"null","<span style='color:GreenYellow; font-size: 70px;'>正确! </span>","null","html-keyboard-response","17","259238","0.0-8.0-0.0-1.0-0.0-1.3","3","3","3","3","3","4","4","4","4","4","4","1","1","0","1","-1","0","0","0","4","4","2","4","4","4","4","4","4","4","5","5","5","5","5","4","4","5","5","5","3","3","5","5","3","3","5","5","3","3","3","5","3","4","3","3","3","3","4","3","3","5","3","3","5","3","5","5","5","5","3","3","5","5","3","3","3","3","3","708989653960622080","陈","192","Female","[""好我"",""坏我"",""好她"",""坏她""]","[""强我"",""弱我"",""强她"",""弱她""]","","","","","","","","","","","","","","","","","","","","","","","","","","","","","","feedback_test","","","","","","","",""
"1105","","j","psychophysics","18","261345","0.0-8.0-0.0-1.0-0.0-0.4","3","3","3","3","3","4","4","4","4","4","4","1","1","0","1","-1","0","0","0","4","4","2","4","4","4","4","4","4","4","5","5","5","5","5","4","4","5","5","5","3","3","5","5","3","3","5","5","3","3","3","5","3","4","3","3","3","3","4","3","3","5","3","3","5","3","5","5","5","5","3","3","5","5","3","3","3","3","3","708989653960622080","陈","192","Female","[""好我"",""坏我"",""好她"",""坏她""]","[""强我"",""弱我"",""强她"",""弱她""]","","","","","","","","nonmatch","","","","","","","","","","key","j","16.680579365079574","1280","716","j","true","nonmatch","img/square.png","好她","坏我","prac_ALT2_moral","practice_moral","","","","","","","",""
"null","<span style='color:GreenYellow; font-size: 70px;'>正确! </span>","null","html-keyboard-response","19","261845","0.0-8.0-0.0-1.0-0.0-1.4","3","3","3","3","3","4","4","4","4","4","4","1","1","0","1","-1","0","0","0","4","4","2","4","4","4","4","4","4","4","5","5","5","5","5","4","4","5","5","5","3","3","5","5","3","3","5","5","3","3","3","5","3","4","3","3","3","3","4","3","3","5","3","3","5","3","5","5","5","5","3","3","5","5","3","3","3","3","3","708989653960622080","陈","192","Female","[""好我"",""坏我"",""好她"",""坏她""]","[""强我"",""弱我"",""强她"",""弱她""]","","","","","","","","","","","","","","","","","","","","","","","","","","","","","","feedback_test","","","","","","","",""
"875","","j","psychophysics","20","263721","0.0-8.0-0.0-1.0-0.0-0.5","3","3","3","3","3","4","4","4","4","4","4","1","1","0","1","-1","0","0","0","4","4","2","4","4","4","4","4","4","4","5","5","5","5","5","4","4","5","5","5","3","3","5","5","3","3","5","5","3","3","3","5","3","4","3","3","3","3","4","3","3","5","3","3","5","3","5","5","5","5","3","3","5","5","3","3","3","3","3","708989653960622080","陈","192","Female","[""好我"",""坏我"",""好她"",""坏她""]","[""强我"",""弱我"",""强她"",""弱她""]","","","","","","","","nonmatch","","","","","","","","","","key","j","16.68247747747752","1280","716","j","true","nonmatch","img/ellipse.png","好她","坏她","prac_ALT2_moral","practice_moral","","","","","","","",""
"null","<span style='color:GreenYellow; font-size: 70px;'>正确! </span>","null","html-keyboard-response","21","264227","0.0-8.0-0.0-1.0-0.0-1.5","3","3","3","3","3","4","4","4","4","4","4","1","1","0","1","-1","0","0","0","4","4","2","4","4","4","4","4","4","4","5","5","5","5","5","4","4","5","5","5","3","3","5","5","3","3","5","5","3","3","3","5","3","4","3","3","3","3","4","3","3","5","3","3","5","3","5","5","5","5","3","3","5","5","3","3","3","3","3","708989653960622080","陈","192","Female","[""好我"",""坏我"",""好她"",""坏她""]","[""强我"",""弱我"",""强她"",""弱她""]","","","","","","","","","","","","","","","","","","","","","","","","","","","","","","feedback_test","","","","","","","",""
"null","","null","psychophysics","22","266432","0.0-8.0-0.0-1.0-0.0-0.6","3","3","3","3","3","4","4","4","4","4","4","1","1","0","1","-1","0","0","0","4","4","2","4","4","4","4","4","4","4","5","5","5","5","5","4","4","5","5","5","3","3","5","5","3","3","5","5","3","3","3","5","3","4","3","3","3","3","4","3","3","5","3","3","5","3","5","5","5","5","3","3","5","5","3","3","3","3","3","708989653960622080","陈","192","Female","[""好我"",""坏我"",""好她"",""坏她""]","[""强我"",""弱我"",""强她"",""弱她""]","","","","","","","","null","","","","","","","","","","key","null","16.680137404580137","1280","716","f","false","match","img/diamond.png","好我","好我","prac_ALT2_moral","practice_moral","","","","","","","",""
"null","<span class='add_' style='color:yellow; font-size: 70px;'> 太慢! </span>","null","html-keyboard-response","23","266932","0.0-8.0-0.0-1.0-0.0-1.6","3","3","3","3","3","4","4","4","4","4","4","1","1","0","1","-1","0","0","0","4","4","2","4","4","4","4","4","4","4","5","5","5","5","5","4","4","5","5","5","3","3","5","5","3","3","5","5","3","3","3","5","3","4","3","3","3","3","4","3","3","5","3","3","5","3","5","5","5","5","3","3","5","5","3","3","3","3","3","708989653960622080","陈","192","Female","[""好我"",""坏我"",""好她"",""坏她""]","[""强我"",""弱我"",""强她"",""弱她""]","","","","","","","","","","","","","","","","","","","","","","","","","","","","","","feedback_test","","","","","","","",""
"874","","j","psychophysics","24","268809","0.0-8.0-0.0-1.0-0.0-0.7","3","3","3","3","3","4","4","4","4","4","4","1","1","0","1","-1","0","0","0","4","4","2","4","4","4","4","4","4","4","5","5","5","5","5","4","4","5","5","5","3","3","5","5","3","3","5","5","3","3","3","5","3","4","3","3","3","3","4","3","3","5","3","3","5","3","5","5","5","5","3","3","5","5","3","3","3","3","3","708989653960622080","陈","192","Female","[""好我"",""坏我"",""好她"",""坏她""]","[""强我"",""弱我"",""强她"",""弱她""]","","","","","","","","nonmatch","","","","","","","","","","key","j","16.680315315314918","1280","716","j","true","nonmatch","img/square.png","好我","坏我","prac_ALT2_moral","practice_moral","","","","","","","",""
"null","<span style='color:GreenYellow; font-size: 70px;'>正确! </span>","null","html-keyboard-response","25","269309","0.0-8.0-0.0-1.0-0.0-1.7","3","3","3","3","3","4","4","4","4","4","4","1","1","0","1","-1","0","0","0","4","4","2","4","4","4","4","4","4","4","5","5","5","5","5","4","4","5","5","5","3","3","5","5","3","3","5","5","3","3","3","5","3","4","3","3","3","3","4","3","3","5","3","3","5","3","5","5","5","5","3","3","5","5","3","3","3","3","3","708989653960622080","陈","192","Female","[""好我"",""坏我"",""好她"",""坏她""]","[""强我"",""弱我"",""强她"",""弱她""]","","","","","","","","","","","","","","","","","","","","","","","","","","","","","","feedback_test","","","","","","","",""
"898","","j","psychophysics","26","271208","0.0-8.0-0.0-1.0-0.0-0.8","3","3","3","3","3","4","4","4","4","4","4","1","1","0","1","-1","0","0","0","4","4","2","4","4","4","4","4","4","4","5","5","5","5","5","4","4","5","5","5","3","3","5","5","3","3","5","5","3","3","3","5","3","4","3","3","3","3","4","3","3","5","3","3","5","3","5","5","5","5","3","3","5","5","3","3","3","3","3","708989653960622080","陈","192","Female","[""好我"",""坏我"",""好她"",""坏她""]","[""强我"",""弱我"",""强她"",""弱她""]","","","","","","","","nonmatch","","","","","","","","","","key","j","16.680504424778736","1280","716","f","false","match","img/ellipse.png","坏她","坏她","prac_ALT2_moral","practice_moral","","","","","","","",""
"null","<span style='color:red; font-size: 70px;'>错误! </span>","null","html-keyboard-response","27","271709","0.0-8.0-0.0-1.0-0.0-1.8","3","3","3","3","3","4","4","4","4","4","4","1","1","0","1","-1","0","0","0","4","4","2","4","4","4","4","4","4","4","5","5","5","5","5","4","4","5","5","5","3","3","5","5","3","3","5","5","3","3","3","5","3","4","3","3","3","3","4","3","3","5","3","3","5","3","5","5","5","5","3","3","5","5","3","3","3","3","3","708989653960622080","陈","192","Female","[""好我"",""坏我"",""好她"",""坏她""]","[""强我"",""弱我"",""强她"",""弱她""]","","","","","","","","","","","","","","","","","","","","","","","","","","","","","","feedback_test","","","","","","","",""
"1026","","j","psychophysics","28","273736","0.0-8.0-0.0-1.0-0.0-0.9","3","3","3","3","3","4","4","4","4","4","4","1","1","0","1","-1","0","0","0","4","4","2","4","4","4","4","4","4","4","5","5","5","5","5","4","4","5","5","5","3","3","5","5","3","3","5","5","3","3","3","5","3","4","3","3","3","3","4","3","3","5","3","3","5","3","5","5","5","5","3","3","5","5","3","3","3","3","3","708989653960622080","陈","192","Female","[""好我"",""坏我"",""好她"",""坏她""]","[""强我"",""弱我"",""强她"",""弱她""]","","","","","","","","nonmatch","","","","","","","","","","key","j","16.680223140495634","1280","716","j","true","nonmatch","img/ellipse.png","坏我","坏她","prac_ALT2_moral","practice_moral","","","","","","","",""
"null","<span style='color:GreenYellow; font-size: 70px;'>正确! </span>","null","html-keyboard-response","29","274237","0.0-8.0-0.0-1.0-0.0-1.9","3","3","3","3","3","4","4","4","4","4","4","1","1","0","1","-1","0","0","0","4","4","2","4","4","4","4","4","4","4","5","5","5","5","5","4","4","5","5","5","3","3","5","5","3","3","5","5","3","3","3","5","3","4","3","3","3","3","4","3","3","5","3","3","5","3","5","5","5","5","3","3","5","5","3","3","3","3","3","708989653960622080","陈","192","Female","[""好我"",""坏我"",""好她"",""坏她""]","[""强我"",""弱我"",""强她"",""弱她""]","","","","","","","","","","","","","","","","","","","","","","","","","","","","","","feedback_test","","","","","","","",""
"953","","j","psychophysics","30","276193","0.0-8.0-0.0-1.0-0.0-0.10","3","3","3","3","3","4","4","4","4","4","4","1","1","0","1","-1","0","0","0","4","4","2","4","4","4","4","4","4","4","5","5","5","5","5","4","4","5","5","5","3","3","5","5","3","3","5","5","3","3","3","5","3","4","3","3","3","3","4","3","3","5","3","3","5","3","5","5","5","5","3","3","5","5","3","3","3","3","3","708989653960622080","陈","192","Female","[""好我"",""坏我"",""好她"",""坏她""]","[""强我"",""弱我"",""强她"",""弱她""]","","","","","","","","nonmatch","","","","","","","","","","key","j","16.68016379310374","1280","716","j","true","nonmatch","img/hexagon.png","坏她","好她","prac_ALT2_moral","practice_moral","","","","","","","",""
"null","<span style='color:GreenYellow; font-size: 70px;'>正确! </span>","null","html-keyboard-response","31","276693","0.0-8.0-0.0-1.0-0.0-1.10","3","3","3","3","3","4","4","4","4","4","4","1","1","0","1","-1","0","0","0","4","4","2","4","4","4","4","4","4","4","5","5","5","5","5","4","4","5","5","5","3","3","5","5","3","3","5","5","3","3","3","5","3","4","3","3","3","3","4","3","3","5","3","3","5","3","5","5","5","5","3","3","5","5","3","3","3","3","3","708989653960622080","陈","192","Female","[""好我"",""坏我"",""好她"",""坏她""]","[""强我"",""弱我"",""强她"",""弱她""]","","","","","","","","","","","","","","","","","","","","","","","","","","","","","","feedback_test","","","","","","","",""
"858","","f","psychophysics","32","278552","0.0-8.0-0.0-1.0-0.0-0.11","3","3","3","3","3","4","4","4","4","4","4","1","1","0","1","-1","0","0","0","4","4","2","4","4","4","4","4","4","4","5","5","5","5","5","4","4","5","5","5","3","3","5","5","3","3","5","5","3","3","3","5","3","4","3","3","3","3","4","3","3","5","3","3","5","3","5","5","5","5","3","3","5","5","3","3","3","3","3","708989653960622080","陈","192","Female","[""好我"",""坏我"",""好她"",""坏她""]","[""强我"",""弱我"",""强她"",""弱她""]","","","","","","","","match","","","","","","","","","","key","f","16.679981818181908","1280","716","f","true","match","img/hexagon.png","好她","好她","prac_ALT2_moral","practice_moral","","","","","","","",""
"null","<span style='color:GreenYellow; font-size: 70px;'>正确! </span>","null","html-keyboard-response","33","279053","0.0-8.0-0.0-1.0-0.0-1.11","3","3","3","3","3","4","4","4","4","4","4","1","1","0","1","-1","0","0","0","4","4","2","4","4","4","4","4","4","4","5","5","5","5","5","4","4","5","5","5","3","3","5","5","3","3","5","5","3","3","3","5","3","4","3","3","3","3","4","3","3","5","3","3","5","3","5","5","5","5","3","3","5","5","3","3","3","3","3","708989653960622080","陈","192","Female","[""好我"",""坏我"",""好她"",""坏她""]","[""强我"",""弱我"",""强她"",""弱她""]","","","","","","","","","","","","","","","","","","","","","","","","","","","","","","feedback_test","","","","","","","",""
"915","","j","psychophysics","34","280969","0.0-8.0-0.0-1.0-0.0-0.12","3","3","3","3","3","4","4","4","4","4","4","1","1","0","1","-1","0","0","0","4","4","2","4","4","4","4","4","4","4","5","5","5","5","5","4","4","5","5","5","3","3","5","5","3","3","5","5","3","3","3","5","3","4","3","3","3","3","4","3","3","5","3","3","5","3","5","5","5","5","3","3","5","5","3","3","3","3","3","708989653960622080","陈","192","Female","[""好我"",""坏我"",""好她"",""坏她""]","[""强我"",""弱我"",""强她"",""弱她""]","","","","","","","","nonmatch","","","","","","","","","","key","j","16.680552631579317","1280","716","f","false","match","img/square.png","坏我","坏我","prac_ALT2_moral","practice_moral","","","","","","","",""
"null","<span style='color:red; font-size: 70px;'>错误! </span>","null","html-keyboard-response","35","281469","0.0-8.0-0.0-1.0-0.0-1.12","3","3","3","3","3","4","4","4","4","4","4","1","1","0","1","-1","0","0","0","4","4","2","4","4","4","4","4","4","4","5","5","5","5","5","4","4","5","5","5","3","3","5","5","3","3","5","5","3","3","3","5","3","4","3","3","3","3","4","3","3","5","3","3","5","3","5","5","5","5","3","3","5","5","3","3","3","3","3","708989653960622080","陈","192","Female","[""好我"",""坏我"",""好她"",""坏她""]","[""强我"",""弱我"",""强她"",""弱她""]","","","","","","","","","","","","","","","","","","","","","","","","","","","","","","feedback_test","","","","","","","",""
"818","","j","psychophysics","36","283288","0.0-8.0-0.0-1.0-0.0-0.13","3","3","3","3","3","4","4","4","4","4","4","1","1","0","1","-1","0","0","0","4","4","2","4","4","4","4","4","4","4","5","5","5","5","5","4","4","5","5","5","3","3","5","5","3","3","5","5","3","3","3","5","3","4","3","3","3","3","4","3","3","5","3","3","5","3","5","5","5","5","3","3","5","5","3","3","3","3","3","708989653960622080","陈","192","Female","[""好我"",""坏我"",""好她"",""坏她""]","[""强我"",""弱我"",""强她"",""弱她""]","","","","","","","","nonmatch","","","","","","","","","","key","j","16.680648148148233","1280","716","j","true","nonmatch","img/hexagon.png","坏我","好她","prac_ALT2_moral","practice_moral","","","","","","","",""
"null","<span style='color:GreenYellow; font-size: 70px;'>正确! </span>","null","html-keyboard-response","37","283790","0.0-8.0-0.0-1.0-0.0-1.13","3","3","3","3","3","4","4","4","4","4","4","1","1","0","1","-1","0","0","0","4","4","2","4","4","4","4","4","4","4","5","5","5","5","5","4","4","5","5","5","3","3","5","5","3","3","5","5","3","3","3","5","3","4","3","3","3","3","4","3","3","5","3","3","5","3","5","5","5","5","3","3","5","5","3","3","3","3","3","708989653960622080","陈","192","Female","[""好我"",""坏我"",""好她"",""坏她""]","[""强我"",""弱我"",""强她"",""弱她""]","","","","","","","","","","","","","","","","","","","","","","","","","","","","","","feedback_test","","","","","","","",""
"1018","","j","psychophysics","38","285809","0.0-8.0-0.0-1.0-0.0-0.14","3","3","3","3","3","4","4","4","4","4","4","1","1","0","1","-1","0","0","0","4","4","2","4","4","4","4","4","4","4","5","5","5","5","5","4","4","5","5","5","3","3","5","5","3","3","5","5","3","3","3","5","3","4","3","3","3","3","4","3","3","5","3","3","5","3","5","5","5","5","3","3","5","5","3","3","3","3","3","708989653960622080","陈","192","Female","[""好我"",""坏我"",""好她"",""坏她""]","[""强我"",""弱我"",""强她"",""弱她""]","","","","","","","","nonmatch","","","","","","","","","","key","j","16.680099999999705","1280","716","j","true","nonmatch","img/hexagon.png","好我","好她","prac_ALT2_moral","practice_moral","","","","","","","",""
"null","<span style='color:GreenYellow; font-size: 70px;'>正确! </span>","null","html-keyboard-response","39","286310","0.0-8.0-0.0-1.0-0.0-1.14","3","3","3","3","3","4","4","4","4","4","4","1","1","0","1","-1","0","0","0","4","4","2","4","4","4","4","4","4","4","5","5","5","5","5","4","4","5","5","5","3","3","5","5","3","3","5","5","3","3","3","5","3","4","3","3","3","3","4","3","3","5","3","3","5","3","5","5","5","5","3","3","5","5","3","3","3","3","3","708989653960622080","陈","192","Female","[""好我"",""坏我"",""好她"",""坏她""]","[""强我"",""弱我"",""强她"",""弱她""]","","","","","","","","","","","","","","","","","","","","","","","","","","","","","","feedback_test","","","","","","","",""
"914","","j","psychophysics","40","288224","0.0-8.0-0.0-1.0-0.0-0.15","3","3","3","3","3","4","4","4","4","4","4","1","1","0","1","-1","0","0","0","4","4","2","4","4","4","4","4","4","4","5","5","5","5","5","4","4","5","5","5","3","3","5","5","3","3","5","5","3","3","3","5","3","4","3","3","3","3","4","3","3","5","3","3","5","3","5","5","5","5","3","3","5","5","3","3","3","3","3","708989653960622080","陈","192","Female","[""好我"",""坏我"",""好她"",""坏她""]","[""强我"",""弱我"",""强她"",""弱她""]","","","","","","","","nonmatch","","","","","","","","","","key","j","16.680499999999913","1280","716","f","false","match","img/ellipse.png","坏她","坏她","prac_ALT2_moral","practice_moral","","","","","","","",""
"null","<span style='color:red; font-size: 70px;'>错误! </span>","null","html-keyboard-response","41","288725","0.0-8.0-0.0-1.0-0.0-1.15","3","3","3","3","3","4","4","4","4","4","4","1","1","0","1","-1","0","0","0","4","4","2","4","4","4","4","4","4","4","5","5","5","5","5","4","4","5","5","5","3","3","5","5","3","3","5","5","3","3","3","5","3","4","3","3","3","3","4","3","3","5","3","3","5","3","5","5","5","5","3","3","5","5","3","3","3","3","3","708989653960622080","陈","192","Female","[""好我"",""坏我"",""好她"",""坏她""]","[""强我"",""弱我"",""强她"",""弱她""]","","","","","","","","","","","","","","","","","","","","","","","","","","","","","","feedback_test","","","","","","","",""
"1090","","j","psychophysics","42","290816","0.0-8.0-0.0-1.0-0.0-0.16","3","3","3","3","3","4","4","4","4","4","4","1","1","0","1","-1","0","0","0","4","4","2","4","4","4","4","4","4","4","5","5","5","5","5","4","4","5","5","5","3","3","5","5","3","3","5","5","3","3","3","5","3","4","3","3","3","3","4","3","3","5","3","3","5","3","5","5","5","5","3","3","5","5","3","3","3","3","3","708989653960622080","陈","192","Female","[""好我"",""坏我"",""好她"",""坏她""]","[""强我"",""弱我"",""强她"",""弱她""]","","","","","","","","nonmatch","","","","","","","","","","key","j","16.68018399999989","1280","716","j","true","nonmatch","img/diamond.png","坏她","好我","prac_ALT2_moral","practice_moral","","","","","","","",""
"null","<span style='color:GreenYellow; font-size: 70px;'>正确! </span>","null","html-keyboard-response","43","291317","0.0-8.0-0.0-1.0-0.0-1.16","3","3","3","3","3","4","4","4","4","4","4","1","1","0","1","-1","0","0","0","4","4","2","4","4","4","4","4","4","4","5","5","5","5","5","4","4","5","5","5","3","3","5","5","3","3","5","5","3","3","3","5","3","4","3","3","3","3","4","3","3","5","3","3","5","3","5","5","5","5","3","3","5","5","3","3","3","3","3","708989653960622080","陈","192","Female","[""好我"",""坏我"",""好她"",""坏她""]","[""强我"",""弱我"",""强她"",""弱她""]","","","","","","","","","","","","","","","","","","","","","","","","","","","","","","feedback_test","","","","","","","",""
"1042","","f","psychophysics","44","293360","0.0-8.0-0.0-1.0-0.0-0.17","3","3","3","3","3","4","4","4","4","4","4","1","1","0","1","-1","0","0","0","4","4","2","4","4","4","4","4","4","4","5","5","5","5","5","4","4","5","5","5","3","3","5","5","3","3","5","5","3","3","3","5","3","4","3","3","3","3","4","3","3","5","3","3","5","3","5","5","5","5","3","3","5","5","3","3","3","3","3","708989653960622080","陈","192","Female","[""好我"",""坏我"",""好她"",""坏她""]","[""强我"",""弱我"",""强她"",""弱她""]","","","","","","","","match","","","","","","","","","","key","f","16.68228925619811","1280","716","f","true","match","img/ellipse.png","坏她","坏她","prac_ALT2_moral","practice_moral","","","","","","","",""
"null","<span style='color:GreenYellow; font-size: 70px;'>正确! </span>","null","html-keyboard-response","45","293861","0.0-8.0-0.0-1.0-0.0-1.17","3","3","3","3","3","4","4","4","4","4","4","1","1","0","1","-1","0","0","0","4","4","2","4","4","4","4","4","4","4","5","5","5","5","5","4","4","5","5","5","3","3","5","5","3","3","5","5","3","3","3","5","3","4","3","3","3","3","4","3","3","5","3","3","5","3","5","5","5","5","3","3","5","5","3","3","3","3","3","708989653960622080","陈","192","Female","[""好我"",""坏我"",""好她"",""坏她""]","[""强我"",""弱我"",""强她"",""弱她""]","","","","","","","","","","","","","","","","","","","","","","","","","","","","","","feedback_test","","","","","","","",""
"1035","","f","psychophysics","46","295896","0.0-8.0-0.0-1.0-0.0-0.18","3","3","3","3","3","4","4","4","4","4","4","1","1","0","1","-1","0","0","0","4","4","2","4","4","4","4","4","4","4","5","5","5","5","5","4","4","5","5","5","3","3","5","5","3","3","5","5","3","3","3","5","3","4","3","3","3","3","4","3","3","5","3","3","5","3","5","5","5","5","3","3","5","5","3","3","3","3","3","708989653960622080","陈","192","Female","[""好我"",""坏我"",""好她"",""坏她""]","[""强我"",""弱我"",""强她"",""弱她""]","","","","","","","","match","","","","","","","","","","key","f","16.68026446280972","1280","716","f","true","match","img/diamond.png","好我","好我","prac_ALT2_moral","practice_moral","","","","","","","",""
"null","<span style='color:GreenYellow; font-size: 70px;'>正确! </span>","null","html-keyboard-response","47","296397","0.0-8.0-0.0-1.0-0.0-1.18","3","3","3","3","3","4","4","4","4","4","4","1","1","0","1","-1","0","0","0","4","4","2","4","4","4","4","4","4","4","5","5","5","5","5","4","4","5","5","5","3","3","5","5","3","3","5","5","3","3","3","5","3","4","3","3","3","3","4","3","3","5","3","3","5","3","5","5","5","5","3","3","5","5","3","3","3","3","3","708989653960622080","陈","192","Female","[""好我"",""坏我"",""好她"",""坏她""]","[""强我"",""弱我"",""强她"",""弱她""]","","","","","","","","","","","","","","","","","","","","","","","","","","","","","","feedback_test","","","","","","","",""
"921","","j","psychophysics","48","298320","0.0-8.0-0.0-1.0-0.0-0.19","3","3","3","3","3","4","4","4","4","4","4","1","1","0","1","-1","0","0","0","4","4","2","4","4","4","4","4","4","4","5","5","5","5","5","4","4","5","5","5","3","3","5","5","3","3","5","5","3","3","3","5","3","4","3","3","3","3","4","3","3","5","3","3","5","3","5","5","5","5","3","3","5","5","3","3","3","3","3","708989653960622080","陈","192","Female","[""好我"",""坏我"",""好她"",""坏她""]","[""强我"",""弱我"",""强她"",""弱她""]","","","","","","","","nonmatch","","","","","","","","","","key","j","16.682728070175486","1280","716","f","false","match","img/square.png","坏我","坏我","prac_ALT2_moral","practice_moral","","","","","","","",""
"null","<span style='color:red; font-size: 70px;'>错误! </span>","null","html-keyboard-response","49","298821","0.0-8.0-0.0-1.0-0.0-1.19","3","3","3","3","3","4","4","4","4","4","4","1","1","0","1","-1","0","0","0","4","4","2","4","4","4","4","4","4","4","5","5","5","5","5","4","4","5","5","5","3","3","5","5","3","3","5","5","3","3","3","5","3","4","3","3","3","3","4","3","3","5","3","3","5","3","5","5","5","5","3","3","5","5","3","3","3","3","3","708989653960622080","陈","192","Female","[""好我"",""坏我"",""好她"",""坏她""]","[""强我"",""弱我"",""强她"",""弱她""]","","","","","","","","","","","","","","","","","","","","","","","","","","","","","","feedback_test","","","","","","","",""
"1051","","j","psychophysics","50","300872","0.0-8.0-0.0-1.0-0.0-0.20","3","3","3","3","3","4","4","4","4","4","4","1","1","0","1","-1","0","0","0","4","4","2","4","4","4","4","4","4","4","5","5","5","5","5","4","4","5","5","5","3","3","5","5","3","3","5","5","3","3","3","5","3","4","3","3","3","3","4","3","3","5","3","3","5","3","5","5","5","5","3","3","5","5","3","3","3","3","3","708989653960622080","陈","192","Female","[""好我"",""坏我"",""好她"",""坏她""]","[""强我"",""弱我"",""强她"",""弱她""]","","","","","","","","nonmatch","","","","","","","","","","key","j","16.677595041321844","1280","716","j","true","nonmatch","img/diamond.png","坏我","好我","prac_ALT2_moral","practice_moral","","","","","","","",""
"null","<span style='color:GreenYellow; font-size: 70px;'>正确! </span>","null","html-keyboard-response","51","301373","0.0-8.0-0.0-1.0-0.0-1.20","3","3","3","3","3","4","4","4","4","4","4","1","1","0","1","-1","0","0","0","4","4","2","4","4","4","4","4","4","4","5","5","5","5","5","4","4","5","5","5","3","3","5","5","3","3","5","5","3","3","3","5","3","4","3","3","3","3","4","3","3","5","3","3","5","3","5","5","5","5","3","3","5","5","3","3","3","3","3","708989653960622080","陈","192","Female","[""好我"",""坏我"",""好她"",""坏她""]","[""强我"",""弱我"",""强她"",""弱她""]","","","","","","","","","","","","","","","","","","","","","","","","","","","","","","feedback_test","","","","","","","",""
"930","","f","psychophysics","52","303304","0.0-8.0-0.0-1.0-0.0-0.21","3","3","3","3","3","4","4","4","4","4","4","1","1","0","1","-1","0","0","0","4","4","2","4","4","4","4","4","4","4","5","5","5","5","5","4","4","5","5","5","3","3","5","5","3","3","5","5","3","3","3","5","3","4","3","3","3","3","4","3","3","5","3","3","5","3","5","5","5","5","3","3","5","5","3","3","3","3","3","708989653960622080","陈","192","Female","[""好我"",""坏我"",""好她"",""坏她""]","[""强我"",""弱我"",""强她"",""弱她""]","","","","","","","","match","","","","","","","","","","key","f","16.676982456140156","1280","716","f","true","match","img/hexagon.png","好她","好她","prac_ALT2_moral","practice_moral","","","","","","","",""
"null","<span style='color:GreenYellow; font-size: 70px;'>正确! </span>","null","html-keyboard-response","53","303805","0.0-8.0-0.0-1.0-0.0-1.21","3","3","3","3","3","4","4","4","4","4","4","1","1","0","1","-1","0","0","0","4","4","2","4","4","4","4","4","4","4","5","5","5","5","5","4","4","5","5","5","3","3","5","5","3","3","5","5","3","3","3","5","3","4","3","3","3","3","4","3","3","5","3","3","5","3","5","5","5","5","3","3","5","5","3","3","3","3","3","708989653960622080","陈","192","Female","[""好我"",""坏我"",""好她"",""坏她""]","[""强我"",""弱我"",""强她"",""弱她""]","","","","","","","","","","","","","","","","","","","","","","","","","","","","","","feedback_test","","","","","","","",""
"979","","j","psychophysics","54","305784","0.0-8.0-0.0-1.0-0.0-0.22","3","3","3","3","3","4","4","4","4","4","4","1","1","0","1","-1","0","0","0","4","4","2","4","4","4","4","4","4","4","5","5","5","5","5","4","4","5","5","5","3","3","5","5","3","3","5","5","3","3","3","5","3","4","3","3","3","3","4","3","3","5","3","3","5","3","5","5","5","5","3","3","5","5","3","3","3","3","3","708989653960622080","陈","192","Female","[""好我"",""坏我"",""好她"",""坏她""]","[""强我"",""弱我"",""强她"",""弱她""]","","","","","","","","nonmatch","","","","","","","","","","key","j","16.68272033898294","1280","716","j","true","nonmatch","img/square.png","坏她","坏我","prac_ALT2_moral","practice_moral","","","","","","","",""
"null","<span style='color:GreenYellow; font-size: 70px;'>正确! </span>","null","html-keyboard-response","55","306285","0.0-8.0-0.0-1.0-0.0-1.22","3","3","3","3","3","4","4","4","4","4","4","1","1","0","1","-1","0","0","0","4","4","2","4","4","4","4","4","4","4","5","5","5","5","5","4","4","5","5","5","3","3","5","5","3","3","5","5","3","3","3","5","3","4","3","3","3","3","4","3","3","5","3","3","5","3","5","5","5","5","3","3","5","5","3","3","3","3","3","708989653960622080","陈","192","Female","[""好我"",""坏我"",""好她"",""坏她""]","[""强我"",""弱我"",""强她"",""弱她""]","","","","","","","","","","","","","","","","","","","","","","","","","","","","","","feedback_test","","","","","","","",""
"1121","","j","psychophysics","56","308408","0.0-8.0-0.0-1.0-0.0-0.23","3","3","3","3","3","4","4","4","4","4","4","1","1","0","1","-1","0","0","0","4","4","2","4","4","4","4","4","4","4","5","5","5","5","5","4","4","5","5","5","3","3","5","5","3","3","5","5","3","3","3","5","3","4","3","3","3","3","4","3","3","5","3","3","5","3","5","5","5","5","3","3","5","5","3","3","3","3","3","708989653960622080","陈","192","Female","[""好我"",""坏我"",""好她"",""坏她""]","[""强我"",""弱我"",""强她"",""弱她""]","","","","","","","","nonmatch","","","","","","","","","","key","j","16.680626984127144","1280","716","f","false","match","img/square.png","坏我","坏我","prac_ALT2_moral","practice_moral","","","","","","","",""
"null","<span style='color:red; font-size: 70px;'>错误! </span>","null","html-keyboard-response","57","308909","0.0-8.0-0.0-1.0-0.0-1.23","3","3","3","3","3","4","4","4","4","4","4","1","1","0","1","-1","0","0","0","4","4","2","4","4","4","4","4","4","4","5","5","5","5","5","4","4","5","5","5","3","3","5","5","3","3","5","5","3","3","3","5","3","4","3","3","3","3","4","3","3","5","3","3","5","3","5","5","5","5","3","3","5","5","3","3","3","3","3","708989653960622080","陈","192","Female","[""好我"",""坏我"",""好她"",""坏她""]","[""强我"",""弱我"",""强她"",""弱她""]","","","","","","","","","","","","","","","","","","","","","","","","","","","","","","feedback_test","","","","","","","",""
"929","","f","psychophysics","58","310840","0.0-8.0-0.0-1.0-0.0-0.24","3","3","3","3","3","4","4","4","4","4","4","1","1","0","1","-1","0","0","0","4","4","2","4","4","4","4","4","4","4","5","5","5","5","5","4","4","5","5","5","3","3","5","5","3","3","5","5","3","3","3","5","3","4","3","3","3","3","4","3","3","5","3","3","5","3","5","5","5","5","3","3","5","5","3","3","3","3","3","708989653960622080","陈","192","Female","[""好我"",""坏我"",""好她"",""坏她""]","[""强我"",""弱我"",""强她"",""弱她""]","","","","","","","","match","","","","","","","","","","key","f","16.68059130434767","1280","716","f","true","match","img/square.png","坏我","坏我","prac_ALT2_moral","practice_moral","","","","","","","",""
"null","<span style='color:GreenYellow; font-size: 70px;'>正确! </span>","null","html-keyboard-response","59","311341","0.0-8.0-0.0-1.0-0.0-1.24","3","3","3","3","3","4","4","4","4","4","4","1","1","0","1","-1","0","0","0","4","4","2","4","4","4","4","4","4","4","5","5","5","5","5","4","4","5","5","5","3","3","5","5","3","3","5","5","3","3","3","5","3","4","3","3","3","3","4","3","3","5","3","3","5","3","5","5","5","5","3","3","5","5","3","3","3","3","3","708989653960622080","陈","192","Female","[""好我"",""坏我"",""好她"",""坏她""]","[""强我"",""弱我"",""强她"",""弱她""]","","","","","","","","","","","","","","","","","","","","","","","","","","","","","","feedback_test","","","","","","","",""
"1090","","f","psychophysics","60","313432","0.0-8.0-0.0-1.0-0.0-0.25","3","3","3","3","3","4","4","4","4","4","4","1","1","0","1","-1","0","0","0","4","4","2","4","4","4","4","4","4","4","5","5","5","5","5","4","4","5","5","5","3","3","5","5","3","3","5","5","3","3","3","5","3","4","3","3","3","3","4","3","3","5","3","3","5","3","5","5","5","5","3","3","5","5","3","3","3","3","3","708989653960622080","陈","192","Female","[""好我"",""坏我"",""好她"",""坏她""]","[""强我"",""弱我"",""强她"",""弱她""]","","","","","","","","match","","","","","","","","","","key","f","16.68007258064491","1280","716","f","true","match","img/ellipse.png","坏她","坏她","prac_ALT2_moral","practice_moral","","","","","","","",""
"null","<span style='color:GreenYellow; font-size: 70px;'>正确! </span>","null","html-keyboard-response","61","313933","0.0-8.0-0.0-1.0-0.0-1.25","3","3","3","3","3","4","4","4","4","4","4","1","1","0","1","-1","0","0","0","4","4","2","4","4","4","4","4","4","4","5","5","5","5","5","4","4","5","5","5","3","3","5","5","3","3","5","5","3","3","3","5","3","4","3","3","3","3","4","3","3","5","3","3","5","3","5","5","5","5","3","3","5","5","3","3","3","3","3","708989653960622080","陈","192","Female","[""好我"",""坏我"",""好她"",""坏她""]","[""强我"",""弱我"",""强她"",""弱她""]","","","","","","","","","","","","","","","","","","","","","","","","","","","","","","feedback_test","","","","","","","",""
"1042","","j","psychophysics","62","315976","0.0-8.0-0.0-1.0-0.0-0.26","3","3","3","3","3","4","4","4","4","4","4","1","1","0","1","-1","0","0","0","4","4","2","4","4","4","4","4","4","4","5","5","5","5","5","4","4","5","5","5","3","3","5","5","3","3","5","5","3","3","3","5","3","4","3","3","3","3","4","3","3","5","3","3","5","3","5","5","5","5","3","3","5","5","3","3","3","3","3","708989653960622080","陈","192","Female","[""好我"",""坏我"",""好她"",""坏她""]","[""强我"",""弱我"",""强她"",""弱她""]","","","","","","","","nonmatch","","","","","","","","","","key","j","16.679247933884405","1280","716","f","false","match","img/diamond.png","好我","好我","prac_ALT2_moral","practice_moral","","","","","","","",""
"null","<span style='color:red; font-size: 70px;'>错误! </span>","null","html-keyboard-response","63","316477","0.0-8.0-0.0-1.0-0.0-1.26","3","3","3","3","3","4","4","4","4","4","4","1","1","0","1","-1","0","0","0","4","4","2","4","4","4","4","4","4","4","5","5","5","5","5","4","4","5","5","5","3","3","5","5","3","3","5","5","3","3","3","5","3","4","3","3","3","3","4","3","3","5","3","3","5","3","5","5","5","5","3","3","5","5","3","3","3","3","3","708989653960622080","陈","192","Female","[""好我"",""坏我"",""好她"",""坏她""]","[""强我"",""弱我"",""强她"",""弱她""]","","","","","","","","","","","","","","","","","","","","","","","","","","","","","","feedback_test","","","","","","","",""
"null","","null","psychophysics","64","318682","0.0-8.0-0.0-1.0-0.0-0.27","3","3","3","3","3","4","4","4","4","4","4","1","1","0","1","-1","0","0","0","4","4","2","4","4","4","4","4","4","4","5","5","5","5","5","4","4","5","5","5","3","3","5","5","3","3","5","5","3","3","3","5","3","4","3","3","3","3","4","3","3","5","3","3","5","3","5","5","5","5","3","3","5","5","3","3","3","3","3","708989653960622080","陈","192","Female","[""好我"",""坏我"",""好她"",""坏她""]","[""强我"",""弱我"",""强她"",""弱她""]","","","","","","","","null","","","","","","","","","","key","null","16.680015267175534","1280","716","j","false","nonmatch","img/square.png","坏她","坏我","prac_ALT2_moral","practice_moral","","","","","","","",""
"null","<span class='add_' style='color:yellow; font-size: 70px;'> 太慢! </span>","null","html-keyboard-response","65","319183","0.0-8.0-0.0-1.0-0.0-1.27","3","3","3","3","3","4","4","4","4","4","4","1","1","0","1","-1","0","0","0","4","4","2","4","4","4","4","4","4","4","5","5","5","5","5","4","4","5","5","5","3","3","5","5","3","3","5","5","3","3","3","5","3","4","3","3","3","3","4","3","3","5","3","3","5","3","5","5","5","5","3","3","5","5","3","3","3","3","3","708989653960622080","陈","192","Female","[""好我"",""坏我"",""好她"",""坏她""]","[""强我"",""弱我"",""强她"",""弱她""]","","","","","","","","","","","","","","","","","","","","","","","","","","","","","","feedback_test","","","","","","","",""
"1019","","j","psychophysics","66","321208","0.0-8.0-0.0-1.0-0.0-0.28","3","3","3","3","3","4","4","4","4","4","4","1","1","0","1","-1","0","0","0","4","4","2","4","4","4","4","4","4","4","5","5","5","5","5","4","4","5","5","5","3","3","5","5","3","3","5","5","3","3","3","5","3","4","3","3","3","3","4","3","3","5","3","3","5","3","5","5","5","5","3","3","5","5","3","3","3","3","3","708989653960622080","陈","192","Female","[""好我"",""坏我"",""好她"",""坏她""]","[""强我"",""弱我"",""强她"",""弱她""]","","","","","","","","nonmatch","","","","","","","","","","key","j","16.681983471074535","1280","716","j","true","nonmatch","img/ellipse.png","好我","坏她","prac_ALT2_moral","practice_moral","","","","","","","",""
"null","<span style='color:GreenYellow; font-size: 70px;'>正确! </span>","null","html-keyboard-response","67","321708","0.0-8.0-0.0-1.0-0.0-1.28","3","3","3","3","3","4","4","4","4","4","4","1","1","0","1","-1","0","0","0","4","4","2","4","4","4","4","4","4","4","5","5","5","5","5","4","4","5","5","5","3","3","5","5","3","3","5","5","3","3","3","5","3","4","3","3","3","3","4","3","3","5","3","3","5","3","5","5","5","5","3","3","5","5","3","3","3","3","3","708989653960622080","陈","192","Female","[""好我"",""坏我"",""好她"",""坏她""]","[""强我"",""弱我"",""强她"",""弱她""]","","","","","","","","","","","","","","","","","","","","","","","","","","","","","","feedback_test","","","","","","","",""
"977","","j","psychophysics","68","323688","0.0-8.0-0.0-1.0-0.0-0.29","3","3","3","3","3","4","4","4","4","4","4","1","1","0","1","-1","0","0","0","4","4","2","4","4","4","4","4","4","4","5","5","5","5","5","4","4","5","5","5","3","3","5","5","3","3","5","5","3","3","3","5","3","4","3","3","3","3","4","3","3","5","3","3","5","3","5","5","5","5","3","3","5","5","3","3","3","3","3","708989653960622080","陈","192","Female","[""好我"",""坏我"",""好她"",""坏她""]","[""强我"",""弱我"",""强她"",""弱她""]","","","","","","","","nonmatch","","","","","","","","","","key","j","16.676735042735167","1280","716","j","true","nonmatch","img/ellipse.png","坏我","坏她","prac_ALT2_moral","practice_moral","","","","","","","",""
"null","<span style='color:GreenYellow; font-size: 70px;'>正确! </span>","null","html-keyboard-response","69","324191","0.0-8.0-0.0-1.0-0.0-1.29","3","3","3","3","3","4","4","4","4","4","4","1","1","0","1","-1","0","0","0","4","4","2","4","4","4","4","4","4","4","5","5","5","5","5","4","4","5","5","5","3","3","5","5","3","3","5","5","3","3","3","5","3","4","3","3","3","3","4","3","3","5","3","3","5","3","5","5","5","5","3","3","5","5","3","3","3","3","3","708989653960622080","陈","192","Female","[""好我"",""坏我"",""好她"",""坏她""]","[""强我"",""弱我"",""强她"",""弱她""]","","","","","","","","","","","","","","","","","","","","","","","","","","","","","","feedback_test","","","","","","","",""
"1023","","j","psychophysics","70","326216","0.0-8.0-0.0-1.0-0.0-0.30","3","3","3","3","3","4","4","4","4","4","4","1","1","0","1","-1","0","0","0","4","4","2","4","4","4","4","4","4","4","5","5","5","5","5","4","4","5","5","5","3","3","5","5","3","3","5","5","3","3","3","5","3","4","3","3","3","3","4","3","3","5","3","3","5","3","5","5","5","5","3","3","5","5","3","3","3","3","3","708989653960622080","陈","192","Female","[""好我"",""坏我"",""好她"",""坏她""]","[""强我"",""弱我"",""强她"",""弱她""]","","","","","","","","nonmatch","","","","","","","","","","key","j","16.679791666666762","1280","716","j","true","nonmatch","img/square.png","好我","坏我","prac_ALT2_moral","practice_moral","","","","","","","",""
"null","<span style='color:GreenYellow; font-size: 70px;'>正确! </span>","null","html-keyboard-response","71","326716","0.0-8.0-0.0-1.0-0.0-1.30","3","3","3","3","3","4","4","4","4","4","4","1","1","0","1","-1","0","0","0","4","4","2","4","4","4","4","4","4","4","5","5","5","5","5","4","4","5","5","5","3","3","5","5","3","3","5","5","3","3","3","5","3","4","3","3","3","3","4","3","3","5","3","3","5","3","5","5","5","5","3","3","5","5","3","3","3","3","3","708989653960622080","陈","192","Female","[""好我"",""坏我"",""好她"",""坏她""]","[""强我"",""弱我"",""强她"",""弱她""]","","","","","","","","","","","","","","","","","","","","","","","","","","","","","","feedback_test","","","","","","","",""
"786","","j","psychophysics","72","328504","0.0-8.0-0.0-1.0-0.0-0.31","3","3","3","3","3","4","4","4","4","4","4","1","1","0","1","-1","0","0","0","4","4","2","4","4","4","4","4","4","4","5","5","5","5","5","4","4","5","5","5","3","3","5","5","3","3","5","5","3","3","3","5","3","4","3","3","3","3","4","3","3","5","3","3","5","3","5","5","5","5","3","3","5","5","3","3","3","3","3","708989653960622080","陈","192","Female","[""好我"",""坏我"",""好她"",""坏她""]","[""强我"",""弱我"",""强她"",""弱她""]","","","","","","","","nonmatch","","","","","","","","","","key","j","16.680509433962452","1280","716","j","true","nonmatch","img/hexagon.png","坏我","好她","prac_ALT2_moral","practice_moral","","","","","","","",""
"null","<span style='color:GreenYellow; font-size: 70px;'>正确! </span>","null","html-keyboard-response","73","329005","0.0-8.0-0.0-1.0-0.0-1.31","3","3","3","3","3","4","4","4","4","4","4","1","1","0","1","-1","0","0","0","4","4","2","4","4","4","4","4","4","4","5","5","5","5","5","4","4","5","5","5","3","3","5","5","3","3","5","5","3","3","3","5","3","4","3","3","3","3","4","3","3","5","3","3","5","3","5","5","5","5","3","3","5","5","3","3","3","3","3","708989653960622080","陈","192","Female","[""好我"",""坏我"",""好她"",""坏她""]","[""强我"",""弱我"",""强她"",""弱她""]","","","","","","","","","","","","","","","","","","","","","","","","","","","","","","feedback_test","","","","","","","",""
"913","","f","psychophysics","74","330920","0.0-8.0-0.0-1.0-0.0-0.32","3","3","3","3","3","4","4","4","4","4","4","1","1","0","1","-1","0","0","0","4","4","2","4","4","4","4","4","4","4","5","5","5","5","5","4","4","5","5","5","3","3","5","5","3","3","5","5","3","3","3","5","3","4","3","3","3","3","4","3","3","5","3","3","5","3","5","5","5","5","3","3","5","5","3","3","3","3","3","708989653960622080","陈","192","Female","[""好我"",""坏我"",""好她"",""坏她""]","[""强我"",""弱我"",""强她"",""弱她""]","","","","","","","","match","","","","","","","","","","key","f","16.68057894736851","1280","716","f","true","match","img/square.png","坏我","坏我","prac_ALT2_moral","practice_moral","","","","","","","",""
"null","<span style='color:GreenYellow; font-size: 70px;'>正确! </span>","null","html-keyboard-response","75","331422","0.0-8.0-0.0-1.0-0.0-1.32","3","3","3","3","3","4","4","4","4","4","4","1","1","0","1","-1","0","0","0","4","4","2","4","4","4","4","4","4","4","5","5","5","5","5","4","4","5","5","5","3","3","5","5","3","3","5","5","3","3","3","5","3","4","3","3","3","3","4","3","3","5","3","3","5","3","5","5","5","5","3","3","5","5","3","3","3","3","3","708989653960622080","陈","192","Female","[""好我"",""坏我"",""好她"",""坏她""]","[""强我"",""弱我"",""强她"",""弱她""]","","","","","","","","","","","","","","","","","","","","","","","","","","","","","","feedback_test","","","","","","","",""
"1153","","j","psychophysics","76","333576","0.0-8.0-0.0-1.0-0.0-0.33","3","3","3","3","3","4","4","4","4","4","4","1","1","0","1","-1","0","0","0","4","4","2","4","4","4","4","4","4","4","5","5","5","5","5","4","4","5","5","5","3","3","5","5","3","3","5","5","3","3","3","5","3","4","3","3","3","3","4","3","3","5","3","3","5","3","5","5","5","5","3","3","5","5","3","3","3","3","3","708989653960622080","陈","192","Female","[""好我"",""坏我"",""好她"",""坏她""]","[""强我"",""弱我"",""强她"",""弱她""]","","","","","","","","nonmatch","","","","","","","","","","key","j","16.68044531250007","1280","716","j","true","nonmatch","img/diamond.png","坏她","好我","prac_ALT2_moral","practice_moral","","","","","","","",""
"null","<span style='color:GreenYellow; font-size: 70px;'>正确! </span>","null","html-keyboard-response","77","334076","0.0-8.0-0.0-1.0-0.0-1.33","3","3","3","3","3","4","4","4","4","4","4","1","1","0","1","-1","0","0","0","4","4","2","4","4","4","4","4","4","4","5","5","5","5","5","4","4","5","5","5","3","3","5","5","3","3","5","5","3","3","3","5","3","4","3","3","3","3","4","3","3","5","3","3","5","3","5","5","5","5","3","3","5","5","3","3","3","3","3","708989653960622080","陈","192","Female","[""好我"",""坏我"",""好她"",""坏她""]","[""强我"",""弱我"",""强她"",""弱她""]","","","","","","","","","","","","","","","","","","","","","","","","","","","","","","feedback_test","","","","","","","",""
"1074","","f","psychophysics","78","336152","0.0-8.0-0.0-1.0-0.0-0.34","3","3","3","3","3","4","4","4","4","4","4","1","1","0","1","-1","0","0","0","4","4","2","4","4","4","4","4","4","4","5","5","5","5","5","4","4","5","5","5","3","3","5","5","3","3","5","5","3","3","3","5","3","4","3","3","3","3","4","3","3","5","3","3","5","3","5","5","5","5","3","3","5","5","3","3","3","3","3","708989653960622080","陈","192","Female","[""好我"",""坏我"",""好她"",""坏她""]","[""强我"",""弱我"",""强她"",""弱她""]","","","","","","","","match","","","","","","","","","","key","f","16.680544715447112","1280","716","f","true","match","img/diamond.png","好我","好我","prac_ALT2_moral","practice_moral","","","","","","","",""
"null","<span style='color:GreenYellow; font-size: 70px;'>正确! </span>","null","html-keyboard-response","79","336653","0.0-8.0-0.0-1.0-0.0-1.34","3","3","3","3","3","4","4","4","4","4","4","1","1","0","1","-1","0","0","0","4","4","2","4","4","4","4","4","4","4","5","5","5","5","5","4","4","5","5","5","3","3","5","5","3","3","5","5","3","3","3","5","3","4","3","3","3","3","4","3","3","5","3","3","5","3","5","5","5","5","3","3","5","5","3","3","3","3","3","708989653960622080","陈","192","Female","[""好我"",""坏我"",""好她"",""坏她""]","[""强我"",""弱我"",""强她"",""弱她""]","","","","","","","","","","","","","","","","","","","","","","","","","","","","","","feedback_test","","","","","","","",""
"978","","f","psychophysics","80","338632","0.0-8.0-0.0-1.0-0.0-0.35","3","3","3","3","3","4","4","4","4","4","4","1","1","0","1","-1","0","0","0","4","4","2","4","4","4","4","4","4","4","5","5","5","5","5","4","4","5","5","5","3","3","5","5","3","3","5","5","3","3","3","5","3","4","3","3","3","3","4","3","3","5","3","3","5","3","5","5","5","5","3","3","5","5","3","3","3","3","3","708989653960622080","陈","192","Female","[""好我"",""坏我"",""好她"",""坏她""]","[""强我"",""弱我"",""强她"",""弱她""]","","","","","","","","match","","","","","","","","","","key","f","16.680350427350138","1280","716","f","true","match","img/hexagon.png","好她","好她","prac_ALT2_moral","practice_moral","","","","","","","",""
"null","<span style='color:GreenYellow; font-size: 70px;'>正确! </span>","null","html-keyboard-response","81","339133","0.0-8.0-0.0-1.0-0.0-1.35","3","3","3","3","3","4","4","4","4","4","4","1","1","0","1","-1","0","0","0","4","4","2","4","4","4","4","4","4","4","5","5","5","5","5","4","4","5","5","5","3","3","5","5","3","3","5","5","3","3","3","5","3","4","3","3","3","3","4","3","3","5","3","3","5","3","5","5","5","5","3","3","5","5","3","3","3","3","3","708989653960622080","陈","192","Female","[""好我"",""坏我"",""好她"",""坏她""]","[""强我"",""弱我"",""强她"",""弱她""]","","","","","","","","","","","","","","","","","","","","","","","","","","","","","","feedback_test","","","","","","","",""
"730","","f","psychophysics","82","340864","0.0-8.0-0.0-1.0-0.0-0.36","3","3","3","3","3","4","4","4","4","4","4","1","1","0","1","-1","0","0","0","4","4","2","4","4","4","4","4","4","4","5","5","5","5","5","4","4","5","5","5","3","3","5","5","3","3","5","5","3","3","3","5","3","4","3","3","3","3","4","3","3","5","3","3","5","3","5","5","5","5","3","3","5","5","3","3","3","3","3","708989653960622080","陈","192","Female","[""好我"",""坏我"",""好她"",""坏她""]","[""强我"",""弱我"",""强她"",""弱她""]","","","","","","","","match","","","","","","","","","","key","f","16.679912621358824","1280","716","f","true","match","img/hexagon.png","好她","好她","prac_ALT2_moral","practice_moral","","","","","","","",""
"null","<span style='color:GreenYellow; font-size: 70px;'>正确! </span>","null","html-keyboard-response","83","341365","0.0-8.0-0.0-1.0-0.0-1.36","3","3","3","3","3","4","4","4","4","4","4","1","1","0","1","-1","0","0","0","4","4","2","4","4","4","4","4","4","4","5","5","5","5","5","4","4","5","5","5","3","3","5","5","3","3","5","5","3","3","3","5","3","4","3","3","3","3","4","3","3","5","3","3","5","3","5","5","5","5","3","3","5","5","3","3","3","3","3","708989653960622080","陈","192","Female","[""好我"",""坏我"",""好她"",""坏她""]","[""强我"",""弱我"",""强她"",""弱她""]","","","","","","","","","","","","","","","","","","","","","","","","","","","","","","feedback_test","","","","","","","",""
"905","","f","psychophysics","84","343272","0.0-8.0-0.0-1.0-0.0-0.37","3","3","3","3","3","4","4","4","4","4","4","1","1","0","1","-1","0","0","0","4","4","2","4","4","4","4","4","4","4","5","5","5","5","5","4","4","5","5","5","3","3","5","5","3","3","5","5","3","3","3","5","3","4","3","3","3","3","4","3","3","5","3","3","5","3","5","5","5","5","3","3","5","5","3","3","3","3","3","708989653960622080","陈","192","Female","[""好我"",""坏我"",""好她"",""坏她""]","[""强我"",""弱我"",""强她"",""弱她""]","","","","","","","","match","","","","","","","","","","key","f","16.68065486725706","1280","716","f","true","match","img/square.png","坏我","坏我","prac_ALT2_moral","practice_moral","","","","","","","",""
"null","<span style='color:GreenYellow; font-size: 70px;'>正确! </span>","null","html-keyboard-response","85","343772","0.0-8.0-0.0-1.0-0.0-1.37","3","3","3","3","3","4","4","4","4","4","4","1","1","0","1","-1","0","0","0","4","4","2","4","4","4","4","4","4","4","5","5","5","5","5","4","4","5","5","5","3","3","5","5","3","3","5","5","3","3","3","5","3","4","3","3","3","3","4","3","3","5","3","3","5","3","5","5","5","5","3","3","5","5","3","3","3","3","3","708989653960622080","陈","192","Female","[""好我"",""坏我"",""好她"",""坏她""]","[""强我"",""弱我"",""强她"",""弱她""]","","","","","","","","","","","","","","","","","","","","","","","","","","","","","","feedback_test","","","","","","","",""
"770","","j","psychophysics","86","345544","0.0-8.0-0.0-1.0-0.0-0.38","3","3","3","3","3","4","4","4","4","4","4","1","1","0","1","-1","0","0","0","4","4","2","4","4","4","4","4","4","4","5","5","5","5","5","4","4","5","5","5","3","3","5","5","3","3","5","5","3","3","3","5","3","4","3","3","3","3","4","3","3","5","3","3","5","3","5","5","5","5","3","3","5","5","3","3","3","3","3","708989653960622080","陈","192","Female","[""好我"",""坏我"",""好她"",""坏她""]","[""强我"",""弱我"",""强她"",""弱她""]","","","","","","","","nonmatch","","","","","","","","","","key","j","16.68366037735843","1280","716","j","true","nonmatch","img/hexagon.png","好我","好她","prac_ALT2_moral","practice_moral","","","","","","","",""
"null","<span style='color:GreenYellow; font-size: 70px;'>正确! </span>","null","html-keyboard-response","87","346044","0.0-8.0-0.0-1.0-0.0-1.38","3","3","3","3","3","4","4","4","4","4","4","1","1","0","1","-1","0","0","0","4","4","2","4","4","4","4","4","4","4","5","5","5","5","5","4","4","5","5","5","3","3","5","5","3","3","5","5","3","3","3","5","3","4","3","3","3","3","4","3","3","5","3","3","5","3","5","5","5","5","3","3","5","5","3","3","3","3","3","708989653960622080","陈","192","Female","[""好我"",""坏我"",""好她"",""坏她""]","[""强我"",""弱我"",""强她"",""弱她""]","","","","","","","","","","","","","","","","","","","","","","","","","","","","","","feedback_test","","","","","","","",""
"null","","null","psychophysics","88","348249","0.0-8.0-0.0-1.0-0.0-0.39","3","3","3","3","3","4","4","4","4","4","4","1","1","0","1","-1","0","0","0","4","4","2","4","4","4","4","4","4","4","5","5","5","5","5","4","4","5","5","5","3","3","5","5","3","3","5","5","3","3","3","5","3","4","3","3","3","3","4","3","3","5","3","3","5","3","5","5","5","5","3","3","5","5","3","3","3","3","3","708989653960622080","陈","192","Female","[""好我"",""坏我"",""好她"",""坏她""]","[""强我"",""弱我"",""强她"",""弱她""]","","","","","","","","null","","","","","","","","","","key","null","16.680083969465763","1280","716","j","false","nonmatch","img/diamond.png","好她","好我","prac_ALT2_moral","practice_moral","","","","","","","",""
"null","<span class='add_' style='color:yellow; font-size: 70px;'> 太慢! </span>","null","html-keyboard-response","89","348750","0.0-8.0-0.0-1.0-0.0-1.39","3","3","3","3","3","4","4","4","4","4","4","1","1","0","1","-1","0","0","0","4","4","2","4","4","4","4","4","4","4","5","5","5","5","5","4","4","5","5","5","3","3","5","5","3","3","5","5","3","3","3","5","3","4","3","3","3","3","4","3","3","5","3","3","5","3","5","5","5","5","3","3","5","5","3","3","3","3","3","708989653960622080","陈","192","Female","[""好我"",""坏我"",""好她"",""坏她""]","[""强我"",""弱我"",""强她"",""弱她""]","","","","","","","","","","","","","","","","","","","","","","","","","","","","","","feedback_test","","","","","","","",""
"928","","f","psychophysics","90","350680","0.0-8.0-0.0-1.0-0.0-0.40","3","3","3","3","3","4","4","4","4","4","4","1","1","0","1","-1","0","0","0","4","4","2","4","4","4","4","4","4","4","5","5","5","5","5","4","4","5","5","5","3","3","5","5","3","3","5","5","3","3","3","5","3","4","3","3","3","3","4","3","3","5","3","3","5","3","5","5","5","5","3","3","5","5","3","3","3","3","3","708989653960622080","陈","192","Female","[""好我"",""坏我"",""好她"",""坏她""]","[""强我"",""弱我"",""强她"",""弱她""]","","","","","","","","match","","","","","","","","","","key","f","16.68007017543903","1280","716","f","true","match","img/hexagon.png","好她","好她","prac_ALT2_moral","practice_moral","","","","","","","",""
"null","<span style='color:GreenYellow; font-size: 70px;'>正确! </span>","null","html-keyboard-response","91","351181","0.0-8.0-0.0-1.0-0.0-1.40","3","3","3","3","3","4","4","4","4","4","4","1","1","0","1","-1","0","0","0","4","4","2","4","4","4","4","4","4","4","5","5","5","5","5","4","4","5","5","5","3","3","5","5","3","3","5","5","3","3","3","5","3","4","3","3","3","3","4","3","3","5","3","3","5","3","5","5","5","5","3","3","5","5","3","3","3","3","3","708989653960622080","陈","192","Female","[""好我"",""坏我"",""好她"",""坏她""]","[""强我"",""弱我"",""强她"",""弱她""]","","","","","","","","","","","","","","","","","","","","","","","","","","","","","","feedback_test","","","","","","","",""
"1058","","j","psychophysics","92","353240","0.0-8.0-0.0-1.0-0.0-0.41","3","3","3","3","3","4","4","4","4","4","4","1","1","0","1","-1","0","0","0","4","4","2","4","4","4","4","4","4","4","5","5","5","5","5","4","4","5","5","5","3","3","5","5","3","3","5","5","3","3","3","5","3","4","3","3","3","3","4","3","3","5","3","3","5","3","5","5","5","5","3","3","5","5","3","3","3","3","3","708989653960622080","陈","192","Female","[""好我"",""坏我"",""好她"",""坏她""]","[""强我"",""弱我"",""强她"",""弱她""]","","","","","","","","nonmatch","","","","","","","","","","key","j","16.682262295081763","1280","716","j","true","nonmatch","img/hexagon.png","坏她","好她","prac_ALT2_moral","practice_moral","","","","","","","",""
"null","<span style='color:GreenYellow; font-size: 70px;'>正确! </span>","null","html-keyboard-response","93","353740","0.0-8.0-0.0-1.0-0.0-1.41","3","3","3","3","3","4","4","4","4","4","4","1","1","0","1","-1","0","0","0","4","4","2","4","4","4","4","4","4","4","5","5","5","5","5","4","4","5","5","5","3","3","5","5","3","3","5","5","3","3","3","5","3","4","3","3","3","3","4","3","3","5","3","3","5","3","5","5","5","5","3","3","5","5","3","3","3","3","3","708989653960622080","陈","192","Female","[""好我"",""坏我"",""好她"",""坏她""]","[""强我"",""弱我"",""强她"",""弱她""]","","","","","","","","","","","","","","","","","","","","","","","","","","","","","","feedback_test","","","","","","","",""
"858","","j","psychophysics","94","355600","0.0-8.0-0.0-1.0-0.0-0.42","3","3","3","3","3","4","4","4","4","4","4","1","1","0","1","-1","0","0","0","4","4","2","4","4","4","4","4","4","4","5","5","5","5","5","4","4","5","5","5","3","3","5","5","3","3","5","5","3","3","3","5","3","4","3","3","3","3","4","3","3","5","3","3","5","3","5","5","5","5","3","3","5","5","3","3","3","3","3","708989653960622080","陈","192","Female","[""好我"",""坏我"",""好她"",""坏她""]","[""强我"",""弱我"",""强她"",""弱她""]","","","","","","","","nonmatch","","","","","","","","","","key","j","16.680281818181868","1280","716","j","true","nonmatch","img/ellipse.png","好她","坏她","prac_ALT2_moral","practice_moral","","","","","","","",""
"null","<span style='color:GreenYellow; font-size: 70px;'>正确! </span>","null","html-keyboard-response","95","356102","0.0-8.0-0.0-1.0-0.0-1.42","3","3","3","3","3","4","4","4","4","4","4","1","1","0","1","-1","0","0","0","4","4","2","4","4","4","4","4","4","4","5","5","5","5","5","4","4","5","5","5","3","3","5","5","3","3","5","5","3","3","3","5","3","4","3","3","3","3","4","3","3","5","3","3","5","3","5","5","5","5","3","3","5","5","3","3","3","3","3","708989653960622080","陈","192","Female","[""好我"",""坏我"",""好她"",""坏她""]","[""强我"",""弱我"",""强她"",""弱她""]","","","","","","","","","","","","","","","","","","","","","","","","","","","","","","feedback_test","","","","","","","",""
"833","","f","psychophysics","96","357936","0.0-8.0-0.0-1.0-0.0-0.43","3","3","3","3","3","4","4","4","4","4","4","1","1","0","1","-1","0","0","0","4","4","2","4","4","4","4","4","4","4","5","5","5","5","5","4","4","5","5","5","3","3","5","5","3","3","5","5","3","3","3","5","3","4","3","3","3","3","4","3","3","5","3","3","5","3","5","5","5","5","3","3","5","5","3","3","3","3","3","708989653960622080","陈","192","Female","[""好我"",""坏我"",""好她"",""坏她""]","[""强我"",""弱我"",""强她"",""弱她""]","","","","","","","","match","","","","","","","","","","key","f","16.680564814814716","1280","716","f","true","match","img/ellipse.png","坏她","坏她","prac_ALT2_moral","practice_moral","","","","","","","",""
"null","<span style='color:GreenYellow; font-size: 70px;'>正确! </span>","null","html-keyboard-response","97","358437","0.0-8.0-0.0-1.0-0.0-1.43","3","3","3","3","3","4","4","4","4","4","4","1","1","0","1","-1","0","0","0","4","4","2","4","4","4","4","4","4","4","5","5","5","5","5","4","4","5","5","5","3","3","5","5","3","3","5","5","3","3","3","5","3","4","3","3","3","3","4","3","3","5","3","3","5","3","5","5","5","5","3","3","5","5","3","3","3","3","3","708989653960622080","陈","192","Female","[""好我"",""坏我"",""好她"",""坏她""]","[""强我"",""弱我"",""强她"",""弱她""]","","","","","","","","","","","","","","","","","","","","","","","","","","","","","","feedback_test","","","","","","","",""
"914","","f","psychophysics","98","360352","0.0-8.0-0.0-1.0-0.0-0.44","3","3","3","3","3","4","4","4","4","4","4","1","1","0","1","-1","0","0","0","4","4","2","4","4","4","4","4","4","4","5","5","5","5","5","4","4","5","5","5","3","3","5","5","3","3","5","5","3","3","3","5","3","4","3","3","3","3","4","3","3","5","3","3","5","3","5","5","5","5","3","3","5","5","3","3","3","3","3","708989653960622080","陈","192","Female","[""好我"",""坏我"",""好她"",""坏她""]","[""强我"",""弱我"",""强她"",""弱她""]","","","","","","","","match","","","","","","","","","","key","f","16.677946902654934","1280","716","f","true","match","img/diamond.png","好我","好我","prac_ALT2_moral","practice_moral","","","","","","","",""
"null","<span style='color:GreenYellow; font-size: 70px;'>正确! </span>","null","html-keyboard-response","99","360853","0.0-8.0-0.0-1.0-0.0-1.44","3","3","3","3","3","4","4","4","4","4","4","1","1","0","1","-1","0","0","0","4","4","2","4","4","4","4","4","4","4","5","5","5","5","5","4","4","5","5","5","3","3","5","5","3","3","5","5","3","3","3","5","3","4","3","3","3","3","4","3","3","5","3","3","5","3","5","5","5","5","3","3","5","5","3","3","3","3","3","708989653960622080","陈","192","Female","[""好我"",""坏我"",""好她"",""坏她""]","[""强我"",""弱我"",""强她"",""弱她""]","","","","","","","","","","","","","","","","","","","","","","","","","","","","","","feedback_test","","","","","","","",""
"770","","j","psychophysics","100","362624","0.0-8.0-0.0-1.0-0.0-0.45","3","3","3","3","3","4","4","4","4","4","4","1","1","0","1","-1","0","0","0","4","4","2","4","4","4","4","4","4","4","5","5","5","5","5","4","4","5","5","5","3","3","5","5","3","3","5","5","3","3","3","5","3","4","3","3","3","3","4","3","3","5","3","3","5","3","5","5","5","5","3","3","5","5","3","3","3","3","3","708989653960622080","陈","192","Female","[""好我"",""坏我"",""好她"",""坏她""]","[""强我"",""弱我"",""强她"",""弱她""]","","","","","","","","nonmatch","","","","","","","","","","key","j","16.6806886792452","1280","716","j","true","nonmatch","img/diamond.png","坏我","好我","prac_ALT2_moral","practice_moral","","","","","","","",""
"null","<span style='color:GreenYellow; font-size: 70px;'>正确! </span>","null","html-keyboard-response","101","363124","0.0-8.0-0.0-1.0-0.0-1.45","3","3","3","3","3","4","4","4","4","4","4","1","1","0","1","-1","0","0","0","4","4","2","4","4","4","4","4","4","4","5","5","5","5","5","4","4","5","5","5","3","3","5","5","3","3","5","5","3","3","3","5","3","4","3","3","3","3","4","3","3","5","3","3","5","3","5","5","5","5","3","3","5","5","3","3","3","3","3","708989653960622080","陈","192","Female","[""好我"",""坏我"",""好她"",""坏她""]","[""强我"",""弱我"",""强她"",""弱她""]","","","","","","","","","","","","","","","","","","","","","","","","","","","","","","feedback_test","","","","","","","",""
"923","","j","psychophysics","102","365048","0.0-8.0-0.0-1.0-0.0-0.46","3","3","3","3","3","4","4","4","4","4","4","1","1","0","1","-1","0","0","0","4","4","2","4","4","4","4","4","4","4","5","5","5","5","5","4","4","5","5","5","3","3","5","5","3","3","5","5","3","3","3","5","3","4","3","3","3","3","4","3","3","5","3","3","5","3","5","5","5","5","3","3","5","5","3","3","3","3","3","708989653960622080","陈","192","Female","[""好我"",""坏我"",""好她"",""坏她""]","[""强我"",""弱我"",""强她"",""弱她""]","","","","","","","","nonmatch","","","","","","","","","","key","j","16.679956140351","1280","716","j","true","nonmatch","img/square.png","好她","坏我","prac_ALT2_moral","practice_moral","","","","","","","",""
"null","<span style='color:GreenYellow; font-size: 70px;'>正确! </span>","null","html-keyboard-response","103","365549","0.0-8.0-0.0-1.0-0.0-1.46","3","3","3","3","3","4","4","4","4","4","4","1","1","0","1","-1","0","0","0","4","4","2","4","4","4","4","4","4","4","5","5","5","5","5","4","4","5","5","5","3","3","5","5","3","3","5","5","3","3","3","5","3","4","3","3","3","3","4","3","3","5","3","3","5","3","5","5","5","5","3","3","5","5","3","3","3","3","3","708989653960622080","陈","192","Female","[""好我"",""坏我"",""好她"",""坏她""]","[""强我"",""弱我"",""强她"",""弱她""]","","","","","","","","","","","","","","","","","","","","","","","","","","","","","","feedback_test","","","","","","","",""
"1032","","f","psychophysics","104","367583","0.0-8.0-0.0-1.0-0.0-0.47","3","3","3","3","3","4","4","4","4","4","4","1","1","0","1","-1","0","0","0","4","4","2","4","4","4","4","4","4","4","5","5","5","5","5","4","4","5","5","5","3","3","5","5","3","3","5","5","3","3","3","5","3","4","3","3","3","3","4","3","3","5","3","3","5","3","5","5","5","5","3","3","5","5","3","3","3","3","3","708989653960622080","陈","192","Female","[""好我"",""坏我"",""好她"",""坏她""]","[""强我"",""弱我"",""强她"",""弱她""]","","","","","","","","match","","","","","","","","","","key","f","16.68034710743838","1280","716","f","true","match","img/ellipse.png","坏她","坏她","prac_ALT2_moral","practice_moral","","","","","","","",""
"null","<span style='color:GreenYellow; font-size: 70px;'>正确! </span>","null","html-keyboard-response","105","368084","0.0-8.0-0.0-1.0-0.0-1.47","3","3","3","3","3","4","4","4","4","4","4","1","1","0","1","-1","0","0","0","4","4","2","4","4","4","4","4","4","4","5","5","5","5","5","4","4","5","5","5","3","3","5","5","3","3","5","5","3","3","3","5","3","4","3","3","3","3","4","3","3","5","3","3","5","3","5","5","5","5","3","3","5","5","3","3","3","3","3","708989653960622080","陈","192","Female","[""好我"",""坏我"",""好她"",""坏她""]","[""强我"",""弱我"",""强她"",""弱她""]","","","","","","","","","","","","","","","","","","","","","","","","","","","","","","feedback_test","","","","","","","",""
"2146","<style>.context{color:white; font-size: 35px; line-height:40px}</style>                            <div><p class='context'>您正确回答了81% 的试次。</p><p class='context'>您的平均反应时为957毫秒。</p><p class='context'>恭喜您完成练习。按空格键进入正式实验。</p><p class='footer' style='font-size: 35px; line-height:40px;'>请在进入正式实验实验之前将您的<span style='color: lightgreen;'>食指</span>放在电脑键盘的相应键位上进行按键。</p>"," ","html-keyboard-response","106","370232","0.0-8.0-0.0-2.0","3","3","3","3","3","4","4","4","4","4","4","1","1","0","1","-1","0","0","0","4","4","2","4","4","4","4","4","4","4","5","5","5","5","5","4","4","5","5","5","3","3","5","5","3","3","5","5","3","3","3","5","3","4","3","3","3","3","4","3","3","5","3","3","5","3","5","5","5","5","3","3","5","5","3","3","3","3","3","708989653960622080","陈","192","Female","[""好我"",""坏我"",""好她"",""坏她""]","[""强我"",""弱我"",""强她"",""弱她""]","","","","","","","","","","","","","","","","","","","","","","","","","","","","","","","","","","","","","",""
"1239","
    <p style='color: white; font-size: 22px'>请您将手指放在按键上，准备进入正式的匹配任务。</p>
    <p> <div style = ""color: green""><按空格键进入下一阶段的匹配任务></div></p>
    "," ","html-keyboard-response","107","371472","0.0-8.0-0.0-3.0","3","3","3","3","3","4","4","4","4","4","4","1","1","0","1","-1","0","0","0","4","4","2","4","4","4","4","4","4","4","5","5","5","5","5","4","4","5","5","5","3","3","5","5","3","3","5","5","3","3","3","5","3","4","3","3","3","3","4","3","3","5","3","3","5","3","5","5","5","5","3","3","5","5","3","3","3","3","3","708989653960622080","陈","192","Female","[""好我"",""坏我"",""好她"",""坏她""]","[""强我"",""弱我"",""强她"",""弱她""]","","","","","","","","","","","","","","","","","","","","","","","","","","","","","","","","","","","","","",""
"982","","f","psychophysics","108","373456","0.0-8.0-0.0-4.0-0.0-0.0","3","3","3","3","3","4","4","4","4","4","4","1","1","0","1","-1","0","0","0","4","4","2","4","4","4","4","4","4","4","5","5","5","5","5","4","4","5","5","5","3","3","5","5","3","3","5","5","3","3","3","5","3","4","3","3","3","3","4","3","3","5","3","3","5","3","5","5","5","5","3","3","5","5","3","3","3","3","3","708989653960622080","陈","192","Female","[""好我"",""坏我"",""好她"",""坏她""]","[""强我"",""弱我"",""强她"",""弱她""]","","","","","","","","match","","","","","","","","","","key","f","16.68033050847441","1280","716","f","true","match","img/diamond.png","好我","好我","ALT2","moral","","","","","","","",""
"null","<span style='color:GreenYellow; font-size: 70px;'>正确! </span>","null","html-keyboard-response","109","373957","0.0-8.0-0.0-4.0-0.0-1.0","3","3","3","3","3","4","4","4","4","4","4","1","1","0","1","-1","0","0","0","4","4","2","4","4","4","4","4","4","4","5","5","5","5","5","4","4","5","5","5","3","3","5","5","3","3","5","5","3","3","3","5","3","4","3","3","3","3","4","3","3","5","3","3","5","3","5","5","5","5","3","3","5","5","3","3","3","3","3","708989653960622080","陈","192","Female","[""好我"",""坏我"",""好她"",""坏她""]","[""强我"",""弱我"",""强她"",""弱她""]","","","","","","","","","","","","","","","","","","","","","","","","","","","","","","feedback_test","","","","","","","",""
"1185","","j","psychophysics","110","376144","0.0-8.0-0.0-4.0-0.0-0.1","3","3","3","3","3","4","4","4","4","4","4","1","1","0","1","-1","0","0","0","4","4","2","4","4","4","4","4","4","4","5","5","5","5","5","4","4","5","5","5","3","3","5","5","3","3","5","5","3","3","3","5","3","4","3","3","3","3","4","3","3","5","3","3","5","3","5","5","5","5","3","3","5","5","3","3","3","3","3","708989653960622080","陈","192","Female","[""好我"",""坏我"",""好她"",""坏她""]","[""强我"",""弱我"",""强她"",""弱她""]","","","","","","","","nonmatch","","","","","","","","","","key","j","16.68246923076938","1280","716","j","true","nonmatch","img/diamond.png","坏我","好我","ALT2","moral","","","","","","","",""
"null","<span style='color:GreenYellow; font-size: 70px;'>正确! </span>","null","html-keyboard-response","111","376647","0.0-8.0-0.0-4.0-0.0-1.1","3","3","3","3","3","4","4","4","4","4","4","1","1","0","1","-1","0","0","0","4","4","2","4","4","4","4","4","4","4","5","5","5","5","5","4","4","5","5","5","3","3","5","5","3","3","5","5","3","3","3","5","3","4","3","3","3","3","4","3","3","5","3","3","5","3","5","5","5","5","3","3","5","5","3","3","3","3","3","708989653960622080","陈","192","Female","[""好我"",""坏我"",""好她"",""坏她""]","[""强我"",""弱我"",""强她"",""弱她""]","","","","","","","","","","","","","","","","","","","","","","","","","","","","","","feedback_test","","","","","","","",""
"791","","f","psychophysics","112","378439","0.0-8.0-0.0-4.0-0.0-0.2","3","3","3","3","3","4","4","4","4","4","4","1","1","0","1","-1","0","0","0","4","4","2","4","4","4","4","4","4","4","5","5","5","5","5","4","4","5","5","5","3","3","5","5","3","3","5","5","3","3","3","5","3","4","3","3","3","3","4","3","3","5","3","3","5","3","5","5","5","5","3","3","5","5","3","3","3","3","3","708989653960622080","陈","192","Female","[""好我"",""坏我"",""好她"",""坏她""]","[""强我"",""弱我"",""强她"",""弱她""]","","","","","","","","match","","","","","","","","","","key","f","16.68071962616822","1280","716","f","true","match","img/square.png","坏我","坏我","ALT2","moral","","","","","","","",""
"null","<span style='color:GreenYellow; font-size: 70px;'>正确! </span>","null","html-keyboard-response","113","378940","0.0-8.0-0.0-4.0-0.0-1.2","3","3","3","3","3","4","4","4","4","4","4","1","1","0","1","-1","0","0","0","4","4","2","4","4","4","4","4","4","4","5","5","5","5","5","4","4","5","5","5","3","3","5","5","3","3","5","5","3","3","3","5","3","4","3","3","3","3","4","3","3","5","3","3","5","3","5","5","5","5","3","3","5","5","3","3","3","3","3","708989653960622080","陈","192","Female","[""好我"",""坏我"",""好她"",""坏她""]","[""强我"",""弱我"",""强她"",""弱她""]","","","","","","","","","","","","","","","","","","","","","","","","","","","","","","feedback_test","","","","","","","",""
"1018","","j","psychophysics","114","380960","0.0-8.0-0.0-4.0-0.0-0.3","3","3","3","3","3","4","4","4","4","4","4","1","1","0","1","-1","0","0","0","4","4","2","4","4","4","4","4","4","4","5","5","5","5","5","4","4","5","5","5","3","3","5","5","3","3","5","5","3","3","3","5","3","4","3","3","3","3","4","3","3","5","3","3","5","3","5","5","5","5","3","3","5","5","3","3","3","3","3","708989653960622080","陈","192","Female","[""好我"",""坏我"",""好她"",""坏她""]","[""强我"",""弱我"",""强她"",""弱她""]","","","","","","","","nonmatch","","","","","","","","","","key","j","16.68006666666673","1280","716","f","false","match","img/ellipse.png","坏她","坏她","ALT2","moral","","","","","","","",""
"null","<span style='color:red; font-size: 70px;'>错误! </span>","null","html-keyboard-response","115","381462","0.0-8.0-0.0-4.0-0.0-1.3","3","3","3","3","3","4","4","4","4","4","4","1","1","0","1","-1","0","0","0","4","4","2","4","4","4","4","4","4","4","5","5","5","5","5","4","4","5","5","5","3","3","5","5","3","3","5","5","3","3","3","5","3","4","3","3","3","3","4","3","3","5","3","3","5","3","5","5","5","5","3","3","5","5","3","3","3","3","3","708989653960622080","陈","192","Female","[""好我"",""坏我"",""好她"",""坏她""]","[""强我"",""弱我"",""强她"",""弱她""]","","","","","","","","","","","","","","","","","","","","","","","","","","","","","","feedback_test","","","","","","","",""
"937","","j","psychophysics","116","383400","0.0-8.0-0.0-4.0-0.0-0.4","3","3","3","3","3","4","4","4","4","4","4","1","1","0","1","-1","0","0","0","4","4","2","4","4","4","4","4","4","4","5","5","5","5","5","4","4","5","5","5","3","3","5","5","3","3","5","5","3","3","3","5","3","4","3","3","3","3","4","3","3","5","3","3","5","3","5","5","5","5","3","3","5","5","3","3","3","3","3","708989653960622080","陈","192","Female","[""好我"",""坏我"",""好她"",""坏她""]","[""强我"",""弱我"",""强她"",""弱她""]","","","","","","","","nonmatch","","","","","","","","","","key","j","16.682608695652174","1280","716","j","true","nonmatch","img/square.png","好我","坏我","ALT2","moral","","","","","","","",""
"null","<span style='color:GreenYellow; font-size: 70px;'>正确! </span>","null","html-keyboard-response","117","383901","0.0-8.0-0.0-4.0-0.0-1.4","3","3","3","3","3","4","4","4","4","4","4","1","1","0","1","-1","0","0","0","4","4","2","4","4","4","4","4","4","4","5","5","5","5","5","4","4","5","5","5","3","3","5","5","3","3","5","5","3","3","3","5","3","4","3","3","3","3","4","3","3","5","3","3","5","3","5","5","5","5","3","3","5","5","3","3","3","3","3","708989653960622080","陈","192","Female","[""好我"",""坏我"",""好她"",""坏她""]","[""强我"",""弱我"",""强她"",""弱她""]","","","","","","","","","","","","","","","","","","","","","","","","","","","","","","feedback_test","","","","","","","",""
"858","","j","psychophysics","118","385760","0.0-8.0-0.0-4.0-0.0-0.5","3","3","3","3","3","4","4","4","4","4","4","1","1","0","1","-1","0","0","0","4","4","2","4","4","4","4","4","4","4","5","5","5","5","5","4","4","5","5","5","3","3","5","5","3","3","5","5","3","3","3","5","3","4","3","3","3","3","4","3","3","5","3","3","5","3","5","5","5","5","3","3","5","5","3","3","3","3","3","708989653960622080","陈","192","Female","[""好我"",""坏我"",""好她"",""坏她""]","[""强我"",""弱我"",""强她"",""弱她""]","","","","","","","","nonmatch","","","","","","","","","","key","j","16.680324324324353","1280","716","j","true","nonmatch","img/hexagon.png","坏我","好她","ALT2","moral","","","","","","","",""
"null","<span style='color:GreenYellow; font-size: 70px;'>正确! </span>","null","html-keyboard-response","119","386261","0.0-8.0-0.0-4.0-0.0-1.5","3","3","3","3","3","4","4","4","4","4","4","1","1","0","1","-1","0","0","0","4","4","2","4","4","4","4","4","4","4","5","5","5","5","5","4","4","5","5","5","3","3","5","5","3","3","5","5","3","3","3","5","3","4","3","3","3","3","4","3","3","5","3","3","5","3","5","5","5","5","3","3","5","5","3","3","3","3","3","708989653960622080","陈","192","Female","[""好我"",""坏我"",""好她"",""坏她""]","[""强我"",""弱我"",""强她"",""弱她""]","","","","","","","","","","","","","","","","","","","","","","","","","","","","","","feedback_test","","","","","","","",""
"841","","f","psychophysics","120","388104","0.0-8.0-0.0-4.0-0.0-0.6","3","3","3","3","3","4","4","4","4","4","4","1","1","0","1","-1","0","0","0","4","4","2","4","4","4","4","4","4","4","5","5","5","5","5","4","4","5","5","5","3","3","5","5","3","3","5","5","3","3","3","5","3","4","3","3","3","3","4","3","3","5","3","3","5","3","5","5","5","5","3","3","5","5","3","3","3","3","3","708989653960622080","陈","192","Female","[""好我"",""坏我"",""好她"",""坏她""]","[""强我"",""弱我"",""强她"",""弱她""]","","","","","","","","match","","","","","","","","","","key","f","16.68006422018329","1280","716","f","true","match","img/ellipse.png","坏她","坏她","ALT2","moral","","","","","","","",""
"null","<span style='color:GreenYellow; font-size: 70px;'>正确! </span>","null","html-keyboard-response","121","388604","0.0-8.0-0.0-4.0-0.0-1.6","3","3","3","3","3","4","4","4","4","4","4","1","1","0","1","-1","0","0","0","4","4","2","4","4","4","4","4","4","4","5","5","5","5","5","4","4","5","5","5","3","3","5","5","3","3","5","5","3","3","3","5","3","4","3","3","3","3","4","3","3","5","3","3","5","3","5","5","5","5","3","3","5","5","3","3","3","3","3","708989653960622080","陈","192","Female","[""好我"",""坏我"",""好她"",""坏她""]","[""强我"",""弱我"",""强她"",""弱她""]","","","","","","","","","","","","","","","","","","","","","","","","","","","","","","feedback_test","","","","","","","",""
"818","","f","psychophysics","122","390423","0.0-8.0-0.0-4.0-0.0-0.7","3","3","3","3","3","4","4","4","4","4","4","1","1","0","1","-1","0","0","0","4","4","2","4","4","4","4","4","4","4","5","5","5","5","5","4","4","5","5","5","3","3","5","5","3","3","5","5","3","3","3","5","3","4","3","3","3","3","4","3","3","5","3","3","5","3","5","5","5","5","3","3","5","5","3","3","3","3","3","708989653960622080","陈","192","Female","[""好我"",""坏我"",""好她"",""坏她""]","[""强我"",""弱我"",""强她"",""弱她""]","","","","","","","","match","","","","","","","","","","key","f","16.680666666666554","1280","716","f","true","match","img/square.png","坏我","坏我","ALT2","moral","","","","","","","",""
"null","<span style='color:GreenYellow; font-size: 70px;'>正确! </span>","null","html-keyboard-response","123","390924","0.0-8.0-0.0-4.0-0.0-1.7","3","3","3","3","3","4","4","4","4","4","4","1","1","0","1","-1","0","0","0","4","4","2","4","4","4","4","4","4","4","5","5","5","5","5","4","4","5","5","5","3","3","5","5","3","3","5","5","3","3","3","5","3","4","3","3","3","3","4","3","3","5","3","3","5","3","5","5","5","5","3","3","5","5","3","3","3","3","3","708989653960622080","陈","192","Female","[""好我"",""坏我"",""好她"",""坏她""]","[""强我"",""弱我"",""强她"",""弱她""]","","","","","","","","","","","","","","","","","","","","","","","","","","","","","","feedback_test","","","","","","","",""
"809","","j","psychophysics","124","392735","0.0-8.0-0.0-4.0-0.0-0.8","3","3","3","3","3","4","4","4","4","4","4","1","1","0","1","-1","0","0","0","4","4","2","4","4","4","4","4","4","4","5","5","5","5","5","4","4","5","5","5","3","3","5","5","3","3","5","5","3","3","3","5","3","4","3","3","3","3","4","3","3","5","3","3","5","3","5","5","5","5","3","3","5","5","3","3","3","3","3","708989653960622080","陈","192","Female","[""好我"",""坏我"",""好她"",""坏她""]","[""强我"",""弱我"",""强她"",""弱她""]","","","","","","","","nonmatch","","","","","","","","","","key","j","16.68285185185151","1280","716","j","true","nonmatch","img/ellipse.png","好我","坏她","ALT2","moral","","","","","","","",""
"null","<span style='color:GreenYellow; font-size: 70px;'>正确! </span>","null","html-keyboard-response","125","393236","0.0-8.0-0.0-4.0-0.0-1.8","3","3","3","3","3","4","4","4","4","4","4","1","1","0","1","-1","0","0","0","4","4","2","4","4","4","4","4","4","4","5","5","5","5","5","4","4","5","5","5","3","3","5","5","3","3","5","5","3","3","3","5","3","4","3","3","3","3","4","3","3","5","3","3","5","3","5","5","5","5","3","3","5","5","3","3","3","3","3","708989653960622080","陈","192","Female","[""好我"",""坏我"",""好她"",""坏她""]","[""强我"",""弱我"",""强她"",""弱她""]","","","","","","","","","","","","","","","","","","","","","","","","","","","","","","feedback_test","","","","","","","",""
"1123","","f","psychophysics","126","395359","0.0-8.0-0.0-4.0-0.0-0.9","3","3","3","3","3","4","4","4","4","4","4","1","1","0","1","-1","0","0","0","4","4","2","4","4","4","4","4","4","4","5","5","5","5","5","4","4","5","5","5","3","3","5","5","3","3","5","5","3","3","3","5","3","4","3","3","3","3","4","3","3","5","3","3","5","3","5","5","5","5","3","3","5","5","3","3","3","3","3","708989653960622080","陈","192","Female","[""好我"",""坏我"",""好她"",""坏她""]","[""强我"",""弱我"",""强她"",""弱她""]","","","","","","","","match","","","","","","","","","","key","f","16.68227777777781","1280","716","j","false","nonmatch","img/diamond.png","好她","好我","ALT2","moral","","","","","","","",""
"null","<span style='color:red; font-size: 70px;'>错误! </span>","null","html-keyboard-response","127","395861","0.0-8.0-0.0-4.0-0.0-1.9","3","3","3","3","3","4","4","4","4","4","4","1","1","0","1","-1","0","0","0","4","4","2","4","4","4","4","4","4","4","5","5","5","5","5","4","4","5","5","5","3","3","5","5","3","3","5","5","3","3","3","5","3","4","3","3","3","3","4","3","3","5","3","3","5","3","5","5","5","5","3","3","5","5","3","3","3","3","3","708989653960622080","陈","192","Female","[""好我"",""坏我"",""好她"",""坏她""]","[""强我"",""弱我"",""强她"",""弱她""]","","","","","","","","","","","","","","","","","","","","","","","","","","","","","","feedback_test","","","","","","","",""
"null","","null","psychophysics","128","398066","0.0-8.0-0.0-4.0-0.0-0.10","3","3","3","3","3","4","4","4","4","4","4","1","1","0","1","-1","0","0","0","4","4","2","4","4","4","4","4","4","4","5","5","5","5","5","4","4","5","5","5","3","3","5","5","3","3","5","5","3","3","3","5","3","4","3","3","3","3","4","3","3","5","3","3","5","3","5","5","5","5","3","3","5","5","3","3","3","3","3","708989653960622080","陈","192","Female","[""好我"",""坏我"",""好她"",""坏她""]","[""强我"",""弱我"",""强她"",""弱她""]","","","","","","","","null","","","","","","","","","","key","null","16.68061832061041","1280","716","j","false","nonmatch","img/hexagon.png","坏她","好她","ALT2","moral","","","","","","","",""
"null","<span class='add_' style='color:yellow; font-size: 70px;'> 太慢! </span>","null","html-keyboard-response","129","398566","0.0-8.0-0.0-4.0-0.0-1.10","3","3","3","3","3","4","4","4","4","4","4","1","1","0","1","-1","0","0","0","4","4","2","4","4","4","4","4","4","4","5","5","5","5","5","4","4","5","5","5","3","3","5","5","3","3","5","5","3","3","3","5","3","4","3","3","3","3","4","3","3","5","3","3","5","3","5","5","5","5","3","3","5","5","3","3","3","3","3","708989653960622080","陈","192","Female","[""好我"",""坏我"",""好她"",""坏她""]","[""强我"",""弱我"",""强她"",""弱她""]","","","","","","","","","","","","","","","","","","","","","","","","","","","","","","feedback_test","","","","","","","",""
"1048","","f","psychophysics","130","400616","0.0-8.0-0.0-4.0-0.0-0.11","3","3","3","3","3","4","4","4","4","4","4","1","1","0","1","-1","0","0","0","4","4","2","4","4","4","4","4","4","4","5","5","5","5","5","4","4","5","5","5","3","3","5","5","3","3","5","5","3","3","3","5","3","4","3","3","3","3","4","3","3","5","3","3","5","3","5","5","5","5","3","3","5","5","3","3","3","3","3","708989653960622080","陈","192","Female","[""好我"",""坏我"",""好她"",""坏她""]","[""强我"",""弱我"",""强她"",""弱她""]","","","","","","","","match","","","","","","","","","","key","f","16.679959016393575","1280","716","f","true","match","img/square.png","坏我","坏我","ALT2","moral","","","","","","","",""
"null","<span style='color:GreenYellow; font-size: 70px;'>正确! </span>","null","html-keyboard-response","131","401117","0.0-8.0-0.0-4.0-0.0-1.11","3","3","3","3","3","4","4","4","4","4","4","1","1","0","1","-1","0","0","0","4","4","2","4","4","4","4","4","4","4","5","5","5","5","5","4","4","5","5","5","3","3","5","5","3","3","5","5","3","3","3","5","3","4","3","3","3","3","4","3","3","5","3","3","5","3","5","5","5","5","3","3","5","5","3","3","3","3","3","708989653960622080","陈","192","Female","[""好我"",""坏我"",""好她"",""坏她""]","[""强我"",""弱我"",""强她"",""弱她""]","","","","","","","","","","","","","","","","","","","","","","","","","","","","","","feedback_test","","","","","","","",""
"993","","j","psychophysics","132","403112","0.0-8.0-0.0-4.0-0.0-0.12","3","3","3","3","3","4","4","4","4","4","4","1","1","0","1","-1","0","0","0","4","4","2","4","4","4","4","4","4","4","5","5","5","5","5","4","4","5","5","5","3","3","5","5","3","3","5","5","3","3","3","5","3","4","3","3","3","3","4","3","3","5","3","3","5","3","5","5","5","5","3","3","5","5","3","3","3","3","3","708989653960622080","陈","192","Female","[""好我"",""坏我"",""好她"",""坏她""]","[""强我"",""弱我"",""强她"",""弱她""]","","","","","","","","nonmatch","","","","","","","","","","key","j","16.68314285714281","1280","716","j","true","nonmatch","img/square.png","好她","坏我","ALT2","moral","","","","","","","",""
"null","<span style='color:GreenYellow; font-size: 70px;'>正确! </span>","null","html-keyboard-response","133","403612","0.0-8.0-0.0-4.0-0.0-1.12","3","3","3","3","3","4","4","4","4","4","4","1","1","0","1","-1","0","0","0","4","4","2","4","4","4","4","4","4","4","5","5","5","5","5","4","4","5","5","5","3","3","5","5","3","3","5","5","3","3","3","5","3","4","3","3","3","3","4","3","3","5","3","3","5","3","5","5","5","5","3","3","5","5","3","3","3","3","3","708989653960622080","陈","192","Female","[""好我"",""坏我"",""好她"",""坏她""]","[""强我"",""弱我"",""强她"",""弱她""]","","","","","","","","","","","","","","","","","","","","","","","","","","","","","","feedback_test","","","","","","","",""
"970","","f","psychophysics","134","405583","0.0-8.0-0.0-4.0-0.0-0.13","3","3","3","3","3","4","4","4","4","4","4","1","1","0","1","-1","0","0","0","4","4","2","4","4","4","4","4","4","4","5","5","5","5","5","4","4","5","5","5","3","3","5","5","3","3","5","5","3","3","3","5","3","4","3","3","3","3","4","3","3","5","3","3","5","3","5","5","5","5","3","3","5","5","3","3","3","3","3","708989653960622080","陈","192","Female","[""好我"",""坏我"",""好她"",""坏她""]","[""强我"",""弱我"",""强她"",""弱她""]","","","","","","","","match","","","","","","","","","","key","f","16.68023931623922","1280","716","f","true","match","img/hexagon.png","好她","好她","ALT2","moral","","","","","","","",""
"null","<span style='color:GreenYellow; font-size: 70px;'>正确! </span>","null","html-keyboard-response","135","406085","0.0-8.0-0.0-4.0-0.0-1.13","3","3","3","3","3","4","4","4","4","4","4","1","1","0","1","-1","0","0","0","4","4","2","4","4","4","4","4","4","4","5","5","5","5","5","4","4","5","5","5","3","3","5","5","3","3","5","5","3","3","3","5","3","4","3","3","3","3","4","3","3","5","3","3","5","3","5","5","5","5","3","3","5","5","3","3","3","3","3","708989653960622080","陈","192","Female","[""好我"",""坏我"",""好她"",""坏她""]","[""强我"",""弱我"",""强她"",""弱她""]","","","","","","","","","","","","","","","","","","","","","","","","","","","","","","feedback_test","","","","","","","",""
"769","","f","psychophysics","136","407855","0.0-8.0-0.0-4.0-0.0-0.14","3","3","3","3","3","4","4","4","4","4","4","1","1","0","1","-1","0","0","0","4","4","2","4","4","4","4","4","4","4","5","5","5","5","5","4","4","5","5","5","3","3","5","5","3","3","5","5","3","3","3","5","3","4","3","3","3","3","4","3","3","5","3","3","5","3","5","5","5","5","3","3","5","5","3","3","3","3","3","708989653960622080","陈","192","Female","[""好我"",""坏我"",""好她"",""坏她""]","[""强我"",""弱我"",""强她"",""弱她""]","","","","","","","","match","","","","","","","","","","key","f","16.677399999999796","1280","716","f","true","match","img/ellipse.png","坏她","坏她","ALT2","moral","","","","","","","",""
"null","<span style='color:GreenYellow; font-size: 70px;'>正确! </span>","null","html-keyboard-response","137","408356","0.0-8.0-0.0-4.0-0.0-1.14","3","3","3","3","3","4","4","4","4","4","4","1","1","0","1","-1","0","0","0","4","4","2","4","4","4","4","4","4","4","5","5","5","5","5","4","4","5","5","5","3","3","5","5","3","3","5","5","3","3","3","5","3","4","3","3","3","3","4","3","3","5","3","3","5","3","5","5","5","5","3","3","5","5","3","3","3","3","3","708989653960622080","陈","192","Female","[""好我"",""坏我"",""好她"",""坏她""]","[""强我"",""弱我"",""强她"",""弱她""]","","","","","","","","","","","","","","","","","","","","","","","","","","","","","","feedback_test","","","","","","","",""
"1058","","f","psychophysics","138","410415","0.0-8.0-0.0-4.0-0.0-0.15","3","3","3","3","3","4","4","4","4","4","4","1","1","0","1","-1","0","0","0","4","4","2","4","4","4","4","4","4","4","5","5","5","5","5","4","4","5","5","5","3","3","5","5","3","3","5","5","3","3","3","5","3","4","3","3","3","3","4","3","3","5","3","3","5","3","5","5","5","5","3","3","5","5","3","3","3","3","3","708989653960622080","陈","192","Female","[""好我"",""坏我"",""好她"",""坏她""]","[""强我"",""弱我"",""强她"",""弱她""]","","","","","","","","match","","","","","","","","","","key","f","16.681447154471776","1280","716","f","true","match","img/diamond.png","好我","好我","ALT2","moral","","","","","","","",""
