"rt","stimulus","response","trial_type","trial_index","time_elapsed","internal_node_id","swb_1","swb_2","swb_3","swb_4","swb_5","LOT_1","LOT_2","LOT_3","LOT_4","LOT_5","LOT_6","IPC_1","IPC_2","IPC_3","IPC_4","IPC_5","IPC_6","IPC_7","IPC_8","MorIden_1","MorIden_2","MorIden_3","MorIden_4","MorIden_5","MorIden_6","MorIden_7","MorIden_8","MorIden_9","MorIden_10","moralSeImag_1","moralSeImag_2","moralSeImag_3","moralSeImag_4","moralSeImag_5","moralSeImag_6","moralSeImag_7","moralSeImag_8","moralSeImag_9","sde_1","sde_2","sde_3","sde_4","sde_5","sde_6","sde_7","sde_8","sde_9","sde_10","sde_11","sde_12","sde_13","sde_14","sde_15","sde_16","sde_17","sde_18","sde_19","sde_20","IM_1","IM_2","IM_3","IM_4","IM_5","IM_6","IM_7","IM_8","IM_9","IM_10","IM_11","IM_12","IM_13","IM_14","IM_15","IM_16","IM_17","IM_18","IM_19","IM_20","subj_idx","friend_name","ParticipantID","Sex","Word","Word2","value","success","timeout","failed_images","failed_audio","failed_video","user_agent","responses","item_order","radio_event_ids","radio_event_times","key_event_times","mouse_event_times","straightlining","zigzagging","honeypot","view_history","response_type","key_press","avg_frame_time","center_x","center_y","correct_response","correct","identity","Image","word","condition","task_id","screen_id","time_stamp","person","valence","domain","math","status","duration","question_order"
"13069","
   <p><div style='color:white; font-size: 25px'>您好，欢迎参加本次实验。</div></p>
   <p><div style='color:white; font-size: 25px'>为充分保障您的权利，请确保您已经知晓并同意《参与实验同意书》以及《数据公开知情同意书》。</div></p>
   <p><div style='color:white; font-size: 25px'>如果您未见过上述内容，请咨询实验员。</div></p>
   <p style='color:white; font-size: 25px'>如果您选择继续实验，则表示您已经清楚两份知情同意书的内容并同意。</p>
   <p><div style = ""color: red;font-size:30px;"">请确保您记得day0的实验编号，您将在本次实验输入该编号，若您忘记，请咨询实验员后作答。</div></p>
   <p> <div style = ""color: green""><按空格键至下页></div> </p>
   "," ","html-keyboard-response","0","13077","0.0-0.0","5","6","7","6","7","4","4","5","5","4","4","-2","-3","1","2","1","0","1","2","4","5","4","5","4","5","4","1","5","4","8","6","7","8","7","9","8","7","6","6","6","5","7","5","6","7","7","5","6","6","7","2","5","5","6","6","5","7","5","2","5","1","5","6","6","7","7","5","6","7","6","7","2","5","6","7","5","6","7","634030444760793088","宋","698","Male","[""好我"",""好他"",""坏我"",""坏他""]","[""强我"",""强他"",""弱我"",""弱他""]","","","","","","","","","","","","","","","","","","","","","","","","","","","","","","","","","","","","","",""
"","","","call-function","1","13079","0.0-1.0-0.0","5","6","7","6","7","4","4","5","5","4","4","-2","-3","1","2","1","0","1","2","4","5","4","5","4","5","4","1","5","4","8","6","7","8","7","9","8","7","6","6","6","5","7","5","6","7","7","5","6","6","7","2","5","5","6","6","5","7","5","2","5","1","5","6","6","7","7","5","6","7","6","7","2","5","6","7","5","6","7","634030444760793088","宋","698","Male","[""好我"",""好他"",""坏我"",""坏他""]","[""强我"",""强他"",""弱我"",""弱他""]","","","","","","","","","","","","","","","","","","","","","","","","","","","","","","","","","","","","","",""
"79842","","[{""name"":""Sex"",""value"":""0""},{""name"":""friend_name"",""value"":""宋""},{""name"":""ParticipantID"",""value"":""698""}]","survey-html-form","2","92925","0.0-1.0-1.0","5","6","7","6","7","4","4","5","5","4","4","-2","-3","1","2","1","0","1","2","4","5","4","5","4","5","4","1","5","4","8","6","7","8","7","9","8","7","6","6","6","5","7","5","6","7","7","5","6","6","7","2","5","5","6","6","5","7","5","2","5","1","5","6","6","7","7","5","6","7","6","7","2","5","6","7","5","6","7","634030444760793088","宋","698","Male","[""好我"",""好他"",""坏我"",""坏他""]","[""强我"",""强他"",""弱我"",""弱他""]","","","","","","","","","","","","","","","","","","","","","","","","","","","","","","","","","","","","","",""
"","","","preload","3","93148","0.0-2.0","5","6","7","6","7","4","4","5","5","4","4","-2","-3","1","2","1","0","1","2","4","5","4","5","4","5","4","1","5","4","8","6","7","8","7","9","8","7","6","6","6","5","7","5","6","7","7","5","6","6","7","2","5","5","6","6","5","7","5","2","5","1","5","6","6","7","7","5","6","7","6","7","2","5","6","7","5","6","7","634030444760793088","宋","698","Male","[""好我"",""好他"",""坏我"",""坏他""]","[""强我"",""强他"",""弱我"",""弱他""]","","true","false","[]","[]","[]","","","","","","","","","","","","","","","","","","","","","","","","","","","","","","","",""
"","","","fullscreen","4","94021","0.0-3.0","5","6","7","6","7","4","4","5","5","4","4","-2","-3","1","2","1","0","1","2","4","5","4","5","4","5","4","1","5","4","8","6","7","8","7","9","8","7","6","6","6","5","7","5","6","7","7","5","6","6","7","2","5","5","6","6","5","7","5","2","5","1","5","6","6","7","7","5","6","7","6","7","2","5","6","7","5","6","7","634030444760793088","宋","698","Male","[""好我"",""好他"",""坏我"",""坏他""]","[""强我"",""强他"",""弱我"",""弱他""]","","true","","","","","{}","","","","","","","","","","","","","","","","","","","","","","","","","","","","","","",""
"40969.30000001192","","{""Q01"":""5"",""Q02"":""6"",""Q03"":""7"",""Q04"":""6"",""Q05"":""7""}","survey-template","5","134999","0.0-4.0","5","6","7","6","7","4","4","5","5","4","4","-2","-3","1","2","1","0","1","2","4","5","4","5","4","5","4","1","5","4","8","6","7","8","7","9","8","7","6","6","6","5","7","5","6","7","7","5","6","6","7","2","5","5","6","6","5","7","5","2","5","1","5","6","6","7","7","5","6","7","6","7","2","5","6","7","5","6","7","634030444760793088","宋","698","Male","[""好我"",""好他"",""坏我"",""坏他""]","[""强我"",""强他"",""弱我"",""弱他""]","","","","","","","","{""Q01"":""5"",""Q02"":""6"",""Q03"":""7"",""Q04"":""6"",""Q05"":""7""}","[0,1,2,3,4]","[""Q01"",""Q02"",""Q03"",""Q04"",""Q05"",""Q02"",""Q03"",""Q04""]","[9810.90000000596,11400.300000011921,12438,14731.800000011921,16854,26223.70000001788,27077.80000001192,28745.80000001192]","[]","[9810.90000000596,11400.300000011921,12438,14016.59999999404,14731.800000011921,16854,25807.90000000596,26223.70000001788,26766.20000001788,27077.80000001192,28440.70000001788,28745.80000001192,38859.90000000596,40968.09999999404]","0.4","1","0","","","","","","","","","","","","","","","","","","","","","",""
"24125.90000000596","","{""Q01"":""4"",""Q02"":""4"",""Q03"":""5"",""Q04"":""5"",""Q05"":""4"",""Q06"":""4""}","survey-template","6","159130","0.0-5.0","5","6","7","6","7","4","4","5","5","4","4","-2","-3","1","2","1","0","1","2","4","5","4","5","4","5","4","1","5","4","8","6","7","8","7","9","8","7","6","6","6","5","7","5","6","7","7","5","6","6","7","2","5","5","6","6","5","7","5","2","5","1","5","6","6","7","7","5","6","7","6","7","2","5","6","7","5","6","7","634030444760793088","宋","698","Male","[""好我"",""好他"",""坏我"",""坏他""]","[""强我"",""强他"",""弱我"",""弱他""]","","","","","","","","{""Q01"":""4"",""Q02"":""4"",""Q03"":""5"",""Q04"":""5"",""Q05"":""4"",""Q06"":""4""}","[0,1,2,3,4,5]","[""Q01"",""Q02"",""Q03"",""Q04"",""Q05"",""Q06""]","[2597.2999999821186,6167.199999988079,8369.299999982119,10464.699999988079,11828.90000000596,15241.09999999404]","[]","[2597.2999999821186,6167.199999988079,8369.299999982119,10112.199999988079,10464.699999988079,11409,11828.90000000596,15241.09999999404,24124.90000000596]","0.3333333333333333","0.4","0","","","","","","","","","","","","","","","","","","","","","",""
"62231.90000000596","","{""Q01"":""-2"",""Q02"":""-3"",""Q03"":""1"",""Q04"":""2"",""Q05"":""1"",""Q06"":""0"",""Q07"":""1"",""Q08"":""2""}","survey-template","7","221366","0.0-6.0","5","6","7","6","7","4","4","5","5","4","4","-2","-3","1","2","1","0","1","2","4","5","4","5","4","5","4","1","5","4","8","6","7","8","7","9","8","7","6","6","6","5","7","5","6","7","7","5","6","6","7","2","5","5","6","6","5","7","5","2","5","1","5","6","6","7","7","5","6","7","6","7","2","5","6","7","5","6","7","634030444760793088","宋","698","Male","[""好我"",""好他"",""坏我"",""坏他""]","[""强我"",""强他"",""弱我"",""弱他""]","","","","","","","","{""Q01"":""-2"",""Q02"":""-3"",""Q03"":""1"",""Q04"":""2"",""Q05"":""1"",""Q06"":""0"",""Q07"":""1"",""Q08"":""2""}","[0,1,2,3,4,5,6,7]","[""Q01"",""Q02"",""Q03"",""Q04"",""Q05"",""Q06"",""Q07"",""Q08""]","[21744.59999999404,23942.59999999404,25615,28898.29999998212,30407.09999999404,33212.69999998808,34802.29999998212,35786.69999998808]","[]","[20938.5,21744.59999999404,23942.59999999404,25615,28898.29999998212,30407.09999999404,32742.90000000596,33212.69999998808,34326.69999998808,34802.29999998212,35786.69999998808,57584.69999998808,62230.5]","0.375","0.8571428571428571","0","","","","","","","","","","","","","","","","","","","","","",""
"28261","","","instructions","8","249631","0.0-7.0","5","6","7","6","7","4","4","5","5","4","4","-2","-3","1","2","1","0","1","2","4","5","4","5","4","5","4","1","5","4","8","6","7","8","7","9","8","7","6","6","6","5","7","5","6","7","7","5","6","6","7","2","5","5","6","6","5","7","5","2","5","1","5","6","6","7","7","5","6","7","6","7","2","5","6","7","5","6","7","634030444760793088","宋","698","Male","[""好我"",""好他"",""坏我"",""坏他""]","[""强我"",""强他"",""弱我"",""弱他""]","","","","","","","","","","","","","","","","","[{""page_index"":0,""viewing_time"":28261}]","","","","","","","","","","","","","","","","","","","","",""
"59407","","","instructions","9","309040","0.0-8.0-1.0-0.0","5","6","7","6","7","4","4","5","5","4","4","-2","-3","1","2","1","0","1","2","4","5","4","5","4","5","4","1","5","4","8","6","7","8","7","9","8","7","6","6","6","5","7","5","6","7","7","5","6","6","7","2","5","5","6","6","5","7","5","2","5","1","5","6","6","7","7","5","6","7","6","7","2","5","6","7","5","6","7","634030444760793088","宋","698","Male","[""好我"",""好他"",""坏我"",""坏他""]","[""强我"",""强他"",""弱我"",""弱他""]","","","","","","","","","","","","","","","","","[{""page_index"":0,""viewing_time"":1049},{""page_index"":1,""viewing_time"":54790},{""page_index"":2,""viewing_time"":1844},{""page_index"":3,""viewing_time"":1724}]","","","","","","","","","","","","","","","","","","","","",""
"838","","j","psychophysics","10","310884","0.0-8.0-1.0-1.0-0.0-0.0","5","6","7","6","7","4","4","5","5","4","4","-2","-3","1","2","1","0","1","2","4","5","4","5","4","5","4","1","5","4","8","6","7","8","7","9","8","7","6","6","6","5","7","5","6","7","7","5","6","6","7","2","5","5","6","6","5","7","5","2","5","1","5","6","6","7","7","5","6","7","6","7","2","5","6","7","5","6","7","634030444760793088","宋","698","Male","[""好我"",""好他"",""坏我"",""坏他""]","[""强我"",""强他"",""弱我"",""弱他""]","","","","","","","","nonmatch","","","","","","","","","","key","j","16.65365454545456","799.9999682108573","445.8333156175091","f","false","match","img/diamond.png","弱他","弱他","prac_ALT2_ability","practice_ability","","","","","","","",""
"null","<span style='color:red; font-size: 70px;'>错误! </span>","null","html-keyboard-response","11","311386","0.0-8.0-1.0-1.0-0.0-1.0","5","6","7","6","7","4","4","5","5","4","4","-2","-3","1","2","1","0","1","2","4","5","4","5","4","5","4","1","5","4","8","6","7","8","7","9","8","7","6","6","6","5","7","5","6","7","7","5","6","6","7","2","5","5","6","6","5","7","5","2","5","1","5","6","6","7","7","5","6","7","6","7","2","5","6","7","5","6","7","634030444760793088","宋","698","Male","[""好我"",""好他"",""坏我"",""坏他""]","[""强我"",""强他"",""弱我"",""弱他""]","","","","","","","","","","","","","","","","","","","","","","","","","","","","","","feedback_test","","","","","","","",""
"806","","f","psychophysics","12","313194","0.0-8.0-1.0-1.0-0.0-0.1","5","6","7","6","7","4","4","5","5","4","4","-2","-3","1","2","1","0","1","2","4","5","4","5","4","5","4","1","5","4","8","6","7","8","7","9","8","7","6","6","6","5","7","5","6","7","7","5","6","6","7","2","5","5","6","6","5","7","5","2","5","1","5","6","6","7","7","5","6","7","6","7","2","5","6","7","5","6","7","634030444760793088","宋","698","Male","[""好我"",""好他"",""坏我"",""坏他""]","[""强我"",""强他"",""弱我"",""弱他""]","","","","","","","","match","","","","","","","","","","key","f","16.653588785046807","799.9999682108573","445.8333156175091","f","true","match","img/ellipse.png","强他","强他","prac_ALT2_ability","practice_ability","","","","","","","",""
"null","<span style='color:GreenYellow; font-size: 70px;'>正确! </span>","null","html-keyboard-response","13","313697","0.0-8.0-1.0-1.0-0.0-1.1","5","6","7","6","7","4","4","5","5","4","4","-2","-3","1","2","1","0","1","2","4","5","4","5","4","5","4","1","5","4","8","6","7","8","7","9","8","7","6","6","6","5","7","5","6","7","7","5","6","6","7","2","5","5","6","6","5","7","5","2","5","1","5","6","6","7","7","5","6","7","6","7","2","5","6","7","5","6","7","634030444760793088","宋","698","Male","[""好我"",""好他"",""坏我"",""坏他""]","[""强我"",""强他"",""弱我"",""弱他""]","","","","","","","","","","","","","","","","","","","","","","","","","","","","","","feedback_test","","","","","","","",""
"1039","","f","psychophysics","14","315737","0.0-8.0-1.0-1.0-0.0-0.2","5","6","7","6","7","4","4","5","5","4","4","-2","-3","1","2","1","0","1","2","4","5","4","5","4","5","4","1","5","4","8","6","7","8","7","9","8","7","6","6","6","5","7","5","6","7","7","5","6","6","7","2","5","5","6","6","5","7","5","2","5","1","5","6","6","7","7","5","6","7","6","7","2","5","6","7","5","6","7","634030444760793088","宋","698","Male","[""好我"",""好他"",""坏我"",""坏他""]","[""强我"",""强他"",""弱我"",""弱他""]","","","","","","","","match","","","","","","","","","","key","f","16.65227272727263","799.9999682108573","445.8333156175091","f","true","match","img/pentagon.png","弱我","弱我","prac_ALT2_ability","practice_ability","","","","","","","",""
"null","<span style='color:GreenYellow; font-size: 70px;'>正确! </span>","null","html-keyboard-response","15","316248","0.0-8.0-1.0-1.0-0.0-1.2","5","6","7","6","7","4","4","5","5","4","4","-2","-3","1","2","1","0","1","2","4","5","4","5","4","5","4","1","5","4","8","6","7","8","7","9","8","7","6","6","6","5","7","5","6","7","7","5","6","6","7","2","5","5","6","6","5","7","5","2","5","1","5","6","6","7","7","5","6","7","6","7","2","5","6","7","5","6","7","634030444760793088","宋","698","Male","[""好我"",""好他"",""坏我"",""坏他""]","[""强我"",""强他"",""弱我"",""弱他""]","","","","","","","","","","","","","","","","","","","","","","","","","","","","","","feedback_test","","","","","","","",""
"813","","f","psychophysics","16","318063","0.0-8.0-1.0-1.0-0.0-0.3","5","6","7","6","7","4","4","5","5","4","4","-2","-3","1","2","1","0","1","2","4","5","4","5","4","5","4","1","5","4","8","6","7","8","7","9","8","7","6","6","6","5","7","5","6","7","7","5","6","6","7","2","5","5","6","6","5","7","5","2","5","1","5","6","6","7","7","5","6","7","6","7","2","5","6","7","5","6","7","634030444760793088","宋","698","Male","[""好我"",""好他"",""坏我"",""坏他""]","[""强我"",""强他"",""弱我"",""弱他""]","","","","","","","","match","","","","","","","","","","key","f","16.652203703703922","799.9999682108573","445.8333156175091","j","false","nonmatch","img/trapezoid.png","强他","强我","prac_ALT2_ability","practice_ability","","","","","","","",""
"null","<span style='color:red; font-size: 70px;'>错误! </span>","null","html-keyboard-response","17","318565","0.0-8.0-1.0-1.0-0.0-1.3","5","6","7","6","7","4","4","5","5","4","4","-2","-3","1","2","1","0","1","2","4","5","4","5","4","5","4","1","5","4","8","6","7","8","7","9","8","7","6","6","6","5","7","5","6","7","7","5","6","6","7","2","5","5","6","6","5","7","5","2","5","1","5","6","6","7","7","5","6","7","6","7","2","5","6","7","5","6","7","634030444760793088","宋","698","Male","[""好我"",""好他"",""坏我"",""坏他""]","[""强我"",""强他"",""弱我"",""弱他""]","","","","","","","","","","","","","","","","","","","","","","","","","","","","","","feedback_test","","","","","","","",""
"944","","j","psychophysics","18","320510","0.0-8.0-1.0-1.0-0.0-0.4","5","6","7","6","7","4","4","5","5","4","4","-2","-3","1","2","1","0","1","2","4","5","4","5","4","5","4","1","5","4","8","6","7","8","7","9","8","7","6","6","6","5","7","5","6","7","7","5","6","6","7","2","5","5","6","6","5","7","5","2","5","1","5","6","6","7","7","5","6","7","6","7","2","5","6","7","5","6","7","634030444760793088","宋","698","Male","[""好我"",""好他"",""坏我"",""坏他""]","[""强我"",""强他"",""弱我"",""弱他""]","","","","","","","","nonmatch","","","","","","","","","","key","j","16.65152586206888","799.9999682108573","445.8333156175091","f","false","match","img/pentagon.png","弱我","弱我","prac_ALT2_ability","practice_ability","","","","","","","",""
"null","<span style='color:red; font-size: 70px;'>错误! </span>","null","html-keyboard-response","19","321011","0.0-8.0-1.0-1.0-0.0-1.4","5","6","7","6","7","4","4","5","5","4","4","-2","-3","1","2","1","0","1","2","4","5","4","5","4","5","4","1","5","4","8","6","7","8","7","9","8","7","6","6","6","5","7","5","6","7","7","5","6","6","7","2","5","5","6","6","5","7","5","2","5","1","5","6","6","7","7","5","6","7","6","7","2","5","6","7","5","6","7","634030444760793088","宋","698","Male","[""好我"",""好他"",""坏我"",""坏他""]","[""强我"",""强他"",""弱我"",""弱他""]","","","","","","","","","","","","","","","","","","","","","","","","","","","","","","feedback_test","","","","","","","",""
"782","","f","psychophysics","20","322795","0.0-8.0-1.0-1.0-0.0-0.5","5","6","7","6","7","4","4","5","5","4","4","-2","-3","1","2","1","0","1","2","4","5","4","5","4","5","4","1","5","4","8","6","7","8","7","9","8","7","6","6","6","5","7","5","6","7","7","5","6","6","7","2","5","5","6","6","5","7","5","2","5","1","5","6","6","7","7","5","6","7","6","7","2","5","6","7","5","6","7","634030444760793088","宋","698","Male","[""好我"",""好他"",""坏我"",""坏他""]","[""强我"",""强他"",""弱我"",""弱他""]","","","","","","","","match","","","","","","","","","","key","f","16.65120754716973","799.9999682108573","445.8333156175091","f","true","match","img/ellipse.png","强他","强他","prac_ALT2_ability","practice_ability","","","","","","","",""
"null","<span style='color:GreenYellow; font-size: 70px;'>正确! </span>","null","html-keyboard-response","21","323295","0.0-8.0-1.0-1.0-0.0-1.5","5","6","7","6","7","4","4","5","5","4","4","-2","-3","1","2","1","0","1","2","4","5","4","5","4","5","4","1","5","4","8","6","7","8","7","9","8","7","6","6","6","5","7","5","6","7","7","5","6","6","7","2","5","5","6","6","5","7","5","2","5","1","5","6","6","7","7","5","6","7","6","7","2","5","6","7","5","6","7","634030444760793088","宋","698","Male","[""好我"",""好他"",""坏我"",""坏他""]","[""强我"",""强他"",""弱我"",""弱他""]","","","","","","","","","","","","","","","","","","","","","","","","","","","","","","feedback_test","","","","","","","",""
"1058","","f","psychophysics","22","325355","0.0-8.0-1.0-1.0-0.0-0.6","5","6","7","6","7","4","4","5","5","4","4","-2","-3","1","2","1","0","1","2","4","5","4","5","4","5","4","1","5","4","8","6","7","8","7","9","8","7","6","6","6","5","7","5","6","7","7","5","6","6","7","2","5","5","6","6","5","7","5","2","5","1","5","6","6","7","7","5","6","7","6","7","2","5","6","7","5","6","7","634030444760793088","宋","698","Male","[""好我"",""好他"",""坏我"",""坏他""]","[""强我"",""强他"",""弱我"",""弱他""]","","","","","","","","match","","","","","","","","","","key","f","16.652390243902488","799.9999682108573","445.8333156175091","j","false","nonmatch","img/trapezoid.png","弱我","强我","prac_ALT2_ability","practice_ability","","","","","","","",""
"null","<span style='color:red; font-size: 70px;'>错误! </span>","null","html-keyboard-response","23","325856","0.0-8.0-1.0-1.0-0.0-1.6","5","6","7","6","7","4","4","5","5","4","4","-2","-3","1","2","1","0","1","2","4","5","4","5","4","5","4","1","5","4","8","6","7","8","7","9","8","7","6","6","6","5","7","5","6","7","7","5","6","6","7","2","5","5","6","6","5","7","5","2","5","1","5","6","6","7","7","5","6","7","6","7","2","5","6","7","5","6","7","634030444760793088","宋","698","Male","[""好我"",""好他"",""坏我"",""坏他""]","[""强我"",""强他"",""弱我"",""弱他""]","","","","","","","","","","","","","","","","","","","","","","","","","","","","","","feedback_test","","","","","","","",""
"910","","f","psychophysics","24","327768","0.0-8.0-1.0-1.0-0.0-0.7","5","6","7","6","7","4","4","5","5","4","4","-2","-3","1","2","1","0","1","2","4","5","4","5","4","5","4","1","5","4","8","6","7","8","7","9","8","7","6","6","6","5","7","5","6","7","7","5","6","6","7","2","5","5","6","6","5","7","5","2","5","1","5","6","6","7","7","5","6","7","6","7","2","5","6","7","5","6","7","634030444760793088","宋","698","Male","[""好我"",""好他"",""坏我"",""坏他""]","[""强我"",""强他"",""弱我"",""弱他""]","","","","","","","","match","","","","","","","","","","key","f","16.65295614035118","799.9999682108573","445.8333156175091","f","true","match","img/pentagon.png","弱我","弱我","prac_ALT2_ability","practice_ability","","","","","","","",""
"null","<span style='color:GreenYellow; font-size: 70px;'>正确! </span>","null","html-keyboard-response","25","328270","0.0-8.0-1.0-1.0-0.0-1.7","5","6","7","6","7","4","4","5","5","4","4","-2","-3","1","2","1","0","1","2","4","5","4","5","4","5","4","1","5","4","8","6","7","8","7","9","8","7","6","6","6","5","7","5","6","7","7","5","6","6","7","2","5","5","6","6","5","7","5","2","5","1","5","6","6","7","7","5","6","7","6","7","2","5","6","7","5","6","7","634030444760793088","宋","698","Male","[""好我"",""好他"",""坏我"",""坏他""]","[""强我"",""强他"",""弱我"",""弱他""]","","","","","","","","","","","","","","","","","","","","","","","","","","","","","","feedback_test","","","","","","","",""
"817","","j","psychophysics","26","330090","0.0-8.0-1.0-1.0-0.0-0.8","5","6","7","6","7","4","4","5","5","4","4","-2","-3","1","2","1","0","1","2","4","5","4","5","4","5","4","1","5","4","8","6","7","8","7","9","8","7","6","6","6","5","7","5","6","7","7","5","6","6","7","2","5","5","6","6","5","7","5","2","5","1","5","6","6","7","7","5","6","7","6","7","2","5","6","7","5","6","7","634030444760793088","宋","698","Male","[""好我"",""好他"",""坏我"",""坏他""]","[""强我"",""强他"",""弱我"",""弱他""]","","","","","","","","nonmatch","","","","","","","","","","key","j","16.653833333333345","799.9999682108573","445.8333156175091","j","true","nonmatch","img/pentagon.png","弱他","弱我","prac_ALT2_ability","practice_ability","","","","","","","",""
"null","<span style='color:GreenYellow; font-size: 70px;'>正确! </span>","null","html-keyboard-response","27","330592","0.0-8.0-1.0-1.0-0.0-1.8","5","6","7","6","7","4","4","5","5","4","4","-2","-3","1","2","1","0","1","2","4","5","4","5","4","5","4","1","5","4","8","6","7","8","7","9","8","7","6","6","6","5","7","5","6","7","7","5","6","6","7","2","5","5","6","6","5","7","5","2","5","1","5","6","6","7","7","5","6","7","6","7","2","5","6","7","5","6","7","634030444760793088","宋","698","Male","[""好我"",""好他"",""坏我"",""坏他""]","[""强我"",""强他"",""弱我"",""弱他""]","","","","","","","","","","","","","","","","","","","","","","","","","","","","","","feedback_test","","","","","","","",""
"729","","j","psychophysics","28","332323","0.0-8.0-1.0-1.0-0.0-0.9","5","6","7","6","7","4","4","5","5","4","4","-2","-3","1","2","1","0","1","2","4","5","4","5","4","5","4","1","5","4","8","6","7","8","7","9","8","7","6","6","6","5","7","5","6","7","7","5","6","6","7","2","5","5","6","6","5","7","5","2","5","1","5","6","6","7","7","5","6","7","6","7","2","5","6","7","5","6","7","634030444760793088","宋","698","Male","[""好我"",""好他"",""坏我"",""坏他""]","[""强我"",""强他"",""弱我"",""弱他""]","","","","","","","","nonmatch","","","","","","","","","","key","j","16.65343689320392","799.9999682108573","445.8333156175091","j","true","nonmatch","img/ellipse.png","弱他","强他","prac_ALT2_ability","practice_ability","","","","","","","",""
"null","<span style='color:GreenYellow; font-size: 70px;'>正确! </span>","null","html-keyboard-response","29","332825","0.0-8.0-1.0-1.0-0.0-1.9","5","6","7","6","7","4","4","5","5","4","4","-2","-3","1","2","1","0","1","2","4","5","4","5","4","5","4","1","5","4","8","6","7","8","7","9","8","7","6","6","6","5","7","5","6","7","7","5","6","6","7","2","5","5","6","6","5","7","5","2","5","1","5","6","6","7","7","5","6","7","6","7","2","5","6","7","5","6","7","634030444760793088","宋","698","Male","[""好我"",""好他"",""坏我"",""坏他""]","[""强我"",""强他"",""弱我"",""弱他""]","","","","","","","","","","","","","","","","","","","","","","","","","","","","","","feedback_test","","","","","","","",""
"1020","","f","psychophysics","30","334846","0.0-8.0-1.0-1.0-0.0-0.10","5","6","7","6","7","4","4","5","5","4","4","-2","-3","1","2","1","0","1","2","4","5","4","5","4","5","4","1","5","4","8","6","7","8","7","9","8","7","6","6","6","5","7","5","6","7","7","5","6","6","7","2","5","5","6","6","5","7","5","2","5","1","5","6","6","7","7","5","6","7","6","7","2","5","6","7","5","6","7","634030444760793088","宋","698","Male","[""好我"",""好他"",""坏我"",""坏他""]","[""强我"",""强他"",""弱我"",""弱他""]","","","","","","","","match","","","","","","","","","","key","f","16.64439999999983","799.9999682108573","445.8333156175091","f","true","match","img/diamond.png","弱他","弱他","prac_ALT2_ability","practice_ability","","","","","","","",""
"null","<span style='color:GreenYellow; font-size: 70px;'>正确! </span>","null","html-keyboard-response","31","335347","0.0-8.0-1.0-1.0-0.0-1.10","5","6","7","6","7","4","4","5","5","4","4","-2","-3","1","2","1","0","1","2","4","5","4","5","4","5","4","1","5","4","8","6","7","8","7","9","8","7","6","6","6","5","7","5","6","7","7","5","6","6","7","2","5","5","6","6","5","7","5","2","5","1","5","6","6","7","7","5","6","7","6","7","2","5","6","7","5","6","7","634030444760793088","宋","698","Male","[""好我"",""好他"",""坏我"",""坏他""]","[""强我"",""强他"",""弱我"",""弱他""]","","","","","","","","","","","","","","","","","","","","","","","","","","","","","","feedback_test","","","","","","","",""
"1141","","j","psychophysics","32","337489","0.0-8.0-1.0-1.0-0.0-0.11","5","6","7","6","7","4","4","5","5","4","4","-2","-3","1","2","1","0","1","2","4","5","4","5","4","5","4","1","5","4","8","6","7","8","7","9","8","7","6","6","6","5","7","5","6","7","7","5","6","6","7","2","5","5","6","6","5","7","5","2","5","1","5","6","6","7","7","5","6","7","6","7","2","5","6","7","5","6","7","634030444760793088","宋","698","Male","[""好我"",""好他"",""坏我"",""坏他""]","[""强我"",""强他"",""弱我"",""弱他""]","","","","","","","","nonmatch","","","","","","","","","","key","j","16.653078740157415","799.9999682108573","445.8333156175091","j","true","nonmatch","img/diamond.png","弱我","弱他","prac_ALT2_ability","practice_ability","","","","","","","",""
"null","<span style='color:GreenYellow; font-size: 70px;'>正确! </span>","null","html-keyboard-response","33","337992","0.0-8.0-1.0-1.0-0.0-1.11","5","6","7","6","7","4","4","5","5","4","4","-2","-3","1","2","1","0","1","2","4","5","4","5","4","5","4","1","5","4","8","6","7","8","7","9","8","7","6","6","6","5","7","5","6","7","7","5","6","6","7","2","5","5","6","6","5","7","5","2","5","1","5","6","6","7","7","5","6","7","6","7","2","5","6","7","5","6","7","634030444760793088","宋","698","Male","[""好我"",""好他"",""坏我"",""坏他""]","[""强我"",""强他"",""弱我"",""弱他""]","","","","","","","","","","","","","","","","","","","","","","","","","","","","","","feedback_test","","","","","","","",""
"905","","j","psychophysics","34","339899","0.0-8.0-1.0-1.0-0.0-0.12","5","6","7","6","7","4","4","5","5","4","4","-2","-3","1","2","1","0","1","2","4","5","4","5","4","5","4","1","5","4","8","6","7","8","7","9","8","7","6","6","6","5","7","5","6","7","7","5","6","6","7","2","5","5","6","6","5","7","5","2","5","1","5","6","6","7","7","5","6","7","6","7","2","5","6","7","5","6","7","634030444760793088","宋","698","Male","[""好我"",""好他"",""坏我"",""坏他""]","[""强我"",""强他"",""弱我"",""弱他""]","","","","","","","","nonmatch","","","","","","","","","","key","j","16.65386725663706","799.9999682108573","445.8333156175091","j","true","nonmatch","img/ellipse.png","强我","强他","prac_ALT2_ability","practice_ability","","","","","","","",""
"null","<span style='color:GreenYellow; font-size: 70px;'>正确! </span>","null","html-keyboard-response","35","340400","0.0-8.0-1.0-1.0-0.0-1.12","5","6","7","6","7","4","4","5","5","4","4","-2","-3","1","2","1","0","1","2","4","5","4","5","4","5","4","1","5","4","8","6","7","8","7","9","8","7","6","6","6","5","7","5","6","7","7","5","6","6","7","2","5","5","6","6","5","7","5","2","5","1","5","6","6","7","7","5","6","7","6","7","2","5","6","7","5","6","7","634030444760793088","宋","698","Male","[""好我"",""好他"",""坏我"",""坏他""]","[""强我"",""强他"",""弱我"",""弱他""]","","","","","","","","","","","","","","","","","","","","","","","","","","","","","","feedback_test","","","","","","","",""
"988","","j","psychophysics","36","342389","0.0-8.0-1.0-1.0-0.0-0.13","5","6","7","6","7","4","4","5","5","4","4","-2","-3","1","2","1","0","1","2","4","5","4","5","4","5","4","1","5","4","8","6","7","8","7","9","8","7","6","6","6","5","7","5","6","7","7","5","6","6","7","2","5","5","6","6","5","7","5","2","5","1","5","6","6","7","7","5","6","7","6","7","2","5","6","7","5","6","7","634030444760793088","宋","698","Male","[""好我"",""好他"",""坏我"",""坏他""]","[""强我"",""强他"",""弱我"",""弱他""]","","","","","","","","nonmatch","","","","","","","","","","key","j","16.653899159663975","799.9999682108573","445.8333156175091","j","true","nonmatch","img/diamond.png","强他","弱他","prac_ALT2_ability","practice_ability","","","","","","","",""
"null","<span style='color:GreenYellow; font-size: 70px;'>正确! </span>","null","html-keyboard-response","37","342890","0.0-8.0-1.0-1.0-0.0-1.13","5","6","7","6","7","4","4","5","5","4","4","-2","-3","1","2","1","0","1","2","4","5","4","5","4","5","4","1","5","4","8","6","7","8","7","9","8","7","6","6","6","5","7","5","6","7","7","5","6","6","7","2","5","5","6","6","5","7","5","2","5","1","5","6","6","7","7","5","6","7","6","7","2","5","6","7","5","6","7","634030444760793088","宋","698","Male","[""好我"",""好他"",""坏我"",""坏他""]","[""强我"",""强他"",""弱我"",""弱他""]","","","","","","","","","","","","","","","","","","","","","","","","","","","","","","feedback_test","","","","","","","",""
"859","","f","psychophysics","38","344752","0.0-8.0-1.0-1.0-0.0-0.14","5","6","7","6","7","4","4","5","5","4","4","-2","-3","1","2","1","0","1","2","4","5","4","5","4","5","4","1","5","4","8","6","7","8","7","9","8","7","6","6","6","5","7","5","6","7","7","5","6","6","7","2","5","5","6","6","5","7","5","2","5","1","5","6","6","7","7","5","6","7","6","7","2","5","6","7","5","6","7","634030444760793088","宋","698","Male","[""好我"",""好他"",""坏我"",""坏他""]","[""强我"",""强他"",""弱我"",""弱他""]","","","","","","","","match","","","","","","","","","","key","f","16.649290909091096","799.9999682108573","445.8333156175091","f","true","match","img/ellipse.png","强他","强他","prac_ALT2_ability","practice_ability","","","","","","","",""
"null","<span style='color:GreenYellow; font-size: 70px;'>正确! </span>","null","html-keyboard-response","39","345254","0.0-8.0-1.0-1.0-0.0-1.14","5","6","7","6","7","4","4","5","5","4","4","-2","-3","1","2","1","0","1","2","4","5","4","5","4","5","4","1","5","4","8","6","7","8","7","9","8","7","6","6","6","5","7","5","6","7","7","5","6","6","7","2","5","5","6","6","5","7","5","2","5","1","5","6","6","7","7","5","6","7","6","7","2","5","6","7","5","6","7","634030444760793088","宋","698","Male","[""好我"",""好他"",""坏我"",""坏他""]","[""强我"",""强他"",""弱我"",""弱他""]","","","","","","","","","","","","","","","","","","","","","","","","","","","","","","feedback_test","","","","","","","",""
"801","","f","psychophysics","40","347058","0.0-8.0-1.0-1.0-0.0-0.15","5","6","7","6","7","4","4","5","5","4","4","-2","-3","1","2","1","0","1","2","4","5","4","5","4","5","4","1","5","4","8","6","7","8","7","9","8","7","6","6","6","5","7","5","6","7","7","5","6","6","7","2","5","5","6","6","5","7","5","2","5","1","5","6","6","7","7","5","6","7","6","7","2","5","6","7","5","6","7","634030444760793088","宋","698","Male","[""好我"",""好他"",""坏我"",""坏他""]","[""强我"",""强他"",""弱我"",""弱他""]","","","","","","","","match","","","","","","","","","","key","f","16.653560747663388","799.9999682108573","445.8333156175091","f","true","match","img/trapezoid.png","强我","强我","prac_ALT2_ability","practice_ability","","","","","","","",""
"null","<span style='color:GreenYellow; font-size: 70px;'>正确! </span>","null","html-keyboard-response","41","347560","0.0-8.0-1.0-1.0-0.0-1.15","5","6","7","6","7","4","4","5","5","4","4","-2","-3","1","2","1","0","1","2","4","5","4","5","4","5","4","1","5","4","8","6","7","8","7","9","8","7","6","6","6","5","7","5","6","7","7","5","6","6","7","2","5","5","6","6","5","7","5","2","5","1","5","6","6","7","7","5","6","7","6","7","2","5","6","7","5","6","7","634030444760793088","宋","698","Male","[""好我"",""好他"",""坏我"",""坏他""]","[""强我"",""强他"",""弱我"",""弱他""]","","","","","","","","","","","","","","","","","","","","","","","","","","","","","","feedback_test","","","","","","","",""
"782","","j","psychophysics","42","349344","0.0-8.0-1.0-1.0-0.0-0.16","5","6","7","6","7","4","4","5","5","4","4","-2","-3","1","2","1","0","1","2","4","5","4","5","4","5","4","1","5","4","8","6","7","8","7","9","8","7","6","6","6","5","7","5","6","7","7","5","6","6","7","2","5","5","6","6","5","7","5","2","5","1","5","6","6","7","7","5","6","7","6","7","2","5","6","7","5","6","7","634030444760793088","宋","698","Male","[""好我"",""好他"",""坏我"",""坏他""]","[""强我"",""强他"",""弱我"",""弱他""]","","","","","","","","nonmatch","","","","","","","","","","key","j","16.65335849056598","799.9999682108573","445.8333156175091","j","true","nonmatch","img/ellipse.png","弱我","强他","prac_ALT2_ability","practice_ability","","","","","","","",""
"null","<span style='color:GreenYellow; font-size: 70px;'>正确! </span>","null","html-keyboard-response","43","349850","0.0-8.0-1.0-1.0-0.0-1.16","5","6","7","6","7","4","4","5","5","4","4","-2","-3","1","2","1","0","1","2","4","5","4","5","4","5","4","1","5","4","8","6","7","8","7","9","8","7","6","6","6","5","7","5","6","7","7","5","6","6","7","2","5","5","6","6","5","7","5","2","5","1","5","6","6","7","7","5","6","7","6","7","2","5","6","7","5","6","7","634030444760793088","宋","698","Male","[""好我"",""好他"",""坏我"",""坏他""]","[""强我"",""强他"",""弱我"",""弱他""]","","","","","","","","","","","","","","","","","","","","","","","","","","","","","","feedback_test","","","","","","","",""
"784","","j","psychophysics","44","351639","0.0-8.0-1.0-1.0-0.0-0.17","5","6","7","6","7","4","4","5","5","4","4","-2","-3","1","2","1","0","1","2","4","5","4","5","4","5","4","1","5","4","8","6","7","8","7","9","8","7","6","6","6","5","7","5","6","7","7","5","6","6","7","2","5","5","6","6","5","7","5","2","5","1","5","6","6","7","7","5","6","7","6","7","2","5","6","7","5","6","7","634030444760793088","宋","698","Male","[""好我"",""好他"",""坏我"",""坏他""]","[""强我"",""强他"",""弱我"",""弱他""]","","","","","","","","nonmatch","","","","","","","","","","key","j","16.653396226415182","799.9999682108573","445.8333156175091","j","true","nonmatch","img/trapezoid.png","弱他","强我","prac_ALT2_ability","practice_ability","","","","","","","",""
"null","<span style='color:GreenYellow; font-size: 70px;'>正确! </span>","null","html-keyboard-response","45","352140","0.0-8.0-1.0-1.0-0.0-1.17","5","6","7","6","7","4","4","5","5","4","4","-2","-3","1","2","1","0","1","2","4","5","4","5","4","5","4","1","5","4","8","6","7","8","7","9","8","7","6","6","6","5","7","5","6","7","7","5","6","6","7","2","5","5","6","6","5","7","5","2","5","1","5","6","6","7","7","5","6","7","6","7","2","5","6","7","5","6","7","634030444760793088","宋","698","Male","[""好我"",""好他"",""坏我"",""坏他""]","[""强我"",""强他"",""弱我"",""弱他""]","","","","","","","","","","","","","","","","","","","","","","","","","","","","","","feedback_test","","","","","","","",""
"693","","f","psychophysics","46","353836","0.0-8.0-1.0-1.0-0.0-0.18","5","6","7","6","7","4","4","5","5","4","4","-2","-3","1","2","1","0","1","2","4","5","4","5","4","5","4","1","5","4","8","6","7","8","7","9","8","7","6","6","6","5","7","5","6","7","7","5","6","6","7","2","5","5","6","6","5","7","5","2","5","1","5","6","6","7","7","5","6","7","6","7","2","5","6","7","5","6","7","634030444760793088","宋","698","Male","[""好我"",""好他"",""坏我"",""坏他""]","[""强我"",""强他"",""弱我"",""弱他""]","","","","","","","","match","","","","","","","","","","key","f","16.654069306930563","799.9999682108573","445.8333156175091","f","true","match","img/trapezoid.png","强我","强我","prac_ALT2_ability","practice_ability","","","","","","","",""
"null","<span style='color:GreenYellow; font-size: 70px;'>正确! </span>","null","html-keyboard-response","47","354336","0.0-8.0-1.0-1.0-0.0-1.18","5","6","7","6","7","4","4","5","5","4","4","-2","-3","1","2","1","0","1","2","4","5","4","5","4","5","4","1","5","4","8","6","7","8","7","9","8","7","6","6","6","5","7","5","6","7","7","5","6","6","7","2","5","5","6","6","5","7","5","2","5","1","5","6","6","7","7","5","6","7","6","7","2","5","6","7","5","6","7","634030444760793088","宋","698","Male","[""好我"",""好他"",""坏我"",""坏他""]","[""强我"",""强他"",""弱我"",""弱他""]","","","","","","","","","","","","","","","","","","","","","","","","","","","","","","feedback_test","","","","","","","",""
"903","","j","psychophysics","48","356242","0.0-8.0-1.0-1.0-0.0-0.19","5","6","7","6","7","4","4","5","5","4","4","-2","-3","1","2","1","0","1","2","4","5","4","5","4","5","4","1","5","4","8","6","7","8","7","9","8","7","6","6","6","5","7","5","6","7","7","5","6","6","7","2","5","5","6","6","5","7","5","2","5","1","5","6","6","7","7","5","6","7","6","7","2","5","6","7","5","6","7","634030444760793088","宋","698","Male","[""好我"",""好他"",""坏我"",""坏他""]","[""强我"",""强他"",""弱我"",""弱他""]","","","","","","","","nonmatch","","","","","","","","","","key","j","16.65308849557521","799.9999682108573","445.8333156175091","j","true","nonmatch","img/pentagon.png","强我","弱我","prac_ALT2_ability","practice_ability","","","","","","","",""
"null","<span style='color:GreenYellow; font-size: 70px;'>正确! </span>","null","html-keyboard-response","49","356744","0.0-8.0-1.0-1.0-0.0-1.19","5","6","7","6","7","4","4","5","5","4","4","-2","-3","1","2","1","0","1","2","4","5","4","5","4","5","4","1","5","4","8","6","7","8","7","9","8","7","6","6","6","5","7","5","6","7","7","5","6","6","7","2","5","5","6","6","5","7","5","2","5","1","5","6","6","7","7","5","6","7","6","7","2","5","6","7","5","6","7","634030444760793088","宋","698","Male","[""好我"",""好他"",""坏我"",""坏他""]","[""强我"",""强他"",""弱我"",""弱他""]","","","","","","","","","","","","","","","","","","","","","","","","","","","","","","feedback_test","","","","","","","",""
"779","","f","psychophysics","50","358526","0.0-8.0-1.0-1.0-0.0-0.20","5","6","7","6","7","4","4","5","5","4","4","-2","-3","1","2","1","0","1","2","4","5","4","5","4","5","4","1","5","4","8","6","7","8","7","9","8","7","6","6","6","5","7","5","6","7","7","5","6","6","7","2","5","5","6","6","5","7","5","2","5","1","5","6","6","7","7","5","6","7","6","7","2","5","6","7","5","6","7","634030444760793088","宋","698","Male","[""好我"",""好他"",""坏我"",""坏他""]","[""强我"",""强他"",""弱我"",""弱他""]","","","","","","","","match","","","","","","","","","","key","f","16.652924528302083","799.9999682108573","445.8333156175091","f","true","match","img/trapezoid.png","强我","强我","prac_ALT2_ability","practice_ability","","","","","","","",""
"null","<span style='color:GreenYellow; font-size: 70px;'>正确! </span>","null","html-keyboard-response","51","359027","0.0-8.0-1.0-1.0-0.0-1.20","5","6","7","6","7","4","4","5","5","4","4","-2","-3","1","2","1","0","1","2","4","5","4","5","4","5","4","1","5","4","8","6","7","8","7","9","8","7","6","6","6","5","7","5","6","7","7","5","6","6","7","2","5","5","6","6","5","7","5","2","5","1","5","6","6","7","7","5","6","7","6","7","2","5","6","7","5","6","7","634030444760793088","宋","698","Male","[""好我"",""好他"",""坏我"",""坏他""]","[""强我"",""强他"",""弱我"",""弱他""]","","","","","","","","","","","","","","","","","","","","","","","","","","","","","","feedback_test","","","","","","","",""
"1102","","j","psychophysics","52","361130","0.0-8.0-1.0-1.0-0.0-0.21","5","6","7","6","7","4","4","5","5","4","4","-2","-3","1","2","1","0","1","2","4","5","4","5","4","5","4","1","5","4","8","6","7","8","7","9","8","7","6","6","6","5","7","5","6","7","7","5","6","6","7","2","5","5","6","6","5","7","5","2","5","1","5","6","6","7","7","5","6","7","6","7","2","5","6","7","5","6","7","634030444760793088","宋","698","Male","[""好我"",""好他"",""坏我"",""坏他""]","[""强我"",""强他"",""弱我"",""弱他""]","","","","","","","","nonmatch","","","","","","","","","","key","j","16.653760000000243","799.9999682108573","445.8333156175091","j","true","nonmatch","img/pentagon.png","强他","弱我","prac_ALT2_ability","practice_ability","","","","","","","",""
"null","<span style='color:GreenYellow; font-size: 70px;'>正确! </span>","null","html-keyboard-response","53","361631","0.0-8.0-1.0-1.0-0.0-1.21","5","6","7","6","7","4","4","5","5","4","4","-2","-3","1","2","1","0","1","2","4","5","4","5","4","5","4","1","5","4","8","6","7","8","7","9","8","7","6","6","6","5","7","5","6","7","7","5","6","6","7","2","5","5","6","6","5","7","5","2","5","1","5","6","6","7","7","5","6","7","6","7","2","5","6","7","5","6","7","634030444760793088","宋","698","Male","[""好我"",""好他"",""坏我"",""坏他""]","[""强我"",""强他"",""弱我"",""弱他""]","","","","","","","","","","","","","","","","","","","","","","","","","","","","","","feedback_test","","","","","","","",""
"903","","j","psychophysics","54","363536","0.0-8.0-1.0-1.0-0.0-0.22","5","6","7","6","7","4","4","5","5","4","4","-2","-3","1","2","1","0","1","2","4","5","4","5","4","5","4","1","5","4","8","6","7","8","7","9","8","7","6","6","6","5","7","5","6","7","7","5","6","6","7","2","5","5","6","6","5","7","5","2","5","1","5","6","6","7","7","5","6","7","6","7","2","5","6","7","5","6","7","634030444760793088","宋","698","Male","[""好我"",""好他"",""坏我"",""坏他""]","[""强我"",""强他"",""弱我"",""弱他""]","","","","","","","","nonmatch","","","","","","","","","","key","j","16.654412280701777","799.9999682108573","445.8333156175091","j","true","nonmatch","img/diamond.png","强我","弱他","prac_ALT2_ability","practice_ability","","","","","","","",""
"null","<span style='color:GreenYellow; font-size: 70px;'>正确! </span>","null","html-keyboard-response","55","364040","0.0-8.0-1.0-1.0-0.0-1.22","5","6","7","6","7","4","4","5","5","4","4","-2","-3","1","2","1","0","1","2","4","5","4","5","4","5","4","1","5","4","8","6","7","8","7","9","8","7","6","6","6","5","7","5","6","7","7","5","6","6","7","2","5","5","6","6","5","7","5","2","5","1","5","6","6","7","7","5","6","7","6","7","2","5","6","7","5","6","7","634030444760793088","宋","698","Male","[""好我"",""好他"",""坏我"",""坏他""]","[""强我"",""强他"",""弱我"",""弱他""]","","","","","","","","","","","","","","","","","","","","","","","","","","","","","","feedback_test","","","","","","","",""
"906","","f","psychophysics","56","365948","0.0-8.0-1.0-1.0-0.0-0.23","5","6","7","6","7","4","4","5","5","4","4","-2","-3","1","2","1","0","1","2","4","5","4","5","4","5","4","1","5","4","8","6","7","8","7","9","8","7","6","6","6","5","7","5","6","7","7","5","6","6","7","2","5","5","6","6","5","7","5","2","5","1","5","6","6","7","7","5","6","7","6","7","2","5","6","7","5","6","7","634030444760793088","宋","698","Male","[""好我"",""好他"",""坏我"",""坏他""]","[""强我"",""强他"",""弱我"",""弱他""]","","","","","","","","match","","","","","","","","","","key","f","16.653513274336362","799.9999682108573","445.8333156175091","f","true","match","img/diamond.png","弱他","弱他","prac_ALT2_ability","practice_ability","","","","","","","",""
"null","<span style='color:GreenYellow; font-size: 70px;'>正确! </span>","null","html-keyboard-response","57","366449","0.0-8.0-1.0-1.0-0.0-1.23","5","6","7","6","7","4","4","5","5","4","4","-2","-3","1","2","1","0","1","2","4","5","4","5","4","5","4","1","5","4","8","6","7","8","7","9","8","7","6","6","6","5","7","5","6","7","7","5","6","6","7","2","5","5","6","6","5","7","5","2","5","1","5","6","6","7","7","5","6","7","6","7","2","5","6","7","5","6","7","634030444760793088","宋","698","Male","[""好我"",""好他"",""坏我"",""坏他""]","[""强我"",""强他"",""弱我"",""弱他""]","","","","","","","","","","","","","","","","","","","","","","","","","","","","","","feedback_test","","","","","","","",""
"629","","f","psychophysics","58","368081","0.0-8.0-1.0-1.0-0.0-0.24","5","6","7","6","7","4","4","5","5","4","4","-2","-3","1","2","1","0","1","2","4","5","4","5","4","5","4","1","5","4","8","6","7","8","7","9","8","7","6","6","6","5","7","5","6","7","7","5","6","6","7","2","5","5","6","6","5","7","5","2","5","1","5","6","6","7","7","5","6","7","6","7","2","5","6","7","5","6","7","634030444760793088","宋","698","Male","[""好我"",""好他"",""坏我"",""坏他""]","[""强我"",""强他"",""弱我"",""弱他""]","","","","","","","","match","","","","","","","","","","key","f","16.65281443298943","799.9999682108573","445.8333156175091","f","true","match","img/ellipse.png","强他","强他","prac_ALT2_ability","practice_ability","","","","","","","",""
"null","<span style='color:GreenYellow; font-size: 70px;'>正确! </span>","null","html-keyboard-response","59","368585","0.0-8.0-1.0-1.0-0.0-1.24","5","6","7","6","7","4","4","5","5","4","4","-2","-3","1","2","1","0","1","2","4","5","4","5","4","5","4","1","5","4","8","6","7","8","7","9","8","7","6","6","6","5","7","5","6","7","7","5","6","6","7","2","5","5","6","6","5","7","5","2","5","1","5","6","6","7","7","5","6","7","6","7","2","5","6","7","5","6","7","634030444760793088","宋","698","Male","[""好我"",""好他"",""坏我"",""坏他""]","[""强我"",""强他"",""弱我"",""弱他""]","","","","","","","","","","","","","","","","","","","","","","","","","","","","","","feedback_test","","","","","","","",""
"828","","j","psychophysics","60","370415","0.0-8.0-1.0-1.0-0.0-0.25","5","6","7","6","7","4","4","5","5","4","4","-2","-3","1","2","1","0","1","2","4","5","4","5","4","5","4","1","5","4","8","6","7","8","7","9","8","7","6","6","6","5","7","5","6","7","7","5","6","6","7","2","5","5","6","6","5","7","5","2","5","1","5","6","6","7","7","5","6","7","6","7","2","5","6","7","5","6","7","634030444760793088","宋","698","Male","[""好我"",""好他"",""坏我"",""坏他""]","[""强我"",""强他"",""弱我"",""弱他""]","","","","","","","","nonmatch","","","","","","","","","","key","j","16.650321100917516","799.9999682108573","445.8333156175091","j","true","nonmatch","img/trapezoid.png","弱我","强我","prac_ALT2_ability","practice_ability","","","","","","","",""
"null","<span style='color:GreenYellow; font-size: 70px;'>正确! </span>","null","html-keyboard-response","61","370918","0.0-8.0-1.0-1.0-0.0-1.25","5","6","7","6","7","4","4","5","5","4","4","-2","-3","1","2","1","0","1","2","4","5","4","5","4","5","4","1","5","4","8","6","7","8","7","9","8","7","6","6","6","5","7","5","6","7","7","5","6","6","7","2","5","5","6","6","5","7","5","2","5","1","5","6","6","7","7","5","6","7","6","7","2","5","6","7","5","6","7","634030444760793088","宋","698","Male","[""好我"",""好他"",""坏我"",""坏他""]","[""强我"",""强他"",""弱我"",""弱他""]","","","","","","","","","","","","","","","","","","","","","","","","","","","","","","feedback_test","","","","","","","",""
"754","","j","psychophysics","62","372674","0.0-8.0-1.0-1.0-0.0-0.26","5","6","7","6","7","4","4","5","5","4","4","-2","-3","1","2","1","0","1","2","4","5","4","5","4","5","4","1","5","4","8","6","7","8","7","9","8","7","6","6","6","5","7","5","6","7","7","5","6","6","7","2","5","5","6","6","5","7","5","2","5","1","5","6","6","7","7","5","6","7","6","7","2","5","6","7","5","6","7","634030444760793088","宋","698","Male","[""好我"",""好他"",""坏我"",""坏他""]","[""强我"",""强他"",""弱我"",""弱他""]","","","","","","","","nonmatch","","","","","","","","","","key","j","16.652048076922746","799.9999682108573","445.8333156175091","j","true","nonmatch","img/trapezoid.png","强他","强我","prac_ALT2_ability","practice_ability","","","","","","","",""
"null","<span style='color:GreenYellow; font-size: 70px;'>正确! </span>","null","html-keyboard-response","63","373175","0.0-8.0-1.0-1.0-0.0-1.26","5","6","7","6","7","4","4","5","5","4","4","-2","-3","1","2","1","0","1","2","4","5","4","5","4","5","4","1","5","4","8","6","7","8","7","9","8","7","6","6","6","5","7","5","6","7","7","5","6","6","7","2","5","5","6","6","5","7","5","2","5","1","5","6","6","7","7","5","6","7","6","7","2","5","6","7","5","6","7","634030444760793088","宋","698","Male","[""好我"",""好他"",""坏我"",""坏他""]","[""强我"",""强他"",""弱我"",""弱他""]","","","","","","","","","","","","","","","","","","","","","","","","","","","","","","feedback_test","","","","","","","",""
"862","","f","psychophysics","64","375038","0.0-8.0-1.0-1.0-0.0-0.27","5","6","7","6","7","4","4","5","5","4","4","-2","-3","1","2","1","0","1","2","4","5","4","5","4","5","4","1","5","4","8","6","7","8","7","9","8","7","6","6","6","5","7","5","6","7","7","5","6","6","7","2","5","5","6","6","5","7","5","2","5","1","5","6","6","7","7","5","6","7","6","7","2","5","6","7","5","6","7","634030444760793088","宋","698","Male","[""好我"",""好他"",""坏我"",""坏他""]","[""强我"",""强他"",""弱我"",""弱他""]","","","","","","","","match","","","","","","","","","","key","f","16.64283636363636","799.9999682108573","445.8333156175091","j","false","nonmatch","img/diamond.png","强他","弱他","prac_ALT2_ability","practice_ability","","","","","","","",""
"null","<span style='color:red; font-size: 70px;'>错误! </span>","null","html-keyboard-response","65","375540","0.0-8.0-1.0-1.0-0.0-1.27","5","6","7","6","7","4","4","5","5","4","4","-2","-3","1","2","1","0","1","2","4","5","4","5","4","5","4","1","5","4","8","6","7","8","7","9","8","7","6","6","6","5","7","5","6","7","7","5","6","6","7","2","5","5","6","6","5","7","5","2","5","1","5","6","6","7","7","5","6","7","6","7","2","5","6","7","5","6","7","634030444760793088","宋","698","Male","[""好我"",""好他"",""坏我"",""坏他""]","[""强我"",""强他"",""弱我"",""弱他""]","","","","","","","","","","","","","","","","","","","","","","","","","","","","","","feedback_test","","","","","","","",""
"804","","f","psychophysics","66","377345","0.0-8.0-1.0-1.0-0.0-0.28","5","6","7","6","7","4","4","5","5","4","4","-2","-3","1","2","1","0","1","2","4","5","4","5","4","5","4","1","5","4","8","6","7","8","7","9","8","7","6","6","6","5","7","5","6","7","7","5","6","6","7","2","5","5","6","6","5","7","5","2","5","1","5","6","6","7","7","5","6","7","6","7","2","5","6","7","5","6","7","634030444760793088","宋","698","Male","[""好我"",""好他"",""坏我"",""坏他""]","[""强我"",""强他"",""弱我"",""弱他""]","","","","","","","","match","","","","","","","","","","key","f","16.653972222221824","799.9999682108573","445.8333156175091","f","true","match","img/diamond.png","弱他","弱他","prac_ALT2_ability","practice_ability","","","","","","","",""
"null","<span style='color:GreenYellow; font-size: 70px;'>正确! </span>","null","html-keyboard-response","67","377846","0.0-8.0-1.0-1.0-0.0-1.28","5","6","7","6","7","4","4","5","5","4","4","-2","-3","1","2","1","0","1","2","4","5","4","5","4","5","4","1","5","4","8","6","7","8","7","9","8","7","6","6","6","5","7","5","6","7","7","5","6","6","7","2","5","5","6","6","5","7","5","2","5","1","5","6","6","7","7","5","6","7","6","7","2","5","6","7","5","6","7","634030444760793088","宋","698","Male","[""好我"",""好他"",""坏我"",""坏他""]","[""强我"",""强他"",""弱我"",""弱他""]","","","","","","","","","","","","","","","","","","","","","","","","","","","","","","feedback_test","","","","","","","",""
"1004","","j","psychophysics","68","379853","0.0-8.0-1.0-1.0-0.0-0.29","5","6","7","6","7","4","4","5","5","4","4","-2","-3","1","2","1","0","1","2","4","5","4","5","4","5","4","1","5","4","8","6","7","8","7","9","8","7","6","6","6","5","7","5","6","7","7","5","6","6","7","2","5","5","6","6","5","7","5","2","5","1","5","6","6","7","7","5","6","7","6","7","2","5","6","7","5","6","7","634030444760793088","宋","698","Male","[""好我"",""好他"",""坏我"",""坏他""]","[""强我"",""强他"",""弱我"",""弱他""]","","","","","","","","nonmatch","","","","","","","","","","key","j","16.653067226890972","799.9999682108573","445.8333156175091","f","false","match","img/diamond.png","弱他","弱他","prac_ALT2_ability","practice_ability","","","","","","","",""
"null","<span style='color:red; font-size: 70px;'>错误! </span>","null","html-keyboard-response","69","380354","0.0-8.0-1.0-1.0-0.0-1.29","5","6","7","6","7","4","4","5","5","4","4","-2","-3","1","2","1","0","1","2","4","5","4","5","4","5","4","1","5","4","8","6","7","8","7","9","8","7","6","6","6","5","7","5","6","7","7","5","6","6","7","2","5","5","6","6","5","7","5","2","5","1","5","6","6","7","7","5","6","7","6","7","2","5","6","7","5","6","7","634030444760793088","宋","698","Male","[""好我"",""好他"",""坏我"",""坏他""]","[""强我"",""强他"",""弱我"",""弱他""]","","","","","","","","","","","","","","","","","","","","","","","","","","","","","","feedback_test","","","","","","","",""
"1007","","f","psychophysics","70","382363","0.0-8.0-1.0-1.0-0.0-0.30","5","6","7","6","7","4","4","5","5","4","4","-2","-3","1","2","1","0","1","2","4","5","4","5","4","5","4","1","5","4","8","6","7","8","7","9","8","7","6","6","6","5","7","5","6","7","7","5","6","6","7","2","5","5","6","6","5","7","5","2","5","1","5","6","6","7","7","5","6","7","6","7","2","5","6","7","5","6","7","634030444760793088","宋","698","Male","[""好我"",""好他"",""坏我"",""坏他""]","[""强我"",""强他"",""弱我"",""弱他""]","","","","","","","","match","","","","","","","","","","key","f","16.652344537815257","799.9999682108573","445.8333156175091","j","false","nonmatch","img/pentagon.png","强我","弱我","prac_ALT2_ability","practice_ability","","","","","","","",""
"null","<span style='color:red; font-size: 70px;'>错误! </span>","null","html-keyboard-response","71","382865","0.0-8.0-1.0-1.0-0.0-1.30","5","6","7","6","7","4","4","5","5","4","4","-2","-3","1","2","1","0","1","2","4","5","4","5","4","5","4","1","5","4","8","6","7","8","7","9","8","7","6","6","6","5","7","5","6","7","7","5","6","6","7","2","5","5","6","6","5","7","5","2","5","1","5","6","6","7","7","5","6","7","6","7","2","5","6","7","5","6","7","634030444760793088","宋","698","Male","[""好我"",""好他"",""坏我"",""坏他""]","[""强我"",""强他"",""弱我"",""弱他""]","","","","","","","","","","","","","","","","","","","","","","","","","","","","","","feedback_test","","","","","","","",""
"671","","f","psychophysics","72","384538","0.0-8.0-1.0-1.0-0.0-0.31","5","6","7","6","7","4","4","5","5","4","4","-2","-3","1","2","1","0","1","2","4","5","4","5","4","5","4","1","5","4","8","6","7","8","7","9","8","7","6","6","6","5","7","5","6","7","7","5","6","6","7","2","5","5","6","6","5","7","5","2","5","1","5","6","6","7","7","5","6","7","6","7","2","5","6","7","5","6","7","634030444760793088","宋","698","Male","[""好我"",""好他"",""坏我"",""坏他""]","[""强我"",""强他"",""弱我"",""弱他""]","","","","","","","","match","","","","","","","","","","key","f","16.654479999999747","799.9999682108573","445.8333156175091","f","true","match","img/trapezoid.png","强我","强我","prac_ALT2_ability","practice_ability","","","","","","","",""
"null","<span style='color:GreenYellow; font-size: 70px;'>正确! </span>","null","html-keyboard-response","73","385040","0.0-8.0-1.0-1.0-0.0-1.31","5","6","7","6","7","4","4","5","5","4","4","-2","-3","1","2","1","0","1","2","4","5","4","5","4","5","4","1","5","4","8","6","7","8","7","9","8","7","6","6","6","5","7","5","6","7","7","5","6","6","7","2","5","5","6","6","5","7","5","2","5","1","5","6","6","7","7","5","6","7","6","7","2","5","6","7","5","6","7","634030444760793088","宋","698","Male","[""好我"",""好他"",""坏我"",""坏他""]","[""强我"",""强他"",""弱我"",""弱他""]","","","","","","","","","","","","","","","","","","","","","","","","","","","","","","feedback_test","","","","","","","",""
"878","","f","psychophysics","74","386920","0.0-8.0-1.0-1.0-0.0-0.32","5","6","7","6","7","4","4","5","5","4","4","-2","-3","1","2","1","0","1","2","4","5","4","5","4","5","4","1","5","4","8","6","7","8","7","9","8","7","6","6","6","5","7","5","6","7","7","5","6","6","7","2","5","5","6","6","5","7","5","2","5","1","5","6","6","7","7","5","6","7","6","7","2","5","6","7","5","6","7","634030444760793088","宋","698","Male","[""好我"",""好他"",""坏我"",""坏他""]","[""强我"",""强他"",""弱我"",""弱他""]","","","","","","","","match","","","","","","","","","","key","f","16.65322321428539","799.9999682108573","445.8333156175091","f","true","match","img/pentagon.png","弱我","弱我","prac_ALT2_ability","practice_ability","","","","","","","",""
"null","<span style='color:GreenYellow; font-size: 70px;'>正确! </span>","null","html-keyboard-response","75","387421","0.0-8.0-1.0-1.0-0.0-1.32","5","6","7","6","7","4","4","5","5","4","4","-2","-3","1","2","1","0","1","2","4","5","4","5","4","5","4","1","5","4","8","6","7","8","7","9","8","7","6","6","6","5","7","5","6","7","7","5","6","6","7","2","5","5","6","6","5","7","5","2","5","1","5","6","6","7","7","5","6","7","6","7","2","5","6","7","5","6","7","634030444760793088","宋","698","Male","[""好我"",""好他"",""坏我"",""坏他""]","[""强我"",""强他"",""弱我"",""弱他""]","","","","","","","","","","","","","","","","","","","","","","","","","","","","","","feedback_test","","","","","","","",""
"846","","f","psychophysics","76","389270","0.0-8.0-1.0-1.0-0.0-0.33","5","6","7","6","7","4","4","5","5","4","4","-2","-3","1","2","1","0","1","2","4","5","4","5","4","5","4","1","5","4","8","6","7","8","7","9","8","7","6","6","6","5","7","5","6","7","7","5","6","6","7","2","5","5","6","6","5","7","5","2","5","1","5","6","6","7","7","5","6","7","6","7","2","5","6","7","5","6","7","634030444760793088","宋","698","Male","[""好我"",""好他"",""坏我"",""坏他""]","[""强我"",""强他"",""弱我"",""弱他""]","","","","","","","","match","","","","","","","","","","key","f","16.65334545454508","799.9999682108573","445.8333156175091","f","true","match","img/ellipse.png","强他","强他","prac_ALT2_ability","practice_ability","","","","","","","",""
"null","<span style='color:GreenYellow; font-size: 70px;'>正确! </span>","null","html-keyboard-response","77","389771","0.0-8.0-1.0-1.0-0.0-1.33","5","6","7","6","7","4","4","5","5","4","4","-2","-3","1","2","1","0","1","2","4","5","4","5","4","5","4","1","5","4","8","6","7","8","7","9","8","7","6","6","6","5","7","5","6","7","7","5","6","6","7","2","5","5","6","6","5","7","5","2","5","1","5","6","6","7","7","5","6","7","6","7","2","5","6","7","5","6","7","634030444760793088","宋","698","Male","[""好我"",""好他"",""坏我"",""坏他""]","[""强我"",""强他"",""弱我"",""弱他""]","","","","","","","","","","","","","","","","","","","","","","","","","","","","","","feedback_test","","","","","","","",""
"837","","j","psychophysics","78","391610","0.0-8.0-1.0-1.0-0.0-0.34","5","6","7","6","7","4","4","5","5","4","4","-2","-3","1","2","1","0","1","2","4","5","4","5","4","5","4","1","5","4","8","6","7","8","7","9","8","7","6","6","6","5","7","5","6","7","7","5","6","6","7","2","5","5","6","6","5","7","5","2","5","1","5","6","6","7","7","5","6","7","6","7","2","5","6","7","5","6","7","634030444760793088","宋","698","Male","[""好我"",""好他"",""坏我"",""坏他""]","[""强我"",""强他"",""弱我"",""弱他""]","","","","","","","","nonmatch","","","","","","","","","","key","j","16.65324770642173","799.9999682108573","445.8333156175091","j","true","nonmatch","img/pentagon.png","弱他","弱我","prac_ALT2_ability","practice_ability","","","","","","","",""
"null","<span style='color:GreenYellow; font-size: 70px;'>正确! </span>","null","html-keyboard-response","79","392110","0.0-8.0-1.0-1.0-0.0-1.34","5","6","7","6","7","4","4","5","5","4","4","-2","-3","1","2","1","0","1","2","4","5","4","5","4","5","4","1","5","4","8","6","7","8","7","9","8","7","6","6","6","5","7","5","6","7","7","5","6","6","7","2","5","5","6","6","5","7","5","2","5","1","5","6","6","7","7","5","6","7","6","7","2","5","6","7","5","6","7","634030444760793088","宋","698","Male","[""好我"",""好他"",""坏我"",""坏他""]","[""强我"",""强他"",""弱我"",""弱他""]","","","","","","","","","","","","","","","","","","","","","","","","","","","","","","feedback_test","","","","","","","",""
"734","","f","psychophysics","80","393848","0.0-8.0-1.0-1.0-0.0-0.35","5","6","7","6","7","4","4","5","5","4","4","-2","-3","1","2","1","0","1","2","4","5","4","5","4","5","4","1","5","4","8","6","7","8","7","9","8","7","6","6","6","5","7","5","6","7","7","5","6","6","7","2","5","5","6","6","5","7","5","2","5","1","5","6","6","7","7","5","6","7","6","7","2","5","6","7","5","6","7","634030444760793088","宋","698","Male","[""好我"",""好他"",""坏我"",""坏他""]","[""强我"",""强他"",""弱我"",""弱他""]","","","","","","","","match","","","","","","","","","","key","f","16.6523300970874","799.9999682108573","445.8333156175091","f","true","match","img/trapezoid.png","强我","强我","prac_ALT2_ability","practice_ability","","","","","","","",""
"null","<span style='color:GreenYellow; font-size: 70px;'>正确! </span>","null","html-keyboard-response","81","394348","0.0-8.0-1.0-1.0-0.0-1.35","5","6","7","6","7","4","4","5","5","4","4","-2","-3","1","2","1","0","1","2","4","5","4","5","4","5","4","1","5","4","8","6","7","8","7","9","8","7","6","6","6","5","7","5","6","7","7","5","6","6","7","2","5","5","6","6","5","7","5","2","5","1","5","6","6","7","7","5","6","7","6","7","2","5","6","7","5","6","7","634030444760793088","宋","698","Male","[""好我"",""好他"",""坏我"",""坏他""]","[""强我"",""强他"",""弱我"",""弱他""]","","","","","","","","","","","","","","","","","","","","","","","","","","","","","","feedback_test","","","","","","","",""
"1051","","f","psychophysics","82","396400","0.0-8.0-1.0-1.0-0.0-0.36","5","6","7","6","7","4","4","5","5","4","4","-2","-3","1","2","1","0","1","2","4","5","4","5","4","5","4","1","5","4","8","6","7","8","7","9","8","7","6","6","6","5","7","5","6","7","7","5","6","6","7","2","5","5","6","6","5","7","5","2","5","1","5","6","6","7","7","5","6","7","6","7","2","5","6","7","5","6","7","634030444760793088","宋","698","Male","[""好我"",""好他"",""坏我"",""坏他""]","[""强我"",""强他"",""弱我"",""弱他""]","","","","","","","","match","","","","","","","","","","key","f","16.65360655737697","799.9999682108573","445.8333156175091","f","true","match","img/diamond.png","弱他","弱他","prac_ALT2_ability","practice_ability","","","","","","","",""
"null","<span style='color:GreenYellow; font-size: 70px;'>正确! </span>","null","html-keyboard-response","83","396901","0.0-8.0-1.0-1.0-0.0-1.36","5","6","7","6","7","4","4","5","5","4","4","-2","-3","1","2","1","0","1","2","4","5","4","5","4","5","4","1","5","4","8","6","7","8","7","9","8","7","6","6","6","5","7","5","6","7","7","5","6","6","7","2","5","5","6","6","5","7","5","2","5","1","5","6","6","7","7","5","6","7","6","7","2","5","6","7","5","6","7","634030444760793088","宋","698","Male","[""好我"",""好他"",""坏我"",""坏他""]","[""强我"",""强他"",""弱我"",""弱他""]","","","","","","","","","","","","","","","","","","","","","","","","","","","","","","feedback_test","","","","","","","",""
"1055","","f","psychophysics","84","398958","0.0-8.0-1.0-1.0-0.0-0.37","5","6","7","6","7","4","4","5","5","4","4","-2","-3","1","2","1","0","1","2","4","5","4","5","4","5","4","1","5","4","8","6","7","8","7","9","8","7","6","6","6","5","7","5","6","7","7","5","6","6","7","2","5","5","6","6","5","7","5","2","5","1","5","6","6","7","7","5","6","7","6","7","2","5","6","7","5","6","7","634030444760793088","宋","698","Male","[""好我"",""好他"",""坏我"",""坏他""]","[""强我"",""强他"",""弱我"",""弱他""]","","","","","","","","match","","","","","","","","","","key","f","16.65278861788622","799.9999682108573","445.8333156175091","f","true","match","img/pentagon.png","弱我","弱我","prac_ALT2_ability","practice_ability","","","","","","","",""
"null","<span style='color:GreenYellow; font-size: 70px;'>正确! </span>","null","html-keyboard-response","85","399460","0.0-8.0-1.0-1.0-0.0-1.37","5","6","7","6","7","4","4","5","5","4","4","-2","-3","1","2","1","0","1","2","4","5","4","5","4","5","4","1","5","4","8","6","7","8","7","9","8","7","6","6","6","5","7","5","6","7","7","5","6","6","7","2","5","5","6","6","5","7","5","2","5","1","5","6","6","7","7","5","6","7","6","7","2","5","6","7","5","6","7","634030444760793088","宋","698","Male","[""好我"",""好他"",""坏我"",""坏他""]","[""强我"",""强他"",""弱我"",""弱他""]","","","","","","","","","","","","","","","","","","","","","","","","","","","","","","feedback_test","","","","","","","",""
"906","","j","psychophysics","86","401368","0.0-8.0-1.0-1.0-0.0-0.38","5","6","7","6","7","4","4","5","5","4","4","-2","-3","1","2","1","0","1","2","4","5","4","5","4","5","4","1","5","4","8","6","7","8","7","9","8","7","6","6","6","5","7","5","6","7","7","5","6","6","7","2","5","5","6","6","5","7","5","2","5","1","5","6","6","7","7","5","6","7","6","7","2","5","6","7","5","6","7","634030444760793088","宋","698","Male","[""好我"",""好他"",""坏我"",""坏他""]","[""强我"",""强他"",""弱我"",""弱他""]","","","","","","","","nonmatch","","","","","","","","","","key","j","16.65322123893817","799.9999682108573","445.8333156175091","j","true","nonmatch","img/ellipse.png","弱我","强他","prac_ALT2_ability","practice_ability","","","","","","","",""
"null","<span style='color:GreenYellow; font-size: 70px;'>正确! </span>","null","html-keyboard-response","87","401870","0.0-8.0-1.0-1.0-0.0-1.38","5","6","7","6","7","4","4","5","5","4","4","-2","-3","1","2","1","0","1","2","4","5","4","5","4","5","4","1","5","4","8","6","7","8","7","9","8","7","6","6","6","5","7","5","6","7","7","5","6","6","7","2","5","5","6","6","5","7","5","2","5","1","5","6","6","7","7","5","6","7","6","7","2","5","6","7","5","6","7","634030444760793088","宋","698","Male","[""好我"",""好他"",""坏我"",""坏他""]","[""强我"",""强他"",""弱我"",""弱他""]","","","","","","","","","","","","","","","","","","","","","","","","","","","","","","feedback_test","","","","","","","",""
"1024","","j","psychophysics","88","403896","0.0-8.0-1.0-1.0-0.0-0.39","5","6","7","6","7","4","4","5","5","4","4","-2","-3","1","2","1","0","1","2","4","5","4","5","4","5","4","1","5","4","8","6","7","8","7","9","8","7","6","6","6","5","7","5","6","7","7","5","6","6","7","2","5","5","6","6","5","7","5","2","5","1","5","6","6","7","7","5","6","7","6","7","2","5","6","7","5","6","7","634030444760793088","宋","698","Male","[""好我"",""好他"",""坏我"",""坏他""]","[""强我"",""强他"",""弱我"",""弱他""]","","","","","","","","nonmatch","","","","","","","","","","key","j","16.652866666666522","799.9999682108573","445.8333156175091","j","true","nonmatch","img/ellipse.png","弱他","强他","prac_ALT2_ability","practice_ability","","","","","","","",""
"null","<span style='color:GreenYellow; font-size: 70px;'>正确! </span>","null","html-keyboard-response","89","404397","0.0-8.0-1.0-1.0-0.0-1.39","5","6","7","6","7","4","4","5","5","4","4","-2","-3","1","2","1","0","1","2","4","5","4","5","4","5","4","1","5","4","8","6","7","8","7","9","8","7","6","6","6","5","7","5","6","7","7","5","6","6","7","2","5","5","6","6","5","7","5","2","5","1","5","6","6","7","7","5","6","7","6","7","2","5","6","7","5","6","7","634030444760793088","宋","698","Male","[""好我"",""好他"",""坏我"",""坏他""]","[""强我"",""强他"",""弱我"",""弱他""]","","","","","","","","","","","","","","","","","","","","","","","","","","","","","","feedback_test","","","","","","","",""
"1137","","j","psychophysics","90","406535","0.0-8.0-1.0-1.0-0.0-0.40","5","6","7","6","7","4","4","5","5","4","4","-2","-3","1","2","1","0","1","2","4","5","4","5","4","5","4","1","5","4","8","6","7","8","7","9","8","7","6","6","6","5","7","5","6","7","7","5","6","6","7","2","5","5","6","6","5","7","5","2","5","1","5","6","6","7","7","5","6","7","6","7","2","5","6","7","5","6","7","634030444760793088","宋","698","Male","[""好我"",""好他"",""坏我"",""坏他""]","[""强我"",""强他"",""弱我"",""弱他""]","","","","","","","","nonmatch","","","","","","","","","","key","j","16.653953125000044","799.9999682108573","445.8333156175091","f","false","match","img/pentagon.png","弱我","弱我","prac_ALT2_ability","practice_ability","","","","","","","",""
"null","<span style='color:red; font-size: 70px;'>错误! </span>","null","html-keyboard-response","91","407036","0.0-8.0-1.0-1.0-0.0-1.40","5","6","7","6","7","4","4","5","5","4","4","-2","-3","1","2","1","0","1","2","4","5","4","5","4","5","4","1","5","4","8","6","7","8","7","9","8","7","6","6","6","5","7","5","6","7","7","5","6","6","7","2","5","5","6","6","5","7","5","2","5","1","5","6","6","7","7","5","6","7","6","7","2","5","6","7","5","6","7","634030444760793088","宋","698","Male","[""好我"",""好他"",""坏我"",""坏他""]","[""强我"",""强他"",""弱我"",""弱他""]","","","","","","","","","","","","","","","","","","","","","","","","","","","","","","feedback_test","","","","","","","",""
"896","","j","psychophysics","92","408935","0.0-8.0-1.0-1.0-0.0-0.41","5","6","7","6","7","4","4","5","5","4","4","-2","-3","1","2","1","0","1","2","4","5","4","5","4","5","4","1","5","4","8","6","7","8","7","9","8","7","6","6","6","5","7","5","6","7","7","5","6","6","7","2","5","5","6","6","5","7","5","2","5","1","5","6","6","7","7","5","6","7","6","7","2","5","6","7","5","6","7","634030444760793088","宋","698","Male","[""好我"",""好他"",""坏我"",""坏他""]","[""强我"",""强他"",""弱我"",""弱他""]","","","","","","","","nonmatch","","","","","","","","","","key","j","16.653433628318485","799.9999682108573","445.8333156175091","j","true","nonmatch","img/ellipse.png","强我","强他","prac_ALT2_ability","practice_ability","","","","","","","",""
"null","<span style='color:GreenYellow; font-size: 70px;'>正确! </span>","null","html-keyboard-response","93","409436","0.0-8.0-1.0-1.0-0.0-1.41","5","6","7","6","7","4","4","5","5","4","4","-2","-3","1","2","1","0","1","2","4","5","4","5","4","5","4","1","5","4","8","6","7","8","7","9","8","7","6","6","6","5","7","5","6","7","7","5","6","6","7","2","5","5","6","6","5","7","5","2","5","1","5","6","6","7","7","5","6","7","6","7","2","5","6","7","5","6","7","634030444760793088","宋","698","Male","[""好我"",""好他"",""坏我"",""坏他""]","[""强我"",""强他"",""弱我"",""弱他""]","","","","","","","","","","","","","","","","","","","","","","","","","","","","","","feedback_test","","","","","","","",""
"865","","j","psychophysics","94","411302","0.0-8.0-1.0-1.0-0.0-0.42","5","6","7","6","7","4","4","5","5","4","4","-2","-3","1","2","1","0","1","2","4","5","4","5","4","5","4","1","5","4","8","6","7","8","7","9","8","7","6","6","6","5","7","5","6","7","7","5","6","6","7","2","5","5","6","6","5","7","5","2","5","1","5","6","6","7","7","5","6","7","6","7","2","5","6","7","5","6","7","634030444760793088","宋","698","Male","[""好我"",""好他"",""坏我"",""坏他""]","[""强我"",""强他"",""弱我"",""弱他""]","","","","","","","","nonmatch","","","","","","","","","","key","j","16.65328828828789","799.9999682108573","445.8333156175091","j","true","nonmatch","img/diamond.png","强我","弱他","prac_ALT2_ability","practice_ability","","","","","","","",""
"null","<span style='color:GreenYellow; font-size: 70px;'>正确! </span>","null","html-keyboard-response","95","411804","0.0-8.0-1.0-1.0-0.0-1.42","5","6","7","6","7","4","4","5","5","4","4","-2","-3","1","2","1","0","1","2","4","5","4","5","4","5","4","1","5","4","8","6","7","8","7","9","8","7","6","6","6","5","7","5","6","7","7","5","6","6","7","2","5","5","6","6","5","7","5","2","5","1","5","6","6","7","7","5","6","7","6","7","2","5","6","7","5","6","7","634030444760793088","宋","698","Male","[""好我"",""好他"",""坏我"",""坏他""]","[""强我"",""强他"",""弱我"",""弱他""]","","","","","","","","","","","","","","","","","","","","","","","","","","","","","","feedback_test","","","","","","","",""
"809","","j","psychophysics","96","413614","0.0-8.0-1.0-1.0-0.0-0.43","5","6","7","6","7","4","4","5","5","4","4","-2","-3","1","2","1","0","1","2","4","5","4","5","4","5","4","1","5","4","8","6","7","8","7","9","8","7","6","6","6","5","7","5","6","7","7","5","6","6","7","2","5","5","6","6","5","7","5","2","5","1","5","6","6","7","7","5","6","7","6","7","2","5","6","7","5","6","7","634030444760793088","宋","698","Male","[""好我"",""好他"",""坏我"",""坏他""]","[""强我"",""强他"",""弱我"",""弱他""]","","","","","","","","nonmatch","","","","","","","","","","key","j","16.65068518518496","799.9999682108573","445.8333156175091","j","true","nonmatch","img/trapezoid.png","弱他","强我","prac_ALT2_ability","practice_ability","","","","","","","",""
"null","<span style='color:GreenYellow; font-size: 70px;'>正确! </span>","null","html-keyboard-response","97","414115","0.0-8.0-1.0-1.0-0.0-1.43","5","6","7","6","7","4","4","5","5","4","4","-2","-3","1","2","1","0","1","2","4","5","4","5","4","5","4","1","5","4","8","6","7","8","7","9","8","7","6","6","6","5","7","5","6","7","7","5","6","6","7","2","5","5","6","6","5","7","5","2","5","1","5","6","6","7","7","5","6","7","6","7","2","5","6","7","5","6","7","634030444760793088","宋","698","Male","[""好我"",""好他"",""坏我"",""坏他""]","[""强我"",""强他"",""弱我"",""弱他""]","","","","","","","","","","","","","","","","","","","","","","","","","","","","","","feedback_test","","","","","","","",""
"684","","f","psychophysics","98","415800","0.0-8.0-1.0-1.0-0.0-0.44","5","6","7","6","7","4","4","5","5","4","4","-2","-3","1","2","1","0","1","2","4","5","4","5","4","5","4","1","5","4","8","6","7","8","7","9","8","7","6","6","6","5","7","5","6","7","7","5","6","6","7","2","5","5","6","6","5","7","5","2","5","1","5","6","6","7","7","5","6","7","6","7","2","5","6","7","5","6","7","634030444760793088","宋","698","Male","[""好我"",""好他"",""坏我"",""坏他""]","[""强我"",""强他"",""弱我"",""弱他""]","","","","","","","","match","","","","","","","","","","key","f","16.653040000000036","799.9999682108573","445.8333156175091","f","true","match","img/trapezoid.png","强我","强我","prac_ALT2_ability","practice_ability","","","","","","","",""
"null","<span style='color:GreenYellow; font-size: 70px;'>正确! </span>","null","html-keyboard-response","99","416301","0.0-8.0-1.0-1.0-0.0-1.44","5","6","7","6","7","4","4","5","5","4","4","-2","-3","1","2","1","0","1","2","4","5","4","5","4","5","4","1","5","4","8","6","7","8","7","9","8","7","6","6","6","5","7","5","6","7","7","5","6","6","7","2","5","5","6","6","5","7","5","2","5","1","5","6","6","7","7","5","6","7","6","7","2","5","6","7","5","6","7","634030444760793088","宋","698","Male","[""好我"",""好他"",""坏我"",""坏他""]","[""强我"",""强他"",""弱我"",""弱他""]","","","","","","","","","","","","","","","","","","","","","","","","","","","","","","feedback_test","","","","","","","",""
"877","","f","psychophysics","100","418180","0.0-8.0-1.0-1.0-0.0-0.45","5","6","7","6","7","4","4","5","5","4","4","-2","-3","1","2","1","0","1","2","4","5","4","5","4","5","4","1","5","4","8","6","7","8","7","9","8","7","6","6","6","5","7","5","6","7","7","5","6","6","7","2","5","5","6","6","5","7","5","2","5","1","5","6","6","7","7","5","6","7","6","7","2","5","6","7","5","6","7","634030444760793088","宋","698","Male","[""好我"",""好他"",""坏我"",""坏他""]","[""强我"",""强他"",""弱我"",""弱他""]","","","","","","","","match","","","","","","","","","","key","f","16.65319642857139","799.9999682108573","445.8333156175091","j","false","nonmatch","img/diamond.png","弱我","弱他","prac_ALT2_ability","practice_ability","","","","","","","",""
"null","<span style='color:red; font-size: 70px;'>错误! </span>","null","html-keyboard-response","101","418681","0.0-8.0-1.0-1.0-0.0-1.45","5","6","7","6","7","4","4","5","5","4","4","-2","-3","1","2","1","0","1","2","4","5","4","5","4","5","4","1","5","4","8","6","7","8","7","9","8","7","6","6","6","5","7","5","6","7","7","5","6","6","7","2","5","5","6","6","5","7","5","2","5","1","5","6","6","7","7","5","6","7","6","7","2","5","6","7","5","6","7","634030444760793088","宋","698","Male","[""好我"",""好他"",""坏我"",""坏他""]","[""强我"",""强他"",""弱我"",""弱他""]","","","","","","","","","","","","","","","","","","","","","","","","","","","","","","feedback_test","","","","","","","",""
"1001","","f","psychophysics","102","420684","0.0-8.0-1.0-1.0-0.0-0.46","5","6","7","6","7","4","4","5","5","4","4","-2","-3","1","2","1","0","1","2","4","5","4","5","4","5","4","1","5","4","8","6","7","8","7","9","8","7","6","6","6","5","7","5","6","7","7","5","6","6","7","2","5","5","6","6","5","7","5","2","5","1","5","6","6","7","7","5","6","7","6","7","2","5","6","7","5","6","7","634030444760793088","宋","698","Male","[""好我"",""好他"",""坏我"",""坏他""]","[""强我"",""强他"",""弱我"",""弱他""]","","","","","","","","match","","","","","","","","","","key","f","16.65064705882374","799.9999682108573","445.8333156175091","f","true","match","img/ellipse.png","强他","强他","prac_ALT2_ability","practice_ability","","","","","","","",""
"null","<span style='color:GreenYellow; font-size: 70px;'>正确! </span>","null","html-keyboard-response","103","421185","0.0-8.0-1.0-1.0-0.0-1.46","5","6","7","6","7","4","4","5","5","4","4","-2","-3","1","2","1","0","1","2","4","5","4","5","4","5","4","1","5","4","8","6","7","8","7","9","8","7","6","6","6","5","7","5","6","7","7","5","6","6","7","2","5","5","6","6","5","7","5","2","5","1","5","6","6","7","7","5","6","7","6","7","2","5","6","7","5","6","7","634030444760793088","宋","698","Male","[""好我"",""好他"",""坏我"",""坏他""]","[""强我"",""强他"",""弱我"",""弱他""]","","","","","","","","","","","","","","","","","","","","","","","","","","","","","","feedback_test","","","","","","","",""
"946","","j","psychophysics","104","423132","0.0-8.0-1.0-1.0-0.0-0.47","5","6","7","6","7","4","4","5","5","4","4","-2","-3","1","2","1","0","1","2","4","5","4","5","4","5","4","1","5","4","8","6","7","8","7","9","8","7","6","6","6","5","7","5","6","7","7","5","6","6","7","2","5","5","6","6","5","7","5","2","5","1","5","6","6","7","7","5","6","7","6","7","2","5","6","7","5","6","7","634030444760793088","宋","698","Male","[""好我"",""好他"",""坏我"",""坏他""]","[""强我"",""强他"",""弱我"",""弱他""]","","","","","","","","nonmatch","","","","","","","","","","key","j","16.653008620689747","799.9999682108573","445.8333156175091","j","true","nonmatch","img/pentagon.png","强他","弱我","prac_ALT2_ability","practice_ability","","","","","","","",""
"null","<span style='color:GreenYellow; font-size: 70px;'>正确! </span>","null","html-keyboard-response","105","423633","0.0-8.0-1.0-1.0-0.0-1.47","5","6","7","6","7","4","4","5","5","4","4","-2","-3","1","2","1","0","1","2","4","5","4","5","4","5","4","1","5","4","8","6","7","8","7","9","8","7","6","6","6","5","7","5","6","7","7","5","6","6","7","2","5","5","6","6","5","7","5","2","5","1","5","6","6","7","7","5","6","7","6","7","2","5","6","7","5","6","7","634030444760793088","宋","698","Male","[""好我"",""好他"",""坏我"",""坏他""]","[""强我"",""强他"",""弱我"",""弱他""]","","","","","","","","","","","","","","","","","","","","","","","","","","","","","","feedback_test","","","","","","","",""
"852","<style>.context{color:white; font-size: 35px; line-height:40px}</style>                          <div><p class='context'>您正确回答了81% 的试次。</p><p class='context'>您的平均反应时为868毫秒。</p><p class='context'>恭喜您完成练习。按空格键进入正式实验。</p><p class='footer' style='color:white;font-size: 35px; line-height:40px;'>请在进入正式实验实验之前将您的<span style='color: lightgreen;'>食指</span>放在电脑键盘的相应键位上进行按键。</p>"," ","html-keyboard-response","106","424488","0.0-8.0-1.0-2.0","5","6","7","6","7","4","4","5","5","4","4","-2","-3","1","2","1","0","1","2","4","5","4","5","4","5","4","1","5","4","8","6","7","8","7","9","8","7","6","6","6","5","7","5","6","7","7","5","6","6","7","2","5","5","6","6","5","7","5","2","5","1","5","6","6","7","7","5","6","7","6","7","2","5","6","7","5","6","7","634030444760793088","宋","698","Male","[""好我"",""好他"",""坏我"",""坏他""]","[""强我"",""强他"",""弱我"",""弱他""]","","","","","","","","","","","","","","","","","","","","","","","","","","","","","","","","","","","","","",""
"493","
  <p style='color: white; font-size: 22px'>请您将手指放在按键上，准备进入正式的匹配任务。</p>
  <p> <div style = ""color: green""><按空格键进入下一阶段的匹配任务></div></p>
  "," ","html-keyboard-response","107","424986","0.0-8.0-1.0-3.0","5","6","7","6","7","4","4","5","5","4","4","-2","-3","1","2","1","0","1","2","4","5","4","5","4","5","4","1","5","4","8","6","7","8","7","9","8","7","6","6","6","5","7","5","6","7","7","5","6","6","7","2","5","5","6","6","5","7","5","2","5","1","5","6","6","7","7","5","6","7","6","7","2","5","6","7","5","6","7","634030444760793088","宋","698","Male","[""好我"",""好他"",""坏我"",""坏他""]","[""强我"",""强他"",""弱我"",""弱他""]","","","","","","","","","","","","","","","","","","","","","","","","","","","","","","","","","","","","","",""
"716","","f","psychophysics","108","426704","0.0-8.0-1.0-4.0-0.0-0.0","5","6","7","6","7","4","4","5","5","4","4","-2","-3","1","2","1","0","1","2","4","5","4","5","4","5","4","1","5","4","8","6","7","8","7","9","8","7","6","6","6","5","7","5","6","7","7","5","6","6","7","2","5","5","6","6","5","7","5","2","5","1","5","6","6","7","7","5","6","7","6","7","2","5","6","7","5","6","7","634030444760793088","宋","698","Male","[""好我"",""好他"",""坏我"",""坏他""]","[""强我"",""强他"",""弱我"",""弱他""]","","","","","","","","match","","","","","","","","","","key","f","16.653245098039157","799.9999682108573","445.8333156175091","f","true","match","img/trapezoid.png","强我","强我","ALT2","ability","","","","","","","",""
"null","<span style='color:GreenYellow; font-size: 70px;'>正确! </span>","null","html-keyboard-response","109","427206","0.0-8.0-1.0-4.0-0.0-1.0","5","6","7","6","7","4","4","5","5","4","4","-2","-3","1","2","1","0","1","2","4","5","4","5","4","5","4","1","5","4","8","6","7","8","7","9","8","7","6","6","6","5","7","5","6","7","7","5","6","6","7","2","5","5","6","6","5","7","5","2","5","1","5","6","6","7","7","5","6","7","6","7","2","5","6","7","5","6","7","634030444760793088","宋","698","Male","[""好我"",""好他"",""坏我"",""坏他""]","[""强我"",""强他"",""弱我"",""弱他""]","","","","","","","","","","","","","","","","","","","","","","","","","","","","","","feedback_test","","","","","","","",""
"760","","f","psychophysics","110","428968","0.0-8.0-1.0-4.0-0.0-0.1","5","6","7","6","7","4","4","5","5","4","4","-2","-3","1","2","1","0","1","2","4","5","4","5","4","5","4","1","5","4","8","6","7","8","7","9","8","7","6","6","6","5","7","5","6","7","7","5","6","6","7","2","5","5","6","6","5","7","5","2","5","1","5","6","6","7","7","5","6","7","6","7","2","5","6","7","5","6","7","634030444760793088","宋","698","Male","[""好我"",""好他"",""坏我"",""坏他""]","[""强我"",""强他"",""弱我"",""弱他""]","","","","","","","","match","","","","","","","","","","key","f","16.652904761904697","799.9999682108573","445.8333156175091","f","true","match","img/ellipse.png","强他","强他","ALT2","ability","","","","","","","",""
"null","<span style='color:GreenYellow; font-size: 70px;'>正确! </span>","null","html-keyboard-response","111","429469","0.0-8.0-1.0-4.0-0.0-1.1","5","6","7","6","7","4","4","5","5","4","4","-2","-3","1","2","1","0","1","2","4","5","4","5","4","5","4","1","5","4","8","6","7","8","7","9","8","7","6","6","6","5","7","5","6","7","7","5","6","6","7","2","5","5","6","6","5","7","5","2","5","1","5","6","6","7","7","5","6","7","6","7","2","5","6","7","5","6","7","634030444760793088","宋","698","Male","[""好我"",""好他"",""坏我"",""坏他""]","[""强我"",""强他"",""弱我"",""弱他""]","","","","","","","","","","","","","","","","","","","","","","","","","","","","","","feedback_test","","","","","","","",""
"729","","f","psychophysics","112","431200","0.0-8.0-1.0-4.0-0.0-0.2","5","6","7","6","7","4","4","5","5","4","4","-2","-3","1","2","1","0","1","2","4","5","4","5","4","5","4","1","5","4","8","6","7","8","7","9","8","7","6","6","6","5","7","5","6","7","7","5","6","6","7","2","5","5","6","6","5","7","5","2","5","1","5","6","6","7","7","5","6","7","6","7","2","5","6","7","5","6","7","634030444760793088","宋","698","Male","[""好我"",""好他"",""坏我"",""坏他""]","[""强我"",""强他"",""弱我"",""弱他""]","","","","","","","","match","","","","","","","","","","key","f","16.653650485436902","799.9999682108573","445.8333156175091","f","true","match","img/diamond.png","弱他","弱他","ALT2","ability","","","","","","","",""
"null","<span style='color:GreenYellow; font-size: 70px;'>正确! </span>","null","html-keyboard-response","113","431701","0.0-8.0-1.0-4.0-0.0-1.2","5","6","7","6","7","4","4","5","5","4","4","-2","-3","1","2","1","0","1","2","4","5","4","5","4","5","4","1","5","4","8","6","7","8","7","9","8","7","6","6","6","5","7","5","6","7","7","5","6","6","7","2","5","5","6","6","5","7","5","2","5","1","5","6","6","7","7","5","6","7","6","7","2","5","6","7","5","6","7","634030444760793088","宋","698","Male","[""好我"",""好他"",""坏我"",""坏他""]","[""强我"",""强他"",""弱我"",""弱他""]","","","","","","","","","","","","","","","","","","","","","","","","","","","","","","feedback_test","","","","","","","",""
"798","","j","psychophysics","114","433500","0.0-8.0-1.0-4.0-0.0-0.3","5","6","7","6","7","4","4","5","5","4","4","-2","-3","1","2","1","0","1","2","4","5","4","5","4","5","4","1","5","4","8","6","7","8","7","9","8","7","6","6","6","5","7","5","6","7","7","5","6","6","7","2","5","5","6","6","5","7","5","2","5","1","5","6","6","7","7","5","6","7","6","7","2","5","6","7","5","6","7","634030444760793088","宋","698","Male","[""好我"",""好他"",""坏我"",""坏他""]","[""强我"",""强他"",""弱我"",""弱他""]","","","","","","","","nonmatch","","","","","","","","","","key","j","16.653280373831894","799.9999682108573","445.8333156175091","j","true","nonmatch","img/pentagon.png","强他","弱我","ALT2","ability","","","","","","","",""
"null","<span style='color:GreenYellow; font-size: 70px;'>正确! </span>","null","html-keyboard-response","115","434003","0.0-8.0-1.0-4.0-0.0-1.3","5","6","7","6","7","4","4","5","5","4","4","-2","-3","1","2","1","0","1","2","4","5","4","5","4","5","4","1","5","4","8","6","7","8","7","9","8","7","6","6","6","5","7","5","6","7","7","5","6","6","7","2","5","5","6","6","5","7","5","2","5","1","5","6","6","7","7","5","6","7","6","7","2","5","6","7","5","6","7","634030444760793088","宋","698","Male","[""好我"",""好他"",""坏我"",""坏他""]","[""强我"",""强他"",""弱我"",""弱他""]","","","","","","","","","","","","","","","","","","","","","","","","","","","","","","feedback_test","","","","","","","",""
"880","","f","psychophysics","116","435885","0.0-8.0-1.0-4.0-0.0-0.4","5","6","7","6","7","4","4","5","5","4","4","-2","-3","1","2","1","0","1","2","4","5","4","5","4","5","4","1","5","4","8","6","7","8","7","9","8","7","6","6","6","5","7","5","6","7","7","5","6","6","7","2","5","5","6","6","5","7","5","2","5","1","5","6","6","7","7","5","6","7","6","7","2","5","6","7","5","6","7","634030444760793088","宋","698","Male","[""好我"",""好他"",""坏我"",""坏他""]","[""强我"",""强他"",""弱我"",""弱他""]","","","","","","","","match","","","","","","","","","","key","f","16.653794642857456","799.9999682108573","445.8333156175091","f","true","match","img/ellipse.png","强他","强他","ALT2","ability","","","","","","","",""
"null","<span style='color:GreenYellow; font-size: 70px;'>正确! </span>","null","html-keyboard-response","117","436386","0.0-8.0-1.0-4.0-0.0-1.4","5","6","7","6","7","4","4","5","5","4","4","-2","-3","1","2","1","0","1","2","4","5","4","5","4","5","4","1","5","4","8","6","7","8","7","9","8","7","6","6","6","5","7","5","6","7","7","5","6","6","7","2","5","5","6","6","5","7","5","2","5","1","5","6","6","7","7","5","6","7","6","7","2","5","6","7","5","6","7","634030444760793088","宋","698","Male","[""好我"",""好他"",""坏我"",""坏他""]","[""强我"",""强他"",""弱我"",""弱他""]","","","","","","","","","","","","","","","","","","","","","","","","","","","","","","feedback_test","","","","","","","",""
"842","","j","psychophysics","118","438229","0.0-8.0-1.0-4.0-0.0-0.5","5","6","7","6","7","4","4","5","5","4","4","-2","-3","1","2","1","0","1","2","4","5","4","5","4","5","4","1","5","4","8","6","7","8","7","9","8","7","6","6","6","5","7","5","6","7","7","5","6","6","7","2","5","5","6","6","5","7","5","2","5","1","5","6","6","7","7","5","6","7","6","7","2","5","6","7","5","6","7","634030444760793088","宋","698","Male","[""好我"",""好他"",""坏我"",""坏他""]","[""强我"",""强他"",""弱我"",""弱他""]","","","","","","","","nonmatch","","","","","","","","","","key","j","16.65488181818139","799.9999682108573","445.8333156175091","j","true","nonmatch","img/diamond.png","强我","弱他","ALT2","ability","","","","","","","",""
"null","<span style='color:GreenYellow; font-size: 70px;'>正确! </span>","null","html-keyboard-response","119","438730","0.0-8.0-1.0-4.0-0.0-1.5","5","6","7","6","7","4","4","5","5","4","4","-2","-3","1","2","1","0","1","2","4","5","4","5","4","5","4","1","5","4","8","6","7","8","7","9","8","7","6","6","6","5","7","5","6","7","7","5","6","6","7","2","5","5","6","6","5","7","5","2","5","1","5","6","6","7","7","5","6","7","6","7","2","5","6","7","5","6","7","634030444760793088","宋","698","Male","[""好我"",""好他"",""坏我"",""坏他""]","[""强我"",""强他"",""弱我"",""弱他""]","","","","","","","","","","","","","","","","","","","","","","","","","","","","","","feedback_test","","","","","","","",""
"656","","f","psychophysics","120","440387","0.0-8.0-1.0-4.0-0.0-0.6","5","6","7","6","7","4","4","5","5","4","4","-2","-3","1","2","1","0","1","2","4","5","4","5","4","5","4","1","5","4","8","6","7","8","7","9","8","7","6","6","6","5","7","5","6","7","7","5","6","6","7","2","5","5","6","6","5","7","5","2","5","1","5","6","6","7","7","5","6","7","6","7","2","5","6","7","5","6","7","634030444760793088","宋","698","Male","[""好我"",""好他"",""坏我"",""坏他""]","[""强我"",""强他"",""弱我"",""弱他""]","","","","","","","","match","","","","","","","","","","key","f","16.65302040816311","799.9999682108573","445.8333156175091","f","true","match","img/trapezoid.png","强我","强我","ALT2","ability","","","","","","","",""
"null","<span style='color:GreenYellow; font-size: 70px;'>正确! </span>","null","html-keyboard-response","121","440889","0.0-8.0-1.0-4.0-0.0-1.6","5","6","7","6","7","4","4","5","5","4","4","-2","-3","1","2","1","0","1","2","4","5","4","5","4","5","4","1","5","4","8","6","7","8","7","9","8","7","6","6","6","5","7","5","6","7","7","5","6","6","7","2","5","5","6","6","5","7","5","2","5","1","5","6","6","7","7","5","6","7","6","7","2","5","6","7","5","6","7","634030444760793088","宋","698","Male","[""好我"",""好他"",""坏我"",""坏他""]","[""强我"",""强他"",""弱我"",""弱他""]","","","","","","","","","","","","","","","","","","","","","","","","","","","","","","feedback_test","","","","","","","",""
"687","","f","psychophysics","122","442578","0.0-8.0-1.0-4.0-0.0-0.7","5","6","7","6","7","4","4","5","5","4","4","-2","-3","1","2","1","0","1","2","4","5","4","5","4","5","4","1","5","4","8","6","7","8","7","9","8","7","6","6","6","5","7","5","6","7","7","5","6","6","7","2","5","5","6","6","5","7","5","2","5","1","5","6","6","7","7","5","6","7","6","7","2","5","6","7","5","6","7","634030444760793088","宋","698","Male","[""好我"",""好他"",""坏我"",""坏他""]","[""强我"",""强他"",""弱我"",""弱他""]","","","","","","","","match","","","","","","","","","","key","f","16.653209999999962","799.9999682108573","445.8333156175091","f","true","match","img/trapezoid.png","强我","强我","ALT2","ability","","","","","","","",""
"null","<span style='color:GreenYellow; font-size: 70px;'>正确! </span>","null","html-keyboard-response","123","443079","0.0-8.0-1.0-4.0-0.0-1.7","5","6","7","6","7","4","4","5","5","4","4","-2","-3","1","2","1","0","1","2","4","5","4","5","4","5","4","1","5","4","8","6","7","8","7","9","8","7","6","6","6","5","7","5","6","7","7","5","6","6","7","2","5","5","6","6","5","7","5","2","5","1","5","6","6","7","7","5","6","7","6","7","2","5","6","7","5","6","7","634030444760793088","宋","698","Male","[""好我"",""好他"",""坏我"",""坏他""]","[""强我"",""强他"",""弱我"",""弱他""]","","","","","","","","","","","","","","","","","","","","","","","","","","","","","","feedback_test","","","","","","","",""
"856","","j","psychophysics","124","444938","0.0-8.0-1.0-4.0-0.0-0.8","5","6","7","6","7","4","4","5","5","4","4","-2","-3","1","2","1","0","1","2","4","5","4","5","4","5","4","1","5","4","8","6","7","8","7","9","8","7","6","6","6","5","7","5","6","7","7","5","6","6","7","2","5","5","6","6","5","7","5","2","5","1","5","6","6","7","7","5","6","7","6","7","2","5","6","7","5","6","7","634030444760793088","宋","698","Male","[""好我"",""好他"",""坏我"",""坏他""]","[""强我"",""强他"",""弱我"",""弱他""]","","","","","","","","nonmatch","","","","","","","","","","key","j","16.65414414414402","799.9999682108573","445.8333156175091","j","true","nonmatch","img/diamond.png","弱我","弱他","ALT2","ability","","","","","","","",""
"null","<span style='color:GreenYellow; font-size: 70px;'>正确! </span>","null","html-keyboard-response","125","445439","0.0-8.0-1.0-4.0-0.0-1.8","5","6","7","6","7","4","4","5","5","4","4","-2","-3","1","2","1","0","1","2","4","5","4","5","4","5","4","1","5","4","8","6","7","8","7","9","8","7","6","6","6","5","7","5","6","7","7","5","6","6","7","2","5","5","6","6","5","7","5","2","5","1","5","6","6","7","7","5","6","7","6","7","2","5","6","7","5","6","7","634030444760793088","宋","698","Male","[""好我"",""好他"",""坏我"",""坏他""]","[""强我"",""强他"",""弱我"",""弱他""]","","","","","","","","","","","","","","","","","","","","","","","","","","","","","","feedback_test","","","","","","","",""
"873","","f","psychophysics","126","447314","0.0-8.0-1.0-4.0-0.0-0.9","5","6","7","6","7","4","4","5","5","4","4","-2","-3","1","2","1","0","1","2","4","5","4","5","4","5","4","1","5","4","8","6","7","8","7","9","8","7","6","6","6","5","7","5","6","7","7","5","6","6","7","2","5","5","6","6","5","7","5","2","5","1","5","6","6","7","7","5","6","7","6","7","2","5","6","7","5","6","7","634030444760793088","宋","698","Male","[""好我"",""好他"",""坏我"",""坏他""]","[""强我"",""强他"",""弱我"",""弱他""]","","","","","","","","match","","","","","","","","","","key","f","16.652891891892068","799.9999682108573","445.8333156175091","f","true","match","img/pentagon.png","弱我","弱我","ALT2","ability","","","","","","","",""
"null","<span style='color:GreenYellow; font-size: 70px;'>正确! </span>","null","html-keyboard-response","127","447815","0.0-8.0-1.0-4.0-0.0-1.9","5","6","7","6","7","4","4","5","5","4","4","-2","-3","1","2","1","0","1","2","4","5","4","5","4","5","4","1","5","4","8","6","7","8","7","9","8","7","6","6","6","5","7","5","6","7","7","5","6","6","7","2","5","5","6","6","5","7","5","2","5","1","5","6","6","7","7","5","6","7","6","7","2","5","6","7","5","6","7","634030444760793088","宋","698","Male","[""好我"",""好他"",""坏我"",""坏他""]","[""强我"",""强他"",""弱我"",""弱他""]","","","","","","","","","","","","","","","","","","","","","","","","","","","","","","feedback_test","","","","","","","",""
"795","","f","psychophysics","128","449612","0.0-8.0-1.0-4.0-0.0-0.10","5","6","7","6","7","4","4","5","5","4","4","-2","-3","1","2","1","0","1","2","4","5","4","5","4","5","4","1","5","4","8","6","7","8","7","9","8","7","6","6","6","5","7","5","6","7","7","5","6","6","7","2","5","5","6","6","5","7","5","2","5","1","5","6","6","7","7","5","6","7","6","7","2","5","6","7","5","6","7","634030444760793088","宋","698","Male","[""好我"",""好他"",""坏我"",""坏他""]","[""强我"",""强他"",""弱我"",""弱他""]","","","","","","","","match","","","","","","","","","","key","f","16.6530094339621","799.9999682108573","445.8333156175091","f","true","match","img/ellipse.png","强他","强他","ALT2","ability","","","","","","","",""
"null","<span style='color:GreenYellow; font-size: 70px;'>正确! </span>","null","html-keyboard-response","129","450114","0.0-8.0-1.0-4.0-0.0-1.10","5","6","7","6","7","4","4","5","5","4","4","-2","-3","1","2","1","0","1","2","4","5","4","5","4","5","4","1","5","4","8","6","7","8","7","9","8","7","6","6","6","5","7","5","6","7","7","5","6","6","7","2","5","5","6","6","5","7","5","2","5","1","5","6","6","7","7","5","6","7","6","7","2","5","6","7","5","6","7","634030444760793088","宋","698","Male","[""好我"",""好他"",""坏我"",""坏他""]","[""强我"",""强他"",""弱我"",""弱他""]","","","","","","","","","","","","","","","","","","","","","","","","","","","","","","feedback_test","","","","","","","",""
"731","","f","psychophysics","130","451847","0.0-8.0-1.0-4.0-0.0-0.11","5","6","7","6","7","4","4","5","5","4","4","-2","-3","1","2","1","0","1","2","4","5","4","5","4","5","4","1","5","4","8","6","7","8","7","9","8","7","6","6","6","5","7","5","6","7","7","5","6","6","7","2","5","5","6","6","5","7","5","2","5","1","5","6","6","7","7","5","6","7","6","7","2","5","6","7","5","6","7","634030444760793088","宋","698","Male","[""好我"",""好他"",""坏我"",""坏他""]","[""强我"",""强他"",""弱我"",""弱他""]","","","","","","","","match","","","","","","","","","","key","f","16.65324271844702","799.9999682108573","445.8333156175091","f","true","match","img/diamond.png","弱他","弱他","ALT2","ability","","","","","","","",""
"null","<span style='color:GreenYellow; font-size: 70px;'>正确! </span>","null","html-keyboard-response","131","452349","0.0-8.0-1.0-4.0-0.0-1.11","5","6","7","6","7","4","4","5","5","4","4","-2","-3","1","2","1","0","1","2","4","5","4","5","4","5","4","1","5","4","8","6","7","8","7","9","8","7","6","6","6","5","7","5","6","7","7","5","6","6","7","2","5","5","6","6","5","7","5","2","5","1","5","6","6","7","7","5","6","7","6","7","2","5","6","7","5","6","7","634030444760793088","宋","698","Male","[""好我"",""好他"",""坏我"",""坏他""]","[""强我"",""强他"",""弱我"",""弱他""]","","","","","","","","","","","","","","","","","","","","","","","","","","","","","","feedback_test","","","","","","","",""
"719","","j","psychophysics","132","454069","0.0-8.0-1.0-4.0-0.0-0.12","5","6","7","6","7","4","4","5","5","4","4","-2","-3","1","2","1","0","1","2","4","5","4","5","4","5","4","1","5","4","8","6","7","8","7","9","8","7","6","6","6","5","7","5","6","7","7","5","6","6","7","2","5","5","6","6","5","7","5","2","5","1","5","6","6","7","7","5","6","7","6","7","2","5","6","7","5","6","7","634030444760793088","宋","698","Male","[""好我"",""好他"",""坏我"",""坏他""]","[""强我"",""强他"",""弱我"",""弱他""]","","","","","","","","nonmatch","","","","","","","","","","key","j","16.6537745098039","799.9999682108573","445.8333156175091","f","false","match","img/pentagon.png","弱我","弱我","ALT2","ability","","","","","","","",""
"null","<span style='color:red; font-size: 70px;'>错误! </span>","null","html-keyboard-response","133","454570","0.0-8.0-1.0-4.0-0.0-1.12","5","6","7","6","7","4","4","5","5","4","4","-2","-3","1","2","1","0","1","2","4","5","4","5","4","5","4","1","5","4","8","6","7","8","7","9","8","7","6","6","6","5","7","5","6","7","7","5","6","6","7","2","5","5","6","6","5","7","5","2","5","1","5","6","6","7","7","5","6","7","6","7","2","5","6","7","5","6","7","634030444760793088","宋","698","Male","[""好我"",""好他"",""坏我"",""坏他""]","[""强我"",""强他"",""弱我"",""弱他""]","","","","","","","","","","","","","","","","","","","","","","","","","","","","","","feedback_test","","","","","","","",""
"855","","j","psychophysics","134","456427","0.0-8.0-1.0-4.0-0.0-0.13","5","6","7","6","7","4","4","5","5","4","4","-2","-3","1","2","1","0","1","2","4","5","4","5","4","5","4","1","5","4","8","6","7","8","7","9","8","7","6","6","6","5","7","5","6","7","7","5","6","6","7","2","5","5","6","6","5","7","5","2","5","1","5","6","6","7","7","5","6","7","6","7","2","5","6","7","5","6","7","634030444760793088","宋","698","Male","[""好我"",""好他"",""坏我"",""坏他""]","[""强我"",""强他"",""弱我"",""弱他""]","","","","","","","","nonmatch","","","","","","","","","","key","j","16.6533873873875","799.9999682108573","445.8333156175091","j","true","nonmatch","img/ellipse.png","弱他","强他","ALT2","ability","","","","","","","",""
"null","<span style='color:GreenYellow; font-size: 70px;'>正确! </span>","null","html-keyboard-response","135","456929","0.0-8.0-1.0-4.0-0.0-1.13","5","6","7","6","7","4","4","5","5","4","4","-2","-3","1","2","1","0","1","2","4","5","4","5","4","5","4","1","5","4","8","6","7","8","7","9","8","7","6","6","6","5","7","5","6","7","7","5","6","6","7","2","5","5","6","6","5","7","5","2","5","1","5","6","6","7","7","5","6","7","6","7","2","5","6","7","5","6","7","634030444760793088","宋","698","Male","[""好我"",""好他"",""坏我"",""坏他""]","[""强我"",""强他"",""弱我"",""弱他""]","","","","","","","","","","","","","","","","","","","","","","","","","","","","","","feedback_test","","","","","","","",""
"685","","f","psychophysics","136","458615","0.0-8.0-1.0-4.0-0.0-0.14","5","6","7","6","7","4","4","5","5","4","4","-2","-3","1","2","1","0","1","2","4","5","4","5","4","5","4","1","5","4","8","6","7","8","7","9","8","7","6","6","6","5","7","5","6","7","7","5","6","6","7","2","5","5","6","6","5","7","5","2","5","1","5","6","6","7","7","5","6","7","6","7","2","5","6","7","5","6","7","634030444760793088","宋","698","Male","[""好我"",""好他"",""坏我"",""坏他""]","[""强我"",""强他"",""弱我"",""弱他""]","","","","","","","","match","","","","","","","","","","key","f","16.6525","799.9999682108573","445.8333156175091","j","false","nonmatch","img/trapezoid.png","强他","强我","ALT2","ability","","","","","","","",""
