"rt","stimulus","response","trial_type","trial_index","time_elapsed","internal_node_id","swb_1","swb_2","swb_3","swb_4","swb_5","LOT_1","LOT_2","LOT_3","LOT_4","LOT_5","LOT_6","IPC_1","IPC_2","IPC_3","IPC_4","IPC_5","IPC_6","IPC_7","IPC_8","MorIden_1","MorIden_2","MorIden_3","MorIden_4","MorIden_5","MorIden_6","MorIden_7","MorIden_8","MorIden_9","MorIden_10","moralSeImag_1","moralSeImag_2","moralSeImag_3","moralSeImag_4","moralSeImag_5","moralSeImag_6","moralSeImag_7","moralSeImag_8","moralSeImag_9","sde_1","sde_2","sde_3","sde_4","sde_5","sde_6","sde_7","sde_8","sde_9","sde_10","sde_11","sde_12","sde_13","sde_14","sde_15","sde_16","sde_17","sde_18","sde_19","sde_20","IM_1","IM_2","IM_3","IM_4","IM_5","IM_6","IM_7","IM_8","IM_9","IM_10","IM_11","IM_12","IM_13","IM_14","IM_15","IM_16","IM_17","IM_18","IM_19","IM_20","subj_idx","friend_name","ParticipantID","Sex","Word","Word2","value","success","timeout","failed_images","failed_audio","failed_video","user_agent","responses","item_order","radio_event_ids","radio_event_times","key_event_times","mouse_event_times","straightlining","zigzagging","honeypot","view_history","response_type","key_press","avg_frame_time","center_x","center_y","correct_response","correct","identity","Image","word","condition","task_id","screen_id","time_stamp","person","valence","domain","math","status","duration","question_order"
"11786","
   <p><div style='color:white; font-size: 25px'>您好，欢迎参加本次实验。</div></p>
   <p><div style='color:white; font-size: 25px'>为充分保障您的权利，请确保您已经知晓并同意《参与实验同意书》以及《数据公开知情同意书》。</div></p>
   <p><div style='color:white; font-size: 25px'>如果您未见过上述内容，请咨询实验员。</div></p>
   <p style='color:white; font-size: 25px'>如果您选择继续实验，则表示您已经清楚两份知情同意书的内容并同意。</p>
   <p><div style = ""color: red;font-size:30px;"">请确保您记得day0的实验编号，您将在本次实验输入该编号，若您忘记，请咨询实验员后作答。</div></p>
   <p> <div style = ""color: green""><按空格键至下页></div> </p>
   "," ","html-keyboard-response","0","11793","0.0-0.0","4","3","3","3","2","4","2","3","4","4","5","1","0","0","0","-1","-1","0","0","4","4","5","4","4","3","4","4","4","4","5","6","5","7","7","7","7","7","7","4","6","4","5","5","3","4","3","3","3","3","3","5","5","4","4","4","3","5","3","4","5","5","3","4","4","5","5","4","6","6","4","5","5","3","5","5","5","4","5","682886971621638144","nyf","448","Female","[""好她"",""坏她"",""好我"",""坏我""]","[""强她"",""弱她"",""强我"",""弱我""]","","","","","","","","","","","","","","","","","","","","","","","","","","","","","","","","","","","","","",""
"","","","call-function","1","11795","0.0-1.0-0.0","4","3","3","3","2","4","2","3","4","4","5","1","0","0","0","-1","-1","0","0","4","4","5","4","4","3","4","4","4","4","5","6","5","7","7","7","7","7","7","4","6","4","5","5","3","4","3","3","3","3","3","5","5","4","4","4","3","5","3","4","5","5","3","4","4","5","5","4","6","6","4","5","5","3","5","5","5","4","5","682886971621638144","nyf","448","Female","[""好她"",""坏她"",""好我"",""坏我""]","[""强她"",""弱她"",""强我"",""弱我""]","","","","","","","","","","","","","","","","","","","","","","","","","","","","","","","","","","","","","",""
"22469","","[{""name"":""Sex"",""value"":""1""},{""name"":""friend_name"",""value"":""nyf""},{""name"":""ParticipantID"",""value"":""448""}]","survey-html-form","2","34265","0.0-1.0-1.0","4","3","3","3","2","4","2","3","4","4","5","1","0","0","0","-1","-1","0","0","4","4","5","4","4","3","4","4","4","4","5","6","5","7","7","7","7","7","7","4","6","4","5","5","3","4","3","3","3","3","3","5","5","4","4","4","3","5","3","4","5","5","3","4","4","5","5","4","6","6","4","5","5","3","5","5","5","4","5","682886971621638144","nyf","448","Female","[""好她"",""坏她"",""好我"",""坏我""]","[""强她"",""弱她"",""强我"",""弱我""]","","","","","","","","","","","","","","","","","","","","","","","","","","","","","","","","","","","","","",""
"","","","preload","3","34495","0.0-2.0","4","3","3","3","2","4","2","3","4","4","5","1","0","0","0","-1","-1","0","0","4","4","5","4","4","3","4","4","4","4","5","6","5","7","7","7","7","7","7","4","6","4","5","5","3","4","3","3","3","3","3","5","5","4","4","4","3","5","3","4","5","5","3","4","4","5","5","4","6","6","4","5","5","3","5","5","5","4","5","682886971621638144","nyf","448","Female","[""好她"",""坏她"",""好我"",""坏我""]","[""强她"",""弱她"",""强我"",""弱我""]","","true","false","[]","[]","[]","","","","","","","","","","","","","","","","","","","","","","","","","","","","","","","",""
"","","","fullscreen","4","37725","0.0-3.0","4","3","3","3","2","4","2","3","4","4","5","1","0","0","0","-1","-1","0","0","4","4","5","4","4","3","4","4","4","4","5","6","5","7","7","7","7","7","7","4","6","4","5","5","3","4","3","3","3","3","3","5","5","4","4","4","3","5","3","4","5","5","3","4","4","5","5","4","6","6","4","5","5","3","5","5","5","4","5","682886971621638144","nyf","448","Female","[""好她"",""坏她"",""好我"",""坏我""]","[""强她"",""弱她"",""强我"",""弱我""]","","true","","","","","{}","","","","","","","","","","","","","","","","","","","","","","","","","","","","","","",""
"18681.100000000035","","{""Q01"":""4"",""Q02"":""3"",""Q03"":""3"",""Q04"":""3"",""Q05"":""2""}","survey-template","5","56410","0.0-4.0","4","3","3","3","2","4","2","3","4","4","5","1","0","0","0","-1","-1","0","0","4","4","5","4","4","3","4","4","4","4","5","6","5","7","7","7","7","7","7","4","6","4","5","5","3","4","3","3","3","3","3","5","5","4","4","4","3","5","3","4","5","5","3","4","4","5","5","4","6","6","4","5","5","3","5","5","5","4","5","682886971621638144","nyf","448","Female","[""好她"",""坏她"",""好我"",""坏我""]","[""强她"",""弱她"",""强我"",""弱我""]","","","","","","","","{""Q01"":""4"",""Q02"":""3"",""Q03"":""3"",""Q04"":""3"",""Q05"":""2""}","[0,1,2,3,4]","[""Q01"",""Q02"",""Q03"",""Q04"",""Q05"",""Q05""]","[5095.900000000023,6704.200000000012,8935.700000000012,11023.900000000023,14255.600000000035,17647.400000000023]","[]","[5095.900000000023,6704.200000000012,8935.700000000012,11023.900000000023,14255.600000000035,17647.400000000023,18679.800000000047]","0.6","0.5","0","","","","","","","","","","","","","","","","","","","","","",""
"25459.300000000047","","{""Q01"":""4"",""Q02"":""2"",""Q03"":""3"",""Q04"":""4"",""Q05"":""4"",""Q06"":""5""}","survey-template","6","81873","0.0-5.0","4","3","3","3","2","4","2","3","4","4","5","1","0","0","0","-1","-1","0","0","4","4","5","4","4","3","4","4","4","4","5","6","5","7","7","7","7","7","7","4","6","4","5","5","3","4","3","3","3","3","3","5","5","4","4","4","3","5","3","4","5","5","3","4","4","5","5","4","6","6","4","5","5","3","5","5","5","4","5","682886971621638144","nyf","448","Female","[""好她"",""坏她"",""好我"",""坏我""]","[""强她"",""弱她"",""强我"",""弱我""]","","","","","","","","{""Q01"":""4"",""Q02"":""2"",""Q03"":""3"",""Q04"":""4"",""Q05"":""4"",""Q06"":""5""}","[0,1,2,3,4,5]","[""Q01"",""Q02"",""Q03"",""Q04"",""Q05"",""Q06""]","[3082.2000000000116,8858.300000000047,11019.100000000035,14802.100000000035,19266.100000000035,24738.20000000001]","[]","[3082.2000000000116,8858.300000000047,11019.100000000035,14802.100000000035,19266.100000000035,24738.20000000001,25458.300000000047]","0.3333333333333333","0.4","0","","","","","","","","","","","","","","","","","","","","","",""
"30955.79999999999","","{""Q01"":""1"",""Q02"":""0"",""Q03"":""0"",""Q04"":""0"",""Q05"":""-1"",""Q06"":""-1"",""Q07"":""0"",""Q08"":""0""}","survey-template","7","112834","0.0-6.0","4","3","3","3","2","4","2","3","4","4","5","1","0","0","0","-1","-1","0","0","4","4","5","4","4","3","4","4","4","4","5","6","5","7","7","7","7","7","7","4","6","4","5","5","3","4","3","3","3","3","3","5","5","4","4","4","3","5","3","4","5","5","3","4","4","5","5","4","6","6","4","5","5","3","5","5","5","4","5","682886971621638144","nyf","448","Female","[""好她"",""坏她"",""好我"",""坏我""]","[""强她"",""弱她"",""强我"",""弱我""]","","","","","","","","{""Q01"":""1"",""Q02"":""0"",""Q03"":""0"",""Q04"":""0"",""Q05"":""-1"",""Q06"":""-1"",""Q07"":""0"",""Q08"":""0""}","[0,1,2,3,4,5,6,7]","[""Q01"",""Q02"",""Q03"",""Q04"",""Q05"",""Q06"",""Q07"",""Q08""]","[3442.5999999999767,6730.599999999977,11578.5,15410.5,18026.70000000001,21186.399999999965,27802.600000000035,30186.49999999994]","[]","[3442.5999999999767,6730.599999999977,11578.5,15410.5,18026.70000000001,21186.399999999965,27802.600000000035,30186.49999999994,30954.399999999965]","0.625","0.42857142857142855","0","","","","","","","","","","","","","","","","","","","","","",""
"40307","","","instructions","8","153144","0.0-7.0","4","3","3","3","2","4","2","3","4","4","5","1","0","0","0","-1","-1","0","0","4","4","5","4","4","3","4","4","4","4","5","6","5","7","7","7","7","7","7","4","6","4","5","5","3","4","3","3","3","3","3","5","5","4","4","4","3","5","3","4","5","5","3","4","4","5","5","4","6","6","4","5","5","3","5","5","5","4","5","682886971621638144","nyf","448","Female","[""好她"",""坏她"",""好我"",""坏我""]","[""强她"",""弱她"",""强我"",""弱我""]","","","","","","","","","","","","","","","","","[{""page_index"":0,""viewing_time"":40307}]","","","","","","","","","","","","","","","","","","","","",""
"108021","","","instructions","9","261168","0.0-8.0-1.0-0.0","4","3","3","3","2","4","2","3","4","4","5","1","0","0","0","-1","-1","0","0","4","4","5","4","4","3","4","4","4","4","5","6","5","7","7","7","7","7","7","4","6","4","5","5","3","4","3","3","3","3","3","5","5","4","4","4","3","5","3","4","5","5","3","4","4","5","5","4","6","6","4","5","5","3","5","5","5","4","5","682886971621638144","nyf","448","Female","[""好她"",""坏她"",""好我"",""坏我""]","[""强她"",""弱她"",""强我"",""弱我""]","","","","","","","","","","","","","","","","","[{""page_index"":0,""viewing_time"":24085},{""page_index"":1,""viewing_time"":78504},{""page_index"":2,""viewing_time"":3032},{""page_index"":3,""viewing_time"":2401}]","","","","","","","","","","","","","","","","","","","","",""
"738","","f","psychophysics","10","262910","0.0-8.0-1.0-1.0-0.0-0.0","4","3","3","3","2","4","2","3","4","4","5","1","0","0","0","-1","-1","0","0","4","4","5","4","4","3","4","4","4","4","5","6","5","7","7","7","7","7","7","4","6","4","5","5","3","4","3","3","3","3","3","5","5","4","4","4","3","5","3","4","5","5","3","4","4","5","5","4","6","6","4","5","5","3","5","5","5","4","5","682886971621638144","nyf","448","Female","[""好她"",""坏她"",""好我"",""坏我""]","[""强她"",""弱她"",""强我"",""弱我""]","","","","","","","","match","","","","","","","","","","key","f","35.41722916666671","1280","716","f","true","match","img/square.png","强她","强她","prac_ALT2_ability","practice_ability","","","","","","","",""
"null","<span style='color:GreenYellow; font-size: 70px;'>正确! </span>","null","html-keyboard-response","11","263413","0.0-8.0-1.0-1.0-0.0-1.0","4","3","3","3","2","4","2","3","4","4","5","1","0","0","0","-1","-1","0","0","4","4","5","4","4","3","4","4","4","4","5","6","5","7","7","7","7","7","7","4","6","4","5","5","3","4","3","3","3","3","3","5","5","4","4","4","3","5","3","4","5","5","3","4","4","5","5","4","6","6","4","5","5","3","5","5","5","4","5","682886971621638144","nyf","448","Female","[""好她"",""坏她"",""好我"",""坏我""]","[""强她"",""弱她"",""强我"",""弱我""]","","","","","","","","","","","","","","","","","","","","","","","","","","","","","","feedback_test","","","","","","","",""
"821","","j","psychophysics","12","265256","0.0-8.0-1.0-1.0-0.0-0.1","4","3","3","3","2","4","2","3","4","4","5","1","0","0","0","-1","-1","0","0","4","4","5","4","4","3","4","4","4","4","5","6","5","7","7","7","7","7","7","4","6","4","5","5","3","4","3","3","3","3","3","5","5","4","4","4","3","5","3","4","5","5","3","4","4","5","5","4","6","6","4","5","5","3","5","5","5","4","5","682886971621638144","nyf","448","Female","[""好她"",""坏她"",""好我"",""坏我""]","[""强她"",""弱她"",""强我"",""弱我""]","","","","","","","","nonmatch","","","","","","","","","","key","j","33.96358490566051","1280","716","j","true","nonmatch","img/ellipse.png","强她","弱她","prac_ALT2_ability","practice_ability","","","","","","","",""
"null","<span style='color:GreenYellow; font-size: 70px;'>正确! </span>","null","html-keyboard-response","13","265758","0.0-8.0-1.0-1.0-0.0-1.1","4","3","3","3","2","4","2","3","4","4","5","1","0","0","0","-1","-1","0","0","4","4","5","4","4","3","4","4","4","4","5","6","5","7","7","7","7","7","7","4","6","4","5","5","3","4","3","3","3","3","3","5","5","4","4","4","3","5","3","4","5","5","3","4","4","5","5","4","6","6","4","5","5","3","5","5","5","4","5","682886971621638144","nyf","448","Female","[""好她"",""坏她"",""好我"",""坏我""]","[""强她"",""弱她"",""强我"",""弱我""]","","","","","","","","","","","","","","","","","","","","","","","","","","","","","","feedback_test","","","","","","","",""
"865","","j","psychophysics","14","267640","0.0-8.0-1.0-1.0-0.0-0.2","4","3","3","3","2","4","2","3","4","4","5","1","0","0","0","-1","-1","0","0","4","4","5","4","4","3","4","4","4","4","5","6","5","7","7","7","7","7","7","4","6","4","5","5","3","4","3","3","3","3","3","5","5","4","4","4","3","5","3","4","5","5","3","4","4","5","5","4","6","6","4","5","5","3","5","5","5","4","5","682886971621638144","nyf","448","Female","[""好她"",""坏她"",""好我"",""坏我""]","[""强她"",""弱她"",""强我"",""弱我""]","","","","","","","","nonmatch","","","","","","","","","","key","j","33.037250000000185","1280","716","f","false","match","img/diamond.png","强我","强我","prac_ALT2_ability","practice_ability","","","","","","","",""
"null","<span style='color:red; font-size: 70px;'>错误! </span>","null","html-keyboard-response","15","268141","0.0-8.0-1.0-1.0-0.0-1.2","4","3","3","3","2","4","2","3","4","4","5","1","0","0","0","-1","-1","0","0","4","4","5","4","4","3","4","4","4","4","5","6","5","7","7","7","7","7","7","4","6","4","5","5","3","4","3","3","3","3","3","5","5","4","4","4","3","5","3","4","5","5","3","4","4","5","5","4","6","6","4","5","5","3","5","5","5","4","5","682886971621638144","nyf","448","Female","[""好她"",""坏她"",""好我"",""坏我""]","[""强她"",""弱她"",""强我"",""弱我""]","","","","","","","","","","","","","","","","","","","","","","","","","","","","","","feedback_test","","","","","","","",""
"801","","f","psychophysics","16","269944","0.0-8.0-1.0-1.0-0.0-0.3","4","3","3","3","2","4","2","3","4","4","5","1","0","0","0","-1","-1","0","0","4","4","5","4","4","3","4","4","4","4","5","6","5","7","7","7","7","7","7","4","6","4","5","5","3","4","3","3","3","3","3","5","5","4","4","4","3","5","3","4","5","5","3","4","4","5","5","4","6","6","4","5","5","3","5","5","5","4","5","682886971621638144","nyf","448","Female","[""好她"",""坏她"",""好我"",""坏我""]","[""强她"",""弱她"",""强我"",""弱我""]","","","","","","","","match","","","","","","","","","","key","f","33.65557692307742","1280","716","j","false","nonmatch","img/diamond.png","弱她","强我","prac_ALT2_ability","practice_ability","","","","","","","",""
"null","<span style='color:red; font-size: 70px;'>错误! </span>","null","html-keyboard-response","17","270445","0.0-8.0-1.0-1.0-0.0-1.3","4","3","3","3","2","4","2","3","4","4","5","1","0","0","0","-1","-1","0","0","4","4","5","4","4","3","4","4","4","4","5","6","5","7","7","7","7","7","7","4","6","4","5","5","3","4","3","3","3","3","3","5","5","4","4","4","3","5","3","4","5","5","3","4","4","5","5","4","6","6","4","5","5","3","5","5","5","4","5","682886971621638144","nyf","448","Female","[""好她"",""坏她"",""好我"",""坏我""]","[""强她"",""弱她"",""强我"",""弱我""]","","","","","","","","","","","","","","","","","","","","","","","","","","","","","","feedback_test","","","","","","","",""
"865","","j","psychophysics","18","272311","0.0-8.0-1.0-1.0-0.0-0.4","4","3","3","3","2","4","2","3","4","4","5","1","0","0","0","-1","-1","0","0","4","4","5","4","4","3","4","4","4","4","5","6","5","7","7","7","7","7","7","4","6","4","5","5","3","4","3","3","3","3","3","5","5","4","4","4","3","5","3","4","5","5","3","4","4","5","5","4","6","6","4","5","5","3","5","5","5","4","5","682886971621638144","nyf","448","Female","[""好她"",""坏她"",""好我"",""坏我""]","[""强她"",""弱她"",""强我"",""弱我""]","","","","","","","","nonmatch","","","","","","","","","","key","j","34.592849056603264","1280","716","f","false","match","img/hexagon.png","弱我","弱我","prac_ALT2_ability","practice_ability","","","","","","","",""
"null","<span style='color:red; font-size: 70px;'>错误! </span>","null","html-keyboard-response","19","272814","0.0-8.0-1.0-1.0-0.0-1.4","4","3","3","3","2","4","2","3","4","4","5","1","0","0","0","-1","-1","0","0","4","4","5","4","4","3","4","4","4","4","5","6","5","7","7","7","7","7","7","4","6","4","5","5","3","4","3","3","3","3","3","5","5","4","4","4","3","5","3","4","5","5","3","4","4","5","5","4","6","6","4","5","5","3","5","5","5","4","5","682886971621638144","nyf","448","Female","[""好她"",""坏她"",""好我"",""坏我""]","[""强她"",""弱她"",""强我"",""弱我""]","","","","","","","","","","","","","","","","","","","","","","","","","","","","","","feedback_test","","","","","","","",""
"1010","","j","psychophysics","20","274826","0.0-8.0-1.0-1.0-0.0-0.5","4","3","3","3","2","4","2","3","4","4","5","1","0","0","0","-1","-1","0","0","4","4","5","4","4","3","4","4","4","4","5","6","5","7","7","7","7","7","7","4","6","4","5","5","3","4","3","3","3","3","3","5","5","4","4","4","3","5","3","4","5","5","3","4","4","5","5","4","6","6","4","5","5","3","5","5","5","4","5","682886971621638144","nyf","448","Female","[""好她"",""坏她"",""好我"",""坏我""]","[""强她"",""弱她"",""强我"",""弱我""]","","","","","","","","nonmatch","","","","","","","","","","key","j","33.90984482758534","1280","716","f","false","match","img/hexagon.png","弱我","弱我","prac_ALT2_ability","practice_ability","","","","","","","",""
"null","<span style='color:red; font-size: 70px;'>错误! </span>","null","html-keyboard-response","21","275328","0.0-8.0-1.0-1.0-0.0-1.5","4","3","3","3","2","4","2","3","4","4","5","1","0","0","0","-1","-1","0","0","4","4","5","4","4","3","4","4","4","4","5","6","5","7","7","7","7","7","7","4","6","4","5","5","3","4","3","3","3","3","3","5","5","4","4","4","3","5","3","4","5","5","3","4","4","5","5","4","6","6","4","5","5","3","5","5","5","4","5","682886971621638144","nyf","448","Female","[""好她"",""坏她"",""好我"",""坏我""]","[""强她"",""弱她"",""强我"",""弱我""]","","","","","","","","","","","","","","","","","","","","","","","","","","","","","","feedback_test","","","","","","","",""
"981","","f","psychophysics","22","277346","0.0-8.0-1.0-1.0-0.0-0.6","4","3","3","3","2","4","2","3","4","4","5","1","0","0","0","-1","-1","0","0","4","4","5","4","4","3","4","4","4","4","5","6","5","7","7","7","7","7","7","4","6","4","5","5","3","4","3","3","3","3","3","5","5","4","4","4","3","5","3","4","5","5","3","4","4","5","5","4","6","6","4","5","5","3","5","5","5","4","5","682886971621638144","nyf","448","Female","[""好她"",""坏她"",""好我"",""坏我""]","[""强她"",""弱她"",""强我"",""弱我""]","","","","","","","","match","","","","","","","","","","key","f","33.6172203389835","1280","716","f","true","match","img/square.png","强她","强她","prac_ALT2_ability","practice_ability","","","","","","","",""
"null","<span style='color:GreenYellow; font-size: 70px;'>正确! </span>","null","html-keyboard-response","23","277847","0.0-8.0-1.0-1.0-0.0-1.6","4","3","3","3","2","4","2","3","4","4","5","1","0","0","0","-1","-1","0","0","4","4","5","4","4","3","4","4","4","4","5","6","5","7","7","7","7","7","7","4","6","4","5","5","3","4","3","3","3","3","3","5","5","4","4","4","3","5","3","4","5","5","3","4","4","5","5","4","6","6","4","5","5","3","5","5","5","4","5","682886971621638144","nyf","448","Female","[""好她"",""坏她"",""好我"",""坏我""]","[""强她"",""弱她"",""强我"",""弱我""]","","","","","","","","","","","","","","","","","","","","","","","","","","","","","","feedback_test","","","","","","","",""
"null","","null","psychophysics","24","280071","0.0-8.0-1.0-1.0-0.0-0.7","4","3","3","3","2","4","2","3","4","4","5","1","0","0","0","-1","-1","0","0","4","4","5","4","4","3","4","4","4","4","5","6","5","7","7","7","7","7","7","4","6","4","5","5","3","4","3","3","3","3","3","5","5","4","4","4","3","5","3","4","5","5","3","4","4","5","5","4","6","6","4","5","5","3","5","5","5","4","5","682886971621638144","nyf","448","Female","[""好她"",""坏她"",""好我"",""坏我""]","[""强她"",""弱她"",""强我"",""弱我""]","","","","","","","","null","","","","","","","","","","key","null","32.588343283582006","1280","716","f","false","match","img/ellipse.png","弱她","弱她","prac_ALT2_ability","practice_ability","","","","","","","",""
"null","<span class='add_' style='color:yellow; font-size: 70px;'> 太慢! </span>","null","html-keyboard-response","25","280574","0.0-8.0-1.0-1.0-0.0-1.7","4","3","3","3","2","4","2","3","4","4","5","1","0","0","0","-1","-1","0","0","4","4","5","4","4","3","4","4","4","4","5","6","5","7","7","7","7","7","7","4","6","4","5","5","3","4","3","3","3","3","3","5","5","4","4","4","3","5","3","4","5","5","3","4","4","5","5","4","6","6","4","5","5","3","5","5","5","4","5","682886971621638144","nyf","448","Female","[""好她"",""坏她"",""好我"",""坏我""]","[""强她"",""弱她"",""强我"",""弱我""]","","","","","","","","","","","","","","","","","","","","","","","","","","","","","","feedback_test","","","","","","","",""
"893","","j","psychophysics","26","282479","0.0-8.0-1.0-1.0-0.0-0.8","4","3","3","3","2","4","2","3","4","4","5","1","0","0","0","-1","-1","0","0","4","4","5","4","4","3","4","4","4","4","5","6","5","7","7","7","7","7","7","4","6","4","5","5","3","4","3","3","3","3","3","5","5","4","4","4","3","5","3","4","5","5","3","4","4","5","5","4","6","6","4","5","5","3","5","5","5","4","5","682886971621638144","nyf","448","Female","[""好她"",""坏她"",""好我"",""坏我""]","[""强她"",""弱她"",""强我"",""弱我""]","","","","","","","","nonmatch","","","","","","","","","","key","j","32.74987719298173","1280","716","j","true","nonmatch","img/ellipse.png","强我","弱她","prac_ALT2_ability","practice_ability","","","","","","","",""
"null","<span style='color:GreenYellow; font-size: 70px;'>正确! </span>","null","html-keyboard-response","27","282980","0.0-8.0-1.0-1.0-0.0-1.8","4","3","3","3","2","4","2","3","4","4","5","1","0","0","0","-1","-1","0","0","4","4","5","4","4","3","4","4","4","4","5","6","5","7","7","7","7","7","7","4","6","4","5","5","3","4","3","3","3","3","3","5","5","4","4","4","3","5","3","4","5","5","3","4","4","5","5","4","6","6","4","5","5","3","5","5","5","4","5","682886971621638144","nyf","448","Female","[""好她"",""坏她"",""好我"",""坏我""]","[""强她"",""弱她"",""强我"",""弱我""]","","","","","","","","","","","","","","","","","","","","","","","","","","","","","","feedback_test","","","","","","","",""
"null","","null","psychophysics","28","285203","0.0-8.0-1.0-1.0-0.0-0.9","4","3","3","3","2","4","2","3","4","4","5","1","0","0","0","-1","-1","0","0","4","4","5","4","4","3","4","4","4","4","5","6","5","7","7","7","7","7","7","4","6","4","5","5","3","4","3","3","3","3","3","5","5","4","4","4","3","5","3","4","5","5","3","4","4","5","5","4","6","6","4","5","5","3","5","5","5","4","5","682886971621638144","nyf","448","Female","[""好她"",""坏她"",""好我"",""坏我""]","[""强她"",""弱她"",""强我"",""弱我""]","","","","","","","","null","","","","","","","","","","key","null","33.591092307691895","1280","716","j","false","nonmatch","img/diamond.png","强她","强我","prac_ALT2_ability","practice_ability","","","","","","","",""
"null","<span class='add_' style='color:yellow; font-size: 70px;'> 太慢! </span>","null","html-keyboard-response","29","285706","0.0-8.0-1.0-1.0-0.0-1.9","4","3","3","3","2","4","2","3","4","4","5","1","0","0","0","-1","-1","0","0","4","4","5","4","4","3","4","4","4","4","5","6","5","7","7","7","7","7","7","4","6","4","5","5","3","4","3","3","3","3","3","5","5","4","4","4","3","5","3","4","5","5","3","4","4","5","5","4","6","6","4","5","5","3","5","5","5","4","5","682886971621638144","nyf","448","Female","[""好她"",""坏她"",""好我"",""坏我""]","[""强她"",""弱她"",""强我"",""弱我""]","","","","","","","","","","","","","","","","","","","","","","","","","","","","","","feedback_test","","","","","","","",""
"763","","j","psychophysics","30","287471","0.0-8.0-1.0-1.0-0.0-0.10","4","3","3","3","2","4","2","3","4","4","5","1","0","0","0","-1","-1","0","0","4","4","5","4","4","3","4","4","4","4","5","6","5","7","7","7","7","7","7","4","6","4","5","5","3","4","3","3","3","3","3","5","5","4","4","4","3","5","3","4","5","5","3","4","4","5","5","4","6","6","4","5","5","3","5","5","5","4","5","682886971621638144","nyf","448","Female","[""好她"",""坏她"",""好我"",""坏我""]","[""强她"",""弱她"",""强我"",""弱我""]","","","","","","","","nonmatch","","","","","","","","","","key","j","33.33499999999969","1280","716","j","true","nonmatch","img/ellipse.png","弱我","弱她","prac_ALT2_ability","practice_ability","","","","","","","",""
"null","<span style='color:GreenYellow; font-size: 70px;'>正确! </span>","null","html-keyboard-response","31","287973","0.0-8.0-1.0-1.0-0.0-1.10","4","3","3","3","2","4","2","3","4","4","5","1","0","0","0","-1","-1","0","0","4","4","5","4","4","3","4","4","4","4","5","6","5","7","7","7","7","7","7","4","6","4","5","5","3","4","3","3","3","3","3","5","5","4","4","4","3","5","3","4","5","5","3","4","4","5","5","4","6","6","4","5","5","3","5","5","5","4","5","682886971621638144","nyf","448","Female","[""好她"",""坏她"",""好我"",""坏我""]","[""强她"",""弱她"",""强我"",""弱我""]","","","","","","","","","","","","","","","","","","","","","","","","","","","","","","feedback_test","","","","","","","",""
"824","","j","psychophysics","32","289817","0.0-8.0-1.0-1.0-0.0-0.11","4","3","3","3","2","4","2","3","4","4","5","1","0","0","0","-1","-1","0","0","4","4","5","4","4","3","4","4","4","4","5","6","5","7","7","7","7","7","7","4","6","4","5","5","3","4","3","3","3","3","3","5","5","4","4","4","3","5","3","4","5","5","3","4","4","5","5","4","6","6","4","5","5","3","5","5","5","4","5","682886971621638144","nyf","448","Female","[""好她"",""坏她"",""好我"",""坏我""]","[""强她"",""弱她"",""强我"",""弱我""]","","","","","","","","nonmatch","","","","","","","","","","key","j","33.64994339622614","1280","716","f","false","match","img/ellipse.png","弱她","弱她","prac_ALT2_ability","practice_ability","","","","","","","",""
"null","<span style='color:red; font-size: 70px;'>错误! </span>","null","html-keyboard-response","33","290318","0.0-8.0-1.0-1.0-0.0-1.11","4","3","3","3","2","4","2","3","4","4","5","1","0","0","0","-1","-1","0","0","4","4","5","4","4","3","4","4","4","4","5","6","5","7","7","7","7","7","7","4","6","4","5","5","3","4","3","3","3","3","3","5","5","4","4","4","3","5","3","4","5","5","3","4","4","5","5","4","6","6","4","5","5","3","5","5","5","4","5","682886971621638144","nyf","448","Female","[""好她"",""坏她"",""好我"",""坏我""]","[""强她"",""弱她"",""强我"",""弱我""]","","","","","","","","","","","","","","","","","","","","","","","","","","","","","","feedback_test","","","","","","","",""
"1057","","j","psychophysics","34","292391","0.0-8.0-1.0-1.0-0.0-0.12","4","3","3","3","2","4","2","3","4","4","5","1","0","0","0","-1","-1","0","0","4","4","5","4","4","3","4","4","4","4","5","6","5","7","7","7","7","7","7","4","6","4","5","5","3","4","3","3","3","3","3","5","5","4","4","4","3","5","3","4","5","5","3","4","4","5","5","4","6","6","4","5","5","3","5","5","5","4","5","682886971621638144","nyf","448","Female","[""好她"",""坏她"",""好我"",""坏我""]","[""强她"",""弱她"",""强我"",""弱我""]","","","","","","","","nonmatch","","","","","","","","","","key","j","33.33472131147549","1280","716","f","false","match","img/diamond.png","强我","强我","prac_ALT2_ability","practice_ability","","","","","","","",""
"null","<span style='color:red; font-size: 70px;'>错误! </span>","null","html-keyboard-response","35","292892","0.0-8.0-1.0-1.0-0.0-1.12","4","3","3","3","2","4","2","3","4","4","5","1","0","0","0","-1","-1","0","0","4","4","5","4","4","3","4","4","4","4","5","6","5","7","7","7","7","7","7","4","6","4","5","5","3","4","3","3","3","3","3","5","5","4","4","4","3","5","3","4","5","5","3","4","4","5","5","4","6","6","4","5","5","3","5","5","5","4","5","682886971621638144","nyf","448","Female","[""好她"",""坏她"",""好我"",""坏我""]","[""强她"",""弱她"",""强我"",""弱我""]","","","","","","","","","","","","","","","","","","","","","","","","","","","","","","feedback_test","","","","","","","",""
"867","","f","psychophysics","36","294775","0.0-8.0-1.0-1.0-0.0-0.13","4","3","3","3","2","4","2","3","4","4","5","1","0","0","0","-1","-1","0","0","4","4","5","4","4","3","4","4","4","4","5","6","5","7","7","7","7","7","7","4","6","4","5","5","3","4","3","3","3","3","3","5","5","4","4","4","3","5","3","4","5","5","3","4","4","5","5","4","6","6","4","5","5","3","5","5","5","4","5","682886971621638144","nyf","448","Female","[""好她"",""坏她"",""好我"",""坏我""]","[""强她"",""弱她"",""强我"",""弱我""]","","","","","","","","match","","","","","","","","","","key","f","33.6376181818185","1280","716","j","false","nonmatch","img/square.png","强我","强她","prac_ALT2_ability","practice_ability","","","","","","","",""
"null","<span style='color:red; font-size: 70px;'>错误! </span>","null","html-keyboard-response","37","295276","0.0-8.0-1.0-1.0-0.0-1.13","4","3","3","3","2","4","2","3","4","4","5","1","0","0","0","-1","-1","0","0","4","4","5","4","4","3","4","4","4","4","5","6","5","7","7","7","7","7","7","4","6","4","5","5","3","4","3","3","3","3","3","5","5","4","4","4","3","5","3","4","5","5","3","4","4","5","5","4","6","6","4","5","5","3","5","5","5","4","5","682886971621638144","nyf","448","Female","[""好她"",""坏她"",""好我"",""坏我""]","[""强她"",""弱她"",""强我"",""弱我""]","","","","","","","","","","","","","","","","","","","","","","","","","","","","","","feedback_test","","","","","","","",""
"803","","f","psychophysics","38","297103","0.0-8.0-1.0-1.0-0.0-0.14","4","3","3","3","2","4","2","3","4","4","5","1","0","0","0","-1","-1","0","0","4","4","5","4","4","3","4","4","4","4","5","6","5","7","7","7","7","7","7","4","6","4","5","5","3","4","3","3","3","3","3","5","5","4","4","4","3","5","3","4","5","5","3","4","4","5","5","4","6","6","4","5","5","3","5","5","5","4","5","682886971621638144","nyf","448","Female","[""好她"",""坏她"",""好我"",""坏我""]","[""强她"",""弱她"",""强我"",""弱我""]","","","","","","","","match","","","","","","","","","","key","f","32.717629629629236","1280","716","f","true","match","img/diamond.png","强我","强我","prac_ALT2_ability","practice_ability","","","","","","","",""
"null","<span style='color:GreenYellow; font-size: 70px;'>正确! </span>","null","html-keyboard-response","39","297606","0.0-8.0-1.0-1.0-0.0-1.14","4","3","3","3","2","4","2","3","4","4","5","1","0","0","0","-1","-1","0","0","4","4","5","4","4","3","4","4","4","4","5","6","5","7","7","7","7","7","7","4","6","4","5","5","3","4","3","3","3","3","3","5","5","4","4","4","3","5","3","4","5","5","3","4","4","5","5","4","6","6","4","5","5","3","5","5","5","4","5","682886971621638144","nyf","448","Female","[""好她"",""坏她"",""好我"",""坏我""]","[""强她"",""弱她"",""强我"",""弱我""]","","","","","","","","","","","","","","","","","","","","","","","","","","","","","","feedback_test","","","","","","","",""
"864","","f","psychophysics","40","299471","0.0-8.0-1.0-1.0-0.0-0.15","4","3","3","3","2","4","2","3","4","4","5","1","0","0","0","-1","-1","0","0","4","4","5","4","4","3","4","4","4","4","5","6","5","7","7","7","7","7","7","4","6","4","5","5","3","4","3","3","3","3","3","5","5","4","4","4","3","5","3","4","5","5","3","4","4","5","5","4","6","6","4","5","5","3","5","5","5","4","5","682886971621638144","nyf","448","Female","[""好她"",""坏她"",""好我"",""坏我""]","[""强她"",""弱她"",""强我"",""弱我""]","","","","","","","","match","","","","","","","","","","key","f","33.6436111111112","1280","716","j","false","nonmatch","img/diamond.png","弱我","强我","prac_ALT2_ability","practice_ability","","","","","","","",""
"null","<span style='color:red; font-size: 70px;'>错误! </span>","null","html-keyboard-response","41","299972","0.0-8.0-1.0-1.0-0.0-1.15","4","3","3","3","2","4","2","3","4","4","5","1","0","0","0","-1","-1","0","0","4","4","5","4","4","3","4","4","4","4","5","6","5","7","7","7","7","7","7","4","6","4","5","5","3","4","3","3","3","3","3","5","5","4","4","4","3","5","3","4","5","5","3","4","4","5","5","4","6","6","4","5","5","3","5","5","5","4","5","682886971621638144","nyf","448","Female","[""好她"",""坏她"",""好我"",""坏我""]","[""强她"",""弱她"",""强我"",""弱我""]","","","","","","","","","","","","","","","","","","","","","","","","","","","","","","feedback_test","","","","","","","",""
"872","","j","psychophysics","42","301863","0.0-8.0-1.0-1.0-0.0-0.16","4","3","3","3","2","4","2","3","4","4","5","1","0","0","0","-1","-1","0","0","4","4","5","4","4","3","4","4","4","4","5","6","5","7","7","7","7","7","7","4","6","4","5","5","3","4","3","3","3","3","3","5","5","4","4","4","3","5","3","4","5","5","3","4","4","5","5","4","6","6","4","5","5","3","5","5","5","4","5","682886971621638144","nyf","448","Female","[""好她"",""坏她"",""好我"",""坏我""]","[""强她"",""弱她"",""强我"",""弱我""]","","","","","","","","nonmatch","","","","","","","","","","key","j","33.03760714285662","1280","716","f","false","match","img/hexagon.png","弱我","弱我","prac_ALT2_ability","practice_ability","","","","","","","",""
"null","<span style='color:red; font-size: 70px;'>错误! </span>","null","html-keyboard-response","43","302365","0.0-8.0-1.0-1.0-0.0-1.16","4","3","3","3","2","4","2","3","4","4","5","1","0","0","0","-1","-1","0","0","4","4","5","4","4","3","4","4","4","4","5","6","5","7","7","7","7","7","7","4","6","4","5","5","3","4","3","3","3","3","3","5","5","4","4","4","3","5","3","4","5","5","3","4","4","5","5","4","6","6","4","5","5","3","5","5","5","4","5","682886971621638144","nyf","448","Female","[""好她"",""坏她"",""好我"",""坏我""]","[""强她"",""弱她"",""强我"",""弱我""]","","","","","","","","","","","","","","","","","","","","","","","","","","","","","","feedback_test","","","","","","","",""
"969","","j","psychophysics","44","304359","0.0-8.0-1.0-1.0-0.0-0.17","4","3","3","3","2","4","2","3","4","4","5","1","0","0","0","-1","-1","0","0","4","4","5","4","4","3","4","4","4","4","5","6","5","7","7","7","7","7","7","4","6","4","5","5","3","4","3","3","3","3","3","5","5","4","4","4","3","5","3","4","5","5","3","4","4","5","5","4","6","6","4","5","5","3","5","5","5","4","5","682886971621638144","nyf","448","Female","[""好她"",""坏她"",""好我"",""坏我""]","[""强她"",""弱她"",""强我"",""弱我""]","","","","","","","","nonmatch","","","","","","","","","","key","j","33.62231034482729","1280","716","j","true","nonmatch","img/square.png","弱我","强她","prac_ALT2_ability","practice_ability","","","","","","","",""
"null","<span style='color:GreenYellow; font-size: 70px;'>正确! </span>","null","html-keyboard-response","45","304860","0.0-8.0-1.0-1.0-0.0-1.17","4","3","3","3","2","4","2","3","4","4","5","1","0","0","0","-1","-1","0","0","4","4","5","4","4","3","4","4","4","4","5","6","5","7","7","7","7","7","7","4","6","4","5","5","3","4","3","3","3","3","3","5","5","4","4","4","3","5","3","4","5","5","3","4","4","5","5","4","6","6","4","5","5","3","5","5","5","4","5","682886971621638144","nyf","448","Female","[""好她"",""坏她"",""好我"",""坏我""]","[""强她"",""弱她"",""强我"",""弱我""]","","","","","","","","","","","","","","","","","","","","","","","","","","","","","","feedback_test","","","","","","","",""
"1008","","j","psychophysics","46","306870","0.0-8.0-1.0-1.0-0.0-0.18","4","3","3","3","2","4","2","3","4","4","5","1","0","0","0","-1","-1","0","0","4","4","5","4","4","3","4","4","4","4","5","6","5","7","7","7","7","7","7","4","6","4","5","5","3","4","3","3","3","3","3","5","5","4","4","4","3","5","3","4","5","5","3","4","4","5","5","4","6","6","4","5","5","3","5","5","5","4","5","682886971621638144","nyf","448","Female","[""好她"",""坏她"",""好我"",""坏我""]","[""强她"",""弱她"",""强我"",""弱我""]","","","","","","","","nonmatch","","","","","","","","","","key","j","32.22380000000024","1280","716","j","true","nonmatch","img/hexagon.png","强她","弱我","prac_ALT2_ability","practice_ability","","","","","","","",""
"null","<span style='color:GreenYellow; font-size: 70px;'>正确! </span>","null","html-keyboard-response","47","307372","0.0-8.0-1.0-1.0-0.0-1.18","4","3","3","3","2","4","2","3","4","4","5","1","0","0","0","-1","-1","0","0","4","4","5","4","4","3","4","4","4","4","5","6","5","7","7","7","7","7","7","4","6","4","5","5","3","4","3","3","3","3","3","5","5","4","4","4","3","5","3","4","5","5","3","4","4","5","5","4","6","6","4","5","5","3","5","5","5","4","5","682886971621638144","nyf","448","Female","[""好她"",""坏她"",""好我"",""坏我""]","[""强她"",""弱她"",""强我"",""弱我""]","","","","","","","","","","","","","","","","","","","","","","","","","","","","","","feedback_test","","","","","","","",""
"965","","j","psychophysics","48","309376","0.0-8.0-1.0-1.0-0.0-0.19","4","3","3","3","2","4","2","3","4","4","5","1","0","0","0","-1","-1","0","0","4","4","5","4","4","3","4","4","4","4","5","6","5","7","7","7","7","7","7","4","6","4","5","5","3","4","3","3","3","3","3","5","5","4","4","4","3","5","3","4","5","5","3","4","4","5","5","4","6","6","4","5","5","3","5","5","5","4","5","682886971621638144","nyf","448","Female","[""好她"",""坏她"",""好我"",""坏我""]","[""强她"",""弱她"",""强我"",""弱我""]","","","","","","","","nonmatch","","","","","","","","","","key","j","33.90934482758568","1280","716","j","true","nonmatch","img/hexagon.png","强我","弱我","prac_ALT2_ability","practice_ability","","","","","","","",""
"null","<span style='color:GreenYellow; font-size: 70px;'>正确! </span>","null","html-keyboard-response","49","309878","0.0-8.0-1.0-1.0-0.0-1.19","4","3","3","3","2","4","2","3","4","4","5","1","0","0","0","-1","-1","0","0","4","4","5","4","4","3","4","4","4","4","5","6","5","7","7","7","7","7","7","4","6","4","5","5","3","4","3","3","3","3","3","5","5","4","4","4","3","5","3","4","5","5","3","4","4","5","5","4","6","6","4","5","5","3","5","5","5","4","5","682886971621638144","nyf","448","Female","[""好她"",""坏她"",""好我"",""坏我""]","[""强她"",""弱她"",""强我"",""弱我""]","","","","","","","","","","","","","","","","","","","","","","","","","","","","","","feedback_test","","","","","","","",""
"947","","j","psychophysics","50","311857","0.0-8.0-1.0-1.0-0.0-0.20","4","3","3","3","2","4","2","3","4","4","5","1","0","0","0","-1","-1","0","0","4","4","5","4","4","3","4","4","4","4","5","6","5","7","7","7","7","7","7","4","6","4","5","5","3","4","3","3","3","3","3","5","5","4","4","4","3","5","3","4","5","5","3","4","4","5","5","4","6","6","4","5","5","3","5","5","5","4","5","682886971621638144","nyf","448","Female","[""好她"",""坏她"",""好我"",""坏我""]","[""强她"",""弱她"",""强我"",""弱我""]","","","","","","","","nonmatch","","","","","","","","","","key","j","32.22381666666673","1280","716","j","true","nonmatch","img/hexagon.png","弱她","弱我","prac_ALT2_ability","practice_ability","","","","","","","",""
"null","<span style='color:GreenYellow; font-size: 70px;'>正确! </span>","null","html-keyboard-response","51","312358","0.0-8.0-1.0-1.0-0.0-1.20","4","3","3","3","2","4","2","3","4","4","5","1","0","0","0","-1","-1","0","0","4","4","5","4","4","3","4","4","4","4","5","6","5","7","7","7","7","7","7","4","6","4","5","5","3","4","3","3","3","3","3","5","5","4","4","4","3","5","3","4","5","5","3","4","4","5","5","4","6","6","4","5","5","3","5","5","5","4","5","682886971621638144","nyf","448","Female","[""好她"",""坏她"",""好我"",""坏我""]","[""强她"",""弱她"",""强我"",""弱我""]","","","","","","","","","","","","","","","","","","","","","","","","","","","","","","feedback_test","","","","","","","",""
"1073","","j","psychophysics","52","314435","0.0-8.0-1.0-1.0-0.0-0.21","4","3","3","3","2","4","2","3","4","4","5","1","0","0","0","-1","-1","0","0","4","4","5","4","4","3","4","4","4","4","5","6","5","7","7","7","7","7","7","4","6","4","5","5","3","4","3","3","3","3","3","5","5","4","4","4","3","5","3","4","5","5","3","4","4","5","5","4","6","6","4","5","5","3","5","5","5","4","5","682886971621638144","nyf","448","Female","[""好她"",""坏她"",""好我"",""坏我""]","[""强她"",""弱她"",""强我"",""弱我""]","","","","","","","","nonmatch","","","","","","","","","","key","j","33.89056666666681","1280","716","f","false","match","img/square.png","强她","强她","prac_ALT2_ability","practice_ability","","","","","","","",""
"null","<span style='color:red; font-size: 70px;'>错误! </span>","null","html-keyboard-response","53","314937","0.0-8.0-1.0-1.0-0.0-1.21","4","3","3","3","2","4","2","3","4","4","5","1","0","0","0","-1","-1","0","0","4","4","5","4","4","3","4","4","4","4","5","6","5","7","7","7","7","7","7","4","6","4","5","5","3","4","3","3","3","3","3","5","5","4","4","4","3","5","3","4","5","5","3","4","4","5","5","4","6","6","4","5","5","3","5","5","5","4","5","682886971621638144","nyf","448","Female","[""好她"",""坏她"",""好我"",""坏我""]","[""强她"",""弱她"",""强我"",""弱我""]","","","","","","","","","","","","","","","","","","","","","","","","","","","","","","feedback_test","","","","","","","",""
"997","","j","psychophysics","54","316939","0.0-8.0-1.0-1.0-0.0-0.22","4","3","3","3","2","4","2","3","4","4","5","1","0","0","0","-1","-1","0","0","4","4","5","4","4","3","4","4","4","4","5","6","5","7","7","7","7","7","7","4","6","4","5","5","3","4","3","3","3","3","3","5","5","4","4","4","3","5","3","4","5","5","3","4","4","5","5","4","6","6","4","5","5","3","5","5","5","4","5","682886971621638144","nyf","448","Female","[""好她"",""坏她"",""好我"",""坏我""]","[""强她"",""弱她"",""强我"",""弱我""]","","","","","","","","nonmatch","","","","","","","","","","key","j","33.05242372881345","1280","716","f","false","match","img/ellipse.png","弱她","弱她","prac_ALT2_ability","practice_ability","","","","","","","",""
"null","<span style='color:red; font-size: 70px;'>错误! </span>","null","html-keyboard-response","55","317440","0.0-8.0-1.0-1.0-0.0-1.22","4","3","3","3","2","4","2","3","4","4","5","1","0","0","0","-1","-1","0","0","4","4","5","4","4","3","4","4","4","4","5","6","5","7","7","7","7","7","7","4","6","4","5","5","3","4","3","3","3","3","3","5","5","4","4","4","3","5","3","4","5","5","3","4","4","5","5","4","6","6","4","5","5","3","5","5","5","4","5","682886971621638144","nyf","448","Female","[""好她"",""坏她"",""好我"",""坏我""]","[""强她"",""弱她"",""强我"",""弱我""]","","","","","","","","","","","","","","","","","","","","","","","","","","","","","","feedback_test","","","","","","","",""
"null","","null","psychophysics","56","319663","0.0-8.0-1.0-1.0-0.0-0.23","4","3","3","3","2","4","2","3","4","4","5","1","0","0","0","-1","-1","0","0","4","4","5","4","4","3","4","4","4","4","5","6","5","7","7","7","7","7","7","4","6","4","5","5","3","4","3","3","3","3","3","5","5","4","4","4","3","5","3","4","5","5","3","4","4","5","5","4","6","6","4","5","5","3","5","5","5","4","5","682886971621638144","nyf","448","Female","[""好她"",""坏她"",""好我"",""坏我""]","[""强她"",""弱她"",""强我"",""弱我""]","","","","","","","","null","","","","","","","","","","key","null","32.58877611940348","1280","716","j","false","nonmatch","img/square.png","弱她","强她","prac_ALT2_ability","practice_ability","","","","","","","",""
"null","<span class='add_' style='color:yellow; font-size: 70px;'> 太慢! </span>","null","html-keyboard-response","57","320166","0.0-8.0-1.0-1.0-0.0-1.23","4","3","3","3","2","4","2","3","4","4","5","1","0","0","0","-1","-1","0","0","4","4","5","4","4","3","4","4","4","4","5","6","5","7","7","7","7","7","7","4","6","4","5","5","3","4","3","3","3","3","3","5","5","4","4","4","3","5","3","4","5","5","3","4","4","5","5","4","6","6","4","5","5","3","5","5","5","4","5","682886971621638144","nyf","448","Female","[""好她"",""坏她"",""好我"",""坏我""]","[""强她"",""弱她"",""强我"",""弱我""]","","","","","","","","","","","","","","","","","","","","","","","","","","","","","","feedback_test","","","","","","","",""
"1150","","j","psychophysics","58","322335","0.0-8.0-1.0-1.0-0.0-0.24","4","3","3","3","2","4","2","3","4","4","5","1","0","0","0","-1","-1","0","0","4","4","5","4","4","3","4","4","4","4","5","6","5","7","7","7","7","7","7","4","6","4","5","5","3","4","3","3","3","3","3","5","5","4","4","4","3","5","3","4","5","5","3","4","4","5","5","4","6","6","4","5","5","3","5","5","5","4","5","682886971621638144","nyf","448","Female","[""好她"",""坏她"",""好我"",""坏我""]","[""强她"",""弱她"",""强我"",""弱我""]","","","","","","","","nonmatch","","","","","","","","","","key","j","33.07451562500046","1280","716","f","false","match","img/hexagon.png","弱我","弱我","prac_ALT2_ability","practice_ability","","","","","","","",""
"null","<span style='color:red; font-size: 70px;'>错误! </span>","null","html-keyboard-response","59","322837","0.0-8.0-1.0-1.0-0.0-1.24","4","3","3","3","2","4","2","3","4","4","5","1","0","0","0","-1","-1","0","0","4","4","5","4","4","3","4","4","4","4","5","6","5","7","7","7","7","7","7","4","6","4","5","5","3","4","3","3","3","3","3","5","5","4","4","4","3","5","3","4","5","5","3","4","4","5","5","4","6","6","4","5","5","3","5","5","5","4","5","682886971621638144","nyf","448","Female","[""好她"",""坏她"",""好我"",""坏我""]","[""强她"",""弱她"",""强我"",""弱我""]","","","","","","","","","","","","","","","","","","","","","","","","","","","","","","feedback_test","","","","","","","",""
"1144","","j","psychophysics","60","324985","0.0-8.0-1.0-1.0-0.0-0.25","4","3","3","3","2","4","2","3","4","4","5","1","0","0","0","-1","-1","0","0","4","4","5","4","4","3","4","4","4","4","5","6","5","7","7","7","7","7","7","4","6","4","5","5","3","4","3","3","3","3","3","5","5","4","4","4","3","5","3","4","5","5","3","4","4","5","5","4","6","6","4","5","5","3","5","5","5","4","5","682886971621638144","nyf","448","Female","[""好她"",""坏她"",""好我"",""坏我""]","[""强她"",""弱她"",""强我"",""弱我""]","","","","","","","","nonmatch","","","","","","","","","","key","j","33.33463492063484","1280","716","j","true","nonmatch","img/square.png","弱我","强她","prac_ALT2_ability","practice_ability","","","","","","","",""
"null","<span style='color:GreenYellow; font-size: 70px;'>正确! </span>","null","html-keyboard-response","61","325486","0.0-8.0-1.0-1.0-0.0-1.25","4","3","3","3","2","4","2","3","4","4","5","1","0","0","0","-1","-1","0","0","4","4","5","4","4","3","4","4","4","4","5","6","5","7","7","7","7","7","7","4","6","4","5","5","3","4","3","3","3","3","3","5","5","4","4","4","3","5","3","4","5","5","3","4","4","5","5","4","6","6","4","5","5","3","5","5","5","4","5","682886971621638144","nyf","448","Female","[""好她"",""坏她"",""好我"",""坏我""]","[""强她"",""弱她"",""强我"",""弱我""]","","","","","","","","","","","","","","","","","","","","","","","","","","","","","","feedback_test","","","","","","","",""
"791","","j","psychophysics","62","327280","0.0-8.0-1.0-1.0-0.0-0.26","4","3","3","3","2","4","2","3","4","4","5","1","0","0","0","-1","-1","0","0","4","4","5","4","4","3","4","4","4","4","5","6","5","7","7","7","7","7","7","4","6","4","5","5","3","4","3","3","3","3","3","5","5","4","4","4","3","5","3","4","5","5","3","4","4","5","5","4","6","6","4","5","5","3","5","5","5","4","5","682886971621638144","nyf","448","Female","[""好她"",""坏她"",""好我"",""坏我""]","[""强她"",""弱她"",""强我"",""弱我""]","","","","","","","","nonmatch","","","","","","","","","","key","j","32.39149056603794","1280","716","f","false","match","img/ellipse.png","弱她","弱她","prac_ALT2_ability","practice_ability","","","","","","","",""
"null","<span style='color:red; font-size: 70px;'>错误! </span>","null","html-keyboard-response","63","327781","0.0-8.0-1.0-1.0-0.0-1.26","4","3","3","3","2","4","2","3","4","4","5","1","0","0","0","-1","-1","0","0","4","4","5","4","4","3","4","4","4","4","5","6","5","7","7","7","7","7","7","4","6","4","5","5","3","4","3","3","3","3","3","5","5","4","4","4","3","5","3","4","5","5","3","4","4","5","5","4","6","6","4","5","5","3","5","5","5","4","5","682886971621638144","nyf","448","Female","[""好她"",""坏她"",""好我"",""坏我""]","[""强她"",""弱她"",""强我"",""弱我""]","","","","","","","","","","","","","","","","","","","","","","","","","","","","","","feedback_test","","","","","","","",""
"809","","f","psychophysics","64","329592","0.0-8.0-1.0-1.0-0.0-0.27","4","3","3","3","2","4","2","3","4","4","5","1","0","0","0","-1","-1","0","0","4","4","5","4","4","3","4","4","4","4","5","6","5","7","7","7","7","7","7","4","6","4","5","5","3","4","3","3","3","3","3","5","5","4","4","4","3","5","3","4","5","5","3","4","4","5","5","4","6","6","4","5","5","3","5","5","5","4","5","682886971621638144","nyf","448","Female","[""好她"",""坏她"",""好我"",""坏我""]","[""强她"",""弱她"",""强我"",""弱我""]","","","","","","","","match","","","","","","","","","","key","f","33.334603773584845","1280","716","f","true","match","img/ellipse.png","弱她","弱她","prac_ALT2_ability","practice_ability","","","","","","","",""
"null","<span style='color:GreenYellow; font-size: 70px;'>正确! </span>","null","html-keyboard-response","65","330093","0.0-8.0-1.0-1.0-0.0-1.27","4","3","3","3","2","4","2","3","4","4","5","1","0","0","0","-1","-1","0","0","4","4","5","4","4","3","4","4","4","4","5","6","5","7","7","7","7","7","7","4","6","4","5","5","3","4","3","3","3","3","3","5","5","4","4","4","3","5","3","4","5","5","3","4","4","5","5","4","6","6","4","5","5","3","5","5","5","4","5","682886971621638144","nyf","448","Female","[""好她"",""坏她"",""好我"",""坏我""]","[""强她"",""弱她"",""强我"",""弱我""]","","","","","","","","","","","","","","","","","","","","","","","","","","","","","","feedback_test","","","","","","","",""
"864","","j","psychophysics","66","331975","0.0-8.0-1.0-1.0-0.0-0.28","4","3","3","3","2","4","2","3","4","4","5","1","0","0","0","-1","-1","0","0","4","4","5","4","4","3","4","4","4","4","5","6","5","7","7","7","7","7","7","4","6","4","5","5","3","4","3","3","3","3","3","5","5","4","4","4","3","5","3","4","5","5","3","4","4","5","5","4","6","6","4","5","5","3","5","5","5","4","5","682886971621638144","nyf","448","Female","[""好她"",""坏她"",""好我"",""坏我""]","[""强她"",""弱她"",""强我"",""弱我""]","","","","","","","","nonmatch","","","","","","","","","","key","j","33.335036363636824","1280","716","f","false","match","img/hexagon.png","弱我","弱我","prac_ALT2_ability","practice_ability","","","","","","","",""
"null","<span style='color:red; font-size: 70px;'>错误! </span>","null","html-keyboard-response","67","332476","0.0-8.0-1.0-1.0-0.0-1.28","4","3","3","3","2","4","2","3","4","4","5","1","0","0","0","-1","-1","0","0","4","4","5","4","4","3","4","4","4","4","5","6","5","7","7","7","7","7","7","4","6","4","5","5","3","4","3","3","3","3","3","5","5","4","4","4","3","5","3","4","5","5","3","4","4","5","5","4","6","6","4","5","5","3","5","5","5","4","5","682886971621638144","nyf","448","Female","[""好她"",""坏她"",""好我"",""坏我""]","[""强她"",""弱她"",""强我"",""弱我""]","","","","","","","","","","","","","","","","","","","","","","","","","","","","","","feedback_test","","","","","","","",""
"937","","j","psychophysics","68","334433","0.0-8.0-1.0-1.0-0.0-0.29","4","3","3","3","2","4","2","3","4","4","5","1","0","0","0","-1","-1","0","0","4","4","5","4","4","3","4","4","4","4","5","6","5","7","7","7","7","7","7","4","6","4","5","5","3","4","3","3","3","3","3","5","5","4","4","4","3","5","3","4","5","5","3","4","4","5","5","4","6","6","4","5","5","3","5","5","5","4","5","682886971621638144","nyf","448","Female","[""好她"",""坏她"",""好我"",""坏我""]","[""强她"",""弱她"",""强我"",""弱我""]","","","","","","","","nonmatch","","","","","","","","","","key","j","33.3348070175434","1280","716","j","true","nonmatch","img/diamond.png","弱我","强我","prac_ALT2_ability","practice_ability","","","","","","","",""
"null","<span style='color:GreenYellow; font-size: 70px;'>正确! </span>","null","html-keyboard-response","69","334934","0.0-8.0-1.0-1.0-0.0-1.29","4","3","3","3","2","4","2","3","4","4","5","1","0","0","0","-1","-1","0","0","4","4","5","4","4","3","4","4","4","4","5","6","5","7","7","7","7","7","7","4","6","4","5","5","3","4","3","3","3","3","3","5","5","4","4","4","3","5","3","4","5","5","3","4","4","5","5","4","6","6","4","5","5","3","5","5","5","4","5","682886971621638144","nyf","448","Female","[""好她"",""坏她"",""好我"",""坏我""]","[""强她"",""弱她"",""强我"",""弱我""]","","","","","","","","","","","","","","","","","","","","","","","","","","","","","","feedback_test","","","","","","","",""
"1158","","f","psychophysics","70","337095","0.0-8.0-1.0-1.0-0.0-0.30","4","3","3","3","2","4","2","3","4","4","5","1","0","0","0","-1","-1","0","0","4","4","5","4","4","3","4","4","4","4","5","6","5","7","7","7","7","7","7","4","6","4","5","5","3","4","3","3","3","3","3","5","5","4","4","4","3","5","3","4","5","5","3","4","4","5","5","4","6","6","4","5","5","3","5","5","5","4","5","682886971621638144","nyf","448","Female","[""好她"",""坏她"",""好我"",""坏我""]","[""强她"",""弱她"",""强我"",""弱我""]","","","","","","","","match","","","","","","","","","","key","f","33.59941269841326","1280","716","f","true","match","img/diamond.png","强我","强我","prac_ALT2_ability","practice_ability","","","","","","","",""
"null","<span style='color:GreenYellow; font-size: 70px;'>正确! </span>","null","html-keyboard-response","71","337596","0.0-8.0-1.0-1.0-0.0-1.30","4","3","3","3","2","4","2","3","4","4","5","1","0","0","0","-1","-1","0","0","4","4","5","4","4","3","4","4","4","4","5","6","5","7","7","7","7","7","7","4","6","4","5","5","3","4","3","3","3","3","3","5","5","4","4","4","3","5","3","4","5","5","3","4","4","5","5","4","6","6","4","5","5","3","5","5","5","4","5","682886971621638144","nyf","448","Female","[""好她"",""坏她"",""好我"",""坏我""]","[""强她"",""弱她"",""强我"",""弱我""]","","","","","","","","","","","","","","","","","","","","","","","","","","","","","","feedback_test","","","","","","","",""
"1214","","j","psychophysics","72","339823","0.0-8.0-1.0-1.0-0.0-0.31","4","3","3","3","2","4","2","3","4","4","5","1","0","0","0","-1","-1","0","0","4","4","5","4","4","3","4","4","4","4","5","6","5","7","7","7","7","7","7","4","6","4","5","5","3","4","3","3","3","3","3","5","5","4","4","4","3","5","3","4","5","5","3","4","4","5","5","4","6","6","4","5","5","3","5","5","5","4","5","682886971621638144","nyf","448","Female","[""好她"",""坏她"",""好我"",""坏我""]","[""强她"",""弱她"",""强我"",""弱我""]","","","","","","","","nonmatch","","","","","","","","","","key","j","35.216693548387056","1280","716","f","false","match","img/diamond.png","强我","强我","prac_ALT2_ability","practice_ability","","","","","","","",""
"null","<span class='add_' style='color:yellow; font-size: 70px;'> 太慢! </span>","null","html-keyboard-response","73","340324","0.0-8.0-1.0-1.0-0.0-1.31","4","3","3","3","2","4","2","3","4","4","5","1","0","0","0","-1","-1","0","0","4","4","5","4","4","3","4","4","4","4","5","6","5","7","7","7","7","7","7","4","6","4","5","5","3","4","3","3","3","3","3","5","5","4","4","4","3","5","3","4","5","5","3","4","4","5","5","4","6","6","4","5","5","3","5","5","5","4","5","682886971621638144","nyf","448","Female","[""好她"",""坏她"",""好我"",""坏我""]","[""强她"",""弱她"",""强我"",""弱我""]","","","","","","","","","","","","","","","","","","","","","","","","","","","","","","feedback_test","","","","","","","",""
"1055","","f","psychophysics","74","342403","0.0-8.0-1.0-1.0-0.0-0.32","4","3","3","3","2","4","2","3","4","4","5","1","0","0","0","-1","-1","0","0","4","4","5","4","4","3","4","4","4","4","5","6","5","7","7","7","7","7","7","4","6","4","5","5","3","4","3","3","3","3","3","5","5","4","4","4","3","5","3","4","5","5","3","4","4","5","5","4","6","6","4","5","5","3","5","5","5","4","5","682886971621638144","nyf","448","Female","[""好她"",""坏她"",""好我"",""坏我""]","[""强她"",""弱她"",""强我"",""弱我""]","","","","","","","","match","","","","","","","","","","key","f","32.79719354838674","1280","716","j","false","nonmatch","img/diamond.png","强她","强我","prac_ALT2_ability","practice_ability","","","","","","","",""
"null","<span style='color:red; font-size: 70px;'>错误! </span>","null","html-keyboard-response","75","342906","0.0-8.0-1.0-1.0-0.0-1.32","4","3","3","3","2","4","2","3","4","4","5","1","0","0","0","-1","-1","0","0","4","4","5","4","4","3","4","4","4","4","5","6","5","7","7","7","7","7","7","4","6","4","5","5","3","4","3","3","3","3","3","5","5","4","4","4","3","5","3","4","5","5","3","4","4","5","5","4","6","6","4","5","5","3","5","5","5","4","5","682886971621638144","nyf","448","Female","[""好她"",""坏她"",""好我"",""坏我""]","[""强她"",""弱她"",""强我"",""弱我""]","","","","","","","","","","","","","","","","","","","","","","","","","","","","","","feedback_test","","","","","","","",""
"990","","f","psychophysics","76","344912","0.0-8.0-1.0-1.0-0.0-0.33","4","3","3","3","2","4","2","3","4","4","5","1","0","0","0","-1","-1","0","0","4","4","5","4","4","3","4","4","4","4","5","6","5","7","7","7","7","7","7","4","6","4","5","5","3","4","3","3","3","3","3","5","5","4","4","4","3","5","3","4","5","5","3","4","4","5","5","4","6","6","4","5","5","3","5","5","5","4","5","682886971621638144","nyf","448","Female","[""好她"",""坏她"",""好我"",""坏我""]","[""强她"",""弱她"",""强我"",""弱我""]","","","","","","","","match","","","","","","","","","","key","f","33.62258620689631","1280","716","j","false","nonmatch","img/hexagon.png","强她","弱我","prac_ALT2_ability","practice_ability","","","","","","","",""
"null","<span style='color:red; font-size: 70px;'>错误! </span>","null","html-keyboard-response","77","345413","0.0-8.0-1.0-1.0-0.0-1.33","4","3","3","3","2","4","2","3","4","4","5","1","0","0","0","-1","-1","0","0","4","4","5","4","4","3","4","4","4","4","5","6","5","7","7","7","7","7","7","4","6","4","5","5","3","4","3","3","3","3","3","5","5","4","4","4","3","5","3","4","5","5","3","4","4","5","5","4","6","6","4","5","5","3","5","5","5","4","5","682886971621638144","nyf","448","Female","[""好她"",""坏她"",""好我"",""坏我""]","[""强她"",""弱她"",""强我"",""弱我""]","","","","","","","","","","","","","","","","","","","","","","","","","","","","","","feedback_test","","","","","","","",""
"1097","","j","psychophysics","78","347511","0.0-8.0-1.0-1.0-0.0-0.34","4","3","3","3","2","4","2","3","4","4","5","1","0","0","0","-1","-1","0","0","4","4","5","4","4","3","4","4","4","4","5","6","5","7","7","7","7","7","7","4","6","4","5","5","3","4","3","3","3","3","3","5","5","4","4","4","3","5","3","4","5","5","3","4","4","5","5","4","6","6","4","5","5","3","5","5","5","4","5","682886971621638144","nyf","448","Female","[""好她"",""坏她"",""好我"",""坏我""]","[""强她"",""弱她"",""强我"",""弱我""]","","","","","","","","nonmatch","","","","","","","","","","key","j","33.06796774193513","1280","716","j","true","nonmatch","img/ellipse.png","弱我","弱她","prac_ALT2_ability","practice_ability","","","","","","","",""
"null","<span style='color:GreenYellow; font-size: 70px;'>正确! </span>","null","html-keyboard-response","79","348014","0.0-8.0-1.0-1.0-0.0-1.34","4","3","3","3","2","4","2","3","4","4","5","1","0","0","0","-1","-1","0","0","4","4","5","4","4","3","4","4","4","4","5","6","5","7","7","7","7","7","7","4","6","4","5","5","3","4","3","3","3","3","3","5","5","4","4","4","3","5","3","4","5","5","3","4","4","5","5","4","6","6","4","5","5","3","5","5","5","4","5","682886971621638144","nyf","448","Female","[""好她"",""坏她"",""好我"",""坏我""]","[""强她"",""弱她"",""强我"",""弱我""]","","","","","","","","","","","","","","","","","","","","","","","","","","","","","","feedback_test","","","","","","","",""
"923","","f","psychophysics","80","349938","0.0-8.0-1.0-1.0-0.0-0.35","4","3","3","3","2","4","2","3","4","4","5","1","0","0","0","-1","-1","0","0","4","4","5","4","4","3","4","4","4","4","5","6","5","7","7","7","7","7","7","4","6","4","5","5","3","4","3","3","3","3","3","5","5","4","4","4","3","5","3","4","5","5","3","4","4","5","5","4","6","6","4","5","5","3","5","5","5","4","5","682886971621638144","nyf","448","Female","[""好她"",""坏她"",""好我"",""坏我""]","[""强她"",""弱她"",""强我"",""弱我""]","","","","","","","","match","","","","","","","","","","key","f","33.94107272727204","1280","716","f","true","match","img/square.png","强她","强她","prac_ALT2_ability","practice_ability","","","","","","","",""
"null","<span style='color:GreenYellow; font-size: 70px;'>正确! </span>","null","html-keyboard-response","81","350439","0.0-8.0-1.0-1.0-0.0-1.35","4","3","3","3","2","4","2","3","4","4","5","1","0","0","0","-1","-1","0","0","4","4","5","4","4","3","4","4","4","4","5","6","5","7","7","7","7","7","7","4","6","4","5","5","3","4","3","3","3","3","3","5","5","4","4","4","3","5","3","4","5","5","3","4","4","5","5","4","6","6","4","5","5","3","5","5","5","4","5","682886971621638144","nyf","448","Female","[""好她"",""坏她"",""好我"",""坏我""]","[""强她"",""弱她"",""强我"",""弱我""]","","","","","","","","","","","","","","","","","","","","","","","","","","","","","","feedback_test","","","","","","","",""
"1022","","j","psychophysics","82","352463","0.0-8.0-1.0-1.0-0.0-0.36","4","3","3","3","2","4","2","3","4","4","5","1","0","0","0","-1","-1","0","0","4","4","5","4","4","3","4","4","4","4","5","6","5","7","7","7","7","7","7","4","6","4","5","5","3","4","3","3","3","3","3","5","5","4","4","4","3","5","3","4","5","5","3","4","4","5","5","4","6","6","4","5","5","3","5","5","5","4","5","682886971621638144","nyf","448","Female","[""好她"",""坏她"",""好我"",""坏我""]","[""强她"",""弱她"",""强我"",""弱我""]","","","","","","","","nonmatch","","","","","","","","","","key","j","33.61601694915207","1280","716","j","true","nonmatch","img/diamond.png","弱她","强我","prac_ALT2_ability","practice_ability","","","","","","","",""
"null","<span style='color:GreenYellow; font-size: 70px;'>正确! </span>","null","html-keyboard-response","83","352964","0.0-8.0-1.0-1.0-0.0-1.36","4","3","3","3","2","4","2","3","4","4","5","1","0","0","0","-1","-1","0","0","4","4","5","4","4","3","4","4","4","4","5","6","5","7","7","7","7","7","7","4","6","4","5","5","3","4","3","3","3","3","3","5","5","4","4","4","3","5","3","4","5","5","3","4","4","5","5","4","6","6","4","5","5","3","5","5","5","4","5","682886971621638144","nyf","448","Female","[""好她"",""坏她"",""好我"",""坏我""]","[""强她"",""弱她"",""强我"",""弱我""]","","","","","","","","","","","","","","","","","","","","","","","","","","","","","","feedback_test","","","","","","","",""
"904","","j","psychophysics","84","354871","0.0-8.0-1.0-1.0-0.0-0.37","4","3","3","3","2","4","2","3","4","4","5","1","0","0","0","-1","-1","0","0","4","4","5","4","4","3","4","4","4","4","5","6","5","7","7","7","7","7","7","4","6","4","5","5","3","4","3","3","3","3","3","5","5","4","4","4","3","5","3","4","5","5","3","4","4","5","5","4","6","6","4","5","5","3","5","5","5","4","5","682886971621638144","nyf","448","Female","[""好她"",""坏她"",""好我"",""坏我""]","[""强她"",""弱她"",""强我"",""弱我""]","","","","","","","","nonmatch","","","","","","","","","","key","j","33.941054545454044","1280","716","f","false","match","img/diamond.png","强我","强我","prac_ALT2_ability","practice_ability","","","","","","","",""
"null","<span style='color:red; font-size: 70px;'>错误! </span>","null","html-keyboard-response","85","355372","0.0-8.0-1.0-1.0-0.0-1.37","4","3","3","3","2","4","2","3","4","4","5","1","0","0","0","-1","-1","0","0","4","4","5","4","4","3","4","4","4","4","5","6","5","7","7","7","7","7","7","4","6","4","5","5","3","4","3","3","3","3","3","5","5","4","4","4","3","5","3","4","5","5","3","4","4","5","5","4","6","6","4","5","5","3","5","5","5","4","5","682886971621638144","nyf","448","Female","[""好她"",""坏她"",""好我"",""坏我""]","[""强她"",""弱她"",""强我"",""弱我""]","","","","","","","","","","","","","","","","","","","","","","","","","","","","","","feedback_test","","","","","","","",""
"1009","","j","psychophysics","86","357385","0.0-8.0-1.0-1.0-0.0-0.38","4","3","3","3","2","4","2","3","4","4","5","1","0","0","0","-1","-1","0","0","4","4","5","4","4","3","4","4","4","4","5","6","5","7","7","7","7","7","7","4","6","4","5","5","3","4","3","3","3","3","3","5","5","4","4","4","3","5","3","4","5","5","3","4","4","5","5","4","6","6","4","5","5","3","5","5","5","4","5","682886971621638144","nyf","448","Female","[""好她"",""坏她"",""好我"",""坏我""]","[""强她"",""弱她"",""强我"",""弱我""]","","","","","","","","nonmatch","","","","","","","","","","key","j","33.33511864406775","1280","716","f","false","match","img/square.png","强她","强她","prac_ALT2_ability","practice_ability","","","","","","","",""
"null","<span style='color:red; font-size: 70px;'>错误! </span>","null","html-keyboard-response","87","357886","0.0-8.0-1.0-1.0-0.0-1.38","4","3","3","3","2","4","2","3","4","4","5","1","0","0","0","-1","-1","0","0","4","4","5","4","4","3","4","4","4","4","5","6","5","7","7","7","7","7","7","4","6","4","5","5","3","4","3","3","3","3","3","5","5","4","4","4","3","5","3","4","5","5","3","4","4","5","5","4","6","6","4","5","5","3","5","5","5","4","5","682886971621638144","nyf","448","Female","[""好她"",""坏她"",""好我"",""坏我""]","[""强她"",""弱她"",""强我"",""弱我""]","","","","","","","","","","","","","","","","","","","","","","","","","","","","","","feedback_test","","","","","","","",""
"953","","j","psychophysics","88","359871","0.0-8.0-1.0-1.0-0.0-0.39","4","3","3","3","2","4","2","3","4","4","5","1","0","0","0","-1","-1","0","0","4","4","5","4","4","3","4","4","4","4","5","6","5","7","7","7","7","7","7","4","6","4","5","5","3","4","3","3","3","3","3","5","5","4","4","4","3","5","3","4","5","5","3","4","4","5","5","4","6","6","4","5","5","3","5","5","5","4","5","682886971621638144","nyf","448","Female","[""好她"",""坏她"",""好我"",""坏我""]","[""强她"",""弱她"",""强我"",""弱我""]","","","","","","","","nonmatch","","","","","","","","","","key","j","35.15301818181761","1280","716","j","true","nonmatch","img/square.png","弱她","强她","prac_ALT2_ability","practice_ability","","","","","","","",""
"null","<span style='color:GreenYellow; font-size: 70px;'>正确! </span>","null","html-keyboard-response","89","360372","0.0-8.0-1.0-1.0-0.0-1.39","4","3","3","3","2","4","2","3","4","4","5","1","0","0","0","-1","-1","0","0","4","4","5","4","4","3","4","4","4","4","5","6","5","7","7","7","7","7","7","4","6","4","5","5","3","4","3","3","3","3","3","5","5","4","4","4","3","5","3","4","5","5","3","4","4","5","5","4","6","6","4","5","5","3","5","5","5","4","5","682886971621638144","nyf","448","Female","[""好她"",""坏她"",""好我"",""坏我""]","[""强她"",""弱她"",""强我"",""弱我""]","","","","","","","","","","","","","","","","","","","","","","","","","","","","","","feedback_test","","","","","","","",""
"929","","f","psychophysics","90","362306","0.0-8.0-1.0-1.0-0.0-0.40","4","3","3","3","2","4","2","3","4","4","5","1","0","0","0","-1","-1","0","0","4","4","5","4","4","3","4","4","4","4","5","6","5","7","7","7","7","7","7","4","6","4","5","5","3","4","3","3","3","3","3","5","5","4","4","4","3","5","3","4","5","5","3","4","4","5","5","4","6","6","4","5","5","3","5","5","5","4","5","682886971621638144","nyf","448","Female","[""好她"",""坏她"",""好我"",""坏我""]","[""强她"",""弱她"",""强我"",""弱我""]","","","","","","","","match","","","","","","","","","","key","f","33.0423508771928","1280","716","f","true","match","img/square.png","强她","强她","prac_ALT2_ability","practice_ability","","","","","","","",""
"null","<span style='color:GreenYellow; font-size: 70px;'>正确! </span>","null","html-keyboard-response","91","362809","0.0-8.0-1.0-1.0-0.0-1.40","4","3","3","3","2","4","2","3","4","4","5","1","0","0","0","-1","-1","0","0","4","4","5","4","4","3","4","4","4","4","5","6","5","7","7","7","7","7","7","4","6","4","5","5","3","4","3","3","3","3","3","5","5","4","4","4","3","5","3","4","5","5","3","4","4","5","5","4","6","6","4","5","5","3","5","5","5","4","5","682886971621638144","nyf","448","Female","[""好她"",""坏她"",""好我"",""坏我""]","[""强她"",""弱她"",""强我"",""弱我""]","","","","","","","","","","","","","","","","","","","","","","","","","","","","","","feedback_test","","","","","","","",""
"751","","f","psychophysics","92","364569","0.0-8.0-1.0-1.0-0.0-0.41","4","3","3","3","2","4","2","3","4","4","5","1","0","0","0","-1","-1","0","0","4","4","5","4","4","3","4","4","4","4","5","6","5","7","7","7","7","7","7","4","6","4","5","5","3","4","3","3","3","3","3","5","5","4","4","4","3","5","3","4","5","5","3","4","4","5","5","4","6","6","4","5","5","3","5","5","5","4","5","682886971621638144","nyf","448","Female","[""好她"",""坏她"",""好我"",""坏我""]","[""强她"",""弱她"",""强我"",""弱我""]","","","","","","","","match","","","","","","","","","","key","f","35.765375000000255","1280","716","j","false","nonmatch","img/square.png","强我","强她","prac_ALT2_ability","practice_ability","","","","","","","",""
"null","<span style='color:red; font-size: 70px;'>错误! </span>","null","html-keyboard-response","93","365073","0.0-8.0-1.0-1.0-0.0-1.41","4","3","3","3","2","4","2","3","4","4","5","1","0","0","0","-1","-1","0","0","4","4","5","4","4","3","4","4","4","4","5","6","5","7","7","7","7","7","7","4","6","4","5","5","3","4","3","3","3","3","3","5","5","4","4","4","3","5","3","4","5","5","3","4","4","5","5","4","6","6","4","5","5","3","5","5","5","4","5","682886971621638144","nyf","448","Female","[""好她"",""坏她"",""好我"",""坏我""]","[""强她"",""弱她"",""强我"",""弱我""]","","","","","","","","","","","","","","","","","","","","","","","","","","","","","","feedback_test","","","","","","","",""
"910","","j","psychophysics","94","366987","0.0-8.0-1.0-1.0-0.0-0.42","4","3","3","3","2","4","2","3","4","4","5","1","0","0","0","-1","-1","0","0","4","4","5","4","4","3","4","4","4","4","5","6","5","7","7","7","7","7","7","4","6","4","5","5","3","4","3","3","3","3","3","5","5","4","4","4","3","5","3","4","5","5","3","4","4","5","5","4","6","6","4","5","5","3","5","5","5","4","5","682886971621638144","nyf","448","Female","[""好她"",""坏她"",""好我"",""坏我""]","[""强她"",""弱她"",""强我"",""弱我""]","","","","","","","","nonmatch","","","","","","","","","","key","j","33.33524999999957","1280","716","j","true","nonmatch","img/hexagon.png","弱她","弱我","prac_ALT2_ability","practice_ability","","","","","","","",""
"null","<span style='color:GreenYellow; font-size: 70px;'>正确! </span>","null","html-keyboard-response","95","367490","0.0-8.0-1.0-1.0-0.0-1.42","4","3","3","3","2","4","2","3","4","4","5","1","0","0","0","-1","-1","0","0","4","4","5","4","4","3","4","4","4","4","5","6","5","7","7","7","7","7","7","4","6","4","5","5","3","4","3","3","3","3","3","5","5","4","4","4","3","5","3","4","5","5","3","4","4","5","5","4","6","6","4","5","5","3","5","5","5","4","5","682886971621638144","nyf","448","Female","[""好她"",""坏她"",""好我"",""坏我""]","[""强她"",""弱她"",""强我"",""弱我""]","","","","","","","","","","","","","","","","","","","","","","","","","","","","","","feedback_test","","","","","","","",""
"1084","","f","psychophysics","96","369577","0.0-8.0-1.0-1.0-0.0-0.43","4","3","3","3","2","4","2","3","4","4","5","1","0","0","0","-1","-1","0","0","4","4","5","4","4","3","4","4","4","4","5","6","5","7","7","7","7","7","7","4","6","4","5","5","3","4","3","3","3","3","3","5","5","4","4","4","3","5","3","4","5","5","3","4","4","5","5","4","6","6","4","5","5","3","5","5","5","4","5","682886971621638144","nyf","448","Female","[""好她"",""坏她"",""好我"",""坏我""]","[""强她"",""弱她"",""强我"",""弱我""]","","","","","","","","match","","","","","","","","","","key","f","33.608180327868645","1280","716","j","false","nonmatch","img/hexagon.png","强我","弱我","prac_ALT2_ability","practice_ability","","","","","","","",""
"null","<span style='color:red; font-size: 70px;'>错误! </span>","null","html-keyboard-response","97","370078","0.0-8.0-1.0-1.0-0.0-1.43","4","3","3","3","2","4","2","3","4","4","5","1","0","0","0","-1","-1","0","0","4","4","5","4","4","3","4","4","4","4","5","6","5","7","7","7","7","7","7","4","6","4","5","5","3","4","3","3","3","3","3","5","5","4","4","4","3","5","3","4","5","5","3","4","4","5","5","4","6","6","4","5","5","3","5","5","5","4","5","682886971621638144","nyf","448","Female","[""好她"",""坏她"",""好我"",""坏我""]","[""强她"",""弱她"",""强我"",""弱我""]","","","","","","","","","","","","","","","","","","","","","","","","","","","","","","feedback_test","","","","","","","",""
"762","","j","psychophysics","98","371843","0.0-8.0-1.0-1.0-0.0-0.44","4","3","3","3","2","4","2","3","4","4","5","1","0","0","0","-1","-1","0","0","4","4","5","4","4","3","4","4","4","4","5","6","5","7","7","7","7","7","7","4","6","4","5","5","3","4","3","3","3","3","3","5","5","4","4","4","3","5","3","4","5","5","3","4","4","5","5","4","6","6","4","5","5","3","5","5","5","4","5","682886971621638144","nyf","448","Female","[""好她"",""坏她"",""好我"",""坏我""]","[""强她"",""弱她"",""强我"",""弱我""]","","","","","","","","nonmatch","","","","","","","","","","key","j","34.66834000000031","1280","716","j","true","nonmatch","img/ellipse.png","强她","弱她","prac_ALT2_ability","practice_ability","","","","","","","",""
"null","<span style='color:GreenYellow; font-size: 70px;'>正确! </span>","null","html-keyboard-response","99","372344","0.0-8.0-1.0-1.0-0.0-1.44","4","3","3","3","2","4","2","3","4","4","5","1","0","0","0","-1","-1","0","0","4","4","5","4","4","3","4","4","4","4","5","6","5","7","7","7","7","7","7","4","6","4","5","5","3","4","3","3","3","3","3","5","5","4","4","4","3","5","3","4","5","5","3","4","4","5","5","4","6","6","4","5","5","3","5","5","5","4","5","682886971621638144","nyf","448","Female","[""好她"",""坏她"",""好我"",""坏我""]","[""强她"",""弱她"",""强我"",""弱我""]","","","","","","","","","","","","","","","","","","","","","","","","","","","","","","feedback_test","","","","","","","",""
"1086","","j","psychophysics","100","374439","0.0-8.0-1.0-1.0-0.0-0.45","4","3","3","3","2","4","2","3","4","4","5","1","0","0","0","-1","-1","0","0","4","4","5","4","4","3","4","4","4","4","5","6","5","7","7","7","7","7","7","4","6","4","5","5","3","4","3","3","3","3","3","5","5","4","4","4","3","5","3","4","5","5","3","4","4","5","5","4","6","6","4","5","5","3","5","5","5","4","5","682886971621638144","nyf","448","Female","[""好她"",""坏她"",""好我"",""坏我""]","[""强她"",""弱她"",""强我"",""弱我""]","","","","","","","","nonmatch","","","","","","","","","","key","j","33.89046666666594","1280","716","f","false","match","img/ellipse.png","弱她","弱她","prac_ALT2_ability","practice_ability","","","","","","","",""
"null","<span style='color:red; font-size: 70px;'>错误! </span>","null","html-keyboard-response","101","374941","0.0-8.0-1.0-1.0-0.0-1.45","4","3","3","3","2","4","2","3","4","4","5","1","0","0","0","-1","-1","0","0","4","4","5","4","4","3","4","4","4","4","5","6","5","7","7","7","7","7","7","4","6","4","5","5","3","4","3","3","3","3","3","5","5","4","4","4","3","5","3","4","5","5","3","4","4","5","5","4","6","6","4","5","5","3","5","5","5","4","5","682886971621638144","nyf","448","Female","[""好她"",""坏她"",""好我"",""坏我""]","[""强她"",""弱她"",""强我"",""弱我""]","","","","","","","","","","","","","","","","","","","","","","","","","","","","","","feedback_test","","","","","","","",""
"1060","","j","psychophysics","102","377019","0.0-8.0-1.0-1.0-0.0-0.46","4","3","3","3","2","4","2","3","4","4","5","1","0","0","0","-1","-1","0","0","4","4","5","4","4","3","4","4","4","4","5","6","5","7","7","7","7","7","7","4","6","4","5","5","3","4","3","3","3","3","3","5","5","4","4","4","3","5","3","4","5","5","3","4","4","5","5","4","6","6","4","5","5","3","5","5","5","4","5","682886971621638144","nyf","448","Female","[""好她"",""坏她"",""好我"",""坏我""]","[""强她"",""弱她"",""强我"",""弱我""]","","","","","","","","nonmatch","","","","","","","","","","key","j","32.79706451612911","1280","716","j","true","nonmatch","img/ellipse.png","强我","弱她","prac_ALT2_ability","practice_ability","","","","","","","",""
"null","<span style='color:GreenYellow; font-size: 70px;'>正确! </span>","null","html-keyboard-response","103","377520","0.0-8.0-1.0-1.0-0.0-1.46","4","3","3","3","2","4","2","3","4","4","5","1","0","0","0","-1","-1","0","0","4","4","5","4","4","3","4","4","4","4","5","6","5","7","7","7","7","7","7","4","6","4","5","5","3","4","3","3","3","3","3","5","5","4","4","4","3","5","3","4","5","5","3","4","4","5","5","4","6","6","4","5","5","3","5","5","5","4","5","682886971621638144","nyf","448","Female","[""好她"",""坏她"",""好我"",""坏我""]","[""强她"",""弱她"",""强我"",""弱我""]","","","","","","","","","","","","","","","","","","","","","","","","","","","","","","feedback_test","","","","","","","",""
"776","","f","psychophysics","104","379314","0.0-8.0-1.0-1.0-0.0-0.47","4","3","3","3","2","4","2","3","4","4","5","1","0","0","0","-1","-1","0","0","4","4","5","4","4","3","4","4","4","4","5","6","5","7","7","7","7","7","7","4","6","4","5","5","3","4","3","3","3","3","3","5","5","4","4","4","3","5","3","4","5","5","3","4","4","5","5","4","6","6","4","5","5","3","5","5","5","4","5","682886971621638144","nyf","448","Female","[""好她"",""坏她"",""好我"",""坏我""]","[""强她"",""弱她"",""强我"",""弱我""]","","","","","","","","match","","","","","","","","","","key","f","34.315666666666424","1280","716","f","true","match","img/hexagon.png","弱我","弱我","prac_ALT2_ability","practice_ability","","","","","","","",""
"null","<span style='color:GreenYellow; font-size: 70px;'>正确! </span>","null","html-keyboard-response","105","379816","0.0-8.0-1.0-1.0-0.0-1.47","4","3","3","3","2","4","2","3","4","4","5","1","0","0","0","-1","-1","0","0","4","4","5","4","4","3","4","4","4","4","5","6","5","7","7","7","7","7","7","4","6","4","5","5","3","4","3","3","3","3","3","5","5","4","4","4","3","5","3","4","5","5","3","4","4","5","5","4","6","6","4","5","5","3","5","5","5","4","5","682886971621638144","nyf","448","Female","[""好她"",""坏她"",""好我"",""坏我""]","[""强她"",""弱她"",""强我"",""弱我""]","","","","","","","","","","","","","","","","","","","","","","","","","","","","","","feedback_test","","","","","","","",""
"3598","<style>.context{color:white; font-size: 35px; line-height:40px}</style>                          <div><p class='context'>您正确回答了48% 的试次。</p><p class='context'>您的平均反应时为929毫秒。</p><p class='context'>恭喜您完成练习。按空格键继续。</p></div>"," ","html-keyboard-response","106","383416","0.0-8.0-1.0-1.0-1.0-0.0","4","3","3","3","2","4","2","3","4","4","5","1","0","0","0","-1","-1","0","0","4","4","5","4","4","3","4","4","4","4","5","6","5","7","7","7","7","7","7","4","6","4","5","5","3","4","3","3","3","3","3","5","5","4","4","4","3","5","3","4","5","5","3","4","4","5","5","4","6","6","4","5","5","3","5","5","5","4","5","682886971621638144","nyf","448","Female","[""好她"",""坏她"",""好我"",""坏我""]","[""强她"",""弱她"",""强我"",""弱我""]","","","","","","","","","","","","","","","","","","","","","","","","","","","","","","","","","","","","","",""
"73397","","","instructions","107","456815","0.0-8.0-1.0-1.0-1.0-1.0","4","3","3","3","2","4","2","3","4","4","5","1","0","0","0","-1","-1","0","0","4","4","5","4","4","3","4","4","4","4","5","6","5","7","7","7","7","7","7","4","6","4","5","5","3","4","3","3","3","3","3","5","5","4","4","4","3","5","3","4","5","5","3","4","4","5","5","4","6","6","4","5","5","3","5","5","5","4","5","682886971621638144","nyf","448","Female","[""好她"",""坏她"",""好我"",""坏我""]","[""强她"",""弱她"",""强我"",""弱我""]","","","","","","","","","","","","","","","","","[{""page_index"":0,""viewing_time"":7157},{""page_index"":1,""viewing_time"":63528},{""page_index"":2,""viewing_time"":2712}]","","","","","","","","","","","","","","","","","","","","",""
"1024","","j","psychophysics","108","458843","0.0-8.0-1.0-1.1-0.1-0.48","4","3","3","3","2","4","2","3","4","4","5","1","0","0","0","-1","-1","0","0","4","4","5","4","4","3","4","4","4","4","5","6","5","7","7","7","7","7","7","4","6","4","5","5","3","4","3","3","3","3","3","5","5","4","4","4","3","5","3","4","5","5","3","4","4","5","5","4","6","6","4","5","5","3","5","5","5","4","5","682886971621638144","nyf","448","Female","[""好她"",""坏她"",""好我"",""坏我""]","[""强她"",""弱她"",""强我"",""弱我""]","","","","","","","","nonmatch","","","","","","","","","","key","j","36.72964814814838","1280","716","f","false","match","img/ellipse.png","弱她","弱她","prac_ALT2_ability","practice_ability","","","","","","","",""
"null","<span style='color:red; font-size: 70px;'>错误! </span>","null","html-keyboard-response","109","459346","0.0-8.0-1.0-1.1-0.1-1.48","4","3","3","3","2","4","2","3","4","4","5","1","0","0","0","-1","-1","0","0","4","4","5","4","4","3","4","4","4","4","5","6","5","7","7","7","7","7","7","4","6","4","5","5","3","4","3","3","3","3","3","5","5","4","4","4","3","5","3","4","5","5","3","4","4","5","5","4","6","6","4","5","5","3","5","5","5","4","5","682886971621638144","nyf","448","Female","[""好她"",""坏她"",""好我"",""坏我""]","[""强她"",""弱她"",""强我"",""弱我""]","","","","","","","","","","","","","","","","","","","","","","","","","","","","","","feedback_test","","","","","","","",""
"1205","","j","psychophysics","110","461553","0.0-8.0-1.0-1.1-0.1-0.49","4","3","3","3","2","4","2","3","4","4","5","1","0","0","0","-1","-1","0","0","4","4","5","4","4","3","4","4","4","4","5","6","5","7","7","7","7","7","7","4","6","4","5","5","3","4","3","3","3","3","3","5","5","4","4","4","3","5","3","4","5","5","3","4","4","5","5","4","6","6","4","5","5","3","5","5","5","4","5","682886971621638144","nyf","448","Female","[""好她"",""坏她"",""好我"",""坏我""]","[""强她"",""弱她"",""强我"",""弱我""]","","","","","","","","nonmatch","","","","","","","","","","key","j","33.07827692307675","1280","716","j","true","nonmatch","img/diamond.png","强她","强我","prac_ALT2_ability","practice_ability","","","","","","","",""
"null","<span class='add_' style='color:yellow; font-size: 70px;'> 太慢! </span>","null","html-keyboard-response","111","462054","0.0-8.0-1.0-1.1-0.1-1.49","4","3","3","3","2","4","2","3","4","4","5","1","0","0","0","-1","-1","0","0","4","4","5","4","4","3","4","4","4","4","5","6","5","7","7","7","7","7","7","4","6","4","5","5","3","4","3","3","3","3","3","5","5","4","4","4","3","5","3","4","5","5","3","4","4","5","5","4","6","6","4","5","5","3","5","5","5","4","5","682886971621638144","nyf","448","Female","[""好她"",""坏她"",""好我"",""坏我""]","[""强她"",""弱她"",""强我"",""弱我""]","","","","","","","","","","","","","","","","","","","","","","","","","","","","","","feedback_test","","","","","","","",""
"1020","","j","psychophysics","112","464099","0.0-8.0-1.0-1.1-0.1-0.50","4","3","3","3","2","4","2","3","4","4","5","1","0","0","0","-1","-1","0","0","4","4","5","4","4","3","4","4","4","4","5","6","5","7","7","7","7","7","7","4","6","4","5","5","3","4","3","3","3","3","3","5","5","4","4","4","3","5","3","4","5","5","3","4","4","5","5","4","6","6","4","5","5","3","5","5","5","4","5","682886971621638144","nyf","448","Female","[""好她"",""坏她"",""好我"",""坏我""]","[""强她"",""弱她"",""强我"",""弱我""]","","","","","","","","nonmatch","","","","","","","","","","key","j","38.14369230769136","1280","716","j","true","nonmatch","img/square.png","弱她","强她","prac_ALT2_ability","practice_ability","","","","","","","",""
"null","<span style='color:GreenYellow; font-size: 70px;'>正确! </span>","null","html-keyboard-response","113","464600","0.0-8.0-1.0-1.1-0.1-1.50","4","3","3","3","2","4","2","3","4","4","5","1","0","0","0","-1","-1","0","0","4","4","5","4","4","3","4","4","4","4","5","6","5","7","7","7","7","7","7","4","6","4","5","5","3","4","3","3","3","3","3","5","5","4","4","4","3","5","3","4","5","5","3","4","4","5","5","4","6","6","4","5","5","3","5","5","5","4","5","682886971621638144","nyf","448","Female","[""好她"",""坏她"",""好我"",""坏我""]","[""强她"",""弱她"",""强我"",""弱我""]","","","","","","","","","","","","","","","","","","","","","","","","","","","","","","feedback_test","","","","","","","",""
"981","","j","psychophysics","114","466601","0.0-8.0-1.0-1.1-0.1-0.51","4","3","3","3","2","4","2","3","4","4","5","1","0","0","0","-1","-1","0","0","4","4","5","4","4","3","4","4","4","4","5","6","5","7","7","7","7","7","7","4","6","4","5","5","3","4","3","3","3","3","3","5","5","4","4","4","3","5","3","4","5","5","3","4","4","5","5","4","6","6","4","5","5","3","5","5","5","4","5","682886971621638144","nyf","448","Female","[""好她"",""坏她"",""好我"",""坏我""]","[""强她"",""弱她"",""强我"",""弱我""]","","","","","","","","nonmatch","","","","","","","","","","key","j","35.49601851851804","1280","716","j","true","nonmatch","img/diamond.png","弱她","强我","prac_ALT2_ability","practice_ability","","","","","","","",""
"null","<span style='color:GreenYellow; font-size: 70px;'>正确! </span>","null","html-keyboard-response","115","467105","0.0-8.0-1.0-1.1-0.1-1.51","4","3","3","3","2","4","2","3","4","4","5","1","0","0","0","-1","-1","0","0","4","4","5","4","4","3","4","4","4","4","5","6","5","7","7","7","7","7","7","4","6","4","5","5","3","4","3","3","3","3","3","5","5","4","4","4","3","5","3","4","5","5","3","4","4","5","5","4","6","6","4","5","5","3","5","5","5","4","5","682886971621638144","nyf","448","Female","[""好她"",""坏她"",""好我"",""坏我""]","[""强她"",""弱她"",""强我"",""弱我""]","","","","","","","","","","","","","","","","","","","","","","","","","","","","","","feedback_test","","","","","","","",""
"861","","j","psychophysics","116","468982","0.0-8.0-1.0-1.1-0.1-0.52","4","3","3","3","2","4","2","3","4","4","5","1","0","0","0","-1","-1","0","0","4","4","5","4","4","3","4","4","4","4","5","6","5","7","7","7","7","7","7","4","6","4","5","5","3","4","3","3","3","3","3","5","5","4","4","4","3","5","3","4","5","5","3","4","4","5","5","4","6","6","4","5","5","3","5","5","5","4","5","682886971621638144","nyf","448","Female","[""好她"",""坏她"",""好我"",""坏我""]","[""强她"",""弱她"",""强我"",""弱我""]","","","","","","","","nonmatch","","","","","","","","","","key","j","34.27722641509378","1280","716","f","false","match","img/hexagon.png","弱我","弱我","prac_ALT2_ability","practice_ability","","","","","","","",""
"null","<span style='color:red; font-size: 70px;'>错误! </span>","null","html-keyboard-response","117","469483","0.0-8.0-1.0-1.1-0.1-1.52","4","3","3","3","2","4","2","3","4","4","5","1","0","0","0","-1","-1","0","0","4","4","5","4","4","3","4","4","4","4","5","6","5","7","7","7","7","7","7","4","6","4","5","5","3","4","3","3","3","3","3","5","5","4","4","4","3","5","3","4","5","5","3","4","4","5","5","4","6","6","4","5","5","3","5","5","5","4","5","682886971621638144","nyf","448","Female","[""好她"",""坏她"",""好我"",""坏我""]","[""强她"",""弱她"",""强我"",""弱我""]","","","","","","","","","","","","","","","","","","","","","","","","","","","","","","feedback_test","","","","","","","",""
"981","","f","psychophysics","118","471518","0.0-8.0-1.0-1.1-0.1-0.53","4","3","3","3","2","4","2","3","4","4","5","1","0","0","0","-1","-1","0","0","4","4","5","4","4","3","4","4","4","4","5","6","5","7","7","7","7","7","7","4","6","4","5","5","3","4","3","3","3","3","3","5","5","4","4","4","3","5","3","4","5","5","3","4","4","5","5","4","6","6","4","5","5","3","5","5","5","4","5","682886971621638144","nyf","448","Female","[""好她"",""坏她"",""好我"",""坏我""]","[""强她"",""弱她"",""强我"",""弱我""]","","","","","","","","match","","","","","","","","","","key","f","33.90979310344796","1280","716","f","true","match","img/diamond.png","强我","强我","prac_ALT2_ability","practice_ability","","","","","","","",""
"null","<span style='color:GreenYellow; font-size: 70px;'>正确! </span>","null","html-keyboard-response","119","472020","0.0-8.0-1.0-1.1-0.1-1.53","4","3","3","3","2","4","2","3","4","4","5","1","0","0","0","-1","-1","0","0","4","4","5","4","4","3","4","4","4","4","5","6","5","7","7","7","7","7","7","4","6","4","5","5","3","4","3","3","3","3","3","5","5","4","4","4","3","5","3","4","5","5","3","4","4","5","5","4","6","6","4","5","5","3","5","5","5","4","5","682886971621638144","nyf","448","Female","[""好她"",""坏她"",""好我"",""坏我""]","[""强她"",""弱她"",""强我"",""弱我""]","","","","","","","","","","","","","","","","","","","","","","","","","","","","","","feedback_test","","","","","","","",""
"912","","j","psychophysics","120","473946","0.0-8.0-1.0-1.1-0.1-0.54","4","3","3","3","2","4","2","3","4","4","5","1","0","0","0","-1","-1","0","0","4","4","5","4","4","3","4","4","4","4","5","6","5","7","7","7","7","7","7","4","6","4","5","5","3","4","3","3","3","3","3","5","5","4","4","4","3","5","3","4","5","5","3","4","4","5","5","4","6","6","4","5","5","3","5","5","5","4","5","682886971621638144","nyf","448","Female","[""好她"",""坏她"",""好我"",""坏我""]","[""强她"",""弱她"",""强我"",""弱我""]","","","","","","","","nonmatch","","","","","","","","","","key","j","33.631982142857204","1280","716","j","true","nonmatch","img/square.png","弱我","强她","prac_ALT2_ability","practice_ability","","","","","","","",""
"null","<span style='color:GreenYellow; font-size: 70px;'>正确! </span>","null","html-keyboard-response","121","474449","0.0-8.0-1.0-1.1-0.1-1.54","4","3","3","3","2","4","2","3","4","4","5","1","0","0","0","-1","-1","0","0","4","4","5","4","4","3","4","4","4","4","5","6","5","7","7","7","7","7","7","4","6","4","5","5","3","4","3","3","3","3","3","5","5","4","4","4","3","5","3","4","5","5","3","4","4","5","5","4","6","6","4","5","5","3","5","5","5","4","5","682886971621638144","nyf","448","Female","[""好她"",""坏她"",""好我"",""坏我""]","[""强她"",""弱她"",""强我"",""弱我""]","","","","","","","","","","","","","","","","","","","","","","","","","","","","","","feedback_test","","","","","","","",""
"852","","f","psychophysics","122","476318","0.0-8.0-1.0-1.1-0.1-0.55","4","3","3","3","2","4","2","3","4","4","5","1","0","0","0","-1","-1","0","0","4","4","5","4","4","3","4","4","4","4","5","6","5","7","7","7","7","7","7","4","6","4","5","5","3","4","3","3","3","3","3","5","5","4","4","4","3","5","3","4","5","5","3","4","4","5","5","4","6","6","4","5","5","3","5","5","5","4","5","682886971621638144","nyf","448","Female","[""好她"",""坏她"",""好我"",""坏我""]","[""强她"",""弱她"",""强我"",""弱我""]","","","","","","","","match","","","","","","","","","","key","f","32.165333333333315","1280","716","f","true","match","img/diamond.png","强我","强我","prac_ALT2_ability","practice_ability","","","","","","","",""
"null","<span style='color:GreenYellow; font-size: 70px;'>正确! </span>","null","html-keyboard-response","123","476821","0.0-8.0-1.0-1.1-0.1-1.55","4","3","3","3","2","4","2","3","4","4","5","1","0","0","0","-1","-1","0","0","4","4","5","4","4","3","4","4","4","4","5","6","5","7","7","7","7","7","7","4","6","4","5","5","3","4","3","3","3","3","3","5","5","4","4","4","3","5","3","4","5","5","3","4","4","5","5","4","6","6","4","5","5","3","5","5","5","4","5","682886971621638144","nyf","448","Female","[""好她"",""坏她"",""好我"",""坏我""]","[""强她"",""弱她"",""强我"",""弱我""]","","","","","","","","","","","","","","","","","","","","","","","","","","","","","","feedback_test","","","","","","","",""
"1019","","f","psychophysics","124","478844","0.0-8.0-1.0-1.1-0.1-0.56","4","3","3","3","2","4","2","3","4","4","5","1","0","0","0","-1","-1","0","0","4","4","5","4","4","3","4","4","4","4","5","6","5","7","7","7","7","7","7","4","6","4","5","5","3","4","3","3","3","3","3","5","5","4","4","4","3","5","3","4","5","5","3","4","4","5","5","4","6","6","4","5","5","3","5","5","5","4","5","682886971621638144","nyf","448","Female","[""好她"",""坏她"",""好我"",""坏我""]","[""强她"",""弱她"",""强我"",""弱我""]","","","","","","","","match","","","","","","","","","","key","f","33.61705084745792","1280","716","f","true","match","img/ellipse.png","弱她","弱她","prac_ALT2_ability","practice_ability","","","","","","","",""
"null","<span style='color:GreenYellow; font-size: 70px;'>正确! </span>","null","html-keyboard-response","125","479345","0.0-8.0-1.0-1.1-0.1-1.56","4","3","3","3","2","4","2","3","4","4","5","1","0","0","0","-1","-1","0","0","4","4","5","4","4","3","4","4","4","4","5","6","5","7","7","7","7","7","7","4","6","4","5","5","3","4","3","3","3","3","3","5","5","4","4","4","3","5","3","4","5","5","3","4","4","5","5","4","6","6","4","5","5","3","5","5","5","4","5","682886971621638144","nyf","448","Female","[""好她"",""坏她"",""好我"",""坏我""]","[""强她"",""弱她"",""强我"",""弱我""]","","","","","","","","","","","","","","","","","","","","","","","","","","","","","","feedback_test","","","","","","","",""
"962","","j","psychophysics","126","481325","0.0-8.0-1.0-1.1-0.1-0.57","4","3","3","3","2","4","2","3","4","4","5","1","0","0","0","-1","-1","0","0","4","4","5","4","4","3","4","4","4","4","5","6","5","7","7","7","7","7","7","4","6","4","5","5","3","4","3","3","3","3","3","5","5","4","4","4","3","5","3","4","5","5","3","4","4","5","5","4","6","6","4","5","5","3","5","5","5","4","5","682886971621638144","nyf","448","Female","[""好她"",""坏她"",""好我"",""坏我""]","[""强她"",""弱她"",""强我"",""弱我""]","","","","","","","","nonmatch","","","","","","","","","","key","j","33.33491379310325","1280","716","f","false","match","img/hexagon.png","弱我","弱我","prac_ALT2_ability","practice_ability","","","","","","","",""
"null","<span style='color:red; font-size: 70px;'>错误! </span>","null","html-keyboard-response","127","481830","0.0-8.0-1.0-1.1-0.1-1.57","4","3","3","3","2","4","2","3","4","4","5","1","0","0","0","-1","-1","0","0","4","4","5","4","4","3","4","4","4","4","5","6","5","7","7","7","7","7","7","4","6","4","5","5","3","4","3","3","3","3","3","5","5","4","4","4","3","5","3","4","5","5","3","4","4","5","5","4","6","6","4","5","5","3","5","5","5","4","5","682886971621638144","nyf","448","Female","[""好她"",""坏她"",""好我"",""坏我""]","[""强她"",""弱她"",""强我"",""弱我""]","","","","","","","","","","","","","","","","","","","","","","","","","","","","","","feedback_test","","","","","","","",""
"1106","","j","psychophysics","128","483938","0.0-8.0-1.0-1.1-0.1-0.58","4","3","3","3","2","4","2","3","4","4","5","1","0","0","0","-1","-1","0","0","4","4","5","4","4","3","4","4","4","4","5","6","5","7","7","7","7","7","7","4","6","4","5","5","3","4","3","3","3","3","3","5","5","4","4","4","3","5","3","4","5","5","3","4","4","5","5","4","6","6","4","5","5","3","5","5","5","4","5","682886971621638144","nyf","448","Female","[""好她"",""坏她"",""好我"",""坏我""]","[""强她"",""弱她"",""强我"",""弱我""]","","","","","","","","nonmatch","","","","","","","","","","key","j","33.607737704917795","1280","716","j","true","nonmatch","img/hexagon.png","弱她","弱我","prac_ALT2_ability","practice_ability","","","","","","","",""
"null","<span style='color:GreenYellow; font-size: 70px;'>正确! </span>","null","html-keyboard-response","129","484440","0.0-8.0-1.0-1.1-0.1-1.58","4","3","3","3","2","4","2","3","4","4","5","1","0","0","0","-1","-1","0","0","4","4","5","4","4","3","4","4","4","4","5","6","5","7","7","7","7","7","7","4","6","4","5","5","3","4","3","3","3","3","3","5","5","4","4","4","3","5","3","4","5","5","3","4","4","5","5","4","6","6","4","5","5","3","5","5","5","4","5","682886971621638144","nyf","448","Female","[""好她"",""坏她"",""好我"",""坏我""]","[""强她"",""弱她"",""强我"",""弱我""]","","","","","","","","","","","","","","","","","","","","","","","","","","","","","","feedback_test","","","","","","","",""
"817","","f","psychophysics","130","486264","0.0-8.0-1.0-1.1-0.1-0.59","4","3","3","3","2","4","2","3","4","4","5","1","0","0","0","-1","-1","0","0","4","4","5","4","4","3","4","4","4","4","5","6","5","7","7","7","7","7","7","4","6","4","5","5","3","4","3","3","3","3","3","5","5","4","4","4","3","5","3","4","5","5","3","4","4","5","5","4","6","6","4","5","5","3","5","5","5","4","5","682886971621638144","nyf","448","Female","[""好她"",""坏她"",""好我"",""坏我""]","[""强她"",""弱她"",""强我"",""弱我""]","","","","","","","","match","","","","","","","","","","key","f","33.64958490566065","1280","716","f","true","match","img/diamond.png","强我","强我","prac_ALT2_ability","practice_ability","","","","","","","",""
"null","<span style='color:GreenYellow; font-size: 70px;'>正确! </span>","null","html-keyboard-response","131","486765","0.0-8.0-1.0-1.1-0.1-1.59","4","3","3","3","2","4","2","3","4","4","5","1","0","0","0","-1","-1","0","0","4","4","5","4","4","3","4","4","4","4","5","6","5","7","7","7","7","7","7","4","6","4","5","5","3","4","3","3","3","3","3","5","5","4","4","4","3","5","3","4","5","5","3","4","4","5","5","4","6","6","4","5","5","3","5","5","5","4","5","682886971621638144","nyf","448","Female","[""好她"",""坏她"",""好我"",""坏我""]","[""强她"",""弱她"",""强我"",""弱我""]","","","","","","","","","","","","","","","","","","","","","","","","","","","","","","feedback_test","","","","","","","",""
"765","","f","psychophysics","132","488544","0.0-8.0-1.0-1.1-0.1-0.60","4","3","3","3","2","4","2","3","4","4","5","1","0","0","0","-1","-1","0","0","4","4","5","4","4","3","4","4","4","4","5","6","5","7","7","7","7","7","7","4","6","4","5","5","3","4","3","3","3","3","3","5","5","4","4","4","3","5","3","4","5","5","3","4","4","5","5","4","6","6","4","5","5","3","5","5","5","4","5","682886971621638144","nyf","448","Female","[""好她"",""坏她"",""好我"",""坏我""]","[""强她"",""弱她"",""强我"",""弱我""]","","","","","","","","match","","","","","","","","","","key","f","34.334239999999994","1280","716","f","true","match","img/square.png","强她","强她","prac_ALT2_ability","practice_ability","","","","","","","",""
"null","<span style='color:GreenYellow; font-size: 70px;'>正确! </span>","null","html-keyboard-response","133","489045","0.0-8.0-1.0-1.1-0.1-1.60","4","3","3","3","2","4","2","3","4","4","5","1","0","0","0","-1","-1","0","0","4","4","5","4","4","3","4","4","4","4","5","6","5","7","7","7","7","7","7","4","6","4","5","5","3","4","3","3","3","3","3","5","5","4","4","4","3","5","3","4","5","5","3","4","4","5","5","4","6","6","4","5","5","3","5","5","5","4","5","682886971621638144","nyf","448","Female","[""好她"",""坏她"",""好我"",""坏我""]","[""强她"",""弱她"",""强我"",""弱我""]","","","","","","","","","","","","","","","","","","","","","","","","","","","","","","feedback_test","","","","","","","",""
"897","","j","psychophysics","134","490945","0.0-8.0-1.0-1.1-0.1-0.61","4","3","3","3","2","4","2","3","4","4","5","1","0","0","0","-1","-1","0","0","4","4","5","4","4","3","4","4","4","4","5","6","5","7","7","7","7","7","7","4","6","4","5","5","3","4","3","3","3","3","3","5","5","4","4","4","3","5","3","4","5","5","3","4","4","5","5","4","6","6","4","5","5","3","5","5","5","4","5","682886971621638144","nyf","448","Female","[""好她"",""坏她"",""好我"",""坏我""]","[""强她"",""弱她"",""强我"",""弱我""]","","","","","","","","nonmatch","","","","","","","","","","key","j","33.94130909090904","1280","716","f","false","match","img/square.png","强她","强她","prac_ALT2_ability","practice_ability","","","","","","","",""
"null","<span style='color:red; font-size: 70px;'>错误! </span>","null","html-keyboard-response","135","491448","0.0-8.0-1.0-1.1-0.1-1.61","4","3","3","3","2","4","2","3","4","4","5","1","0","0","0","-1","-1","0","0","4","4","5","4","4","3","4","4","4","4","5","6","5","7","7","7","7","7","7","4","6","4","5","5","3","4","3","3","3","3","3","5","5","4","4","4","3","5","3","4","5","5","3","4","4","5","5","4","6","6","4","5","5","3","5","5","5","4","5","682886971621638144","nyf","448","Female","[""好她"",""坏她"",""好我"",""坏我""]","[""强她"",""弱她"",""强我"",""弱我""]","","","","","","","","","","","","","","","","","","","","","","","","","","","","","","feedback_test","","","","","","","",""
"912","","j","psychophysics","136","493380","0.0-8.0-1.0-1.1-0.1-0.62","4","3","3","3","2","4","2","3","4","4","5","1","0","0","0","-1","-1","0","0","4","4","5","4","4","3","4","4","4","4","5","6","5","7","7","7","7","7","7","4","6","4","5","5","3","4","3","3","3","3","3","5","5","4","4","4","3","5","3","4","5","5","3","4","4","5","5","4","6","6","4","5","5","3","5","5","5","4","5","682886971621638144","nyf","448","Female","[""好她"",""坏她"",""好我"",""坏我""]","[""强她"",""弱她"",""强我"",""弱我""]","","","","","","","","nonmatch","","","","","","","","","","key","j","34.24334545454582","1280","716","j","true","nonmatch","img/ellipse.png","强我","弱她","prac_ALT2_ability","practice_ability","","","","","","","",""
"null","<span style='color:GreenYellow; font-size: 70px;'>正确! </span>","null","html-keyboard-response","137","493881","0.0-8.0-1.0-1.1-0.1-1.62","4","3","3","3","2","4","2","3","4","4","5","1","0","0","0","-1","-1","0","0","4","4","5","4","4","3","4","4","4","4","5","6","5","7","7","7","7","7","7","4","6","4","5","5","3","4","3","3","3","3","3","5","5","4","4","4","3","5","3","4","5","5","3","4","4","5","5","4","6","6","4","5","5","3","5","5","5","4","5","682886971621638144","nyf","448","Female","[""好她"",""坏她"",""好我"",""坏我""]","[""强她"",""弱她"",""强我"",""弱我""]","","","","","","","","","","","","","","","","","","","","","","","","","","","","","","feedback_test","","","","","","","",""
"873","","f","psychophysics","138","495757","0.0-8.0-1.0-1.1-0.1-0.63","4","3","3","3","2","4","2","3","4","4","5","1","0","0","0","-1","-1","0","0","4","4","5","4","4","3","4","4","4","4","5","6","5","7","7","7","7","7","7","4","6","4","5","5","3","4","3","3","3","3","3","5","5","4","4","4","3","5","3","4","5","5","3","4","4","5","5","4","6","6","4","5","5","3","5","5","5","4","5","682886971621638144","nyf","448","Female","[""好她"",""坏她"",""好我"",""坏我""]","[""强她"",""弱她"",""强我"",""弱我""]","","","","","","","","match","","","","","","","","","","key","f","33.643685185185554","1280","716","f","true","match","img/square.png","强她","强她","prac_ALT2_ability","practice_ability","","","","","","","",""
