"rt","stimulus","response","trial_type","trial_index","time_elapsed","internal_node_id","swb_1","swb_2","swb_3","swb_4","swb_5","LOT_1","LOT_2","LOT_3","LOT_4","LOT_5","LOT_6","IPC_1","IPC_2","IPC_3","IPC_4","IPC_5","IPC_6","IPC_7","IPC_8","MorIden_1","MorIden_2","MorIden_3","MorIden_4","MorIden_5","MorIden_6","MorIden_7","MorIden_8","MorIden_9","MorIden_10","moralSeImag_1","moralSeImag_2","moralSeImag_3","moralSeImag_4","moralSeImag_5","moralSeImag_6","moralSeImag_7","moralSeImag_8","moralSeImag_9","sde_1","sde_2","sde_3","sde_4","sde_5","sde_6","sde_7","sde_8","sde_9","sde_10","sde_11","sde_12","sde_13","sde_14","sde_15","sde_16","sde_17","sde_18","sde_19","sde_20","IM_1","IM_2","IM_3","IM_4","IM_5","IM_6","IM_7","IM_8","IM_9","IM_10","IM_11","IM_12","IM_13","IM_14","IM_15","IM_16","IM_17","IM_18","IM_19","IM_20","subj_idx","friend_name","ParticipantID","Sex","Word","Word2","value","success","timeout","failed_images","failed_audio","failed_video","user_agent","responses","item_order","radio_event_ids","radio_event_times","key_event_times","mouse_event_times","straightlining","zigzagging","honeypot","task_id","screen_id","time_stamp","response_type","key_press","avg_frame_time","center_x","center_y","person","word","valence","domain","math","correct_response","correct","status","identity","view_history","duration","Image","condition","question_order"
"1011","
   <p><div style='color:white; font-size: 25px'>您好，欢迎参加本次实验。</div></p>
   <p><div style='color:white; font-size: 25px'>为充分保障您的权利，请确保您已经知晓并同意《参与实验同意书》以及《数据公开知情同意书》。</div></p>
   <p><div style='color:white; font-size: 25px'>如果您未见过上述内容，请咨询实验员。</div></p>
   <p style='color:white; font-size: 25px'>如果您选择继续实验，则表示您已经清楚两份知情同意书的内容并同意。</p>
   <p><div style = ""color: red;font-size:30px;"">请确保您记得day0的实验编号，您将在本次实验输入该编号，若您忘记，请咨询实验员后作答。</div></p>
   <p> <div style = ""color: green""><按空格键至下页></div> </p>
   "," ","html-keyboard-response","0","1018","0.0-0.0","5","5","6","5","7","5","4","4","5","5","5","-1","0","0","1","-2","2","1","1","5","4","4","5","4","4","5","4","4","5","8","8","7","8","6","7","8","7","7","5","3","6","4","4","3","5","2","3","4","4","4","6","4","4","6","4","4","5","4","5","5","6","6","3","5","5","5","6","6","5","6","4","5","5","6","6","5","4","6","732379307938418690","张","533","Male","[""好我"",""坏他"",""好他"",""坏我""]","[""强我"",""弱他"",""强他"",""弱我""]","","","","","","","","","","","","","","","","","","","","","","","","","","","","","","","","","","","","","",""
"","","","call-function","1","1020","0.0-1.0-0.0","5","5","6","5","7","5","4","4","5","5","5","-1","0","0","1","-2","2","1","1","5","4","4","5","4","4","5","4","4","5","8","8","7","8","6","7","8","7","7","5","3","6","4","4","3","5","2","3","4","4","4","6","4","4","6","4","4","5","4","5","5","6","6","3","5","5","5","6","6","5","6","4","5","5","6","6","5","4","6","732379307938418690","张","533","Male","[""好我"",""坏他"",""好他"",""坏我""]","[""强我"",""弱他"",""强他"",""弱我""]","","","","","","","","","","","","","","","","","","","","","","","","","","","","","","","","","","","","","",""
"21427","","[{""name"":""Sex"",""value"":""0""},{""name"":""friend_name"",""value"":""张""},{""name"":""ParticipantID"",""value"":""533""}]","survey-html-form","2","22452","0.0-1.0-1.0","5","5","6","5","7","5","4","4","5","5","5","-1","0","0","1","-2","2","1","1","5","4","4","5","4","4","5","4","4","5","8","8","7","8","6","7","8","7","7","5","3","6","4","4","3","5","2","3","4","4","4","6","4","4","6","4","4","5","4","5","5","6","6","3","5","5","5","6","6","5","6","4","5","5","6","6","5","4","6","732379307938418690","张","533","Male","[""好我"",""坏他"",""好他"",""坏我""]","[""强我"",""弱他"",""强他"",""弱我""]","","","","","","","","","","","","","","","","","","","","","","","","","","","","","","","","","","","","","",""
"","","","preload","3","23210","0.0-2.0","5","5","6","5","7","5","4","4","5","5","5","-1","0","0","1","-2","2","1","1","5","4","4","5","4","4","5","4","4","5","8","8","7","8","6","7","8","7","7","5","3","6","4","4","3","5","2","3","4","4","4","6","4","4","6","4","4","5","4","5","5","6","6","3","5","5","5","6","6","5","6","4","5","5","6","6","5","4","6","732379307938418690","张","533","Male","[""好我"",""坏他"",""好他"",""坏我""]","[""强我"",""弱他"",""强他"",""弱我""]","","true","false","[]","[]","[]","","","","","","","","","","","","","","","","","","","","","","","","","","","","","","","",""
"","","","fullscreen","4","25134","0.0-3.0","5","5","6","5","7","5","4","4","5","5","5","-1","0","0","1","-2","2","1","1","5","4","4","5","4","4","5","4","4","5","8","8","7","8","6","7","8","7","7","5","3","6","4","4","3","5","2","3","4","4","4","6","4","4","6","4","4","5","4","5","5","6","6","3","5","5","5","6","6","5","6","4","5","5","6","6","5","4","6","732379307938418690","张","533","Male","[""好我"",""坏他"",""好他"",""坏我""]","[""强我"",""弱他"",""强他"",""弱我""]","","true","","","","","{}","","","","","","","","","","","","","","","","","","","","","","","","","","","","","","",""
"13880.89999999851","","{""Q01"":""5"",""Q02"":""5"",""Q03"":""6"",""Q04"":""5"",""Q05"":""7""}","survey-template","5","39023","0.0-4.0","5","5","6","5","7","5","4","4","5","5","5","-1","0","0","1","-2","2","1","1","5","4","4","5","4","4","5","4","4","5","8","8","7","8","6","7","8","7","7","5","3","6","4","4","3","5","2","3","4","4","4","6","4","4","6","4","4","5","4","5","5","6","6","3","5","5","5","6","6","5","6","4","5","5","6","6","5","4","6","732379307938418690","张","533","Male","[""好我"",""坏他"",""好他"",""坏我""]","[""强我"",""弱他"",""强他"",""弱我""]","","","","","","","","{""Q01"":""5"",""Q02"":""5"",""Q03"":""6"",""Q04"":""5"",""Q05"":""7""}","[0,1,2,3,4]","[""Q01"",""Q02"",""Q03"",""Q04"",""Q05""]","[4773.89999999851,6245.39999999851,8741.099999999627,12229.299999998882,12901.099999999627]","[]","[4773.89999999851,6245.39999999851,8741.099999999627,11942.699999999255,12229.299999998882,12901.099999999627,13877.5]","0.6","0.5","0","","","","","","","","","","","","","","","","","","","","","",""
"15294.700000001118","","{""Q01"":""5"",""Q02"":""4"",""Q03"":""4"",""Q04"":""5"",""Q05"":""5"",""Q06"":""5""}","survey-template","6","54332","0.0-5.0","5","5","6","5","7","5","4","4","5","5","5","-1","0","0","1","-2","2","1","1","5","4","4","5","4","4","5","4","4","5","8","8","7","8","6","7","8","7","7","5","3","6","4","4","3","5","2","3","4","4","4","6","4","4","6","4","4","5","4","5","5","6","6","3","5","5","5","6","6","5","6","4","5","5","6","6","5","4","6","732379307938418690","张","533","Male","[""好我"",""坏他"",""好他"",""坏我""]","[""强我"",""弱他"",""强他"",""弱我""]","","","","","","","","{""Q01"":""5"",""Q02"":""4"",""Q03"":""4"",""Q04"":""5"",""Q05"":""5"",""Q06"":""5""}","[0,1,2,3,4,5]","[""Q01"",""Q02"",""Q03"",""Q04"",""Q05"",""Q06""]","[3325,6884.9000000003725,8060.800000000745,11644.700000001118,12892.700000001118,14324.599999999627]","[]","[3325,6884.9000000003725,8060.800000000745,11644.700000001118,12892.700000001118,14324.599999999627,15292.599999999627]","0.3333333333333333","0.2","0","","","","","","","","","","","","","","","","","","","","","",""
"13404.599999999627","","{""Q01"":""-1"",""Q02"":""0"",""Q03"":""0"",""Q04"":""1"",""Q05"":""-2"",""Q06"":""2"",""Q07"":""1"",""Q08"":""1""}","survey-template","7","67751","0.0-6.0","5","5","6","5","7","5","4","4","5","5","5","-1","0","0","1","-2","2","1","1","5","4","4","5","4","4","5","4","4","5","8","8","7","8","6","7","8","7","7","5","3","6","4","4","3","5","2","3","4","4","4","6","4","4","6","4","4","5","4","5","5","6","6","3","5","5","5","6","6","5","6","4","5","5","6","6","5","4","6","732379307938418690","张","533","Male","[""好我"",""坏他"",""好他"",""坏我""]","[""强我"",""弱他"",""强他"",""弱我""]","","","","","","","","{""Q01"":""-1"",""Q02"":""0"",""Q03"":""0"",""Q04"":""1"",""Q05"":""-2"",""Q06"":""2"",""Q07"":""1"",""Q08"":""1""}","[0,1,2,3,4,5,6,7]","[""Q01"",""Q02"",""Q03"",""Q04"",""Q05"",""Q06"",""Q07"",""Q08""]","[2737,4617,5425.300000000745,7313.300000000745,8313,9848.900000000373,12008.900000000373,12744.900000000373]","[]","[2737,4617,5425.300000000745,7313.300000000745,8313,9848.900000000373,12008.900000000373,12744.900000000373,13401.200000001118]","0.375","0.42857142857142855","0","","","","","","","","","","","","","","","","","","","","","",""
"28575","
    <p><div style='color:white;font-size:35px; line-height:20px;'>词汇评估任务</div></p><br>
    <p><div style='color:white;font-size:25px; line-height:20px;'>请再次回忆该亲密的朋友，你们至少2年前就认识了，并且最近2年经常见面。</div></p>
    <p><div style='color:white;font-size:25px; line-height:20px;'>在本实验中，您将会看到一些形容词。</div></p>
    <p><div style='color:yellow;font-size:25px; line-height:20px;'>您的任务是判断这些形容词是否符合对您自己或您的朋友的描述。</div></p><p style='font-size:35px'>符合按<span style=""color:lightgreen""> j 键</span>，不符合按<span style=""color:red""> f 键</span></p>","0","html-button-response","8","96338","0.0-7.0-0.0","5","5","6","5","7","5","4","4","5","5","5","-1","0","0","1","-2","2","1","1","5","4","4","5","4","4","5","4","4","5","8","8","7","8","6","7","8","7","7","5","3","6","4","4","3","5","2","3","4","4","4","6","4","4","6","4","4","5","4","5","5","6","6","3","5","5","5","6","6","5","6","4","5","5","6","6","5","4","6","732379307938418690","张","533","Male","[""好我"",""坏他"",""好他"",""坏我""]","[""强我"",""弱他"",""强他"",""弱我""]","","","","","","","","","","","","","","","","","SRET_EW","EW_instructions","Sat Nov 25 2023 12:41:51 GMT+0800 (中国标准时间)","","","","","","","","","","","","","","","","","","",""
"5858","","f","psychophysics","9","103214","0.0-7.0-1.0-0.0","5","5","6","5","7","5","4","4","5","5","5","-1","0","0","1","-2","2","1","1","5","4","4","5","4","4","5","4","4","5","8","8","7","8","6","7","8","7","7","5","3","6","4","4","3","5","2","3","4","4","4","6","4","4","6","4","4","5","4","5","5","6","6","3","5","5","5","6","6","5","6","4","5","5","6","6","5","4","6","732379307938418690","张","533","Male","[""好我"",""坏他"",""好他"",""坏我""]","[""强我"",""弱他"",""强他"",""弱我""]","","","","","","","","no","","","","","","","","","SRET_EW","EW_practice","","key","f","16.994523456790105","683","380","自己","刻板","Negative","ability","","","","","","","","","",""
"15686","","j","psychophysics","10","119911","0.0-7.0-1.0-0.1","5","5","6","5","7","5","4","4","5","5","5","-1","0","0","1","-2","2","1","1","5","4","4","5","4","4","5","4","4","5","8","8","7","8","6","7","8","7","7","5","3","6","4","4","3","5","2","3","4","4","4","6","4","4","6","4","4","5","4","5","5","6","6","3","5","5","5","6","6","5","6","4","5","5","6","6","5","4","6","732379307938418690","张","533","Male","[""好我"",""坏他"",""好他"",""坏我""]","[""强我"",""弱他"",""强他"",""弱我""]","","","","","","","","yes","","","","","","","","","SRET_EW","EW_practice","","key","j","16.682236999999994","683","380","自己","严谨","Positive","ability","","","","","","","","","",""
"8781","","f","psychophysics","11","129699","0.0-7.0-1.0-0.2","5","5","6","5","7","5","4","4","5","5","5","-1","0","0","1","-2","2","1","1","5","4","4","5","4","4","5","4","4","5","8","8","7","8","6","7","8","7","7","5","3","6","4","4","3","5","2","3","4","4","4","6","4","4","6","4","4","5","4","5","5","6","6","3","5","5","5","6","6","5","6","4","5","5","6","6","5","4","6","732379307938418690","张","533","Male","[""好我"",""坏他"",""好他"",""坏我""]","[""强我"",""弱他"",""强他"",""弱我""]","","","","","","","","no","","","","","","","","","SRET_EW","EW_practice","","key","f","16.66565529010238","683","380","朋友","徇私","Negative","morality","","","","","","","","","",""
"5361","","j","psychophysics","12","136064","0.0-7.0-1.0-0.3","5","5","6","5","7","5","4","4","5","5","5","-1","0","0","1","-2","2","1","1","5","4","4","5","4","4","5","4","4","5","8","8","7","8","6","7","8","7","7","5","3","6","4","4","3","5","2","3","4","4","4","6","4","4","6","4","4","5","4","5","5","6","6","3","5","5","5","6","6","5","6","4","5","5","6","6","5","4","6","732379307938418690","张","533","Male","[""好我"",""坏他"",""好他"",""坏我""]","[""强我"",""弱他"",""强他"",""弱我""]","","","","","","","","yes","","","","","","","","","SRET_EW","EW_practice","","key","j","16.842501326259928","683","380","朋友","忠实","Positive","morality","","","","","","","","","",""
"3686","
    <p><div style='color:white;font-size:35px; line-height:20px;'>请您再次阅读实验要求</div></p><br>
    <p><div style='color:white;font-size:25px; line-height:20px;'>请回忆某一个亲密的朋友，你们至少2年前就认识了，并且最近2年经常见面。</div></p>
    <p><div style='color:white;font-size:25px; line-height:20px;'>在本实验中，您将会看到一些形容词。</div></p>
    <p><div style='color:yellow;font-size:25px; line-height:20px;'>您的任务是判断这些形容词是否符合对您自己或您的朋友的描述。</div></p>
    <p><div class='footer' style='font-size:25px; line-height:20px;'>如果对本实验还有不清楚之处，请立即向实验员咨询。</p><p style='font-size:25px; line-height:20px;'>如果您明白了规则：</p><p style='font-size:22px; line-height:20px;'>请按 继续 进入正式实验</p>
    </div>
    <p style='font-size:35px'>符合按<span style=""color:lightgreen""> j 键</span>，不符合按<span style=""color:red""> f 键</span></p>","0","html-button-response","13","139753","0.0-7.0-2.0","5","5","6","5","7","5","4","4","5","5","5","-1","0","0","1","-2","2","1","1","5","4","4","5","4","4","5","4","4","5","8","8","7","8","6","7","8","7","7","5","3","6","4","4","3","5","2","3","4","4","4","6","4","4","6","4","4","5","4","5","5","6","6","3","5","5","5","6","6","5","6","4","5","5","6","6","5","4","6","732379307938418690","张","533","Male","[""好我"",""坏他"",""好他"",""坏我""]","[""强我"",""弱他"",""强他"",""弱我""]","","","","","","","","","","","","","","","","","SRET_EW","prac_instructions","Sat Nov 25 2023 12:41:51 GMT+0800 (中国标准时间)","","","","","","","","","","","","","","","","","","",""
"5467","","j","psychophysics","14","146226","0.0-7.0-3.0-0.0","5","5","6","5","7","5","4","4","5","5","5","-1","0","0","1","-2","2","1","1","5","4","4","5","4","4","5","4","4","5","8","8","7","8","6","7","8","7","7","5","3","6","4","4","3","5","2","3","4","4","4","6","4","4","6","4","4","5","4","5","5","6","6","3","5","5","5","6","6","5","6","4","5","5","6","6","5","4","6","732379307938418690","张","533","Male","[""好我"",""坏他"",""好他"",""坏我""]","[""强我"",""弱他"",""强他"",""弱我""]","","","","","","","","yes","","","","","","","","","SRET","EW_formal","","key","j","16.751697674418622","683","380","朋友","务实","Positive","ability","","","","","","","","","",""
"5252","","f","psychophysics","15","152483","0.0-7.0-3.0-0.1","5","5","6","5","7","5","4","4","5","5","5","-1","0","0","1","-2","2","1","1","5","4","4","5","4","4","5","4","4","5","8","8","7","8","6","7","8","7","7","5","3","6","4","4","3","5","2","3","4","4","4","6","4","4","6","4","4","5","4","5","5","6","6","3","5","5","5","6","6","5","6","4","5","5","6","6","5","4","6","732379307938418690","张","533","Male","[""好我"",""坏他"",""好他"",""坏我""]","[""强我"",""弱他"",""强他"",""弱我""]","","","","","","","","no","","","","","","","","","SRET","EW_formal","","key","f","16.800482479784346","683","380","朋友","迷糊","Negative","ability","","","","","","","","","",""
"6150","","f","psychophysics","16","159642","0.0-7.0-3.0-0.2","5","5","6","5","7","5","4","4","5","5","5","-1","0","0","1","-2","2","1","1","5","4","4","5","4","4","5","4","4","5","8","8","7","8","6","7","8","7","7","5","3","6","4","4","3","5","2","3","4","4","4","6","4","4","6","4","4","5","4","5","5","6","6","3","5","5","5","6","6","5","6","4","5","5","6","6","5","4","6","732379307938418690","张","533","Male","[""好我"",""坏他"",""好他"",""坏我""]","[""强我"",""弱他"",""强他"",""弱我""]","","","","","","","","no","","","","","","","","","SRET","EW_formal","","key","f","17.4379292682927","683","380","自己","说谎","Negative","morality","","","","","","","","","",""
"5720","","j","psychophysics","17","166369","0.0-7.0-3.0-0.3","5","5","6","5","7","5","4","4","5","5","5","-1","0","0","1","-2","2","1","1","5","4","4","5","4","4","5","4","4","5","8","8","7","8","6","7","8","7","7","5","3","6","4","4","3","5","2","3","4","4","4","6","4","4","6","4","4","5","4","5","5","6","6","3","5","5","5","6","6","5","6","4","5","5","6","6","5","4","6","732379307938418690","张","533","Male","[""好我"",""坏他"",""好他"",""坏我""]","[""强我"",""弱他"",""强他"",""弱我""]","","","","","","","","yes","","","","","","","","","SRET","EW_formal","","key","j","16.74897499999999","683","380","自己","坚贞","Positive","morality","","","","","","","","","",""
"4686","","j","psychophysics","18","172062","0.0-7.0-3.0-0.4","5","5","6","5","7","5","4","4","5","5","5","-1","0","0","1","-2","2","1","1","5","4","4","5","4","4","5","4","4","5","8","8","7","8","6","7","8","7","7","5","3","6","4","4","3","5","2","3","4","4","4","6","4","4","6","4","4","5","4","5","5","6","6","3","5","5","5","6","6","5","6","4","5","5","6","6","5","4","6","732379307938418690","张","533","Male","[""好我"",""坏他"",""好他"",""坏我""]","[""强我"",""弱他"",""强他"",""弱我""]","","","","","","","","yes","","","","","","","","","SRET","EW_formal","","key","j","16.714614705882386","683","380","自己","爱国","Positive","morality","","","","","","","","","",""
"5789","","f","psychophysics","19","178860","0.0-7.0-3.0-0.5","5","5","6","5","7","5","4","4","5","5","5","-1","0","0","1","-2","2","1","1","5","4","4","5","4","4","5","4","4","5","8","8","7","8","6","7","8","7","7","5","3","6","4","4","3","5","2","3","4","4","4","6","4","4","6","4","4","5","4","5","5","6","6","3","5","5","5","6","6","5","6","4","5","5","6","6","5","4","6","732379307938418690","张","533","Male","[""好我"",""坏他"",""好他"",""坏我""]","[""强我"",""弱他"",""强他"",""弱我""]","","","","","","","","no","","","","","","","","","SRET","EW_formal","","key","f","16.706561576354684","683","380","朋友","短视","Negative","ability","","","","","","","","","",""
"13827","","f","psychophysics","20","193691","0.0-7.0-3.0-0.6","5","5","6","5","7","5","4","4","5","5","5","-1","0","0","1","-2","2","1","1","5","4","4","5","4","4","5","4","4","5","8","8","7","8","6","7","8","7","7","5","3","6","4","4","3","5","2","3","4","4","4","6","4","4","6","4","4","5","4","5","5","6","6","3","5","5","5","6","6","5","6","4","5","5","6","6","5","4","6","732379307938418690","张","533","Male","[""好我"",""坏他"",""好他"",""坏我""]","[""强我"",""弱他"",""强他"",""弱我""]","","","","","","","","no","","","","","","","","","SRET","EW_formal","","key","f","16.703145434047354","683","380","自己","昏庸","Negative","ability","","","","","","","","","",""
"31946","","j","psychophysics","21","226643","0.0-7.0-3.0-0.7","5","5","6","5","7","5","4","4","5","5","5","-1","0","0","1","-2","2","1","1","5","4","4","5","4","4","5","4","4","5","8","8","7","8","6","7","8","7","7","5","3","6","4","4","3","5","2","3","4","4","4","6","4","4","6","4","4","5","4","5","5","6","6","3","5","5","5","6","6","5","6","4","5","5","6","6","5","4","6","732379307938418690","张","533","Male","[""好我"",""坏他"",""好他"",""坏我""]","[""强我"",""弱他"",""强他"",""弱我""]","","","","","","","","yes","","","","","","","","","SRET","EW_formal","","key","j","16.674034936708853","683","380","自己","利己","Negative","morality","","","","","","","","","",""
"4489","","j","psychophysics","22","232139","0.0-7.0-3.0-0.8","5","5","6","5","7","5","4","4","5","5","5","-1","0","0","1","-2","2","1","1","5","4","4","5","4","4","5","4","4","5","8","8","7","8","6","7","8","7","7","5","3","6","4","4","3","5","2","3","4","4","4","6","4","4","6","4","4","5","4","5","5","6","6","3","5","5","5","6","6","5","6","4","5","5","6","6","5","4","6","732379307938418690","张","533","Male","[""好我"",""坏他"",""好他"",""坏我""]","[""强我"",""弱他"",""强他"",""弱我""]","","","","","","","","yes","","","","","","","","","SRET","EW_formal","","key","j","16.66578419452889","683","380","自己","自律","Positive","ability","","","","","","","","","",""
"6697","","f","psychophysics","23","239842","0.0-7.0-3.0-0.9","5","5","6","5","7","5","4","4","5","5","5","-1","0","0","1","-2","2","1","1","5","4","4","5","4","4","5","4","4","5","8","8","7","8","6","7","8","7","7","5","3","6","4","4","3","5","2","3","4","4","4","6","4","4","6","4","4","5","4","5","5","6","6","3","5","5","5","6","6","5","6","4","5","5","6","6","5","4","6","732379307938418690","张","533","Male","[""好我"",""坏他"",""好他"",""坏我""]","[""强我"",""弱他"",""强他"",""弱我""]","","","","","","","","no","","","","","","","","","SRET","EW_formal","","key","f","16.701749999999986","683","380","朋友","盲目","Negative","ability","","","","","","","","","",""
"6328","","j","psychophysics","24","247178","0.0-7.0-3.0-0.10","5","5","6","5","7","5","4","4","5","5","5","-1","0","0","1","-2","2","1","1","5","4","4","5","4","4","5","4","4","5","8","8","7","8","6","7","8","7","7","5","3","6","4","4","3","5","2","3","4","4","4","6","4","4","6","4","4","5","4","5","5","6","6","3","5","5","5","6","6","5","6","4","5","5","6","6","5","4","6","732379307938418690","张","533","Male","[""好我"",""坏他"",""好他"",""坏我""]","[""强我"",""弱他"",""强他"",""弱我""]","","","","","","","","yes","","","","","","","","","SRET","EW_formal","","key","j","16.74179176201373","683","380","自己","逞强","Negative","ability","","","","","","","","","",""
"5718","","f","psychophysics","25","253905","0.0-7.0-3.0-0.11","5","5","6","5","7","5","4","4","5","5","5","-1","0","0","1","-2","2","1","1","5","4","4","5","4","4","5","4","4","5","8","8","7","8","6","7","8","7","7","5","3","6","4","4","3","5","2","3","4","4","4","6","4","4","6","4","4","5","4","5","5","6","6","3","5","5","5","6","6","5","6","4","5","5","6","6","5","4","6","732379307938418690","张","533","Male","[""好我"",""坏他"",""好他"",""坏我""]","[""强我"",""弱他"",""强他"",""弱我""]","","","","","","","","no","","","","","","","","","SRET","EW_formal","","key","f","17.44466753246757","683","380","自己","不孝","Negative","morality","","","","","","","","","",""
"14314","","j","psychophysics","26","269227","0.0-7.0-3.0-0.12","5","5","6","5","7","5","4","4","5","5","5","-1","0","0","1","-2","2","1","1","5","4","4","5","4","4","5","4","4","5","8","8","7","8","6","7","8","7","7","5","3","6","4","4","3","5","2","3","4","4","4","6","4","4","6","4","4","5","4","5","5","6","6","3","5","5","5","6","6","5","6","4","5","5","6","6","5","4","6","732379307938418690","张","533","Male","[""好我"",""坏他"",""好他"",""坏我""]","[""强我"",""弱他"",""强他"",""弱我""]","","","","","","","","yes","","","","","","","","","SRET","EW_formal","","key","j","16.68374482006544","683","380","自己","偏私","Negative","morality","","","","","","","","","",""
"6012","","j","psychophysics","27","276243","0.0-7.0-3.0-0.13","5","5","6","5","7","5","4","4","5","5","5","-1","0","0","1","-2","2","1","1","5","4","4","5","4","4","5","4","4","5","8","8","7","8","6","7","8","7","7","5","3","6","4","4","3","5","2","3","4","4","4","6","4","4","6","4","4","5","4","5","5","6","6","3","5","5","5","6","6","5","6","4","5","5","6","6","5","4","6","732379307938418690","张","533","Male","[""好我"",""坏他"",""好他"",""坏我""]","[""强我"",""弱他"",""强他"",""弱我""]","","","","","","","","yes","","","","","","","","","SRET","EW_formal","","key","j","16.665647619047586","683","380","自己","坦荡","Positive","morality","","","","","","","","","",""
"3787","","j","psychophysics","28","281036","0.0-7.0-3.0-0.14","5","5","6","5","7","5","4","4","5","5","5","-1","0","0","1","-2","2","1","1","5","4","4","5","4","4","5","4","4","5","8","8","7","8","6","7","8","7","7","5","3","6","4","4","3","5","2","3","4","4","4","6","4","4","6","4","4","5","4","5","5","6","6","3","5","5","5","6","6","5","6","4","5","5","6","6","5","4","6","732379307938418690","张","533","Male","[""好我"",""坏他"",""好他"",""坏我""]","[""强我"",""弱他"",""强他"",""弱我""]","","","","","","","","yes","","","","","","","","","SRET","EW_formal","","key","j","16.723755244755267","683","380","自己","诚信","Positive","morality","","","","","","","","","",""
"4843","","f","psychophysics","29","286886","0.0-7.0-3.0-0.15","5","5","6","5","7","5","4","4","5","5","5","-1","0","0","1","-2","2","1","1","5","4","4","5","4","4","5","4","4","5","8","8","7","8","6","7","8","7","7","5","3","6","4","4","3","5","2","3","4","4","4","6","4","4","6","4","4","5","4","5","5","6","6","3","5","5","5","6","6","5","6","4","5","5","6","6","5","4","6","732379307938418690","张","533","Male","[""好我"",""坏他"",""好他"",""坏我""]","[""强我"",""弱他"",""强他"",""弱我""]","","","","","","","","no","","","","","","","","","SRET","EW_formal","","key","f","16.665631428571483","683","380","自己","无赖","Negative","morality","","","","","","","","","",""
"4271","","f","psychophysics","30","292161","0.0-7.0-3.0-0.16","5","5","6","5","7","5","4","4","5","5","5","-1","0","0","1","-2","2","1","1","5","4","4","5","4","4","5","4","4","5","8","8","7","8","6","7","8","7","7","5","3","6","4","4","3","5","2","3","4","4","4","6","4","4","6","4","4","5","4","5","5","6","6","3","5","5","5","6","6","5","6","4","5","5","6","6","5","4","6","732379307938418690","张","533","Male","[""好我"",""坏他"",""好他"",""坏我""]","[""强我"",""弱他"",""强他"",""弱我""]","","","","","","","","no","","","","","","","","","SRET","EW_formal","","key","f","16.718958598726196","683","380","自己","龌龊","Negative","morality","","","","","","","","","",""
"9131","","f","psychophysics","31","302301","0.0-7.0-3.0-0.17","5","5","6","5","7","5","4","4","5","5","5","-1","0","0","1","-2","2","1","1","5","4","4","5","4","4","5","4","4","5","8","8","7","8","6","7","8","7","7","5","3","6","4","4","3","5","2","3","4","4","4","6","4","4","6","4","4","5","4","5","5","6","6","3","5","5","5","6","6","5","6","4","5","5","6","6","5","4","6","732379307938418690","张","533","Male","[""好我"",""坏他"",""好他"",""坏我""]","[""强我"",""弱他"",""强他"",""弱我""]","","","","","","","","no","","","","","","","","","SRET","EW_formal","","key","f","16.66569851729823","683","380","朋友","伪善","Negative","morality","","","","","","","","","",""
"7252","","j","psychophysics","32","310558","0.0-7.0-3.0-0.18","5","5","6","5","7","5","4","4","5","5","5","-1","0","0","1","-2","2","1","1","5","4","4","5","4","4","5","4","4","5","8","8","7","8","6","7","8","7","7","5","3","6","4","4","3","5","2","3","4","4","4","6","4","4","6","4","4","5","4","5","5","6","6","3","5","5","5","6","6","5","6","4","5","5","6","6","5","4","6","732379307938418690","张","533","Male","[""好我"",""坏他"",""好他"",""坏我""]","[""强我"",""弱他"",""强他"",""弱我""]","","","","","","","","yes","","","","","","","","","SRET","EW_formal","","key","j","16.732975659229126","683","380","自己","远见","Positive","ability","","","","","","","","","",""
"7988","","j","psychophysics","33","319555","0.0-7.0-3.0-0.19","5","5","6","5","7","5","4","4","5","5","5","-1","0","0","1","-2","2","1","1","5","4","4","5","4","4","5","4","4","5","8","8","7","8","6","7","8","7","7","5","3","6","4","4","3","5","2","3","4","4","4","6","4","4","6","4","4","5","4","5","5","6","6","3","5","5","5","6","6","5","6","4","5","5","6","6","5","4","6","732379307938418690","张","533","Male","[""好我"",""坏他"",""好他"",""坏我""]","[""强我"",""弱他"",""强他"",""弱我""]","","","","","","","","yes","","","","","","","","","SRET","EW_formal","","key","j","16.665588126159623","683","380","朋友","有力","Positive","ability","","","","","","","","","",""
"8170","","j","psychophysics","34","328734","0.0-7.0-3.0-0.20","5","5","6","5","7","5","4","4","5","5","5","-1","0","0","1","-2","2","1","1","5","4","4","5","4","4","5","4","4","5","8","8","7","8","6","7","8","7","7","5","3","6","4","4","3","5","2","3","4","4","4","6","4","4","6","4","4","5","4","5","5","6","6","3","5","5","5","6","6","5","6","4","5","5","6","6","5","4","6","732379307938418690","张","533","Male","[""好我"",""坏他"",""好他"",""坏我""]","[""强我"",""弱他"",""强他"",""弱我""]","","","","","","","","yes","","","","","","","","","SRET","EW_formal","","key","j","16.665385454545454","683","380","自己","依靠","Negative","ability","","","","","","","","","",""
"8320","","j","psychophysics","35","338059","0.0-7.0-3.0-0.21","5","5","6","5","7","5","4","4","5","5","5","-1","0","0","1","-2","2","1","1","5","4","4","5","4","4","5","4","4","5","8","8","7","8","6","7","8","7","7","5","3","6","4","4","3","5","2","3","4","4","4","6","4","4","6","4","4","5","4","5","5","6","6","3","5","5","5","6","6","5","6","4","5","5","6","6","5","4","6","732379307938418690","张","533","Male","[""好我"",""坏他"",""好他"",""坏我""]","[""强我"",""弱他"",""强他"",""弱我""]","","","","","","","","yes","","","","","","","","","SRET","EW_formal","","key","j","16.69541292639133","683","380","自己","自私","Negative","morality","","","","","","","","","",""
"3977","","j","psychophysics","36","343043","0.0-7.0-3.0-0.22","5","5","6","5","7","5","4","4","5","5","5","-1","0","0","1","-2","2","1","1","5","4","4","5","4","4","5","4","4","5","8","8","7","8","6","7","8","7","7","5","3","6","4","4","3","5","2","3","4","4","4","6","4","4","6","4","4","5","4","5","5","6","6","3","5","5","5","6","6","5","6","4","5","5","6","6","5","4","6","732379307938418690","张","533","Male","[""好我"",""坏他"",""好他"",""坏我""]","[""强我"",""弱他"",""强他"",""弱我""]","","","","","","","","yes","","","","","","","","","SRET","EW_formal","","key","j","16.665607382550416","683","380","自己","守信","Positive","morality","","","","","","","","","",""
"4373","","j","psychophysics","37","348424","0.0-7.0-3.0-0.23","5","5","6","5","7","5","4","4","5","5","5","-1","0","0","1","-2","2","1","1","5","4","4","5","4","4","5","4","4","5","8","8","7","8","6","7","8","7","7","5","3","6","4","4","3","5","2","3","4","4","4","6","4","4","6","4","4","5","4","5","5","6","6","3","5","5","5","6","6","5","6","4","5","5","6","6","5","4","6","732379307938418690","张","533","Male","[""好我"",""坏他"",""好他"",""坏我""]","[""强我"",""弱他"",""强他"",""弱我""]","","","","","","","","yes","","","","","","","","","SRET","EW_formal","","key","j","16.665698757764098","683","380","朋友","专注","Positive","ability","","","","","","","","","",""
"5054","","j","psychophysics","38","354483","0.0-7.0-3.0-0.24","5","5","6","5","7","5","4","4","5","5","5","-1","0","0","1","-2","2","1","1","5","4","4","5","4","4","5","4","4","5","8","8","7","8","6","7","8","7","7","5","3","6","4","4","3","5","2","3","4","4","4","6","4","4","6","4","4","5","4","5","5","6","6","3","5","5","5","6","6","5","6","4","5","5","6","6","5","4","6","732379307938418690","张","533","Male","[""好我"",""坏他"",""好他"",""坏我""]","[""强我"",""弱他"",""强他"",""弱我""]","","","","","","","","yes","","","","","","","","","SRET","EW_formal","","key","j","16.711585635359068","683","380","朋友","忠良","Positive","morality","","","","","","","","","",""
"3777","","j","psychophysics","39","359268","0.0-7.0-3.0-0.25","5","5","6","5","7","5","4","4","5","5","5","-1","0","0","1","-2","2","1","1","5","4","4","5","4","4","5","4","4","5","8","8","7","8","6","7","8","7","7","5","3","6","4","4","3","5","2","3","4","4","4","6","4","4","6","4","4","5","4","5","5","6","6","3","5","5","5","6","6","5","6","4","5","5","6","6","5","4","6","732379307938418690","张","533","Male","[""好我"",""坏他"",""好他"",""坏我""]","[""强我"",""弱他"",""强他"",""弱我""]","","","","","","","","yes","","","","","","","","","SRET","EW_formal","","key","j","16.66554545454532","683","380","朋友","仁厚","Positive","morality","","","","","","","","","",""
"4611","","f","psychophysics","40","364887","0.0-7.0-3.0-0.26","5","5","6","5","7","5","4","4","5","5","5","-1","0","0","1","-2","2","1","1","5","4","4","5","4","4","5","4","4","5","8","8","7","8","6","7","8","7","7","5","3","6","4","4","3","5","2","3","4","4","4","6","4","4","6","4","4","5","4","5","5","6","6","3","5","5","5","6","6","5","6","4","5","5","6","6","5","4","6","732379307938418690","张","533","Male","[""好我"",""坏他"",""好他"",""坏我""]","[""强我"",""弱他"",""强他"",""弱我""]","","","","","","","","no","","","","","","","","","SRET","EW_formal","","key","f","17.553865203761816","683","380","朋友","迟钝","Negative","ability","","","","","","","","","",""
"5008","","f","psychophysics","41","370900","0.0-7.0-3.0-0.27","5","5","6","5","7","5","4","4","5","5","5","-1","0","0","1","-2","2","1","1","5","4","4","5","4","4","5","4","4","5","8","8","7","8","6","7","8","7","7","5","3","6","4","4","3","5","2","3","4","4","4","6","4","4","6","4","4","5","4","5","5","6","6","3","5","5","5","6","6","5","6","4","5","5","6","6","5","4","6","732379307938418690","张","533","Male","[""好我"",""坏他"",""好他"",""坏我""]","[""强我"",""弱他"",""强他"",""弱我""]","","","","","","","","no","","","","","","","","","SRET","EW_formal","","key","f","16.71218662952643","683","380","朋友","低劣","Negative","morality","","","","","","","","","",""
"3679","","f","psychophysics","42","375587","0.0-7.0-3.0-0.28","5","5","6","5","7","5","4","4","5","5","5","-1","0","0","1","-2","2","1","1","5","4","4","5","4","4","5","4","4","5","8","8","7","8","6","7","8","7","7","5","3","6","4","4","3","5","2","3","4","4","4","6","4","4","6","4","4","5","4","5","5","6","6","3","5","5","5","6","6","5","6","4","5","5","6","6","5","4","6","732379307938418690","张","533","Male","[""好我"",""坏他"",""好他"",""坏我""]","[""强我"",""弱他"",""强他"",""弱我""]","","","","","","","","no","","","","","","","","","SRET","EW_formal","","key","f","16.725422939068036","683","380","朋友","马虎","Negative","ability","","","","","","","","","",""
"4905","","f","psychophysics","43","381499","0.0-7.0-3.0-0.29","5","5","6","5","7","5","4","4","5","5","5","-1","0","0","1","-2","2","1","1","5","4","4","5","4","4","5","4","4","5","8","8","7","8","6","7","8","7","7","5","3","6","4","4","3","5","2","3","4","4","4","6","4","4","6","4","4","5","4","5","5","6","6","3","5","5","5","6","6","5","6","4","5","5","6","6","5","4","6","732379307938418690","张","533","Male","[""好我"",""坏他"",""好他"",""坏我""]","[""强我"",""弱他"",""强他"",""弱我""]","","","","","","","","no","","","","","","","","","SRET","EW_formal","","key","f","16.66547457627113","683","380","自己","无敌","Positive","ability","","","","","","","","","",""
"5775","","f","psychophysics","44","388282","0.0-7.0-3.0-0.30","5","5","6","5","7","5","4","4","5","5","5","-1","0","0","1","-2","2","1","1","5","4","4","5","4","4","5","4","4","5","8","8","7","8","6","7","8","7","7","5","3","6","4","4","3","5","2","3","4","4","4","6","4","4","6","4","4","5","4","5","5","6","6","3","5","5","5","6","6","5","6","4","5","5","6","6","5","4","6","732379307938418690","张","533","Male","[""好我"",""坏他"",""好他"",""坏我""]","[""强我"",""弱他"",""强他"",""弱我""]","","","","","","","","no","","","","","","","","","SRET","EW_formal","","key","f","16.66558866995072","683","380","自己","不端","Negative","morality","","","","","","","","","",""
"8975","","j","psychophysics","45","398267","0.0-7.0-3.0-0.31","5","5","6","5","7","5","4","4","5","5","5","-1","0","0","1","-2","2","1","1","5","4","4","5","4","4","5","4","4","5","8","8","7","8","6","7","8","7","7","5","3","6","4","4","3","5","2","3","4","4","4","6","4","4","6","4","4","5","4","5","5","6","6","3","5","5","5","6","6","5","6","4","5","5","6","6","5","4","6","732379307938418690","张","533","Male","[""好我"",""坏他"",""好他"",""坏我""]","[""强我"",""弱他"",""强他"",""弱我""]","","","","","","","","yes","","","","","","","","","SRET","EW_formal","","key","j","16.665481605351143","683","380","朋友","高效","Positive","ability","","","","","","","","","",""
"3993","","f","psychophysics","46","403270","0.0-7.0-3.0-0.32","5","5","6","5","7","5","4","4","5","5","5","-1","0","0","1","-2","2","1","1","5","4","4","5","4","4","5","4","4","5","8","8","7","8","6","7","8","7","7","5","3","6","4","4","3","5","2","3","4","4","4","6","4","4","6","4","4","5","4","5","5","6","6","3","5","5","5","6","6","5","6","4","5","5","6","6","5","4","6","732379307938418690","张","533","Male","[""好我"",""坏他"",""好他"",""坏我""]","[""强我"",""弱他"",""强他"",""弱我""]","","","","","","","","no","","","","","","","","","SRET","EW_formal","","key","f","16.665561872909787","683","380","朋友","歹毒","Negative","morality","","","","","","","","","",""
"6978","","j","psychophysics","47","411257","0.0-7.0-3.0-0.33","5","5","6","5","7","5","4","4","5","5","5","-1","0","0","1","-2","2","1","1","5","4","4","5","4","4","5","4","4","5","8","8","7","8","6","7","8","7","7","5","3","6","4","4","3","5","2","3","4","4","4","6","4","4","6","4","4","5","4","5","5","6","6","3","5","5","5","6","6","5","6","4","5","5","6","6","5","4","6","732379307938418690","张","533","Male","[""好我"",""坏他"",""好他"",""坏我""]","[""强我"",""弱他"",""强他"",""弱我""]","","","","","","","","yes","","","","","","","","","SRET","EW_formal","","key","j","16.66535774058571","683","380","自己","仁爱","Positive","morality","","","","","","","","","",""
"4775","","f","psychophysics","48","417037","0.0-7.0-3.0-0.34","5","5","6","5","7","5","4","4","5","5","5","-1","0","0","1","-2","2","1","1","5","4","4","5","4","4","5","4","4","5","8","8","7","8","6","7","8","7","7","5","3","6","4","4","3","5","2","3","4","4","4","6","4","4","6","4","4","5","4","5","5","6","6","3","5","5","5","6","6","5","6","4","5","5","6","6","5","4","6","732379307938418690","张","533","Male","[""好我"",""坏他"",""好他"",""坏我""]","[""强我"",""弱他"",""强他"",""弱我""]","","","","","","","","no","","","","","","","","","SRET","EW_formal","","key","f","16.665528901734064","683","380","自己","弱智","Negative","ability","","","","","","","","","",""
"4701","","j","psychophysics","49","422747","0.0-7.0-3.0-0.35","5","5","6","5","7","5","4","4","5","5","5","-1","0","0","1","-2","2","1","1","5","4","4","5","4","4","5","4","4","5","8","8","7","8","6","7","8","7","7","5","3","6","4","4","3","5","2","3","4","4","4","6","4","4","6","4","4","5","4","5","5","6","6","3","5","5","5","6","6","5","6","4","5","5","6","6","5","4","6","732379307938418690","张","533","Male","[""好我"",""坏他"",""好他"",""坏我""]","[""强我"",""弱他"",""强他"",""弱我""]","","","","","","","","yes","","","","","","","","","SRET","EW_formal","","key","j","16.812879056047173","683","380","自己","利落","Positive","ability","","","","","","","","","",""
"5507","","f","psychophysics","50","429264","0.0-7.0-3.0-0.36","5","5","6","5","7","5","4","4","5","5","5","-1","0","0","1","-2","2","1","1","5","4","4","5","4","4","5","4","4","5","8","8","7","8","6","7","8","7","7","5","3","6","4","4","3","5","2","3","4","4","4","6","4","4","6","4","4","5","4","5","5","6","6","3","5","5","5","6","6","5","6","4","5","5","6","6","5","4","6","732379307938418690","张","533","Male","[""好我"",""坏他"",""好他"",""坏我""]","[""强我"",""弱他"",""强他"",""弱我""]","","","","","","","","no","","","","","","","","","SRET","EW_formal","","key","f","17.709841961852828","683","380","自己","愚痴","Negative","ability","","","","","","","","","",""
"5117","","f","psychophysics","51","435386","0.0-7.0-3.0-0.37","5","5","6","5","7","5","4","4","5","5","5","-1","0","0","1","-2","2","1","1","5","4","4","5","4","4","5","4","4","5","8","8","7","8","6","7","8","7","7","5","3","6","4","4","3","5","2","3","4","4","4","6","4","4","6","4","4","5","4","5","5","6","6","3","5","5","5","6","6","5","6","4","5","5","6","6","5","4","6","732379307938418690","张","533","Male","[""好我"",""坏他"",""好他"",""坏我""]","[""强我"",""弱他"",""强他"",""弱我""]","","","","","","","","no","","","","","","","","","SRET","EW_formal","","key","f","17.887319648093843","683","380","朋友","无耻","Negative","morality","","","","","","","","","",""
"4236","","j","psychophysics","52","440624","0.0-7.0-3.0-0.38","5","5","6","5","7","5","4","4","5","5","5","-1","0","0","1","-2","2","1","1","5","4","4","5","4","4","5","4","4","5","8","8","7","8","6","7","8","7","7","5","3","6","4","4","3","5","2","3","4","4","4","6","4","4","6","4","4","5","4","5","5","6","6","3","5","5","5","6","6","5","6","4","5","5","6","6","5","4","6","732379307938418690","张","533","Male","[""好我"",""坏他"",""好他"",""坏我""]","[""强我"",""弱他"",""强他"",""弱我""]","","","","","","","","yes","","","","","","","","","SRET","EW_formal","","key","j","16.66558146964853","683","380","自己","高尚","Positive","morality","","","","","","","","","",""
"4883","","j","psychophysics","53","446519","0.0-7.0-3.0-0.39","5","5","6","5","7","5","4","4","5","5","5","-1","0","0","1","-2","2","1","1","5","4","4","5","4","4","5","4","4","5","8","8","7","8","6","7","8","7","7","5","3","6","4","4","3","5","2","3","4","4","4","6","4","4","6","4","4","5","4","5","5","6","6","3","5","5","5","6","6","5","6","4","5","5","6","6","5","4","6","732379307938418690","张","533","Male","[""好我"",""坏他"",""好他"",""坏我""]","[""强我"",""弱他"",""强他"",""弱我""]","","","","","","","","yes","","","","","","","","","SRET","EW_formal","","key","j","16.66550708215297","683","380","朋友","高洁","Positive","morality","","","","","","","","","",""
"4222","","j","psychophysics","54","451745","0.0-7.0-3.0-0.40","5","5","6","5","7","5","4","4","5","5","5","-1","0","0","1","-2","2","1","1","5","4","4","5","4","4","5","4","4","5","8","8","7","8","6","7","8","7","7","5","3","6","4","4","3","5","2","3","4","4","4","6","4","4","6","4","4","5","4","5","5","6","6","3","5","5","5","6","6","5","6","4","5","5","6","6","5","4","6","732379307938418690","张","533","Male","[""好我"",""坏他"",""好他"",""坏我""]","[""强我"",""弱他"",""强他"",""弱我""]","","","","","","","","yes","","","","","","","","","SRET","EW_formal","","key","j","16.718842948718073","683","380","自己","聪明","Positive","ability","","","","","","","","","",""
"9945","","f","psychophysics","55","462695","0.0-7.0-3.0-0.41","5","5","6","5","7","5","4","4","5","5","5","-1","0","0","1","-2","2","1","1","5","4","4","5","4","4","5","4","4","5","8","8","7","8","6","7","8","7","7","5","3","6","4","4","3","5","2","3","4","4","4","6","4","4","6","4","4","5","4","5","5","6","6","3","5","5","5","6","6","5","6","4","5","5","6","6","5","4","6","732379307938418690","张","533","Male","[""好我"",""坏他"",""好他"",""坏我""]","[""强我"",""弱他"",""强他"",""弱我""]","","","","","","","","no","","","","","","","","","SRET","EW_formal","","key","f","16.690984732824475","683","380","朋友","窝囊","Negative","ability","","","","","","","","","",""
"3542","","f","psychophysics","56","467244","0.0-7.0-3.0-0.42","5","5","6","5","7","5","4","4","5","5","5","-1","0","0","1","-2","2","1","1","5","4","4","5","4","4","5","4","4","5","8","8","7","8","6","7","8","7","7","5","3","6","4","4","3","5","2","3","4","4","4","6","4","4","6","4","4","5","4","5","5","6","6","3","5","5","5","6","6","5","6","4","5","5","6","6","5","4","6","732379307938418690","张","533","Male","[""好我"",""坏他"",""好他"",""坏我""]","[""强我"",""弱他"",""强他"",""弱我""]","","","","","","","","no","","","","","","","","","SRET","EW_formal","","key","f","16.727066420664112","683","380","朋友","奸诈","Negative","morality","","","","","","","","","",""
"4407","","j","psychophysics","57","472662","0.0-7.0-3.0-0.43","5","5","6","5","7","5","4","4","5","5","5","-1","0","0","1","-2","2","1","1","5","4","4","5","4","4","5","4","4","5","8","8","7","8","6","7","8","7","7","5","3","6","4","4","3","5","2","3","4","4","4","6","4","4","6","4","4","5","4","5","5","6","6","3","5","5","5","6","6","5","6","4","5","5","6","6","5","4","6","732379307938418690","张","533","Male","[""好我"",""坏他"",""好他"",""坏我""]","[""强我"",""弱他"",""强他"",""弱我""]","","","","","","","","yes","","","","","","","","","SRET","EW_formal","","key","j","16.66558333333326","683","380","自己","刚正","Positive","morality","","","","","","","","","",""
"4465","","j","psychophysics","58","478135","0.0-7.0-3.0-0.44","5","5","6","5","7","5","4","4","5","5","5","-1","0","0","1","-2","2","1","1","5","4","4","5","4","4","5","4","4","5","8","8","7","8","6","7","8","7","7","5","3","6","4","4","3","5","2","3","4","4","4","6","4","4","6","4","4","5","4","5","5","6","6","3","5","5","5","6","6","5","6","4","5","5","6","6","5","4","6","732379307938418690","张","533","Male","[""好我"",""坏他"",""好他"",""坏我""]","[""强我"",""弱他"",""强他"",""弱我""]","","","","","","","","yes","","","","","","","","","SRET","EW_formal","","key","j","16.665614678898958","683","380","朋友","高明","Positive","ability","","","","","","","","","",""
"7335","","j","psychophysics","59","486477","0.0-7.0-3.0-0.45","5","5","6","5","7","5","4","4","5","5","5","-1","0","0","1","-2","2","1","1","5","4","4","5","4","4","5","4","4","5","8","8","7","8","6","7","8","7","7","5","3","6","4","4","3","5","2","3","4","4","4","6","4","4","6","4","4","5","4","5","5","6","6","3","5","5","5","6","6","5","6","4","5","5","6","6","5","4","6","732379307938418690","张","533","Male","[""好我"",""坏他"",""好他"",""坏我""]","[""强我"",""弱他"",""强他"",""弱我""]","","","","","","","","yes","","","","","","","","","SRET","EW_formal","","key","j","16.66558400000003","683","380","自己","外行","Negative","ability","","","","","","","","","",""
"8907","","f","psychophysics","60","496393","0.0-7.0-3.0-0.46","5","5","6","5","7","5","4","4","5","5","5","-1","0","0","1","-2","2","1","1","5","4","4","5","4","4","5","4","4","5","8","8","7","8","6","7","8","7","7","5","3","6","4","4","3","5","2","3","4","4","4","6","4","4","6","4","4","5","4","5","5","6","6","3","5","5","5","6","6","5","6","4","5","5","6","6","5","4","6","732379307938418690","张","533","Male","[""好我"",""坏他"",""好他"",""坏我""]","[""强我"",""弱他"",""强他"",""弱我""]","","","","","","","","no","","","","","","","","","SRET","EW_formal","","key","f","16.66556228956226","683","380","自己","蛇蝎","Negative","morality","","","","","","","","","",""
"4419","","j","psychophysics","61","501817","0.0-7.0-3.0-0.47","5","5","6","5","7","5","4","4","5","5","5","-1","0","0","1","-2","2","1","1","5","4","4","5","4","4","5","4","4","5","8","8","7","8","6","7","8","7","7","5","3","6","4","4","3","5","2","3","4","4","4","6","4","4","6","4","4","5","4","5","5","6","6","3","5","5","5","6","6","5","6","4","5","5","6","6","5","4","6","732379307938418690","张","533","Male","[""好我"",""坏他"",""好他"",""坏我""]","[""强我"",""弱他"",""强他"",""弱我""]","","","","","","","","yes","","","","","","","","","SRET","EW_formal","","key","j","16.66559567901232","683","380","自己","毅力","Positive","ability","","","","","","","","","",""
"10182","","j","psychophysics","62","513007","0.0-7.0-3.0-0.48","5","5","6","5","7","5","4","4","5","5","5","-1","0","0","1","-2","2","1","1","5","4","4","5","4","4","5","4","4","5","8","8","7","8","6","7","8","7","7","5","3","6","4","4","3","5","2","3","4","4","4","6","4","4","6","4","4","5","4","5","5","6","6","3","5","5","5","6","6","5","6","4","5","5","6","6","5","4","6","732379307938418690","张","533","Male","[""好我"",""坏他"",""好他"",""坏我""]","[""强我"",""弱他"",""强他"",""弱我""]","","","","","","","","yes","","","","","","","","","SRET","EW_formal","","key","j","16.66558805970152","683","380","朋友","忠勇","Positive","morality","","","","","","","","","",""
"4401","","f","psychophysics","63","518416","0.0-7.0-3.0-0.49","5","5","6","5","7","5","4","4","5","5","5","-1","0","0","1","-2","2","1","1","5","4","4","5","4","4","5","4","4","5","8","8","7","8","6","7","8","7","7","5","3","6","4","4","3","5","2","3","4","4","4","6","4","4","6","4","4","5","4","5","5","6","6","3","5","5","5","6","6","5","6","4","5","5","6","6","5","4","6","732379307938418690","张","533","Male","[""好我"",""坏他"",""好他"",""坏我""]","[""强我"",""弱他"",""强他"",""弱我""]","","","","","","","","no","","","","","","","","","SRET","EW_formal","","key","f","16.71704643962839","683","380","朋友","畏难","Negative","ability","","","","","","","","","",""
"3699","","j","psychophysics","64","523125","0.0-7.0-3.0-0.50","5","5","6","5","7","5","4","4","5","5","5","-1","0","0","1","-2","2","1","1","5","4","4","5","4","4","5","4","4","5","8","8","7","8","6","7","8","7","7","5","3","6","4","4","3","5","2","3","4","4","4","6","4","4","6","4","4","5","4","5","5","6","6","3","5","5","5","6","6","5","6","4","5","5","6","6","5","4","6","732379307938418690","张","533","Male","[""好我"",""坏他"",""好他"",""坏我""]","[""强我"",""弱他"",""强他"",""弱我""]","","","","","","","","yes","","","","","","","","","SRET","EW_formal","","key","j","16.665772241992865","683","380","自己","努力","Positive","ability","","","","","","","","","",""
"1041","","j","psychophysics","65","525177","0.0-7.0-3.0-0.51","5","5","6","5","7","5","4","4","5","5","5","-1","0","0","1","-2","2","1","1","5","4","4","5","4","4","5","4","4","5","8","8","7","8","6","7","8","7","7","5","3","6","4","4","3","5","2","3","4","4","4","6","4","4","6","4","4","5","4","5","5","6","6","3","5","5","5","6","6","5","6","4","5","5","6","6","5","4","6","732379307938418690","张","533","Male","[""好我"",""坏他"",""好他"",""坏我""]","[""强我"",""弱他"",""强他"",""弱我""]","","","","","","","","yes","","","","","","","","","SRET","EW_formal","","key","j","16.802409836066293","683","380","自己","干练","Positive","ability","","","","","","","","","",""
"4976","","j","psychophysics","66","531160","0.0-7.0-3.0-0.52","5","5","6","5","7","5","4","4","5","5","5","-1","0","0","1","-2","2","1","1","5","4","4","5","4","4","5","4","4","5","8","8","7","8","6","7","8","7","7","5","3","6","4","4","3","5","2","3","4","4","4","6","4","4","6","4","4","5","4","5","5","6","6","3","5","5","5","6","6","5","6","4","5","5","6","6","5","4","6","732379307938418690","张","533","Male","[""好我"",""坏他"",""好他"",""坏我""]","[""强我"",""弱他"",""强他"",""弱我""]","","","","","","","","yes","","","","","","","","","SRET","EW_formal","","key","j","16.665589385474746","683","380","朋友","学霸","Positive","ability","","","","","","","","","",""
"3992","","f","psychophysics","67","536160","0.0-7.0-3.0-0.53","5","5","6","5","7","5","4","4","5","5","5","-1","0","0","1","-2","2","1","1","5","4","4","5","4","4","5","4","4","5","8","8","7","8","6","7","8","7","7","5","3","6","4","4","3","5","2","3","4","4","4","6","4","4","6","4","4","5","4","5","5","6","6","3","5","5","5","6","6","5","6","4","5","5","6","6","5","4","6","732379307938418690","张","533","Male","[""好我"",""坏他"",""好他"",""坏我""]","[""强我"",""弱他"",""强他"",""弱我""]","","","","","","","","no","","","","","","","","","SRET","EW_formal","","key","f","16.721312080536915","683","380","朋友","无知","Negative","ability","","","","","","","","","",""
"3747","","f","psychophysics","68","540915","0.0-7.0-3.0-0.54","5","5","6","5","7","5","4","4","5","5","5","-1","0","0","1","-2","2","1","1","5","4","4","5","4","4","5","4","4","5","8","8","7","8","6","7","8","7","7","5","3","6","4","4","3","5","2","3","4","4","4","6","4","4","6","4","4","5","4","5","5","6","6","3","5","5","5","6","6","5","6","4","5","5","6","6","5","4","6","732379307938418690","张","533","Male","[""好我"",""坏他"",""好他"",""坏我""]","[""强我"",""弱他"",""强他"",""弱我""]","","","","","","","","no","","","","","","","","","SRET","EW_formal","","key","f","16.665514084507226","683","380","朋友","恶劣","Negative","morality","","","","","","","","","",""
"1622","","j","psychophysics","69","543541","0.0-7.0-3.0-0.55","5","5","6","5","7","5","4","4","5","5","5","-1","0","0","1","-2","2","1","1","5","4","4","5","4","4","5","4","4","5","8","8","7","8","6","7","8","7","7","5","3","6","4","4","3","5","2","3","4","4","4","6","4","4","6","4","4","5","4","5","5","6","6","3","5","5","5","6","6","5","6","4","5","5","6","6","5","4","6","732379307938418690","张","533","Male","[""好我"",""坏他"",""好他"",""坏我""]","[""强我"",""弱他"",""强他"",""弱我""]","","","","","","","","yes","","","","","","","","","SRET","EW_formal","","key","j","16.665751592356973","683","380","自己","坚持","Positive","ability","","","","","","","","","",""
"1082","","j","psychophysics","70","545625","0.0-7.0-3.0-0.56","5","5","6","5","7","5","4","4","5","5","5","-1","0","0","1","-2","2","1","1","5","4","4","5","4","4","5","4","4","5","8","8","7","8","6","7","8","7","7","5","3","6","4","4","3","5","2","3","4","4","4","6","4","4","6","4","4","5","4","5","5","6","6","3","5","5","5","6","6","5","6","4","5","5","6","6","5","4","6","732379307938418690","张","533","Male","[""好我"",""坏他"",""好他"",""坏我""]","[""强我"",""弱他"",""强他"",""弱我""]","","","","","","","","yes","","","","","","","","","SRET","EW_formal","","key","j","16.66582258064544","683","380","自己","正气","Positive","morality","","","","","","","","","",""
"4603","","j","psychophysics","71","551235","0.0-7.0-3.0-0.57","5","5","6","5","7","5","4","4","5","5","5","-1","0","0","1","-2","2","1","1","5","4","4","5","4","4","5","4","4","5","8","8","7","8","6","7","8","7","7","5","3","6","4","4","3","5","2","3","4","4","4","6","4","4","6","4","4","5","4","5","5","6","6","3","5","5","5","6","6","5","6","4","5","5","6","6","5","4","6","732379307938418690","张","533","Male","[""好我"",""坏他"",""好他"",""坏我""]","[""强我"",""弱他"",""强他"",""弱我""]","","","","","","","","yes","","","","","","","","","SRET","EW_formal","","key","j","16.66538507462681","683","380","朋友","忠义","Positive","morality","","","","","","","","","",""
"4060","","f","psychophysics","72","556307","0.0-7.0-3.0-0.58","5","5","6","5","7","5","4","4","5","5","5","-1","0","0","1","-2","2","1","1","5","4","4","5","4","4","5","4","4","5","8","8","7","8","6","7","8","7","7","5","3","6","4","4","3","5","2","3","4","4","4","6","4","4","6","4","4","5","4","5","5","6","6","3","5","5","5","6","6","5","6","4","5","5","6","6","5","4","6","732379307938418690","张","533","Male","[""好我"",""坏他"",""好他"",""坏我""]","[""强我"",""弱他"",""强他"",""弱我""]","","","","","","","","no","","","","","","","","","SRET","EW_formal","","key","f","16.665674342105234","683","380","自己","黑心","Negative","morality","","","","","","","","","",""
"10229","","j","psychophysics","73","567541","0.0-7.0-3.0-0.59","5","5","6","5","7","5","4","4","5","5","5","-1","0","0","1","-2","2","1","1","5","4","4","5","4","4","5","4","4","5","8","8","7","8","6","7","8","7","7","5","3","6","4","4","3","5","2","3","4","4","4","6","4","4","6","4","4","5","4","5","5","6","6","3","5","5","5","6","6","5","6","4","5","5","6","6","5","4","6","732379307938418690","张","533","Male","[""好我"",""坏他"",""好他"",""坏我""]","[""强我"",""弱他"",""强他"",""弱我""]","","","","","","","","yes","","","","","","","","","SRET","EW_formal","","key","j","17.123532824427464","683","380","朋友","慷慨","Positive","morality","","","","","","","","","",""
"3912","","f","psychophysics","74","572455","0.0-7.0-3.0-0.60","5","5","6","5","7","5","4","4","5","5","5","-1","0","0","1","-2","2","1","1","5","4","4","5","4","4","5","4","4","5","8","8","7","8","6","7","8","7","7","5","3","6","4","4","3","5","2","3","4","4","4","6","4","4","6","4","4","5","4","5","5","6","6","3","5","5","5","6","6","5","6","4","5","5","6","6","5","4","6","732379307938418690","张","533","Male","[""好我"",""坏他"",""好他"",""坏我""]","[""强我"",""弱他"",""强他"",""弱我""]","","","","","","","","no","","","","","","","","","SRET","EW_formal","","key","f","16.665370748299143","683","380","朋友","背叛","Negative","morality","","","","","","","","","",""
"4349","","f","psychophysics","75","577813","0.0-7.0-3.0-0.61","5","5","6","5","7","5","4","4","5","5","5","-1","0","0","1","-2","2","1","1","5","4","4","5","4","4","5","4","4","5","8","8","7","8","6","7","8","7","7","5","3","6","4","4","3","5","2","3","4","4","4","6","4","4","6","4","4","5","4","5","5","6","6","3","5","5","5","6","6","5","6","4","5","5","6","6","5","4","6","732379307938418690","张","533","Male","[""好我"",""坏他"",""好他"",""坏我""]","[""强我"",""弱他"",""强他"",""弱我""]","","","","","","","","no","","","","","","","","","SRET","EW_formal","","key","f","16.665559375000157","683","380","朋友","无能","Negative","ability","","","","","","","","","",""
"6267","","f","psychophysics","76","585083","0.0-7.0-3.0-0.62","5","5","6","5","7","5","4","4","5","5","5","-1","0","0","1","-2","2","1","1","5","4","4","5","4","4","5","4","4","5","8","8","7","8","6","7","8","7","7","5","3","6","4","4","3","5","2","3","4","4","4","6","4","4","6","4","4","5","4","5","5","6","6","3","5","5","5","6","6","5","6","4","5","5","6","6","5","4","6","732379307938418690","张","533","Male","[""好我"",""坏他"",""好他"",""坏我""]","[""强我"",""弱他"",""强他"",""弱我""]","","","","","","","","no","","","","","","","","","SRET","EW_formal","","key","f","16.665519540229727","683","380","朋友","拖延","Negative","ability","","","","","","","","","",""
"6014","","f","psychophysics","77","592104","0.0-7.0-3.0-0.63","5","5","6","5","7","5","4","4","5","5","5","-1","0","0","1","-2","2","1","1","5","4","4","5","4","4","5","4","4","5","8","8","7","8","6","7","8","7","7","5","3","6","4","4","3","5","2","3","4","4","4","6","4","4","6","4","4","5","4","5","5","6","6","3","5","5","5","6","6","5","6","4","5","5","6","6","5","4","6","732379307938418690","张","533","Male","[""好我"",""坏他"",""好他"",""坏我""]","[""强我"",""弱他"",""强他"",""弱我""]","","","","","","","","no","","","","","","","","","SRET","EW_formal","","key","f","16.705123809523815","683","380","自己","混账","Negative","morality","","","","","","","","","",""
"4133","","j","psychophysics","78","597245","0.0-7.0-3.0-0.64","5","5","6","5","7","5","4","4","5","5","5","-1","0","0","1","-2","2","1","1","5","4","4","5","4","4","5","4","4","5","8","8","7","8","6","7","8","7","7","5","3","6","4","4","3","5","2","3","4","4","4","6","4","4","6","4","4","5","4","5","5","6","6","3","5","5","5","6","6","5","6","4","5","5","6","6","5","4","6","732379307938418690","张","533","Male","[""好我"",""坏他"",""好他"",""坏我""]","[""强我"",""弱他"",""强他"",""弱我""]","","","","","","","","yes","","","","","","","","","SRET","EW_formal","","key","j","16.665550488599422","683","380","朋友","智慧","Positive","ability","","","","","","","","","",""
"6315","","j","psychophysics","79","604563","0.0-7.0-3.0-0.65","5","5","6","5","7","5","4","4","5","5","5","-1","0","0","1","-2","2","1","1","5","4","4","5","4","4","5","4","4","5","8","8","7","8","6","7","8","7","7","5","3","6","4","4","3","5","2","3","4","4","4","6","4","4","6","4","4","5","4","5","5","6","6","3","5","5","5","6","6","5","6","4","5","5","6","6","5","4","6","732379307938418690","张","533","Male","[""好我"",""坏他"",""好他"",""坏我""]","[""强我"",""弱他"",""强他"",""弱我""]","","","","","","","","yes","","","","","","","","","SRET","EW_formal","","key","j","16.703707093821286","683","380","朋友","懂行","Positive","ability","","","","","","","","","",""
"3306","","j","psychophysics","80","608878","0.0-7.0-3.0-0.66","5","5","6","5","7","5","4","4","5","5","5","-1","0","0","1","-2","2","1","1","5","4","4","5","4","4","5","4","4","5","8","8","7","8","6","7","8","7","7","5","3","6","4","4","3","5","2","3","4","4","4","6","4","4","6","4","4","5","4","5","5","6","6","3","5","5","5","6","6","5","6","4","5","5","6","6","5","4","6","732379307938418690","张","533","Male","[""好我"",""坏他"",""好他"",""坏我""]","[""强我"",""弱他"",""强他"",""弱我""]","","","","","","","","yes","","","","","","","","","SRET","EW_formal","","key","j","16.66531007751947","683","380","朋友","刻苦","Positive","ability","","","","","","","","","",""
"3745","","f","psychophysics","81","613626","0.0-7.0-3.0-0.67","5","5","6","5","7","5","4","4","5","5","5","-1","0","0","1","-2","2","1","1","5","4","4","5","4","4","5","4","4","5","8","8","7","8","6","7","8","7","7","5","3","6","4","4","3","5","2","3","4","4","4","6","4","4","6","4","4","5","4","5","5","6","6","3","5","5","5","6","6","5","6","4","5","5","6","6","5","4","6","732379307938418690","张","533","Male","[""好我"",""坏他"",""好他"",""坏我""]","[""强我"",""弱他"",""强他"",""弱我""]","","","","","","","","no","","","","","","","","","SRET","EW_formal","","key","f","16.665633802817034","683","380","朋友","虚假","Negative","morality","","","","","","","","","",""
"4067","","j","psychophysics","82","618703","0.0-7.0-3.0-0.68","5","5","6","5","7","5","4","4","5","5","5","-1","0","0","1","-2","2","1","1","5","4","4","5","4","4","5","4","4","5","8","8","7","8","6","7","8","7","7","5","3","6","4","4","3","5","2","3","4","4","4","6","4","4","6","4","4","5","4","5","5","6","6","3","5","5","5","6","6","5","6","4","5","5","6","6","5","4","6","732379307938418690","张","533","Male","[""好我"",""坏他"",""好他"",""坏我""]","[""强我"",""弱他"",""强他"",""弱我""]","","","","","","","","yes","","","","","","","","","SRET","EW_formal","","key","j","16.66543092105253","683","380","朋友","精干","Positive","ability","","","","","","","","","",""
"4274","","j","psychophysics","83","623987","0.0-7.0-3.0-0.69","5","5","6","5","7","5","4","4","5","5","5","-1","0","0","1","-2","2","1","1","5","4","4","5","4","4","5","4","4","5","8","8","7","8","6","7","8","7","7","5","3","6","4","4","3","5","2","3","4","4","4","6","4","4","6","4","4","5","4","5","5","6","6","3","5","5","5","6","6","5","6","4","5","5","6","6","5","4","6","732379307938418690","张","533","Male","[""好我"",""坏他"",""好他"",""坏我""]","[""强我"",""弱他"",""强他"",""弱我""]","","","","","","","","yes","","","","","","","","","SRET","EW_formal","","key","j","16.66548417721502","683","380","朋友","无私","Positive","morality","","","","","","","","","",""
"7127","","j","psychophysics","84","632120","0.0-7.0-3.0-0.70","5","5","6","5","7","5","4","4","5","5","5","-1","0","0","1","-2","2","1","1","5","4","4","5","4","4","5","4","4","5","8","8","7","8","6","7","8","7","7","5","3","6","4","4","3","5","2","3","4","4","4","6","4","4","6","4","4","5","4","5","5","6","6","3","5","5","5","6","6","5","6","4","5","5","6","6","5","4","6","732379307938418690","张","533","Male","[""好我"",""坏他"",""好他"",""坏我""]","[""强我"",""弱他"",""强他"",""弱我""]","","","","","","","","yes","","","","","","","","","SRET","EW_formal","","key","j","16.66553593429142","683","380","自己","犹豫","Negative","ability","","","","","","","","","",""
"5535","","j","psychophysics","85","638665","0.0-7.0-3.0-0.71","5","5","6","5","7","5","4","4","5","5","5","-1","0","0","1","-2","2","1","1","5","4","4","5","4","4","5","4","4","5","8","8","7","8","6","7","8","7","7","5","3","6","4","4","3","5","2","3","4","4","4","6","4","4","6","4","4","5","4","5","5","6","6","3","5","5","5","6","6","5","6","4","5","5","6","6","5","4","6","732379307938418690","张","533","Male","[""好我"",""坏他"",""好他"",""坏我""]","[""强我"",""弱他"",""强他"",""弱我""]","","","","","","","","yes","","","","","","","","","SRET","EW_formal","","key","j","16.66556265984651","683","380","朋友","廉正","Positive","morality","","","","","","","","","",""
"1168","","j","psychophysics","86","640842","0.0-7.0-3.0-0.72","5","5","6","5","7","5","4","4","5","5","5","-1","0","0","1","-2","2","1","1","5","4","4","5","4","4","5","4","4","5","8","8","7","8","6","7","8","7","7","5","3","6","4","4","3","5","2","3","4","4","4","6","4","4","6","4","4","5","4","5","5","6","6","3","5","5","5","6","6","5","6","4","5","5","6","6","5","4","6","732379307938418690","张","533","Male","[""好我"",""坏他"",""好他"",""坏我""]","[""强我"",""弱他"",""强他"",""弱我""]","","","","","","","","yes","","","","","","","","","SRET","EW_formal","","key","j","16.66550769230727","683","380","朋友","勤恳","Positive","morality","","","","","","","","","",""
"1117","","j","psychophysics","87","642967","0.0-7.0-3.0-0.73","5","5","6","5","7","5","4","4","5","5","5","-1","0","0","1","-2","2","1","1","5","4","4","5","4","4","5","4","4","5","8","8","7","8","6","7","8","7","7","5","3","6","4","4","3","5","2","3","4","4","4","6","4","4","6","4","4","5","4","5","5","6","6","3","5","5","5","6","6","5","6","4","5","5","6","6","5","4","6","732379307938418690","张","533","Male","[""好我"",""坏他"",""好他"",""坏我""]","[""强我"",""弱他"",""强他"",""弱我""]","","","","","","","","yes","","","","","","","","","SRET","EW_formal","","key","j","16.66616666666694","683","380","自己","孝顺","Positive","morality","","","","","","","","","",""
"962","","j","psychophysics","88","644941","0.0-7.0-3.0-0.74","5","5","6","5","7","5","4","4","5","5","5","-1","0","0","1","-2","2","1","1","5","4","4","5","4","4","5","4","4","5","8","8","7","8","6","7","8","7","7","5","3","6","4","4","3","5","2","3","4","4","4","6","4","4","6","4","4","5","4","5","5","6","6","3","5","5","5","6","6","5","6","4","5","5","6","6","5","4","6","732379307938418690","张","533","Male","[""好我"",""坏他"",""好他"",""坏我""]","[""强我"",""弱他"",""强他"",""弱我""]","","","","","","","","yes","","","","","","","","","SRET","EW_formal","","key","j","16.664271186440356","683","380","自己","逞能","Negative","ability","","","","","","","","","",""
"5459","","f","psychophysics","89","651406","0.0-7.0-3.0-0.75","5","5","6","5","7","5","4","4","5","5","5","-1","0","0","1","-2","2","1","1","5","4","4","5","4","4","5","4","4","5","8","8","7","8","6","7","8","7","7","5","3","6","4","4","3","5","2","3","4","4","4","6","4","4","6","4","4","5","4","5","5","6","6","3","5","5","5","6","6","5","6","4","5","5","6","6","5","4","6","732379307938418690","张","533","Male","[""好我"",""坏他"",""好他"",""坏我""]","[""强我"",""弱他"",""强他"",""弱我""]","","","","","","","","no","","","","","","","","","SRET","EW_formal","","key","f","16.70859067357499","683","380","朋友","毛糙","Negative","ability","","","","","","","","","",""
"4762","","j","psychophysics","90","657172","0.0-7.0-3.0-0.76","5","5","6","5","7","5","4","4","5","5","5","-1","0","0","1","-2","2","1","1","5","4","4","5","4","4","5","4","4","5","8","8","7","8","6","7","8","7","7","5","3","6","4","4","3","5","2","3","4","4","4","6","4","4","6","4","4","5","4","5","5","6","6","3","5","5","5","6","6","5","6","4","5","5","6","6","5","4","6","732379307938418690","张","533","Male","[""好我"",""坏他"",""好他"",""坏我""]","[""强我"",""弱他"",""强他"",""弱我""]","","","","","","","","yes","","","","","","","","","SRET","EW_formal","","key","j","16.665715942029045","683","380","自己","业余","Negative","ability","","","","","","","","","",""
"892","","j","psychophysics","91","659070","0.0-7.0-3.0-0.77","5","5","6","5","7","5","4","4","5","5","5","-1","0","0","1","-2","2","1","1","5","4","4","5","4","4","5","4","4","5","8","8","7","8","6","7","8","7","7","5","3","6","4","4","3","5","2","3","4","4","4","6","4","4","6","4","4","5","4","5","5","6","6","3","5","5","5","6","6","5","6","4","5","5","6","6","5","4","6","732379307938418690","张","533","Male","[""好我"",""坏他"",""好他"",""坏我""]","[""强我"",""弱他"",""强他"",""弱我""]","","","","","","","","yes","","","","","","","","","SRET","EW_formal","","key","j","16.665884955752173","683","380","朋友","勤奋","Positive","ability","","","","","","","","","",""
"860","","j","psychophysics","92","660934","0.0-7.0-3.0-0.78","5","5","6","5","7","5","4","4","5","5","5","-1","0","0","1","-2","2","1","1","5","4","4","5","4","4","5","4","4","5","8","8","7","8","6","7","8","7","7","5","3","6","4","4","3","5","2","3","4","4","4","6","4","4","6","4","4","5","4","5","5","6","6","3","5","5","5","6","6","5","6","4","5","5","6","6","5","4","6","732379307938418690","张","533","Male","[""好我"",""坏他"",""好他"",""坏我""]","[""强我"",""弱他"",""强他"",""弱我""]","","","","","","","","yes","","","","","","","","","SRET","EW_formal","","key","j","16.665299999999643","683","380","朋友","君子","Positive","morality","","","","","","","","","",""
"771","","j","psychophysics","93","662709","0.0-7.0-3.0-0.79","5","5","6","5","7","5","4","4","5","5","5","-1","0","0","1","-2","2","1","1","5","4","4","5","4","4","5","4","4","5","8","8","7","8","6","7","8","7","7","5","3","6","4","4","3","5","2","3","4","4","4","6","4","4","6","4","4","5","4","5","5","6","6","3","5","5","5","6","6","5","6","4","5","5","6","6","5","4","6","732379307938418690","张","533","Male","[""好我"",""坏他"",""好他"",""坏我""]","[""强我"",""弱他"",""强他"",""弱我""]","","","","","","","","yes","","","","","","","","","SRET","EW_formal","","key","j","16.665867924528804","683","380","自己","清廉","Positive","morality","","","","","","","","","",""
"2105","","f","psychophysics","94","665821","0.0-7.0-3.0-0.80","5","5","6","5","7","5","4","4","5","5","5","-1","0","0","1","-2","2","1","1","5","4","4","5","4","4","5","4","4","5","8","8","7","8","6","7","8","7","7","5","3","6","4","4","3","5","2","3","4","4","4","6","4","4","6","4","4","5","4","5","5","6","6","3","5","5","5","6","6","5","6","4","5","5","6","6","5","4","6","732379307938418690","张","533","Male","[""好我"",""坏他"",""好他"",""坏我""]","[""强我"",""弱他"",""强他"",""弱我""]","","","","","","","","no","","","","","","","","","SRET","EW_formal","","key","f","16.755270270270145","683","380","朋友","诡诈","Negative","morality","","","","","","","","","",""
"1539","","j","psychophysics","95","668365","0.0-7.0-3.0-0.81","5","5","6","5","7","5","4","4","5","5","5","-1","0","0","1","-2","2","1","1","5","4","4","5","4","4","5","4","4","5","8","8","7","8","6","7","8","7","7","5","3","6","4","4","3","5","2","3","4","4","4","6","4","4","6","4","4","5","4","5","5","6","6","3","5","5","5","6","6","5","6","4","5","5","6","6","5","4","6","732379307938418690","张","533","Male","[""好我"",""坏他"",""好他"",""坏我""]","[""强我"",""弱他"",""强他"",""弱我""]","","","","","","","","yes","","","","","","","","","SRET","EW_formal","","key","j","16.66565562913885","683","380","自己","骁勇","Positive","ability","","","","","","","","","",""
"752","","f","psychophysics","96","670123","0.0-7.0-3.0-0.82","5","5","6","5","7","5","4","4","5","5","5","-1","0","0","1","-2","2","1","1","5","4","4","5","4","4","5","4","4","5","8","8","7","8","6","7","8","7","7","5","3","6","4","4","3","5","2","3","4","4","4","6","4","4","6","4","4","5","4","5","5","6","6","3","5","5","5","6","6","5","6","4","5","5","6","6","5","4","6","732379307938418690","张","533","Male","[""好我"",""坏他"",""好他"",""坏我""]","[""强我"",""弱他"",""强他"",""弱我""]","","","","","","","","no","","","","","","","","","SRET","EW_formal","","key","f","16.82562499999991","683","380","朋友","贪污","Negative","morality","","","","","","","","","",""
"929","","j","psychophysics","97","672059","0.0-7.0-3.0-0.83","5","5","6","5","7","5","4","4","5","5","5","-1","0","0","1","-2","2","1","1","5","4","4","5","4","4","5","4","4","5","8","8","7","8","6","7","8","7","7","5","3","6","4","4","3","5","2","3","4","4","4","6","4","4","6","4","4","5","4","5","5","6","6","3","5","5","5","6","6","5","6","4","5","5","6","6","5","4","6","732379307938418690","张","533","Male","[""好我"",""坏他"",""好他"",""坏我""]","[""强我"",""弱他"",""强他"",""弱我""]","","","","","","","","yes","","","","","","","","","SRET","EW_formal","","key","j","16.81090350877167","683","380","自己","新手","Negative","ability","","","","","","","","","",""
"806","","j","psychophysics","98","673871","0.0-7.0-3.0-0.84","5","5","6","5","7","5","4","4","5","5","5","-1","0","0","1","-2","2","1","1","5","4","4","5","4","4","5","4","4","5","8","8","7","8","6","7","8","7","7","5","3","6","4","4","3","5","2","3","4","4","4","6","4","4","6","4","4","5","4","5","5","6","6","3","5","5","5","6","6","5","6","4","5","5","6","6","5","4","6","732379307938418690","张","533","Male","[""好我"",""坏他"",""好他"",""坏我""]","[""强我"",""弱他"",""强他"",""弱我""]","","","","","","","","yes","","","","","","","","","SRET","EW_formal","","key","j","16.665861111111653","683","380","自己","缓慢","Negative","ability","","","","","","","","","",""
"669","","j","psychophysics","99","675542","0.0-7.0-3.0-0.85","5","5","6","5","7","5","4","4","5","5","5","-1","0","0","1","-2","2","1","1","5","4","4","5","4","4","5","4","4","5","8","8","7","8","6","7","8","7","7","5","3","6","4","4","3","5","2","3","4","4","4","6","4","4","6","4","4","5","4","5","5","6","6","3","5","5","5","6","6","5","6","4","5","5","6","6","5","4","6","732379307938418690","张","533","Male","[""好我"",""坏他"",""好他"",""坏我""]","[""强我"",""弱他"",""强他"",""弱我""]","","","","","","","","yes","","","","","","","","","SRET","EW_formal","","key","j","16.836224489795445","683","380","自己","主见","Positive","ability","","","","","","","","","",""
"867","","f","psychophysics","100","677412","0.0-7.0-3.0-0.86","5","5","6","5","7","5","4","4","5","5","5","-1","0","0","1","-2","2","1","1","5","4","4","5","4","4","5","4","4","5","8","8","7","8","6","7","8","7","7","5","3","6","4","4","3","5","2","3","4","4","4","6","4","4","6","4","4","5","4","5","5","6","6","3","5","5","5","6","6","5","6","4","5","5","6","6","5","4","6","732379307938418690","张","533","Male","[""好我"",""坏他"",""好他"",""坏我""]","[""强我"",""弱他"",""强他"",""弱我""]","","","","","","","","no","","","","","","","","","SRET","EW_formal","","key","f","16.816527272727","683","380","朋友","低俗","Negative","morality","","","","","","","","","",""
"1057","","j","psychophysics","101","679475","0.0-7.0-3.0-0.87","5","5","6","5","7","5","4","4","5","5","5","-1","0","0","1","-2","2","1","1","5","4","4","5","4","4","5","4","4","5","8","8","7","8","6","7","8","7","7","5","3","6","4","4","3","5","2","3","4","4","4","6","4","4","6","4","4","5","4","5","5","6","6","3","5","5","5","6","6","5","6","4","5","5","6","6","5","4","6","732379307938418690","张","533","Male","[""好我"",""坏他"",""好他"",""坏我""]","[""强我"",""弱他"",""强他"",""弱我""]","","","","","","","","yes","","","","","","","","","SRET","EW_formal","","key","j","16.80213114754087","683","380","朋友","素养","Positive","morality","","","","","","","","","",""
"2254","
    <p><div style='color:white;font-size:35px; line-height:20px;'>计算任务</div></p><br>
    <p><div style='color:red;font-size:25px; line-height:20px;'>接下来，您将看到一些四则运算题，<b>请从键盘选择 0-9 进行反应。</b></div></p>
    <p><div style='color:red;font-size:25px; line-height:20px;'>请尽可能快地进行计算，计算的速度和正确率将影响报酬的发放。</div></p>
    <p><div class='footer' style='color:white;font-size:25px; line-height:20px;'>如果对本实验还有不清楚之处，请立即向实验员咨询。</p><p style='color:white;font-size:25px; line-height:20px;'>如果您明白了规则：</p><p style='color:white;font-size:22px; line-height:20px;'>请按 继续 进入练习</p>
    </div>
    ","0","html-button-response","102","681731","0.0-7.0-4.0","5","5","6","5","7","5","4","4","5","5","5","-1","0","0","1","-2","2","1","1","5","4","4","5","4","4","5","4","4","5","8","8","7","8","6","7","8","7","7","5","3","6","4","4","3","5","2","3","4","4","4","6","4","4","6","4","4","5","4","5","5","6","6","3","5","5","5","6","6","5","6","4","5","5","6","6","5","4","6","732379307938418690","张","533","Male","[""好我"",""坏他"",""好他"",""坏我""]","[""强我"",""弱他"",""强他"",""弱我""]","","","","","","","","","","","","","","","","","SRET_math","math_instructions","Sat Nov 25 2023 12:41:51 GMT+0800 (中国标准时间)","","","","","","","","","","","","","","","","","","",""
"2348","","3","psychophysics","103","684098","0.0-7.0-5.0-0.0","5","5","6","5","7","5","4","4","5","5","5","-1","0","0","1","-2","2","1","1","5","4","4","5","4","4","5","4","4","5","8","8","7","8","6","7","8","7","7","5","3","6","4","4","3","5","2","3","4","4","4","6","4","4","6","4","4","5","4","5","5","6","6","3","5","5","5","6","6","5","6","4","5","5","6","6","5","4","6","732379307938418690","张","533","Male","[""好我"",""坏他"",""好他"",""坏我""]","[""强我"",""弱他"",""强他"",""弱我""]","","","","","","","","3","","","","","","","","","SRET","SRET_math_calculate","","key","3","16.665563380281757","683","380","","","","","3*1= ?","3","1","","","","","","",""
"1928","","9","psychophysics","104","686072","0.0-7.0-5.0-0.1","5","5","6","5","7","5","4","4","5","5","5","-1","0","0","1","-2","2","1","1","5","4","4","5","4","4","5","4","4","5","8","8","7","8","6","7","8","7","7","5","3","6","4","4","3","5","2","3","4","4","4","6","4","4","6","4","4","5","4","5","5","6","6","3","5","5","5","6","6","5","6","4","5","5","6","6","5","4","6","732379307938418690","张","533","Male","[""好我"",""坏他"",""好他"",""坏我""]","[""强我"",""弱他"",""强他"",""弱我""]","","","","","","","","9","","","","","","","","","SRET","SRET_math_calculate","","key","9","16.807675213675395","683","380","","","","","1*9= ?","9","1","","","","","","",""
"1959","","6","psychophysics","105","688034","0.0-7.0-5.0-0.2","5","5","6","5","7","5","4","4","5","5","5","-1","0","0","1","-2","2","1","1","5","4","4","5","4","4","5","4","4","5","8","8","7","8","6","7","8","7","7","5","3","6","4","4","3","5","2","3","4","4","4","6","4","4","6","4","4","5","4","5","5","6","6","3","5","5","5","6","6","5","6","4","5","5","6","6","5","4","6","732379307938418690","张","533","Male","[""好我"",""坏他"",""好他"",""坏我""]","[""强我"",""弱他"",""强他"",""弱我""]","","","","","","","","6","","","","","","","","","SRET","SRET_math_calculate","","key","6","16.665820512820122","683","380","","","","","2*3= ?","6","1","","","","","","",""
"1986","","0","psychophysics","106","690023","0.0-7.0-5.0-0.3","5","5","6","5","7","5","4","4","5","5","5","-1","0","0","1","-2","2","1","1","5","4","4","5","4","4","5","4","4","5","8","8","7","8","6","7","8","7","7","5","3","6","4","4","3","5","2","3","4","4","4","6","4","4","6","4","4","5","4","5","5","6","6","3","5","5","5","6","6","5","6","4","5","5","6","6","5","4","6","732379307938418690","张","533","Male","[""好我"",""坏他"",""好他"",""坏我""]","[""强我"",""弱他"",""强他"",""弱我""]","","","","","","","","0","","","","","","","","","SRET","SRET_math_calculate","","key","0","16.665288135593844","683","380","","","","","7*0= ?","0","1","","","","","","",""
"2273","","8","psychophysics","107","692299","0.0-7.0-5.0-0.4","5","5","6","5","7","5","4","4","5","5","5","-1","0","0","1","-2","2","1","1","5","4","4","5","4","4","5","4","4","5","8","8","7","8","6","7","8","7","7","5","3","6","4","4","3","5","2","3","4","4","4","6","4","4","6","4","4","5","4","5","5","6","6","3","5","5","5","6","6","5","6","4","5","5","6","6","5","4","6","732379307938418690","张","533","Male","[""好我"",""坏他"",""好他"",""坏我""]","[""强我"",""弱他"",""强他"",""弱我""]","","","","","","","","8","","","","","","","","","SRET","SRET_math_calculate","","key","8","16.665540740740727","683","380","","","","","5+3= ?","8","1","","","","","","",""
"1935","","5","psychophysics","108","694239","0.0-7.0-5.0-0.5","5","5","6","5","7","5","4","4","5","5","5","-1","0","0","1","-2","2","1","1","5","4","4","5","4","4","5","4","4","5","8","8","7","8","6","7","8","7","7","5","3","6","4","4","3","5","2","3","4","4","4","6","4","4","6","4","4","5","4","5","5","6","6","3","5","5","5","6","6","5","6","4","5","5","6","6","5","4","6","732379307938418690","张","533","Male","[""好我"",""坏他"",""好他"",""坏我""]","[""强我"",""弱他"",""强他"",""弱我""]","","","","","","","","5","","","","","","","","","SRET","SRET_math_calculate","","key","5","16.665448275862406","683","380","","","","","2+3= ?","5","1","","","","","","",""
"1935","","9","psychophysics","109","696176","0.0-7.0-5.0-0.6","5","5","6","5","7","5","4","4","5","5","5","-1","0","0","1","-2","2","1","1","5","4","4","5","4","4","5","4","4","5","8","8","7","8","6","7","8","7","7","5","3","6","4","4","3","5","2","3","4","4","4","6","4","4","6","4","4","5","4","5","5","6","6","3","5","5","5","6","6","5","6","4","5","5","6","6","5","4","6","732379307938418690","张","533","Male","[""好我"",""坏他"",""好他"",""坏我""]","[""强我"",""弱他"",""强他"",""弱我""]","","","","","","","","9","","","","","","","","","SRET","SRET_math_calculate","","key","9","16.66544347826047","683","380","","","","","4+5= ?","9","1","","","","","","",""
"1940","","0","psychophysics","110","698152","0.0-7.0-5.0-0.7","5","5","6","5","7","5","4","4","5","5","5","-1","0","0","1","-2","2","1","1","5","4","4","5","4","4","5","4","4","5","8","8","7","8","6","7","8","7","7","5","3","6","4","4","3","5","2","3","4","4","4","6","4","4","6","4","4","5","4","5","5","6","6","3","5","5","5","6","6","5","6","4","5","5","6","6","5","4","6","732379307938418690","张","533","Male","[""好我"",""坏他"",""好他"",""坏我""]","[""强我"",""弱他"",""强他"",""弱我""]","","","","","","","","0","","","","","","","","","SRET","SRET_math_calculate","","key","0","16.665381355932322","683","380","","","","","5*0= ?","0","1","","","","","","",""
"2464","","5","psychophysics","111","700618","0.0-7.0-5.0-0.8","5","5","6","5","7","5","4","4","5","5","5","-1","0","0","1","-2","2","1","1","5","4","4","5","4","4","5","4","4","5","8","8","7","8","6","7","8","7","7","5","3","6","4","4","3","5","2","3","4","4","4","6","4","4","6","4","4","5","4","5","5","6","6","3","5","5","5","6","6","5","6","4","5","5","6","6","5","4","6","732379307938418690","张","533","Male","[""好我"",""坏他"",""好他"",""坏我""]","[""强我"",""弱他"",""强他"",""弱我""]","","","","","","","","5","","","","","","","","","SRET","SRET_math_calculate","","key","5","16.665904761905004","683","380","","","","","14-9= ?","5","1","","","","","","",""
"1900","","5","psychophysics","112","702552","0.0-7.0-5.0-0.9","5","5","6","5","7","5","4","4","5","5","5","-1","0","0","1","-2","2","1","1","5","4","4","5","4","4","5","4","4","5","8","8","7","8","6","7","8","7","7","5","3","6","4","4","3","5","2","3","4","4","4","6","4","4","6","4","4","5","4","5","5","6","6","3","5","5","5","6","6","5","6","4","5","5","6","6","5","4","6","732379307938418690","张","533","Male","[""好我"",""坏他"",""好他"",""坏我""]","[""强我"",""弱他"",""强他"",""弱我""]","","","","","","","","5","","","","","","","","","SRET","SRET_math_calculate","","key","5","16.664913043477977","683","380","","","","","12-7= ?","5","1","","","","","","",""
"2054","","8","psychophysics","113","704608","0.0-7.0-5.0-0.10","5","5","6","5","7","5","4","4","5","5","5","-1","0","0","1","-2","2","1","1","5","4","4","5","4","4","5","4","4","5","8","8","7","8","6","7","8","7","7","5","3","6","4","4","3","5","2","3","4","4","4","6","4","4","6","4","4","5","4","5","5","6","6","3","5","5","5","6","6","5","6","4","5","5","6","6","5","4","6","732379307938418690","张","533","Male","[""好我"",""坏他"",""好他"",""坏我""]","[""强我"",""弱他"",""强他"",""弱我""]","","","","","","","","8","","","","","","","","","SRET","SRET_math_calculate","","key","8","16.66595081967153","683","380","","","","","11-3= ?","8","1","","","","","","",""
"1856","","7","psychophysics","114","706467","0.0-7.0-5.0-0.11","5","5","6","5","7","5","4","4","5","5","5","-1","0","0","1","-2","2","1","1","5","4","4","5","4","4","5","4","4","5","8","8","7","8","6","7","8","7","7","5","3","6","4","4","3","5","2","3","4","4","4","6","4","4","6","4","4","5","4","5","5","6","6","3","5","5","5","6","6","5","6","4","5","5","6","6","5","4","6","732379307938418690","张","533","Male","[""好我"",""坏他"",""好他"",""坏我""]","[""强我"",""弱他"",""强他"",""弱我""]","","","","","","","","7","","","","","","","","","SRET","SRET_math_calculate","","key","7","16.665531531531105","683","380","","","","","4+3= ?","7","1","","","","","","",""
"2073","","3","psychophysics","115","708544","0.0-7.0-5.0-0.12","5","5","6","5","7","5","4","4","5","5","5","-1","0","0","1","-2","2","1","1","5","4","4","5","4","4","5","4","4","5","8","8","7","8","6","7","8","7","7","5","3","6","4","4","3","5","2","3","4","4","4","6","4","4","6","4","4","5","4","5","5","6","6","3","5","5","5","6","6","5","6","4","5","5","6","6","5","4","6","732379307938418690","张","533","Male","[""好我"",""坏他"",""好他"",""坏我""]","[""强我"",""弱他"",""强他"",""弱我""]","","","","","","","","3","","","","","","","","","SRET","SRET_math_calculate","","key","3","16.80202459016353","683","380","","","","","3+0= ?","3","1","","","","","","",""
"2015","","7","psychophysics","116","710568","0.0-7.0-5.0-0.13","5","5","6","5","7","5","4","4","5","5","5","-1","0","0","1","-2","2","1","1","5","4","4","5","4","4","5","4","4","5","8","8","7","8","6","7","8","7","7","5","3","6","4","4","3","5","2","3","4","4","4","6","4","4","6","4","4","5","4","5","5","6","6","3","5","5","5","6","6","5","6","4","5","5","6","6","5","4","6","732379307938418690","张","533","Male","[""好我"",""坏他"",""好他"",""坏我""]","[""强我"",""弱他"",""强他"",""弱我""]","","","","","","","","7","","","","","","","","","SRET","SRET_math_calculate","","key","7","16.66524793388426","683","380","","","","","11-4= ?","7","1","","","","","","",""
"1962","","9","psychophysics","117","712533","0.0-7.0-5.0-0.14","5","5","6","5","7","5","4","4","5","5","5","-1","0","0","1","-2","2","1","1","5","4","4","5","4","4","5","4","4","5","8","8","7","8","6","7","8","7","7","5","3","6","4","4","3","5","2","3","4","4","4","6","4","4","6","4","4","5","4","5","5","6","6","3","5","5","5","6","6","5","6","4","5","5","6","6","5","4","6","732379307938418690","张","533","Male","[""好我"",""坏他"",""好他"",""坏我""]","[""强我"",""弱他"",""强他"",""弱我""]","","","","","","","","9","","","","","","","","","SRET","SRET_math_calculate","","key","9","16.665837606837034","683","380","","","","","6+3= ?","9","1","","","","","","",""
"2116","","8","psychophysics","118","714652","0.0-7.0-5.0-0.15","5","5","6","5","7","5","4","4","5","5","5","-1","0","0","1","-2","2","1","1","5","4","4","5","4","4","5","4","4","5","8","8","7","8","6","7","8","7","7","5","3","6","4","4","3","5","2","3","4","4","4","6","4","4","6","4","4","5","4","5","5","6","6","3","5","5","5","6","6","5","6","4","5","5","6","6","5","4","6","732379307938418690","张","533","Male","[""好我"",""坏他"",""好他"",""坏我""]","[""强我"",""弱他"",""强他"",""弱我""]","","","","","","","","8","","","","","","","","","SRET","SRET_math_calculate","","key","8","16.66596031746003","683","380","","","","","4*2= ?","8","1","","","","","","",""
"2014","","7","psychophysics","119","716699","0.0-7.0-5.0-0.16","5","5","6","5","7","5","4","4","5","5","5","-1","0","0","1","-2","2","1","1","5","4","4","5","4","4","5","4","4","5","8","8","7","8","6","7","8","7","7","5","3","6","4","4","3","5","2","3","4","4","4","6","4","4","6","4","4","5","4","5","5","6","6","3","5","5","5","6","6","5","6","4","5","5","6","6","5","4","6","732379307938418690","张","533","Male","[""好我"",""坏他"",""好他"",""坏我""]","[""强我"",""弱他"",""强他"",""弱我""]","","","","","","","","7","","","","","","","","","SRET","SRET_math_calculate","","key","7","16.803892561983055","683","380","","","","","49/7 = ?","7","1","","","","","","",""
"2112","","8","psychophysics","120","718818","0.0-7.0-5.0-0.17","5","5","6","5","7","5","4","4","5","5","5","-1","0","0","1","-2","2","1","1","5","4","4","5","4","4","5","4","4","5","8","8","7","8","6","7","8","7","7","5","3","6","4","4","3","5","2","3","4","4","4","6","4","4","6","4","4","5","4","5","5","6","6","3","5","5","5","6","6","5","6","4","5","5","6","6","5","4","6","732379307938418690","张","533","Male","[""好我"",""坏他"",""好他"",""坏我""]","[""强我"",""弱他"",""强他"",""弱我""]","","","","","","","","8","","","","","","","","","SRET","SRET_math_calculate","","key","8","16.6658730158732","683","380","","","","","8*1= ?","8","1","","","","","","",""
"1995","","2","psychophysics","121","720816","0.0-7.0-5.0-0.18","5","5","6","5","7","5","4","4","5","5","5","-1","0","0","1","-2","2","1","1","5","4","4","5","4","4","5","4","4","5","8","8","7","8","6","7","8","7","7","5","3","6","4","4","3","5","2","3","4","4","4","6","4","4","6","4","4","5","4","5","5","6","6","3","5","5","5","6","6","5","6","4","5","5","6","6","5","4","6","732379307938418690","张","533","Male","[""好我"",""坏他"",""好他"",""坏我""]","[""强我"",""弱他"",""强他"",""弱我""]","","","","","","","","2","","","","","","","","","SRET","SRET_math_calculate","","key","2","16.66586554621859","683","380","","","","","9-7= ?","2","1","","","","","","",""
"2014","","5","psychophysics","122","722833","0.0-7.0-5.0-0.19","5","5","6","5","7","5","4","4","5","5","5","-1","0","0","1","-2","2","1","1","5","4","4","5","4","4","5","4","4","5","8","8","7","8","6","7","8","7","7","5","3","6","4","4","3","5","2","3","4","4","4","6","4","4","6","4","4","5","4","5","5","6","6","3","5","5","5","6","6","5","6","4","5","5","6","6","5","4","6","732379307938418690","张","533","Male","[""好我"",""坏他"",""好他"",""坏我""]","[""强我"",""弱他"",""强他"",""弱我""]","","","","","","","","5","","","","","","","","","SRET","SRET_math_calculate","","key","5","16.665733333333627","683","380","","","","","17-12= ? ","5","1","","","","","","",""
"2170","","8","psychophysics","123","725008","0.0-7.0-5.0-0.20","5","5","6","5","7","5","4","4","5","5","5","-1","0","0","1","-2","2","1","1","5","4","4","5","4","4","5","4","4","5","8","8","7","8","6","7","8","7","7","5","3","6","4","4","3","5","2","3","4","4","4","6","4","4","6","4","4","5","4","5","5","6","6","3","5","5","5","6","6","5","6","4","5","5","6","6","5","4","6","732379307938418690","张","533","Male","[""好我"",""坏他"",""好他"",""坏我""]","[""强我"",""弱他"",""强他"",""弱我""]","","","","","","","","8","","","","","","","","","SRET","SRET_math_calculate","","key","8","16.665782945736876","683","380","","","","","13-5= ?","8","1","","","","","","",""
"2078","","7","psychophysics","124","727088","0.0-7.0-5.0-0.21","5","5","6","5","7","5","4","4","5","5","5","-1","0","0","1","-2","2","1","1","5","4","4","5","4","4","5","4","4","5","8","8","7","8","6","7","8","7","7","5","3","6","4","4","3","5","2","3","4","4","4","6","4","4","6","4","4","5","4","5","5","6","6","3","5","5","5","6","6","5","6","4","5","5","6","6","5","4","6","732379307938418690","张","533","Male","[""好我"",""坏他"",""好他"",""坏我""]","[""强我"",""弱他"",""强他"",""弱我""]","","","","","","","","7","","","","","","","","","SRET","SRET_math_calculate","","key","7","16.666249999999923","683","380","","","","","8-1= ?","7","1","","","","","","",""
"2014","","2","psychophysics","125","729104","0.0-7.0-5.0-0.22","5","5","6","5","7","5","4","4","5","5","5","-1","0","0","1","-2","2","1","1","5","4","4","5","4","4","5","4","4","5","8","8","7","8","6","7","8","7","7","5","3","6","4","4","3","5","2","3","4","4","4","6","4","4","6","4","4","5","4","5","5","6","6","3","5","5","5","6","6","5","6","4","5","5","6","6","5","4","6","732379307938418690","张","533","Male","[""好我"",""坏他"",""好他"",""坏我""]","[""强我"",""弱他"",""强他"",""弱我""]","","","","","","","","2","","","","","","","","","SRET","SRET_math_calculate","","key","2","16.66553333333383","683","380","","","","","8/4= ?","2","1","","","","","","",""
"1917","","3","psychophysics","126","731024","0.0-7.0-5.0-0.23","5","5","6","5","7","5","4","4","5","5","5","-1","0","0","1","-2","2","1","1","5","4","4","5","4","4","5","4","4","5","8","8","7","8","6","7","8","7","7","5","3","6","4","4","3","5","2","3","4","4","4","6","4","4","6","4","4","5","4","5","5","6","6","3","5","5","5","6","6","5","6","4","5","5","6","6","5","4","6","732379307938418690","张","533","Male","[""好我"",""坏他"",""好他"",""坏我""]","[""强我"",""弱他"",""强他"",""弱我""]","","","","","","","","3","","","","","","","","","SRET","SRET_math_calculate","","key","3","16.665692982456868","683","380","","","","","1+2= ?","3","1","","","","","","",""
"2225","","3","psychophysics","127","733288","0.0-7.0-5.0-0.24","5","5","6","5","7","5","4","4","5","5","5","-1","0","0","1","-2","2","1","1","5","4","4","5","4","4","5","4","4","5","8","8","7","8","6","7","8","7","7","5","3","6","4","4","3","5","2","3","4","4","4","6","4","4","6","4","4","5","4","5","5","6","6","3","5","5","5","6","6","5","6","4","5","5","6","6","5","4","6","732379307938418690","张","533","Male","[""好我"",""坏他"",""好他"",""坏我""]","[""强我"",""弱他"",""强他"",""弱我""]","","","","","","","","3","","","","","","","","","SRET","SRET_math_calculate","","key","3","16.790126865671482","683","380","","","","","6/2= ?","3","1","","","","","","",""
"1944","","5","psychophysics","128","735266","0.0-7.0-5.0-0.25","5","5","6","5","7","5","4","4","5","5","5","-1","0","0","1","-2","2","1","1","5","4","4","5","4","4","5","4","4","5","8","8","7","8","6","7","8","7","7","5","3","6","4","4","3","5","2","3","4","4","4","6","4","4","6","4","4","5","4","5","5","6","6","3","5","5","5","6","6","5","6","4","5","5","6","6","5","4","6","732379307938418690","张","533","Male","[""好我"",""坏他"",""好他"",""坏我""]","[""强我"",""弱他"",""强他"",""弱我""]","","","","","","","","5","","","","","","","","","SRET","SRET_math_calculate","","key","5","16.665093220338242","683","380","","","","","5/1= ?","5","1","","","","","","",""
"1866","","2","psychophysics","129","737136","0.0-7.0-5.0-0.26","5","5","6","5","7","5","4","4","5","5","5","-1","0","0","1","-2","2","1","1","5","4","4","5","4","4","5","4","4","5","8","8","7","8","6","7","8","7","7","5","3","6","4","4","3","5","2","3","4","4","4","6","4","4","6","4","4","5","4","5","5","6","6","3","5","5","5","6","6","5","6","4","5","5","6","6","5","4","6","732379307938418690","张","533","Male","[""好我"",""坏他"",""好他"",""坏我""]","[""强我"",""弱他"",""强他"",""弱我""]","","","","","","","","2","","","","","","","","","SRET","SRET_math_calculate","","key","2","16.66505405405402","683","380","","","","","29-27= ?","2","1","","","","","","",""
"1948","","6","psychophysics","130","739131","0.0-7.0-5.0-0.27","5","5","6","5","7","5","4","4","5","5","5","-1","0","0","1","-2","2","1","1","5","4","4","5","4","4","5","4","4","5","8","8","7","8","6","7","8","7","7","5","3","6","4","4","3","5","2","3","4","4","4","6","4","4","6","4","4","5","4","5","5","6","6","3","5","5","5","6","6","5","6","4","5","5","6","6","5","4","6","732379307938418690","张","533","Male","[""好我"",""坏他"",""好他"",""坏我""]","[""强我"",""弱他"",""强他"",""弱我""]","","","","","","","","6","","","","","","","","","SRET","SRET_math_calculate","","key","6","16.807000000000205","683","380","","","","","5+1= ?","6","1","","","","","","",""
"2384","","9","psychophysics","131","741520","0.0-7.0-5.0-0.28","5","5","6","5","7","5","4","4","5","5","5","-1","0","0","1","-2","2","1","1","5","4","4","5","4","4","5","4","4","5","8","8","7","8","6","7","8","7","7","5","3","6","4","4","3","5","2","3","4","4","4","6","4","4","6","4","4","5","4","5","5","6","6","3","5","5","5","6","6","5","6","4","5","5","6","6","5","4","6","732379307938418690","张","533","Male","[""好我"",""坏他"",""好他"",""坏我""]","[""强我"",""弱他"",""强他"",""弱我""]","","","","","","","","9","","","","","","","","","SRET","SRET_math_calculate","","key","9","16.66560563380243","683","380","","","","","43-34= ?","9","1","","","","","","",""
"2061","","6","psychophysics","132","743584","0.0-7.0-5.0-0.29","5","5","6","5","7","5","4","4","5","5","5","-1","0","0","1","-2","2","1","1","5","4","4","5","4","4","5","4","4","5","8","8","7","8","6","7","8","7","7","5","3","6","4","4","3","5","2","3","4","4","4","6","4","4","6","4","4","5","4","5","5","6","6","3","5","5","5","6","6","5","6","4","5","5","6","6","5","4","6","732379307938418690","张","533","Male","[""好我"",""坏他"",""好他"",""坏我""]","[""强我"",""弱他"",""强他"",""弱我""]","","","","","","","","6","","","","","","","","","SRET","SRET_math_calculate","","key","6","16.665902439024055","683","380","","","","","3*2= ?","6","1","","","","","","",""
"1948","","6","psychophysics","133","745536","0.0-7.0-5.0-0.30","5","5","6","5","7","5","4","4","5","5","5","-1","0","0","1","-2","2","1","1","5","4","4","5","4","4","5","4","4","5","8","8","7","8","6","7","8","7","7","5","3","6","4","4","3","5","2","3","4","4","4","6","4","4","6","4","4","5","4","5","5","6","6","3","5","5","5","6","6","5","6","4","5","5","6","6","5","4","6","732379307938418690","张","533","Male","[""好我"",""坏他"",""好他"",""坏我""]","[""强我"",""弱他"",""强他"",""弱我""]","","","","","","","","6","","","","","","","","","SRET","SRET_math_calculate","","key","6","16.66611206896527","683","380","","","","","4+2= ?","6","1","","","","","","",""
"2006","","8","psychophysics","134","747545","0.0-7.0-5.0-0.31","5","5","6","5","7","5","4","4","5","5","5","-1","0","0","1","-2","2","1","1","5","4","4","5","4","4","5","4","4","5","8","8","7","8","6","7","8","7","7","5","3","6","4","4","3","5","2","3","4","4","4","6","4","4","6","4","4","5","4","5","5","6","6","3","5","5","5","6","6","5","6","4","5","5","6","6","5","4","6","732379307938418690","张","533","Male","[""好我"",""坏他"",""好他"",""坏我""]","[""强我"",""弱他"",""强他"",""弱我""]","","","","","","","","8","","","","","","","","","SRET","SRET_math_calculate","","key","8","16.80655932203389","683","380","","","","","3+5= ?","8","1","","","","","","",""
"2203","","7","psychophysics","135","749792","0.0-7.0-5.0-0.32","5","5","6","5","7","5","4","4","5","5","5","-1","0","0","1","-2","2","1","1","5","4","4","5","4","4","5","4","4","5","8","8","7","8","6","7","8","7","7","5","3","6","4","4","3","5","2","3","4","4","4","6","4","4","6","4","4","5","4","5","5","6","6","3","5","5","5","6","6","5","6","4","5","5","6","6","5","4","6","732379307938418690","张","533","Male","[""好我"",""坏他"",""好他"",""坏我""]","[""强我"",""弱他"",""强他"",""弱我""]","","","","","","","","7","","","","","","","","","SRET","SRET_math_calculate","","key","7","16.790954887218373","683","380","","","","","6+1= ?","7","1","","","","","","",""
"2262","","9","psychophysics","136","752065","0.0-7.0-5.0-0.33","5","5","6","5","7","5","4","4","5","5","5","-1","0","0","1","-2","2","1","1","5","4","4","5","4","4","5","4","4","5","8","8","7","8","6","7","8","7","7","5","3","6","4","4","3","5","2","3","4","4","4","6","4","4","6","4","4","5","4","5","5","6","6","3","5","5","5","6","6","5","6","4","5","5","6","6","5","4","6","732379307938418690","张","533","Male","[""好我"",""坏他"",""好他"",""坏我""]","[""强我"",""弱他"",""强他"",""弱我""]","","","","","","","","9","","","","","","","","","SRET","SRET_math_calculate","","key","9","16.665617647058646","683","380","","","","","2+7= ?","9","1","","","","","","",""
"2018","","5","psychophysics","137","754087","0.0-7.0-5.0-0.34","5","5","6","5","7","5","4","4","5","5","5","-1","0","0","1","-2","2","1","1","5","4","4","5","4","4","5","4","4","5","8","8","7","8","6","7","8","7","7","5","3","6","4","4","3","5","2","3","4","4","4","6","4","4","6","4","4","5","4","5","5","6","6","3","5","5","5","6","6","5","6","4","5","5","6","6","5","4","6","732379307938418690","张","533","Male","[""好我"",""坏他"",""好他"",""坏我""]","[""强我"",""弱他"",""强他"",""弱我""]","","","","","","","","5","","","","","","","","","SRET","SRET_math_calculate","","key","5","16.665208333332945","683","380","","","","","3+2= ?","5","1","","","","","","",""
"1840","","7","psychophysics","138","755929","0.0-7.0-5.0-0.35","5","5","6","5","7","5","4","4","5","5","5","-1","0","0","1","-2","2","1","1","5","4","4","5","4","4","5","4","4","5","8","8","7","8","6","7","8","7","7","5","3","6","4","4","3","5","2","3","4","4","4","6","4","4","6","4","4","5","4","5","5","6","6","3","5","5","5","6","6","5","6","4","5","5","6","6","5","4","6","732379307938418690","张","533","Male","[""好我"",""坏他"",""好他"",""坏我""]","[""强我"",""弱他"",""强他"",""弱我""]","","","","","","","","7","","","","","","","","","SRET","SRET_math_calculate","","key","7","16.66514678899126","683","380","","","","","7*1=  ?","7","1","","","","","","",""
"1902","","2","psychophysics","139","757865","0.0-7.0-5.0-0.36","5","5","6","5","7","5","4","4","5","5","5","-1","0","0","1","-2","2","1","1","5","4","4","5","4","4","5","4","4","5","8","8","7","8","6","7","8","7","7","5","3","6","4","4","3","5","2","3","4","4","4","6","4","4","6","4","4","5","4","5","5","6","6","3","5","5","5","6","6","5","6","4","5","5","6","6","5","4","6","732379307938418690","张","533","Male","[""好我"",""坏他"",""好他"",""坏我""]","[""强我"",""弱他"",""强他"",""弱我""]","","","","","","","","2","","","","","","","","","SRET","SRET_math_calculate","","key","2","16.810782608695572","683","380","","","","","19-17= ?","2","1","","","","","","",""
"2365","","3","psychophysics","140","760232","0.0-7.0-5.0-0.37","5","5","6","5","7","5","4","4","5","5","5","-1","0","0","1","-2","2","1","1","5","4","4","5","4","4","5","4","4","5","8","8","7","8","6","7","8","7","7","5","3","6","4","4","3","5","2","3","4","4","4","6","4","4","6","4","4","5","4","5","5","6","6","3","5","5","5","6","6","5","6","4","5","5","6","6","5","4","6","732379307938418690","张","533","Male","[""好我"",""坏他"",""好他"",""坏我""]","[""强我"",""弱他"",""强他"",""弱我""]","","","","","","","","3","","","","","","","","","SRET","SRET_math_calculate","","key","3","16.665120567375933","683","380","","","","","12/4= ?","3","1","","","","","","",""
"1880","","7","psychophysics","141","762114","0.0-7.0-5.0-0.38","5","5","6","5","7","5","4","4","5","5","5","-1","0","0","1","-2","2","1","1","5","4","4","5","4","4","5","4","4","5","8","8","7","8","6","7","8","7","7","5","3","6","4","4","3","5","2","3","4","4","4","6","4","4","6","4","4","5","4","5","5","6","6","3","5","5","5","6","6","5","6","4","5","5","6","6","5","4","6","732379307938418690","张","533","Male","[""好我"",""坏他"",""好他"",""坏我""]","[""强我"",""弱他"",""强他"",""弱我""]","","","","","","","","7","","","","","","","","","SRET","SRET_math_calculate","","key","7","16.66603571428589","683","380","","","","","3+4= ?","7","1","","","","","","",""
"2045","","5","psychophysics","142","764195","0.0-7.0-5.0-0.39","5","5","6","5","7","5","4","4","5","5","5","-1","0","0","1","-2","2","1","1","5","4","4","5","4","4","5","4","4","5","8","8","7","8","6","7","8","7","7","5","3","6","4","4","3","5","2","3","4","4","4","6","4","4","6","4","4","5","4","5","5","6","6","3","5","5","5","6","6","5","6","4","5","5","6","6","5","4","6","732379307938418690","张","533","Male","[""好我"",""坏他"",""好他"",""坏我""]","[""强我"",""弱他"",""强他"",""弱我""]","","","","","","","","5","","","","","","","","","SRET","SRET_math_calculate","","key","5","16.665552845528552","683","380","","","","","4+1= ?","5","1","","","","","","",""
"1969","","3","psychophysics","143","766193","0.0-7.0-5.0-0.40","5","5","6","5","7","5","4","4","5","5","5","-1","0","0","1","-2","2","1","1","5","4","4","5","4","4","5","4","4","5","8","8","7","8","6","7","8","7","7","5","3","6","4","4","3","5","2","3","4","4","4","6","4","4","6","4","4","5","4","5","5","6","6","3","5","5","5","6","6","5","6","4","5","5","6","6","5","4","6","732379307938418690","张","533","Male","[""好我"",""坏他"",""好他"",""坏我""]","[""强我"",""弱他"",""强他"",""弱我""]","","","","","","","","3","","","","","","","","","SRET","SRET_math_calculate","","key","3","16.666277310923487","683","380","","","","","21/7=  ?","3","1","","","","","","",""
"2114","","2","psychophysics","144","768336","0.0-7.0-5.0-0.41","5","5","6","5","7","5","4","4","5","5","5","-1","0","0","1","-2","2","1","1","5","4","4","5","4","4","5","4","4","5","8","8","7","8","6","7","8","7","7","5","3","6","4","4","3","5","2","3","4","4","4","6","4","4","6","4","4","5","4","5","5","6","6","3","5","5","5","6","6","5","6","4","5","5","6","6","5","4","6","732379307938418690","张","533","Male","[""好我"",""坏他"",""好他"",""坏我""]","[""强我"",""弱他"",""强他"",""弱我""]","","","","","","","","2","","","","","","","","","SRET","SRET_math_calculate","","key","2","16.66600781249963","683","380","","","","","90/45= ?","2","1","","","","","","",""
