"rt","stimulus","response","trial_type","trial_index","time_elapsed","internal_node_id","swb_1","swb_2","swb_3","swb_4","swb_5","LOT_1","LOT_2","LOT_3","LOT_4","LOT_5","LOT_6","IPC_1","IPC_2","IPC_3","IPC_4","IPC_5","IPC_6","IPC_7","IPC_8","MorIden_1","MorIden_2","MorIden_3","MorIden_4","MorIden_5","MorIden_6","MorIden_7","MorIden_8","MorIden_9","MorIden_10","moralSeImag_1","moralSeImag_2","moralSeImag_3","moralSeImag_4","moralSeImag_5","moralSeImag_6","moralSeImag_7","moralSeImag_8","moralSeImag_9","sde_1","sde_2","sde_3","sde_4","sde_5","sde_6","sde_7","sde_8","sde_9","sde_10","sde_11","sde_12","sde_13","sde_14","sde_15","sde_16","sde_17","sde_18","sde_19","sde_20","IM_1","IM_2","IM_3","IM_4","IM_5","IM_6","IM_7","IM_8","IM_9","IM_10","IM_11","IM_12","IM_13","IM_14","IM_15","IM_16","IM_17","IM_18","IM_19","IM_20","subj_idx","friend_name","ParticipantID","Sex","Word","Word2","value","success","timeout","failed_images","failed_audio","failed_video","user_agent","responses","item_order","radio_event_ids","radio_event_times","key_event_times","mouse_event_times","straightlining","zigzagging","honeypot","view_history","response_type","key_press","avg_frame_time","center_x","center_y","correct_response","correct","identity","Image","word","condition","task_id","screen_id","time_stamp","person","valence","domain","math","status","duration","question_order"
"7949","
   <p><div style='color:white; font-size: 25px'>您好，欢迎参加本次实验。</div></p>
   <p><div style='color:white; font-size: 25px'>为充分保障您的权利，请确保您已经知晓并同意《参与实验同意书》以及《数据公开知情同意书》。</div></p>
   <p><div style='color:white; font-size: 25px'>如果您未见过上述内容，请咨询实验员。</div></p>
   <p style='color:white; font-size: 25px'>如果您选择继续实验，则表示您已经清楚两份知情同意书的内容并同意。</p>
   <p><div style = ""color: red;font-size:30px;"">请确保您记得day0的实验编号，您将在本次实验输入该编号，若您忘记，请咨询实验员后作答。</div></p>
   <p> <div style = ""color: green""><按空格键至下页></div> </p>
   "," ","html-keyboard-response","0","7950","0.0-0.0","6","5","7","5","5","4","3","5","4","4","4","1","0","1","0","0","1","2","0","4","5","5","5","4","3","4","4","4","3","6","5","6","7","5","6","6","7","7","6","5","4","6","5","3","4","4","5","5","3","2","5","3","6","5","3","4","5","5","4","6","5","6","6","7","4","6","5","6","7","6","6","5","5","6","5","6","5","6","768804353862799361","李","668","Female","[""坏她"",""坏我"",""好我"",""好她""]","[""弱她"",""弱我"",""强我"",""强她""]","","","","","","","","","","","","","","","","","","","","","","","","","","","","","","","","","","","","","",""
"","","","call-function","1","7952","0.0-1.0-0.0","6","5","7","5","5","4","3","5","4","4","4","1","0","1","0","0","1","2","0","4","5","5","5","4","3","4","4","4","3","6","5","6","7","5","6","6","7","7","6","5","4","6","5","3","4","4","5","5","3","2","5","3","6","5","3","4","5","5","4","6","5","6","6","7","4","6","5","6","7","6","6","5","5","6","5","6","5","6","768804353862799361","李","668","Female","[""坏她"",""坏我"",""好我"",""好她""]","[""弱她"",""弱我"",""强我"",""强她""]","","","","","","","","","","","","","","","","","","","","","","","","","","","","","","","","","","","","","",""
"32401","","[{""name"":""Sex"",""value"":""1""},{""name"":""friend_name"",""value"":""李""},{""name"":""ParticipantID"",""value"":""668""}]","survey-html-form","2","40353","0.0-1.0-1.0","6","5","7","5","5","4","3","5","4","4","4","1","0","1","0","0","1","2","0","4","5","5","5","4","3","4","4","4","3","6","5","6","7","5","6","6","7","7","6","5","4","6","5","3","4","4","5","5","3","2","5","3","6","5","3","4","5","5","4","6","5","6","6","7","4","6","5","6","7","6","6","5","5","6","5","6","5","6","768804353862799361","李","668","Female","[""坏她"",""坏我"",""好我"",""好她""]","[""弱她"",""弱我"",""强我"",""强她""]","","","","","","","","","","","","","","","","","","","","","","","","","","","","","","","","","","","","","",""
"","","","preload","3","40900","0.0-2.0","6","5","7","5","5","4","3","5","4","4","4","1","0","1","0","0","1","2","0","4","5","5","5","4","3","4","4","4","3","6","5","6","7","5","6","6","7","7","6","5","4","6","5","3","4","4","5","5","3","2","5","3","6","5","3","4","5","5","4","6","5","6","6","7","4","6","5","6","7","6","6","5","5","6","5","6","5","6","768804353862799361","李","668","Female","[""坏她"",""坏我"",""好我"",""好她""]","[""弱她"",""弱我"",""强我"",""强她""]","","true","false","[]","[]","[]","","","","","","","","","","","","","","","","","","","","","","","","","","","","","","","",""
"","","","fullscreen","4","52263","0.0-3.0","6","5","7","5","5","4","3","5","4","4","4","1","0","1","0","0","1","2","0","4","5","5","5","4","3","4","4","4","3","6","5","6","7","5","6","6","7","7","6","5","4","6","5","3","4","4","5","5","3","2","5","3","6","5","3","4","5","5","4","6","5","6","6","7","4","6","5","6","7","6","6","5","5","6","5","6","5","6","768804353862799361","李","668","Female","[""坏她"",""坏我"",""好我"",""好她""]","[""弱她"",""弱我"",""强我"",""强她""]","","true","","","","","{}","","","","","","","","","","","","","","","","","","","","","","","","","","","","","","",""
"22260.19999998808","","{""Q01"":""6"",""Q02"":""5"",""Q03"":""7"",""Q04"":""5"",""Q05"":""5""}","survey-template","5","74524","0.0-4.0","6","5","7","5","5","4","3","5","4","4","4","1","0","1","0","0","1","2","0","4","5","5","5","4","3","4","4","4","3","6","5","6","7","5","6","6","7","7","6","5","4","6","5","3","4","4","5","5","3","2","5","3","6","5","3","4","5","5","4","6","5","6","6","7","4","6","5","6","7","6","6","5","5","6","5","6","5","6","768804353862799361","李","668","Female","[""坏她"",""坏我"",""好我"",""好她""]","[""弱她"",""弱我"",""强我"",""强她""]","","","","","","","","{""Q01"":""6"",""Q02"":""5"",""Q03"":""7"",""Q04"":""5"",""Q05"":""5""}","[0,1,2,3,4]","[""Q01"",""Q02"",""Q03"",""Q04"",""Q05""]","[7080.100000023842,10686.699999988079,12229.899999976158,15469.600000023842,16589.69999998808]","[]","[7080.100000023842,10686.699999988079,12229.899999976158,15469.600000023842,16589.69999998808,22259.5]","0.6","0.25","0","","","","","","","","","","","","","","","","","","","","","",""
"34469","","{""Q01"":""4"",""Q02"":""3"",""Q03"":""5"",""Q04"":""4"",""Q05"":""4"",""Q06"":""4""}","survey-template","6","108995","0.0-5.0","6","5","7","5","5","4","3","5","4","4","4","1","0","1","0","0","1","2","0","4","5","5","5","4","3","4","4","4","3","6","5","6","7","5","6","6","7","7","6","5","4","6","5","3","4","4","5","5","3","2","5","3","6","5","3","4","5","5","4","6","5","6","6","7","4","6","5","6","7","6","6","5","5","6","5","6","5","6","768804353862799361","李","668","Female","[""坏她"",""坏我"",""好我"",""好她""]","[""弱她"",""弱我"",""强我"",""强她""]","","","","","","","","{""Q01"":""4"",""Q02"":""3"",""Q03"":""5"",""Q04"":""4"",""Q05"":""4"",""Q06"":""4""}","[0,1,2,3,4,5]","[""Q01"",""Q02"",""Q03"",""Q04"",""Q05"",""Q06"",""Q05""]","[4199.100000023842,9090.700000047684,10867.300000011921,14464.600000023842,17325,29044.600000023842,30925.900000035763]","[]","[4199.100000023842,9090.700000047684,10867.300000011921,14464.600000023842,17325,27716.600000023842,29044.600000023842,30925.900000035763,34468.5]","0.3333333333333333","0.2","0","","","","","","","","","","","","","","","","","","","","","",""
"33928.19999998808","","{""Q01"":""1"",""Q02"":""0"",""Q03"":""1"",""Q04"":""0"",""Q05"":""0"",""Q06"":""1"",""Q07"":""2"",""Q08"":""0""}","survey-template","7","142926","0.0-6.0","6","5","7","5","5","4","3","5","4","4","4","1","0","1","0","0","1","2","0","4","5","5","5","4","3","4","4","4","3","6","5","6","7","5","6","6","7","7","6","5","4","6","5","3","4","4","5","5","3","2","5","3","6","5","3","4","5","5","4","6","5","6","6","7","4","6","5","6","7","6","6","5","5","6","5","6","5","6","768804353862799361","李","668","Female","[""坏她"",""坏我"",""好我"",""好她""]","[""弱她"",""弱我"",""强我"",""强她""]","","","","","","","","{""Q01"":""1"",""Q02"":""0"",""Q03"":""1"",""Q04"":""0"",""Q05"":""0"",""Q06"":""1"",""Q07"":""2"",""Q08"":""0""}","[0,1,2,3,4,5,6,7]","[""Q01"",""Q02"",""Q03"",""Q04"",""Q05"",""Q06"",""Q07"",""Q08"",""Q08""]","[3507.900000035763,8111.5,14121.199999988079,20159.19999998808,21471.30000001192,23687.100000023842,26589.19999998808,28169.19999998808,30889.19999998808]","[]","[3507.900000035763,8111.5,14121.199999988079,20159.19999998808,21471.30000001192,23687.100000023842,26589.19999998808,28169.19999998808,30889.19999998808,33927.30000001192]","0.5","0.7142857142857143","0","","","","","","","","","","","","","","","","","","","","","",""
"19177","","","instructions","8","162105","0.0-7.0","6","5","7","5","5","4","3","5","4","4","4","1","0","1","0","0","1","2","0","4","5","5","5","4","3","4","4","4","3","6","5","6","7","5","6","6","7","7","6","5","4","6","5","3","4","4","5","5","3","2","5","3","6","5","3","4","5","5","4","6","5","6","6","7","4","6","5","6","7","6","6","5","5","6","5","6","5","6","768804353862799361","李","668","Female","[""坏她"",""坏我"",""好我"",""好她""]","[""弱她"",""弱我"",""强我"",""强她""]","","","","","","","","","","","","","","","","","[{""page_index"":0,""viewing_time"":19177}]","","","","","","","","","","","","","","","","","","","","",""
"73229","","","instructions","9","235335","0.0-8.0-0.0-0.0","6","5","7","5","5","4","3","5","4","4","4","1","0","1","0","0","1","2","0","4","5","5","5","4","3","4","4","4","3","6","5","6","7","5","6","6","7","7","6","5","4","6","5","3","4","4","5","5","3","2","5","3","6","5","3","4","5","5","4","6","5","6","6","7","4","6","5","6","7","6","6","5","5","6","5","6","5","6","768804353862799361","李","668","Female","[""坏她"",""坏我"",""好我"",""好她""]","[""弱她"",""弱我"",""强我"",""强她""]","","","","","","","","","","","","","","","","","[{""page_index"":0,""viewing_time"":22741},{""page_index"":1,""viewing_time"":39862},{""page_index"":2,""viewing_time"":8630},{""page_index"":3,""viewing_time"":1996}]","","","","","","","","","","","","","","","","","","","","",""
"784","","j","psychophysics","10","237123","0.0-8.0-0.0-1.0-0.0-0.0","6","5","7","5","5","4","3","5","4","4","4","1","0","1","0","0","1","2","0","4","5","5","5","4","3","4","4","4","3","6","5","6","7","5","6","6","7","7","6","5","4","6","5","3","4","4","5","5","3","2","5","3","6","5","3","4","5","5","4","6","5","6","6","7","4","6","5","6","7","6","6","5","5","6","5","6","5","6","768804353862799361","李","668","Female","[""坏她"",""坏我"",""好我"",""好她""]","[""弱她"",""弱我"",""强我"",""强她""]","","","","","","","","nonmatch","","","","","","","","","","key","j","16.66908490566047","747","463","f","false","match","img/square.png","坏我","坏我","prac_ALT2_moral","practice_moral","","","","","","","",""
"null","<span style='color:red; font-size: 70px;'>错误! </span>","null","html-keyboard-response","11","237624","0.0-8.0-0.0-1.0-0.0-1.0","6","5","7","5","5","4","3","5","4","4","4","1","0","1","0","0","1","2","0","4","5","5","5","4","3","4","4","4","3","6","5","6","7","5","6","6","7","7","6","5","4","6","5","3","4","4","5","5","3","2","5","3","6","5","3","4","5","5","4","6","5","6","6","7","4","6","5","6","7","6","6","5","5","6","5","6","5","6","768804353862799361","李","668","Female","[""坏她"",""坏我"",""好我"",""好她""]","[""弱她"",""弱我"",""强我"",""强她""]","","","","","","","","","","","","","","","","","","","","","","","","","","","","","","feedback_test","","","","","","","",""
"874","","f","psychophysics","12","239501","0.0-8.0-0.0-1.0-0.0-0.1","6","5","7","5","5","4","3","5","4","4","4","1","0","1","0","0","1","2","0","4","5","5","5","4","3","4","4","4","3","6","5","6","7","5","6","6","7","7","6","5","4","6","5","3","4","4","5","5","3","2","5","3","6","5","3","4","5","5","4","6","5","6","6","7","4","6","5","6","7","6","6","5","5","6","5","6","5","6","768804353862799361","李","668","Female","[""坏她"",""坏我"",""好我"",""好她""]","[""弱她"",""弱我"",""强我"",""强她""]","","","","","","","","match","","","","","","","","","","key","f","16.667357142857195","747","463","j","false","nonmatch","img/trapezoid.png","好我","好她","prac_ALT2_moral","practice_moral","","","","","","","",""
"null","<span style='color:red; font-size: 70px;'>错误! </span>","null","html-keyboard-response","13","240001","0.0-8.0-0.0-1.0-0.0-1.1","6","5","7","5","5","4","3","5","4","4","4","1","0","1","0","0","1","2","0","4","5","5","5","4","3","4","4","4","3","6","5","6","7","5","6","6","7","7","6","5","4","6","5","3","4","4","5","5","3","2","5","3","6","5","3","4","5","5","4","6","5","6","6","7","4","6","5","6","7","6","6","5","5","6","5","6","5","6","768804353862799361","李","668","Female","[""坏她"",""坏我"",""好我"",""好她""]","[""弱她"",""弱我"",""强我"",""强她""]","","","","","","","","","","","","","","","","","","","","","","","","","","","","","","feedback_test","","","","","","","",""
"871","","j","psychophysics","14","241873","0.0-8.0-0.0-1.0-0.0-0.2","6","5","7","5","5","4","3","5","4","4","4","1","0","1","0","0","1","2","0","4","5","5","5","4","3","4","4","4","3","6","5","6","7","5","6","6","7","7","6","5","4","6","5","3","4","4","5","5","3","2","5","3","6","5","3","4","5","5","4","6","5","6","6","7","4","6","5","6","7","6","6","5","5","6","5","6","5","6","768804353862799361","李","668","Female","[""坏她"",""坏我"",""好我"",""好她""]","[""弱她"",""弱我"",""强我"",""强她""]","","","","","","","","nonmatch","","","","","","","","","","key","j","16.666513513513582","747","463","j","true","nonmatch","img/trapezoid.png","坏她","好她","prac_ALT2_moral","practice_moral","","","","","","","",""
"null","<span style='color:GreenYellow; font-size: 70px;'>正确! </span>","null","html-keyboard-response","15","242375","0.0-8.0-0.0-1.0-0.0-1.2","6","5","7","5","5","4","3","5","4","4","4","1","0","1","0","0","1","2","0","4","5","5","5","4","3","4","4","4","3","6","5","6","7","5","6","6","7","7","6","5","4","6","5","3","4","4","5","5","3","2","5","3","6","5","3","4","5","5","4","6","5","6","6","7","4","6","5","6","7","6","6","5","5","6","5","6","5","6","768804353862799361","李","668","Female","[""坏她"",""坏我"",""好我"",""好她""]","[""弱她"",""弱我"",""强我"",""强她""]","","","","","","","","","","","","","","","","","","","","","","","","","","","","","","feedback_test","","","","","","","",""
"678","","j","psychophysics","16","244054","0.0-8.0-0.0-1.0-0.0-0.3","6","5","7","5","5","4","3","5","4","4","4","1","0","1","0","0","1","2","0","4","5","5","5","4","3","4","4","4","3","6","5","6","7","5","6","6","7","7","6","5","4","6","5","3","4","4","5","5","3","2","5","3","6","5","3","4","5","5","4","6","5","6","6","7","4","6","5","6","7","6","6","5","5","6","5","6","5","6","768804353862799361","李","668","Female","[""坏她"",""坏我"",""好我"",""好她""]","[""弱她"",""弱我"",""强我"",""强她""]","","","","","","","","nonmatch","","","","","","","","","","key","j","16.651242424242405","747","463","f","false","match","img/ellipse.png","好我","好我","prac_ALT2_moral","practice_moral","","","","","","","",""
"null","<span style='color:red; font-size: 70px;'>错误! </span>","null","html-keyboard-response","17","244554","0.0-8.0-0.0-1.0-0.0-1.3","6","5","7","5","5","4","3","5","4","4","4","1","0","1","0","0","1","2","0","4","5","5","5","4","3","4","4","4","3","6","5","6","7","5","6","6","7","7","6","5","4","6","5","3","4","4","5","5","3","2","5","3","6","5","3","4","5","5","4","6","5","6","6","7","4","6","5","6","7","6","6","5","5","6","5","6","5","6","768804353862799361","李","668","Female","[""坏她"",""坏我"",""好我"",""好她""]","[""弱她"",""弱我"",""强我"",""强她""]","","","","","","","","","","","","","","","","","","","","","","","","","","","","","","feedback_test","","","","","","","",""
"858","","f","psychophysics","18","246415","0.0-8.0-0.0-1.0-0.0-0.4","6","5","7","5","5","4","3","5","4","4","4","1","0","1","0","0","1","2","0","4","5","5","5","4","3","4","4","4","3","6","5","6","7","5","6","6","7","7","6","5","4","6","5","3","4","4","5","5","3","2","5","3","6","5","3","4","5","5","4","6","5","6","6","7","4","6","5","6","7","6","6","5","5","6","5","6","5","6","768804353862799361","李","668","Female","[""坏她"",""坏我"",""好我"",""好她""]","[""弱她"",""弱我"",""强我"",""强她""]","","","","","","","","match","","","","","","","","","","key","f","16.66397297297298","747","463","f","true","match","img/trapezoid.png","好她","好她","prac_ALT2_moral","practice_moral","","","","","","","",""
"null","<span style='color:GreenYellow; font-size: 70px;'>正确! </span>","null","html-keyboard-response","19","246916","0.0-8.0-0.0-1.0-0.0-1.4","6","5","7","5","5","4","3","5","4","4","4","1","0","1","0","0","1","2","0","4","5","5","5","4","3","4","4","4","3","6","5","6","7","5","6","6","7","7","6","5","4","6","5","3","4","4","5","5","3","2","5","3","6","5","3","4","5","5","4","6","5","6","6","7","4","6","5","6","7","6","6","5","5","6","5","6","5","6","768804353862799361","李","668","Female","[""坏她"",""坏我"",""好我"",""好她""]","[""弱她"",""弱我"",""强我"",""强她""]","","","","","","","","","","","","","","","","","","","","","","","","","","","","","","feedback_test","","","","","","","",""
"689","","j","psychophysics","20","248606","0.0-8.0-0.0-1.0-0.0-0.5","6","5","7","5","5","4","3","5","4","4","4","1","0","1","0","0","1","2","0","4","5","5","5","4","3","4","4","4","3","6","5","6","7","5","6","6","7","7","6","5","4","6","5","3","4","4","5","5","3","2","5","3","6","5","3","4","5","5","4","6","5","6","6","7","4","6","5","6","7","6","6","5","5","6","5","6","5","6","768804353862799361","李","668","Female","[""坏她"",""坏我"",""好我"",""好她""]","[""弱她"",""弱我"",""强我"",""强她""]","","","","","","","","nonmatch","","","","","","","","","","key","j","16.666330000000016","747","463","j","true","nonmatch","img/ellipse.png","坏她","好我","prac_ALT2_moral","practice_moral","","","","","","","",""
"null","<span style='color:GreenYellow; font-size: 70px;'>正确! </span>","null","html-keyboard-response","21","249108","0.0-8.0-0.0-1.0-0.0-1.5","6","5","7","5","5","4","3","5","4","4","4","1","0","1","0","0","1","2","0","4","5","5","5","4","3","4","4","4","3","6","5","6","7","5","6","6","7","7","6","5","4","6","5","3","4","4","5","5","3","2","5","3","6","5","3","4","5","5","4","6","5","6","6","7","4","6","5","6","7","6","6","5","5","6","5","6","5","6","768804353862799361","李","668","Female","[""坏她"",""坏我"",""好我"",""好她""]","[""弱她"",""弱我"",""强我"",""强她""]","","","","","","","","","","","","","","","","","","","","","","","","","","","","","","feedback_test","","","","","","","",""
"923","","j","psychophysics","22","251032","0.0-8.0-0.0-1.0-0.0-0.6","6","5","7","5","5","4","3","5","4","4","4","1","0","1","0","0","1","2","0","4","5","5","5","4","3","4","4","4","3","6","5","6","7","5","6","6","7","7","6","5","4","6","5","3","4","4","5","5","3","2","5","3","6","5","3","4","5","5","4","6","5","6","6","7","4","6","5","6","7","6","6","5","5","6","5","6","5","6","768804353862799361","李","668","Female","[""坏她"",""坏我"",""好我"",""好她""]","[""弱她"",""弱我"",""强我"",""强她""]","","","","","","","","nonmatch","","","","","","","","","","key","j","16.66691304347832","747","463","f","false","match","img/pentagon.png","坏她","坏她","prac_ALT2_moral","practice_moral","","","","","","","",""
"null","<span style='color:red; font-size: 70px;'>错误! </span>","null","html-keyboard-response","23","251534","0.0-8.0-0.0-1.0-0.0-1.6","6","5","7","5","5","4","3","5","4","4","4","1","0","1","0","0","1","2","0","4","5","5","5","4","3","4","4","4","3","6","5","6","7","5","6","6","7","7","6","5","4","6","5","3","4","4","5","5","3","2","5","3","6","5","3","4","5","5","4","6","5","6","6","7","4","6","5","6","7","6","6","5","5","6","5","6","5","6","768804353862799361","李","668","Female","[""坏她"",""坏我"",""好我"",""好她""]","[""弱她"",""弱我"",""强我"",""强她""]","","","","","","","","","","","","","","","","","","","","","","","","","","","","","","feedback_test","","","","","","","",""
"822","","f","psychophysics","24","253357","0.0-8.0-0.0-1.0-0.0-0.7","6","5","7","5","5","4","3","5","4","4","4","1","0","1","0","0","1","2","0","4","5","5","5","4","3","4","4","4","3","6","5","6","7","5","6","6","7","7","6","5","4","6","5","3","4","4","5","5","3","2","5","3","6","5","3","4","5","5","4","6","5","6","6","7","4","6","5","6","7","6","6","5","5","6","5","6","5","6","768804353862799361","李","668","Female","[""坏她"",""坏我"",""好我"",""好她""]","[""弱她"",""弱我"",""强我"",""强她""]","","","","","","","","match","","","","","","","","","","key","f","16.666962962963023","747","463","f","true","match","img/ellipse.png","好我","好我","prac_ALT2_moral","practice_moral","","","","","","","",""
"null","<span style='color:GreenYellow; font-size: 70px;'>正确! </span>","null","html-keyboard-response","25","253858","0.0-8.0-0.0-1.0-0.0-1.7","6","5","7","5","5","4","3","5","4","4","4","1","0","1","0","0","1","2","0","4","5","5","5","4","3","4","4","4","3","6","5","6","7","5","6","6","7","7","6","5","4","6","5","3","4","4","5","5","3","2","5","3","6","5","3","4","5","5","4","6","5","6","6","7","4","6","5","6","7","6","6","5","5","6","5","6","5","6","768804353862799361","李","668","Female","[""坏她"",""坏我"",""好我"",""好她""]","[""弱她"",""弱我"",""强我"",""强她""]","","","","","","","","","","","","","","","","","","","","","","","","","","","","","","feedback_test","","","","","","","",""
"1011","","f","psychophysics","26","255870","0.0-8.0-0.0-1.0-0.0-0.8","6","5","7","5","5","4","3","5","4","4","4","1","0","1","0","0","1","2","0","4","5","5","5","4","3","4","4","4","3","6","5","6","7","5","6","6","7","7","6","5","4","6","5","3","4","4","5","5","3","2","5","3","6","5","3","4","5","5","4","6","5","6","6","7","4","6","5","6","7","6","6","5","5","6","5","6","5","6","768804353862799361","李","668","Female","[""坏她"",""坏我"",""好我"",""好她""]","[""弱她"",""弱我"",""强我"",""强她""]","","","","","","","","match","","","","","","","","","","key","f","16.65457142857143","747","463","j","false","nonmatch","img/trapezoid.png","坏我","好她","prac_ALT2_moral","practice_moral","","","","","","","",""
"null","<span style='color:red; font-size: 70px;'>错误! </span>","null","html-keyboard-response","27","256370","0.0-8.0-0.0-1.0-0.0-1.8","6","5","7","5","5","4","3","5","4","4","4","1","0","1","0","0","1","2","0","4","5","5","5","4","3","4","4","4","3","6","5","6","7","5","6","6","7","7","6","5","4","6","5","3","4","4","5","5","3","2","5","3","6","5","3","4","5","5","4","6","5","6","6","7","4","6","5","6","7","6","6","5","5","6","5","6","5","6","768804353862799361","李","668","Female","[""坏她"",""坏我"",""好我"",""好她""]","[""弱她"",""弱我"",""强我"",""强她""]","","","","","","","","","","","","","","","","","","","","","","","","","","","","","","feedback_test","","","","","","","",""
"992","","f","psychophysics","28","258363","0.0-8.0-0.0-1.0-0.0-0.9","6","5","7","5","5","4","3","5","4","4","4","1","0","1","0","0","1","2","0","4","5","5","5","4","3","4","4","4","3","6","5","6","7","5","6","6","7","7","6","5","4","6","5","3","4","4","5","5","3","2","5","3","6","5","3","4","5","5","4","6","5","6","6","7","4","6","5","6","7","6","6","5","5","6","5","6","5","6","768804353862799361","李","668","Female","[""坏她"",""坏我"",""好我"",""好她""]","[""弱她"",""弱我"",""强我"",""强她""]","","","","","","","","match","","","","","","","","","","key","f","16.664117647058813","747","463","f","true","match","img/trapezoid.png","好她","好她","prac_ALT2_moral","practice_moral","","","","","","","",""
"null","<span style='color:GreenYellow; font-size: 70px;'>正确! </span>","null","html-keyboard-response","29","258864","0.0-8.0-0.0-1.0-0.0-1.9","6","5","7","5","5","4","3","5","4","4","4","1","0","1","0","0","1","2","0","4","5","5","5","4","3","4","4","4","3","6","5","6","7","5","6","6","7","7","6","5","4","6","5","3","4","4","5","5","3","2","5","3","6","5","3","4","5","5","4","6","5","6","6","7","4","6","5","6","7","6","6","5","5","6","5","6","5","6","768804353862799361","李","668","Female","[""坏她"",""坏我"",""好我"",""好她""]","[""弱她"",""弱我"",""强我"",""强她""]","","","","","","","","","","","","","","","","","","","","","","","","","","","","","","feedback_test","","","","","","","",""
"748","","f","psychophysics","30","260613","0.0-8.0-0.0-1.0-0.0-0.10","6","5","7","5","5","4","3","5","4","4","4","1","0","1","0","0","1","2","0","4","5","5","5","4","3","4","4","4","3","6","5","6","7","5","6","6","7","7","6","5","4","6","5","3","4","4","5","5","3","2","5","3","6","5","3","4","5","5","4","6","5","6","6","7","4","6","5","6","7","6","6","5","5","6","5","6","5","6","768804353862799361","李","668","Female","[""坏她"",""坏我"",""好我"",""好她""]","[""弱她"",""弱我"",""强我"",""强她""]","","","","","","","","match","","","","","","","","","","key","f","16.666230769230772","747","463","f","true","match","img/ellipse.png","好我","好我","prac_ALT2_moral","practice_moral","","","","","","","",""
"null","<span style='color:GreenYellow; font-size: 70px;'>正确! </span>","null","html-keyboard-response","31","261114","0.0-8.0-0.0-1.0-0.0-1.10","6","5","7","5","5","4","3","5","4","4","4","1","0","1","0","0","1","2","0","4","5","5","5","4","3","4","4","4","3","6","5","6","7","5","6","6","7","7","6","5","4","6","5","3","4","4","5","5","3","2","5","3","6","5","3","4","5","5","4","6","5","6","6","7","4","6","5","6","7","6","6","5","5","6","5","6","5","6","768804353862799361","李","668","Female","[""坏她"",""坏我"",""好我"",""好她""]","[""弱她"",""弱我"",""强我"",""强她""]","","","","","","","","","","","","","","","","","","","","","","","","","","","","","","feedback_test","","","","","","","",""
"918","","f","psychophysics","32","263034","0.0-8.0-0.0-1.0-0.0-0.11","6","5","7","5","5","4","3","5","4","4","4","1","0","1","0","0","1","2","0","4","5","5","5","4","3","4","4","4","3","6","5","6","7","5","6","6","7","7","6","5","4","6","5","3","4","4","5","5","3","2","5","3","6","5","3","4","5","5","4","6","5","6","6","7","4","6","5","6","7","6","6","5","5","6","5","6","5","6","768804353862799361","李","668","Female","[""坏她"",""坏我"",""好我"",""好她""]","[""弱她"",""弱我"",""强我"",""强她""]","","","","","","","","match","","","","","","","","","","key","f","16.666254385964734","747","463","f","true","match","img/trapezoid.png","好她","好她","prac_ALT2_moral","practice_moral","","","","","","","",""
"null","<span style='color:GreenYellow; font-size: 70px;'>正确! </span>","null","html-keyboard-response","33","263534","0.0-8.0-0.0-1.0-0.0-1.11","6","5","7","5","5","4","3","5","4","4","4","1","0","1","0","0","1","2","0","4","5","5","5","4","3","4","4","4","3","6","5","6","7","5","6","6","7","7","6","5","4","6","5","3","4","4","5","5","3","2","5","3","6","5","3","4","5","5","4","6","5","6","6","7","4","6","5","6","7","6","6","5","5","6","5","6","5","6","768804353862799361","李","668","Female","[""坏她"",""坏我"",""好我"",""好她""]","[""弱她"",""弱我"",""强我"",""强她""]","","","","","","","","","","","","","","","","","","","","","","","","","","","","","","feedback_test","","","","","","","",""
"831","","j","psychophysics","34","265367","0.0-8.0-0.0-1.0-0.0-0.12","6","5","7","5","5","4","3","5","4","4","4","1","0","1","0","0","1","2","0","4","5","5","5","4","3","4","4","4","3","6","5","6","7","5","6","6","7","7","6","5","4","6","5","3","4","4","5","5","3","2","5","3","6","5","3","4","5","5","4","6","5","6","6","7","4","6","5","6","7","6","6","5","5","6","5","6","5","6","768804353862799361","李","668","Female","[""坏她"",""坏我"",""好我"",""好她""]","[""弱她"",""弱我"",""强我"",""强她""]","","","","","","","","nonmatch","","","","","","","","","","key","j","16.66701834862347","747","463","j","true","nonmatch","img/ellipse.png","坏我","好我","prac_ALT2_moral","practice_moral","","","","","","","",""
"null","<span style='color:GreenYellow; font-size: 70px;'>正确! </span>","null","html-keyboard-response","35","265868","0.0-8.0-0.0-1.0-0.0-1.12","6","5","7","5","5","4","3","5","4","4","4","1","0","1","0","0","1","2","0","4","5","5","5","4","3","4","4","4","3","6","5","6","7","5","6","6","7","7","6","5","4","6","5","3","4","4","5","5","3","2","5","3","6","5","3","4","5","5","4","6","5","6","6","7","4","6","5","6","7","6","6","5","5","6","5","6","5","6","768804353862799361","李","668","Female","[""坏她"",""坏我"",""好我"",""好她""]","[""弱她"",""弱我"",""强我"",""强她""]","","","","","","","","","","","","","","","","","","","","","","","","","","","","","","feedback_test","","","","","","","",""
"311","","f","psychophysics","36","267180","0.0-8.0-0.0-1.0-0.0-0.13","6","5","7","5","5","4","3","5","4","4","4","1","0","1","0","0","1","2","0","4","5","5","5","4","3","4","4","4","3","6","5","6","7","5","6","6","7","7","6","5","4","6","5","3","4","4","5","5","3","2","5","3","6","5","3","4","5","5","4","6","5","6","6","7","4","6","5","6","7","6","6","5","5","6","5","6","5","6","768804353862799361","李","668","Female","[""坏她"",""坏我"",""好我"",""好她""]","[""弱她"",""弱我"",""强我"",""强她""]","","","","","","","","match","","","","","","","","","","key","f","16.66893589743622","747","463","j","false","nonmatch","img/pentagon.png","好她","坏她","prac_ALT2_moral","practice_moral","","","","","","","",""
"null","<span style='color:red; font-size: 70px;'>错误! </span>","null","html-keyboard-response","37","267681","0.0-8.0-0.0-1.0-0.0-1.13","6","5","7","5","5","4","3","5","4","4","4","1","0","1","0","0","1","2","0","4","5","5","5","4","3","4","4","4","3","6","5","6","7","5","6","6","7","7","6","5","4","6","5","3","4","4","5","5","3","2","5","3","6","5","3","4","5","5","4","6","5","6","6","7","4","6","5","6","7","6","6","5","5","6","5","6","5","6","768804353862799361","李","668","Female","[""坏她"",""坏我"",""好我"",""好她""]","[""弱她"",""弱我"",""强我"",""强她""]","","","","","","","","","","","","","","","","","","","","","","","","","","","","","","feedback_test","","","","","","","",""
"1069","","f","psychophysics","38","269752","0.0-8.0-0.0-1.0-0.0-0.14","6","5","7","5","5","4","3","5","4","4","4","1","0","1","0","0","1","2","0","4","5","5","5","4","3","4","4","4","3","6","5","6","7","5","6","6","7","7","6","5","4","6","5","3","4","4","5","5","3","2","5","3","6","5","3","4","5","5","4","6","5","6","6","7","4","6","5","6","7","6","6","5","5","6","5","6","5","6","768804353862799361","李","668","Female","[""坏她"",""坏我"",""好我"",""好她""]","[""弱她"",""弱我"",""强我"",""强她""]","","","","","","","","match","","","","","","","","","","key","f","16.66648780487807","747","463","j","false","nonmatch","img/square.png","好她","坏我","prac_ALT2_moral","practice_moral","","","","","","","",""
"null","<span style='color:red; font-size: 70px;'>错误! </span>","null","html-keyboard-response","39","270253","0.0-8.0-0.0-1.0-0.0-1.14","6","5","7","5","5","4","3","5","4","4","4","1","0","1","0","0","1","2","0","4","5","5","5","4","3","4","4","4","3","6","5","6","7","5","6","6","7","7","6","5","4","6","5","3","4","4","5","5","3","2","5","3","6","5","3","4","5","5","4","6","5","6","6","7","4","6","5","6","7","6","6","5","5","6","5","6","5","6","768804353862799361","李","668","Female","[""坏她"",""坏我"",""好我"",""好她""]","[""弱她"",""弱我"",""强我"",""强她""]","","","","","","","","","","","","","","","","","","","","","","","","","","","","","","feedback_test","","","","","","","",""
"1003","","j","psychophysics","40","272257","0.0-8.0-0.0-1.0-0.0-0.15","6","5","7","5","5","4","3","5","4","4","4","1","0","1","0","0","1","2","0","4","5","5","5","4","3","4","4","4","3","6","5","6","7","5","6","6","7","7","6","5","4","6","5","3","4","4","5","5","3","2","5","3","6","5","3","4","5","5","4","6","5","6","6","7","4","6","5","6","7","6","6","5","5","6","5","6","5","6","768804353862799361","李","668","Female","[""坏她"",""坏我"",""好我"",""好她""]","[""弱她"",""弱我"",""强我"",""强她""]","","","","","","","","nonmatch","","","","","","","","","","key","j","16.66556302521","747","463","j","true","nonmatch","img/pentagon.png","坏我","坏她","prac_ALT2_moral","practice_moral","","","","","","","",""
"null","<span style='color:GreenYellow; font-size: 70px;'>正确! </span>","null","html-keyboard-response","41","272757","0.0-8.0-0.0-1.0-0.0-1.15","6","5","7","5","5","4","3","5","4","4","4","1","0","1","0","0","1","2","0","4","5","5","5","4","3","4","4","4","3","6","5","6","7","5","6","6","7","7","6","5","4","6","5","3","4","4","5","5","3","2","5","3","6","5","3","4","5","5","4","6","5","6","6","7","4","6","5","6","7","6","6","5","5","6","5","6","5","6","768804353862799361","李","668","Female","[""坏她"",""坏我"",""好我"",""好她""]","[""弱她"",""弱我"",""强我"",""强她""]","","","","","","","","","","","","","","","","","","","","","","","","","","","","","","feedback_test","","","","","","","",""
"null","","null","psychophysics","42","274959","0.0-8.0-0.0-1.0-0.0-0.16","6","5","7","5","5","4","3","5","4","4","4","1","0","1","0","0","1","2","0","4","5","5","5","4","3","4","4","4","3","6","5","6","7","5","6","6","7","7","6","5","4","6","5","3","4","4","5","5","3","2","5","3","6","5","3","4","5","5","4","6","5","6","6","7","4","6","5","6","7","6","6","5","5","6","5","6","5","6","768804353862799361","李","668","Female","[""坏她"",""坏我"",""好我"",""好她""]","[""弱她"",""弱我"",""强我"",""强她""]","","","","","","","","null","","","","","","","","","","key","null","16.66850381679362","747","463","j","false","nonmatch","img/square.png","坏她","坏我","prac_ALT2_moral","practice_moral","","","","","","","",""
"null","<span class='add_' style='color:yellow; font-size: 70px;'> 太慢! </span>","null","html-keyboard-response","43","275460","0.0-8.0-0.0-1.0-0.0-1.16","6","5","7","5","5","4","3","5","4","4","4","1","0","1","0","0","1","2","0","4","5","5","5","4","3","4","4","4","3","6","5","6","7","5","6","6","7","7","6","5","4","6","5","3","4","4","5","5","3","2","5","3","6","5","3","4","5","5","4","6","5","6","6","7","4","6","5","6","7","6","6","5","5","6","5","6","5","6","768804353862799361","李","668","Female","[""坏她"",""坏我"",""好我"",""好她""]","[""弱她"",""弱我"",""强我"",""强她""]","","","","","","","","","","","","","","","","","","","","","","","","","","","","","","feedback_test","","","","","","","",""
"559","","f","psychophysics","44","277021","0.0-8.0-0.0-1.0-0.0-0.17","6","5","7","5","5","4","3","5","4","4","4","1","0","1","0","0","1","2","0","4","5","5","5","4","3","4","4","4","3","6","5","6","7","5","6","6","7","7","6","5","4","6","5","3","4","4","5","5","3","2","5","3","6","5","3","4","5","5","4","6","5","6","6","7","4","6","5","6","7","6","6","5","5","6","5","6","5","6","768804353862799361","李","668","Female","[""坏她"",""坏我"",""好我"",""好她""]","[""弱她"",""弱我"",""强我"",""强她""]","","","","","","","","match","","","","","","","","","","key","f","16.6668043478263","747","463","f","true","match","img/square.png","坏我","坏我","prac_ALT2_moral","practice_moral","","","","","","","",""
"null","<span style='color:GreenYellow; font-size: 70px;'>正确! </span>","null","html-keyboard-response","45","277522","0.0-8.0-0.0-1.0-0.0-1.17","6","5","7","5","5","4","3","5","4","4","4","1","0","1","0","0","1","2","0","4","5","5","5","4","3","4","4","4","3","6","5","6","7","5","6","6","7","7","6","5","4","6","5","3","4","4","5","5","3","2","5","3","6","5","3","4","5","5","4","6","5","6","6","7","4","6","5","6","7","6","6","5","5","6","5","6","5","6","768804353862799361","李","668","Female","[""坏她"",""坏我"",""好我"",""好她""]","[""弱她"",""弱我"",""强我"",""强她""]","","","","","","","","","","","","","","","","","","","","","","","","","","","","","","feedback_test","","","","","","","",""
"787","","j","psychophysics","46","279311","0.0-8.0-0.0-1.0-0.0-0.18","6","5","7","5","5","4","3","5","4","4","4","1","0","1","0","0","1","2","0","4","5","5","5","4","3","4","4","4","3","6","5","6","7","5","6","6","7","7","6","5","4","6","5","3","4","4","5","5","3","2","5","3","6","5","3","4","5","5","4","6","5","6","6","7","4","6","5","6","7","6","6","5","5","6","5","6","5","6","768804353862799361","李","668","Female","[""坏她"",""坏我"",""好我"",""好她""]","[""弱她"",""弱我"",""强我"",""强她""]","","","","","","","","nonmatch","","","","","","","","","","key","j","16.666289719626217","747","463","j","true","nonmatch","img/square.png","好我","坏我","prac_ALT2_moral","practice_moral","","","","","","","",""
"null","<span style='color:GreenYellow; font-size: 70px;'>正确! </span>","null","html-keyboard-response","47","279811","0.0-8.0-0.0-1.0-0.0-1.18","6","5","7","5","5","4","3","5","4","4","4","1","0","1","0","0","1","2","0","4","5","5","5","4","3","4","4","4","3","6","5","6","7","5","6","6","7","7","6","5","4","6","5","3","4","4","5","5","3","2","5","3","6","5","3","4","5","5","4","6","5","6","6","7","4","6","5","6","7","6","6","5","5","6","5","6","5","6","768804353862799361","李","668","Female","[""坏她"",""坏我"",""好我"",""好她""]","[""弱她"",""弱我"",""强我"",""强她""]","","","","","","","","","","","","","","","","","","","","","","","","","","","","","","feedback_test","","","","","","","",""
"952","","f","psychophysics","48","281765","0.0-8.0-0.0-1.0-0.0-0.19","6","5","7","5","5","4","3","5","4","4","4","1","0","1","0","0","1","2","0","4","5","5","5","4","3","4","4","4","3","6","5","6","7","5","6","6","7","7","6","5","4","6","5","3","4","4","5","5","3","2","5","3","6","5","3","4","5","5","4","6","5","6","6","7","4","6","5","6","7","6","6","5","5","6","5","6","5","6","768804353862799361","李","668","Female","[""坏她"",""坏我"",""好我"",""好她""]","[""弱她"",""弱我"",""强我"",""强她""]","","","","","","","","match","","","","","","","","","","key","f","16.66712068965516","747","463","j","false","nonmatch","img/ellipse.png","好她","好我","prac_ALT2_moral","practice_moral","","","","","","","",""
"null","<span style='color:red; font-size: 70px;'>错误! </span>","null","html-keyboard-response","49","282266","0.0-8.0-0.0-1.0-0.0-1.19","6","5","7","5","5","4","3","5","4","4","4","1","0","1","0","0","1","2","0","4","5","5","5","4","3","4","4","4","3","6","5","6","7","5","6","6","7","7","6","5","4","6","5","3","4","4","5","5","3","2","5","3","6","5","3","4","5","5","4","6","5","6","6","7","4","6","5","6","7","6","6","5","5","6","5","6","5","6","768804353862799361","李","668","Female","[""坏她"",""坏我"",""好我"",""好她""]","[""弱她"",""弱我"",""强我"",""强她""]","","","","","","","","","","","","","","","","","","","","","","","","","","","","","","feedback_test","","","","","","","",""
"680","","f","psychophysics","50","283947","0.0-8.0-0.0-1.0-0.0-0.20","6","5","7","5","5","4","3","5","4","4","4","1","0","1","0","0","1","2","0","4","5","5","5","4","3","4","4","4","3","6","5","6","7","5","6","6","7","7","6","5","4","6","5","3","4","4","5","5","3","2","5","3","6","5","3","4","5","5","4","6","5","6","6","7","4","6","5","6","7","6","6","5","5","6","5","6","5","6","768804353862799361","李","668","Female","[""坏她"",""坏我"",""好我"",""好她""]","[""弱她"",""弱我"",""强我"",""强她""]","","","","","","","","match","","","","","","","","","","key","f","16.66755000000005","747","463","f","true","match","img/square.png","坏我","坏我","prac_ALT2_moral","practice_moral","","","","","","","",""
"null","<span style='color:GreenYellow; font-size: 70px;'>正确! </span>","null","html-keyboard-response","51","284448","0.0-8.0-0.0-1.0-0.0-1.20","6","5","7","5","5","4","3","5","4","4","4","1","0","1","0","0","1","2","0","4","5","5","5","4","3","4","4","4","3","6","5","6","7","5","6","6","7","7","6","5","4","6","5","3","4","4","5","5","3","2","5","3","6","5","3","4","5","5","4","6","5","6","6","7","4","6","5","6","7","6","6","5","5","6","5","6","5","6","768804353862799361","李","668","Female","[""坏她"",""坏我"",""好我"",""好她""]","[""弱她"",""弱我"",""强我"",""强她""]","","","","","","","","","","","","","","","","","","","","","","","","","","","","","","feedback_test","","","","","","","",""
"921","","f","psychophysics","52","286370","0.0-8.0-0.0-1.0-0.0-0.21","6","5","7","5","5","4","3","5","4","4","4","1","0","1","0","0","1","2","0","4","5","5","5","4","3","4","4","4","3","6","5","6","7","5","6","6","7","7","6","5","4","6","5","3","4","4","5","5","3","2","5","3","6","5","3","4","5","5","4","6","5","6","6","7","4","6","5","6","7","6","6","5","5","6","5","6","5","6","768804353862799361","李","668","Female","[""坏她"",""坏我"",""好我"",""好她""]","[""弱她"",""弱我"",""强我"",""强她""]","","","","","","","","match","","","","","","","","","","key","f","16.667008771929734","747","463","f","true","match","img/pentagon.png","坏她","坏她","prac_ALT2_moral","practice_moral","","","","","","","",""
"null","<span style='color:GreenYellow; font-size: 70px;'>正确! </span>","null","html-keyboard-response","53","286871","0.0-8.0-0.0-1.0-0.0-1.21","6","5","7","5","5","4","3","5","4","4","4","1","0","1","0","0","1","2","0","4","5","5","5","4","3","4","4","4","3","6","5","6","7","5","6","6","7","7","6","5","4","6","5","3","4","4","5","5","3","2","5","3","6","5","3","4","5","5","4","6","5","6","6","7","4","6","5","6","7","6","6","5","5","6","5","6","5","6","768804353862799361","李","668","Female","[""坏她"",""坏我"",""好我"",""好她""]","[""弱她"",""弱我"",""强我"",""强她""]","","","","","","","","","","","","","","","","","","","","","","","","","","","","","","feedback_test","","","","","","","",""
"456","","j","psychophysics","54","288329","0.0-8.0-0.0-1.0-0.0-0.22","6","5","7","5","5","4","3","5","4","4","4","1","0","1","0","0","1","2","0","4","5","5","5","4","3","4","4","4","3","6","5","6","7","5","6","6","7","7","6","5","4","6","5","3","4","4","5","5","3","2","5","3","6","5","3","4","5","5","4","6","5","6","6","7","4","6","5","6","7","6","6","5","5","6","5","6","5","6","768804353862799361","李","668","Female","[""坏她"",""坏我"",""好我"",""好她""]","[""弱她"",""弱我"",""强我"",""强她""]","","","","","","","","nonmatch","","","","","","","","","","key","j","16.66722988505746","747","463","j","true","nonmatch","img/pentagon.png","好我","坏她","prac_ALT2_moral","practice_moral","","","","","","","",""
"null","<span style='color:GreenYellow; font-size: 70px;'>正确! </span>","null","html-keyboard-response","55","288829","0.0-8.0-0.0-1.0-0.0-1.22","6","5","7","5","5","4","3","5","4","4","4","1","0","1","0","0","1","2","0","4","5","5","5","4","3","4","4","4","3","6","5","6","7","5","6","6","7","7","6","5","4","6","5","3","4","4","5","5","3","2","5","3","6","5","3","4","5","5","4","6","5","6","6","7","4","6","5","6","7","6","6","5","5","6","5","6","5","6","768804353862799361","李","668","Female","[""坏她"",""坏我"",""好我"",""好她""]","[""弱她"",""弱我"",""强我"",""强她""]","","","","","","","","","","","","","","","","","","","","","","","","","","","","","","feedback_test","","","","","","","",""
"685","","j","psychophysics","56","290515","0.0-8.0-0.0-1.0-0.0-0.23","6","5","7","5","5","4","3","5","4","4","4","1","0","1","0","0","1","2","0","4","5","5","5","4","3","4","4","4","3","6","5","6","7","5","6","6","7","7","6","5","4","6","5","3","4","4","5","5","3","2","5","3","6","5","3","4","5","5","4","6","5","6","6","7","4","6","5","6","7","6","6","5","5","6","5","6","5","6","768804353862799361","李","668","Female","[""坏她"",""坏我"",""好我"",""好她""]","[""弱她"",""弱我"",""强我"",""强她""]","","","","","","","","nonmatch","","","","","","","","","","key","j","16.66728999999992","747","463","f","false","match","img/pentagon.png","坏她","坏她","prac_ALT2_moral","practice_moral","","","","","","","",""
"null","<span style='color:red; font-size: 70px;'>错误! </span>","null","html-keyboard-response","57","291016","0.0-8.0-0.0-1.0-0.0-1.23","6","5","7","5","5","4","3","5","4","4","4","1","0","1","0","0","1","2","0","4","5","5","5","4","3","4","4","4","3","6","5","6","7","5","6","6","7","7","6","5","4","6","5","3","4","4","5","5","3","2","5","3","6","5","3","4","5","5","4","6","5","6","6","7","4","6","5","6","7","6","6","5","5","6","5","6","5","6","768804353862799361","李","668","Female","[""坏她"",""坏我"",""好我"",""好她""]","[""弱她"",""弱我"",""强我"",""强她""]","","","","","","","","","","","","","","","","","","","","","","","","","","","","","","feedback_test","","","","","","","",""
"736","","f","psychophysics","58","292754","0.0-8.0-0.0-1.0-0.0-0.24","6","5","7","5","5","4","3","5","4","4","4","1","0","1","0","0","1","2","0","4","5","5","5","4","3","4","4","4","3","6","5","6","7","5","6","6","7","7","6","5","4","6","5","3","4","4","5","5","3","2","5","3","6","5","3","4","5","5","4","6","5","6","6","7","4","6","5","6","7","6","6","5","5","6","5","6","5","6","768804353862799361","李","668","Female","[""坏她"",""坏我"",""好我"",""好她""]","[""弱她"",""弱我"",""强我"",""强她""]","","","","","","","","match","","","","","","","","","","key","f","16.6667281553399","747","463","f","true","match","img/square.png","坏我","坏我","prac_ALT2_moral","practice_moral","","","","","","","",""
"null","<span style='color:GreenYellow; font-size: 70px;'>正确! </span>","null","html-keyboard-response","59","293254","0.0-8.0-0.0-1.0-0.0-1.24","6","5","7","5","5","4","3","5","4","4","4","1","0","1","0","0","1","2","0","4","5","5","5","4","3","4","4","4","3","6","5","6","7","5","6","6","7","7","6","5","4","6","5","3","4","4","5","5","3","2","5","3","6","5","3","4","5","5","4","6","5","6","6","7","4","6","5","6","7","6","6","5","5","6","5","6","5","6","768804353862799361","李","668","Female","[""坏她"",""坏我"",""好我"",""好她""]","[""弱她"",""弱我"",""强我"",""强她""]","","","","","","","","","","","","","","","","","","","","","","","","","","","","","","feedback_test","","","","","","","",""
"893","","f","psychophysics","60","295148","0.0-8.0-0.0-1.0-0.0-0.25","6","5","7","5","5","4","3","5","4","4","4","1","0","1","0","0","1","2","0","4","5","5","5","4","3","4","4","4","3","6","5","6","7","5","6","6","7","7","6","5","4","6","5","3","4","4","5","5","3","2","5","3","6","5","3","4","5","5","4","6","5","6","6","7","4","6","5","6","7","6","6","5","5","6","5","6","5","6","768804353862799361","李","668","Female","[""坏她"",""坏我"",""好我"",""好她""]","[""弱她"",""弱我"",""强我"",""强她""]","","","","","","","","match","","","","","","","","","","key","f","16.666044247787408","747","463","j","false","nonmatch","img/square.png","好她","坏我","prac_ALT2_moral","practice_moral","","","","","","","",""
"null","<span style='color:red; font-size: 70px;'>错误! </span>","null","html-keyboard-response","61","295648","0.0-8.0-0.0-1.0-0.0-1.25","6","5","7","5","5","4","3","5","4","4","4","1","0","1","0","0","1","2","0","4","5","5","5","4","3","4","4","4","3","6","5","6","7","5","6","6","7","7","6","5","4","6","5","3","4","4","5","5","3","2","5","3","6","5","3","4","5","5","4","6","5","6","6","7","4","6","5","6","7","6","6","5","5","6","5","6","5","6","768804353862799361","李","668","Female","[""坏她"",""坏我"",""好我"",""好她""]","[""弱她"",""弱我"",""强我"",""强她""]","","","","","","","","","","","","","","","","","","","","","","","","","","","","","","feedback_test","","","","","","","",""
"903","","f","psychophysics","62","297552","0.0-8.0-0.0-1.0-0.0-0.26","6","5","7","5","5","4","3","5","4","4","4","1","0","1","0","0","1","2","0","4","5","5","5","4","3","4","4","4","3","6","5","6","7","5","6","6","7","7","6","5","4","6","5","3","4","4","5","5","3","2","5","3","6","5","3","4","5","5","4","6","5","6","6","7","4","6","5","6","7","6","6","5","5","6","5","6","5","6","768804353862799361","李","668","Female","[""坏她"",""坏我"",""好我"",""好她""]","[""弱她"",""弱我"",""强我"",""强她""]","","","","","","","","match","","","","","","","","","","key","f","16.66852212389385","747","463","f","true","match","img/square.png","坏我","坏我","prac_ALT2_moral","practice_moral","","","","","","","",""
"null","<span style='color:GreenYellow; font-size: 70px;'>正确! </span>","null","html-keyboard-response","63","298053","0.0-8.0-0.0-1.0-0.0-1.26","6","5","7","5","5","4","3","5","4","4","4","1","0","1","0","0","1","2","0","4","5","5","5","4","3","4","4","4","3","6","5","6","7","5","6","6","7","7","6","5","4","6","5","3","4","4","5","5","3","2","5","3","6","5","3","4","5","5","4","6","5","6","6","7","4","6","5","6","7","6","6","5","5","6","5","6","5","6","768804353862799361","李","668","Female","[""坏她"",""坏我"",""好我"",""好她""]","[""弱她"",""弱我"",""强我"",""强她""]","","","","","","","","","","","","","","","","","","","","","","","","","","","","","","feedback_test","","","","","","","",""
"946","","j","psychophysics","64","300000","0.0-8.0-0.0-1.0-0.0-0.27","6","5","7","5","5","4","3","5","4","4","4","1","0","1","0","0","1","2","0","4","5","5","5","4","3","4","4","4","3","6","5","6","7","5","6","6","7","7","6","5","4","6","5","3","4","4","5","5","3","2","5","3","6","5","3","4","5","5","4","6","5","6","6","7","4","6","5","6","7","6","6","5","5","6","5","6","5","6","768804353862799361","李","668","Female","[""坏她"",""坏我"",""好我"",""好她""]","[""弱她"",""弱我"",""强我"",""强她""]","","","","","","","","nonmatch","","","","","","","","","","key","j","16.66477586206898","747","463","j","true","nonmatch","img/square.png","坏她","坏我","prac_ALT2_moral","practice_moral","","","","","","","",""
"null","<span style='color:GreenYellow; font-size: 70px;'>正确! </span>","null","html-keyboard-response","65","300501","0.0-8.0-0.0-1.0-0.0-1.27","6","5","7","5","5","4","3","5","4","4","4","1","0","1","0","0","1","2","0","4","5","5","5","4","3","4","4","4","3","6","5","6","7","5","6","6","7","7","6","5","4","6","5","3","4","4","5","5","3","2","5","3","6","5","3","4","5","5","4","6","5","6","6","7","4","6","5","6","7","6","6","5","5","6","5","6","5","6","768804353862799361","李","668","Female","[""坏她"",""坏我"",""好我"",""好她""]","[""弱她"",""弱我"",""强我"",""强她""]","","","","","","","","","","","","","","","","","","","","","","","","","","","","","","feedback_test","","","","","","","",""
"943","","j","psychophysics","66","302445","0.0-8.0-0.0-1.0-0.0-0.28","6","5","7","5","5","4","3","5","4","4","4","1","0","1","0","0","1","2","0","4","5","5","5","4","3","4","4","4","3","6","5","6","7","5","6","6","7","7","6","5","4","6","5","3","4","4","5","5","3","2","5","3","6","5","3","4","5","5","4","6","5","6","6","7","4","6","5","6","7","6","6","5","5","6","5","6","5","6","768804353862799361","李","668","Female","[""坏她"",""坏我"",""好我"",""好她""]","[""弱她"",""弱我"",""强我"",""强她""]","","","","","","","","nonmatch","","","","","","","","","","key","j","16.666051724137827","747","463","j","true","nonmatch","img/ellipse.png","坏她","好我","prac_ALT2_moral","practice_moral","","","","","","","",""
"null","<span style='color:GreenYellow; font-size: 70px;'>正确! </span>","null","html-keyboard-response","67","302947","0.0-8.0-0.0-1.0-0.0-1.28","6","5","7","5","5","4","3","5","4","4","4","1","0","1","0","0","1","2","0","4","5","5","5","4","3","4","4","4","3","6","5","6","7","5","6","6","7","7","6","5","4","6","5","3","4","4","5","5","3","2","5","3","6","5","3","4","5","5","4","6","5","6","6","7","4","6","5","6","7","6","6","5","5","6","5","6","5","6","768804353862799361","李","668","Female","[""坏她"",""坏我"",""好我"",""好她""]","[""弱她"",""弱我"",""强我"",""强她""]","","","","","","","","","","","","","","","","","","","","","","","","","","","","","","feedback_test","","","","","","","",""
"1080","","j","psychophysics","68","305028","0.0-8.0-0.0-1.0-0.0-0.29","6","5","7","5","5","4","3","5","4","4","4","1","0","1","0","0","1","2","0","4","5","5","5","4","3","4","4","4","3","6","5","6","7","5","6","6","7","7","6","5","4","6","5","3","4","4","5","5","3","2","5","3","6","5","3","4","5","5","4","6","5","6","6","7","4","6","5","6","7","6","6","5","5","6","5","6","5","6","768804353862799361","李","668","Female","[""坏她"",""坏我"",""好我"",""好她""]","[""弱她"",""弱我"",""强我"",""强她""]","","","","","","","","nonmatch","","","","","","","","","","key","j","16.666096774193708","747","463","f","false","match","img/ellipse.png","好我","好我","prac_ALT2_moral","practice_moral","","","","","","","",""
"null","<span style='color:red; font-size: 70px;'>错误! </span>","null","html-keyboard-response","69","305529","0.0-8.0-0.0-1.0-0.0-1.29","6","5","7","5","5","4","3","5","4","4","4","1","0","1","0","0","1","2","0","4","5","5","5","4","3","4","4","4","3","6","5","6","7","5","6","6","7","7","6","5","4","6","5","3","4","4","5","5","3","2","5","3","6","5","3","4","5","5","4","6","5","6","6","7","4","6","5","6","7","6","6","5","5","6","5","6","5","6","768804353862799361","李","668","Female","[""坏她"",""坏我"",""好我"",""好她""]","[""弱她"",""弱我"",""强我"",""强她""]","","","","","","","","","","","","","","","","","","","","","","","","","","","","","","feedback_test","","","","","","","",""
"759","","j","psychophysics","70","307289","0.0-8.0-0.0-1.0-0.0-0.30","6","5","7","5","5","4","3","5","4","4","4","1","0","1","0","0","1","2","0","4","5","5","5","4","3","4","4","4","3","6","5","6","7","5","6","6","7","7","6","5","4","6","5","3","4","4","5","5","3","2","5","3","6","5","3","4","5","5","4","6","5","6","6","7","4","6","5","6","7","6","6","5","5","6","5","6","5","6","768804353862799361","李","668","Female","[""坏她"",""坏我"",""好我"",""好她""]","[""弱她"",""弱我"",""强我"",""强她""]","","","","","","","","nonmatch","","","","","","","","","","key","j","16.666605769230674","747","463","f","false","match","img/pentagon.png","坏她","坏她","prac_ALT2_moral","practice_moral","","","","","","","",""
"null","<span style='color:red; font-size: 70px;'>错误! </span>","null","html-keyboard-response","71","307789","0.0-8.0-0.0-1.0-0.0-1.30","6","5","7","5","5","4","3","5","4","4","4","1","0","1","0","0","1","2","0","4","5","5","5","4","3","4","4","4","3","6","5","6","7","5","6","6","7","7","6","5","4","6","5","3","4","4","5","5","3","2","5","3","6","5","3","4","5","5","4","6","5","6","6","7","4","6","5","6","7","6","6","5","5","6","5","6","5","6","768804353862799361","李","668","Female","[""坏她"",""坏我"",""好我"",""好她""]","[""弱她"",""弱我"",""强我"",""强她""]","","","","","","","","","","","","","","","","","","","","","","","","","","","","","","feedback_test","","","","","","","",""
"992","","j","psychophysics","72","309783","0.0-8.0-0.0-1.0-0.0-0.31","6","5","7","5","5","4","3","5","4","4","4","1","0","1","0","0","1","2","0","4","5","5","5","4","3","4","4","4","3","6","5","6","7","5","6","6","7","7","6","5","4","6","5","3","4","4","5","5","3","2","5","3","6","5","3","4","5","5","4","6","5","6","6","7","4","6","5","6","7","6","6","5","5","6","5","6","5","6","768804353862799361","李","668","Female","[""坏她"",""坏我"",""好我"",""好她""]","[""弱她"",""弱我"",""强我"",""强她""]","","","","","","","","nonmatch","","","","","","","","","","key","j","16.66809243697501","747","463","j","true","nonmatch","img/trapezoid.png","坏她","好她","prac_ALT2_moral","practice_moral","","","","","","","",""
"null","<span style='color:GreenYellow; font-size: 70px;'>正确! </span>","null","html-keyboard-response","73","310283","0.0-8.0-0.0-1.0-0.0-1.31","6","5","7","5","5","4","3","5","4","4","4","1","0","1","0","0","1","2","0","4","5","5","5","4","3","4","4","4","3","6","5","6","7","5","6","6","7","7","6","5","4","6","5","3","4","4","5","5","3","2","5","3","6","5","3","4","5","5","4","6","5","6","6","7","4","6","5","6","7","6","6","5","5","6","5","6","5","6","768804353862799361","李","668","Female","[""坏她"",""坏我"",""好我"",""好她""]","[""弱她"",""弱我"",""强我"",""强她""]","","","","","","","","","","","","","","","","","","","","","","","","","","","","","","feedback_test","","","","","","","",""
"924","","j","psychophysics","74","312209","0.0-8.0-0.0-1.0-0.0-0.32","6","5","7","5","5","4","3","5","4","4","4","1","0","1","0","0","1","2","0","4","5","5","5","4","3","4","4","4","3","6","5","6","7","5","6","6","7","7","6","5","4","6","5","3","4","4","5","5","3","2","5","3","6","5","3","4","5","5","4","6","5","6","6","7","4","6","5","6","7","6","6","5","5","6","5","6","5","6","768804353862799361","李","668","Female","[""坏她"",""坏我"",""好我"",""好她""]","[""弱她"",""弱我"",""强我"",""强她""]","","","","","","","","nonmatch","","","","","","","","","","key","j","16.66824347826085","747","463","f","false","match","img/trapezoid.png","好她","好她","prac_ALT2_moral","practice_moral","","","","","","","",""
"null","<span style='color:red; font-size: 70px;'>错误! </span>","null","html-keyboard-response","75","312711","0.0-8.0-0.0-1.0-0.0-1.32","6","5","7","5","5","4","3","5","4","4","4","1","0","1","0","0","1","2","0","4","5","5","5","4","3","4","4","4","3","6","5","6","7","5","6","6","7","7","6","5","4","6","5","3","4","4","5","5","3","2","5","3","6","5","3","4","5","5","4","6","5","6","6","7","4","6","5","6","7","6","6","5","5","6","5","6","5","6","768804353862799361","李","668","Female","[""坏她"",""坏我"",""好我"",""好她""]","[""弱她"",""弱我"",""强我"",""强她""]","","","","","","","","","","","","","","","","","","","","","","","","","","","","","","feedback_test","","","","","","","",""
"389","","f","psychophysics","76","314102","0.0-8.0-0.0-1.0-0.0-0.33","6","5","7","5","5","4","3","5","4","4","4","1","0","1","0","0","1","2","0","4","5","5","5","4","3","4","4","4","3","6","5","6","7","5","6","6","7","7","6","5","4","6","5","3","4","4","5","5","3","2","5","3","6","5","3","4","5","5","4","6","5","6","6","7","4","6","5","6","7","6","6","5","5","6","5","6","5","6","768804353862799361","李","668","Female","[""坏她"",""坏我"",""好我"",""好她""]","[""弱她"",""弱我"",""强我"",""强她""]","","","","","","","","match","","","","","","","","","","key","f","16.669768292683308","747","463","f","true","match","img/pentagon.png","坏她","坏她","prac_ALT2_moral","practice_moral","","","","","","","",""
"null","<span style='color:GreenYellow; font-size: 70px;'>正确! </span>","null","html-keyboard-response","77","314603","0.0-8.0-0.0-1.0-0.0-1.33","6","5","7","5","5","4","3","5","4","4","4","1","0","1","0","0","1","2","0","4","5","5","5","4","3","4","4","4","3","6","5","6","7","5","6","6","7","7","6","5","4","6","5","3","4","4","5","5","3","2","5","3","6","5","3","4","5","5","4","6","5","6","6","7","4","6","5","6","7","6","6","5","5","6","5","6","5","6","768804353862799361","李","668","Female","[""坏她"",""坏我"",""好我"",""好她""]","[""弱她"",""弱我"",""强我"",""强她""]","","","","","","","","","","","","","","","","","","","","","","","","","","","","","","feedback_test","","","","","","","",""
"810","","f","psychophysics","78","316414","0.0-8.0-0.0-1.0-0.0-0.34","6","5","7","5","5","4","3","5","4","4","4","1","0","1","0","0","1","2","0","4","5","5","5","4","3","4","4","4","3","6","5","6","7","5","6","6","7","7","6","5","4","6","5","3","4","4","5","5","3","2","5","3","6","5","3","4","5","5","4","6","5","6","6","7","4","6","5","6","7","6","6","5","5","6","5","6","5","6","768804353862799361","李","668","Female","[""坏她"",""坏我"",""好我"",""好她""]","[""弱她"",""弱我"",""强我"",""强她""]","","","","","","","","match","","","","","","","","","","key","f","16.666675925925826","747","463","f","true","match","img/ellipse.png","好我","好我","prac_ALT2_moral","practice_moral","","","","","","","",""
"null","<span style='color:GreenYellow; font-size: 70px;'>正确! </span>","null","html-keyboard-response","79","316917","0.0-8.0-0.0-1.0-0.0-1.34","6","5","7","5","5","4","3","5","4","4","4","1","0","1","0","0","1","2","0","4","5","5","5","4","3","4","4","4","3","6","5","6","7","5","6","6","7","7","6","5","4","6","5","3","4","4","5","5","3","2","5","3","6","5","3","4","5","5","4","6","5","6","6","7","4","6","5","6","7","6","6","5","5","6","5","6","5","6","768804353862799361","李","668","Female","[""坏她"",""坏我"",""好我"",""好她""]","[""弱她"",""弱我"",""强我"",""强她""]","","","","","","","","","","","","","","","","","","","","","","","","","","","","","","feedback_test","","","","","","","",""
"901","","j","psychophysics","80","318820","0.0-8.0-0.0-1.0-0.0-0.35","6","5","7","5","5","4","3","5","4","4","4","1","0","1","0","0","1","2","0","4","5","5","5","4","3","4","4","4","3","6","5","6","7","5","6","6","7","7","6","5","4","6","5","3","4","4","5","5","3","2","5","3","6","5","3","4","5","5","4","6","5","6","6","7","4","6","5","6","7","6","6","5","5","6","5","6","5","6","768804353862799361","李","668","Female","[""坏她"",""坏我"",""好我"",""好她""]","[""弱她"",""弱我"",""强我"",""强她""]","","","","","","","","nonmatch","","","","","","","","","","key","j","16.666539823009007","747","463","f","false","match","img/trapezoid.png","好她","好她","prac_ALT2_moral","practice_moral","","","","","","","",""
"null","<span style='color:red; font-size: 70px;'>错误! </span>","null","html-keyboard-response","81","319321","0.0-8.0-0.0-1.0-0.0-1.35","6","5","7","5","5","4","3","5","4","4","4","1","0","1","0","0","1","2","0","4","5","5","5","4","3","4","4","4","3","6","5","6","7","5","6","6","7","7","6","5","4","6","5","3","4","4","5","5","3","2","5","3","6","5","3","4","5","5","4","6","5","6","6","7","4","6","5","6","7","6","6","5","5","6","5","6","5","6","768804353862799361","李","668","Female","[""坏她"",""坏我"",""好我"",""好她""]","[""弱她"",""弱我"",""强我"",""强她""]","","","","","","","","","","","","","","","","","","","","","","","","","","","","","","feedback_test","","","","","","","",""
"906","","j","psychophysics","82","321228","0.0-8.0-0.0-1.0-0.0-0.36","6","5","7","5","5","4","3","5","4","4","4","1","0","1","0","0","1","2","0","4","5","5","5","4","3","4","4","4","3","6","5","6","7","5","6","6","7","7","6","5","4","6","5","3","4","4","5","5","3","2","5","3","6","5","3","4","5","5","4","6","5","6","6","7","4","6","5","6","7","6","6","5","5","6","5","6","5","6","768804353862799361","李","668","Female","[""坏她"",""坏我"",""好我"",""好她""]","[""弱她"",""弱我"",""强我"",""强她""]","","","","","","","","nonmatch","","","","","","","","","","key","j","16.667991228070285","747","463","j","true","nonmatch","img/ellipse.png","好她","好我","prac_ALT2_moral","practice_moral","","","","","","","",""
"null","<span style='color:GreenYellow; font-size: 70px;'>正确! </span>","null","html-keyboard-response","83","321729","0.0-8.0-0.0-1.0-0.0-1.36","6","5","7","5","5","4","3","5","4","4","4","1","0","1","0","0","1","2","0","4","5","5","5","4","3","4","4","4","3","6","5","6","7","5","6","6","7","7","6","5","4","6","5","3","4","4","5","5","3","2","5","3","6","5","3","4","5","5","4","6","5","6","6","7","4","6","5","6","7","6","6","5","5","6","5","6","5","6","768804353862799361","李","668","Female","[""坏她"",""坏我"",""好我"",""好她""]","[""弱她"",""弱我"",""强我"",""强她""]","","","","","","","","","","","","","","","","","","","","","","","","","","","","","","feedback_test","","","","","","","",""
"784","","j","psychophysics","84","323514","0.0-8.0-0.0-1.0-0.0-0.37","6","5","7","5","5","4","3","5","4","4","4","1","0","1","0","0","1","2","0","4","5","5","5","4","3","4","4","4","3","6","5","6","7","5","6","6","7","7","6","5","4","6","5","3","4","4","5","5","3","2","5","3","6","5","3","4","5","5","4","6","5","6","6","7","4","6","5","6","7","6","6","5","5","6","5","6","5","6","768804353862799361","李","668","Female","[""坏她"",""坏我"",""好我"",""好她""]","[""弱她"",""弱我"",""强我"",""强她""]","","","","","","","","nonmatch","","","","","","","","","","key","j","16.6681226415094","747","463","f","false","match","img/ellipse.png","好我","好我","prac_ALT2_moral","practice_moral","","","","","","","",""
"null","<span style='color:red; font-size: 70px;'>错误! </span>","null","html-keyboard-response","85","324015","0.0-8.0-0.0-1.0-0.0-1.37","6","5","7","5","5","4","3","5","4","4","4","1","0","1","0","0","1","2","0","4","5","5","5","4","3","4","4","4","3","6","5","6","7","5","6","6","7","7","6","5","4","6","5","3","4","4","5","5","3","2","5","3","6","5","3","4","5","5","4","6","5","6","6","7","4","6","5","6","7","6","6","5","5","6","5","6","5","6","768804353862799361","李","668","Female","[""坏她"",""坏我"",""好我"",""好她""]","[""弱她"",""弱我"",""强我"",""强她""]","","","","","","","","","","","","","","","","","","","","","","","","","","","","","","feedback_test","","","","","","","",""
"null","","null","psychophysics","86","326217","0.0-8.0-0.0-1.0-0.0-0.38","6","5","7","5","5","4","3","5","4","4","4","1","0","1","0","0","1","2","0","4","5","5","5","4","3","4","4","4","3","6","5","6","7","5","6","6","7","7","6","5","4","6","5","3","4","4","5","5","3","2","5","3","6","5","3","4","5","5","4","6","5","6","6","7","4","6","5","6","7","6","6","5","5","6","5","6","5","6","768804353862799361","李","668","Female","[""坏她"",""坏我"",""好我"",""好她""]","[""弱她"",""弱我"",""强我"",""强她""]","","","","","","","","null","","","","","","","","","","key","null","16.667427480916178","747","463","j","false","nonmatch","img/pentagon.png","坏我","坏她","prac_ALT2_moral","practice_moral","","","","","","","",""
"null","<span class='add_' style='color:yellow; font-size: 70px;'> 太慢! </span>","null","html-keyboard-response","87","326718","0.0-8.0-0.0-1.0-0.0-1.38","6","5","7","5","5","4","3","5","4","4","4","1","0","1","0","0","1","2","0","4","5","5","5","4","3","4","4","4","3","6","5","6","7","5","6","6","7","7","6","5","4","6","5","3","4","4","5","5","3","2","5","3","6","5","3","4","5","5","4","6","5","6","6","7","4","6","5","6","7","6","6","5","5","6","5","6","5","6","768804353862799361","李","668","Female","[""坏她"",""坏我"",""好我"",""好她""]","[""弱她"",""弱我"",""强我"",""强她""]","","","","","","","","","","","","","","","","","","","","","","","","","","","","","","feedback_test","","","","","","","",""
"785","","f","psychophysics","88","328505","0.0-8.0-0.0-1.0-0.0-0.39","6","5","7","5","5","4","3","5","4","4","4","1","0","1","0","0","1","2","0","4","5","5","5","4","3","4","4","4","3","6","5","6","7","5","6","6","7","7","6","5","4","6","5","3","4","4","5","5","3","2","5","3","6","5","3","4","5","5","4","6","5","6","6","7","4","6","5","6","7","6","6","5","5","6","5","6","5","6","768804353862799361","李","668","Female","[""坏她"",""坏我"",""好我"",""好她""]","[""弱她"",""弱我"",""强我"",""强她""]","","","","","","","","match","","","","","","","","","","key","f","16.668273584905656","747","463","j","false","nonmatch","img/square.png","好我","坏我","prac_ALT2_moral","practice_moral","","","","","","","",""
"null","<span style='color:red; font-size: 70px;'>错误! </span>","null","html-keyboard-response","89","329006","0.0-8.0-0.0-1.0-0.0-1.39","6","5","7","5","5","4","3","5","4","4","4","1","0","1","0","0","1","2","0","4","5","5","5","4","3","4","4","4","3","6","5","6","7","5","6","6","7","7","6","5","4","6","5","3","4","4","5","5","3","2","5","3","6","5","3","4","5","5","4","6","5","6","6","7","4","6","5","6","7","6","6","5","5","6","5","6","5","6","768804353862799361","李","668","Female","[""坏她"",""坏我"",""好我"",""好她""]","[""弱她"",""弱我"",""强我"",""强她""]","","","","","","","","","","","","","","","","","","","","","","","","","","","","","","feedback_test","","","","","","","",""
"907","","j","psychophysics","90","330915","0.0-8.0-0.0-1.0-0.0-0.40","6","5","7","5","5","4","3","5","4","4","4","1","0","1","0","0","1","2","0","4","5","5","5","4","3","4","4","4","3","6","5","6","7","5","6","6","7","7","6","5","4","6","5","3","4","4","5","5","3","2","5","3","6","5","3","4","5","5","4","6","5","6","6","7","4","6","5","6","7","6","6","5","5","6","5","6","5","6","768804353862799361","李","668","Female","[""坏她"",""坏我"",""好我"",""好她""]","[""弱她"",""弱我"",""强我"",""强她""]","","","","","","","","nonmatch","","","","","","","","","","key","j","16.66239823008871","747","463","f","false","match","img/trapezoid.png","好她","好她","prac_ALT2_moral","practice_moral","","","","","","","",""
"null","<span style='color:red; font-size: 70px;'>错误! </span>","null","html-keyboard-response","91","331417","0.0-8.0-0.0-1.0-0.0-1.40","6","5","7","5","5","4","3","5","4","4","4","1","0","1","0","0","1","2","0","4","5","5","5","4","3","4","4","4","3","6","5","6","7","5","6","6","7","7","6","5","4","6","5","3","4","4","5","5","3","2","5","3","6","5","3","4","5","5","4","6","5","6","6","7","4","6","5","6","7","6","6","5","5","6","5","6","5","6","768804353862799361","李","668","Female","[""坏她"",""坏我"",""好我"",""好她""]","[""弱她"",""弱我"",""强我"",""强她""]","","","","","","","","","","","","","","","","","","","","","","","","","","","","","","feedback_test","","","","","","","",""
"994","","j","psychophysics","92","333412","0.0-8.0-0.0-1.0-0.0-0.41","6","5","7","5","5","4","3","5","4","4","4","1","0","1","0","0","1","2","0","4","5","5","5","4","3","4","4","4","3","6","5","6","7","5","6","6","7","7","6","5","4","6","5","3","4","4","5","5","3","2","5","3","6","5","3","4","5","5","4","6","5","6","6","7","4","6","5","6","7","6","6","5","5","6","5","6","5","6","768804353862799361","李","668","Female","[""坏她"",""坏我"",""好我"",""好她""]","[""弱她"",""弱我"",""强我"",""强她""]","","","","","","","","nonmatch","","","","","","","","","","key","j","16.668680672269186","747","463","j","true","nonmatch","img/trapezoid.png","坏我","好她","prac_ALT2_moral","practice_moral","","","","","","","",""
"null","<span style='color:GreenYellow; font-size: 70px;'>正确! </span>","null","html-keyboard-response","93","333913","0.0-8.0-0.0-1.0-0.0-1.41","6","5","7","5","5","4","3","5","4","4","4","1","0","1","0","0","1","2","0","4","5","5","5","4","3","4","4","4","3","6","5","6","7","5","6","6","7","7","6","5","4","6","5","3","4","4","5","5","3","2","5","3","6","5","3","4","5","5","4","6","5","6","6","7","4","6","5","6","7","6","6","5","5","6","5","6","5","6","768804353862799361","李","668","Female","[""坏她"",""坏我"",""好我"",""好她""]","[""弱她"",""弱我"",""强我"",""强她""]","","","","","","","","","","","","","","","","","","","","","","","","","","","","","","feedback_test","","","","","","","",""
"1029","","f","psychophysics","94","335943","0.0-8.0-0.0-1.0-0.0-0.42","6","5","7","5","5","4","3","5","4","4","4","1","0","1","0","0","1","2","0","4","5","5","5","4","3","4","4","4","3","6","5","6","7","5","6","6","7","7","6","5","4","6","5","3","4","4","5","5","3","2","5","3","6","5","3","4","5","5","4","6","5","6","6","7","4","6","5","6","7","6","6","5","5","6","5","6","5","6","768804353862799361","李","668","Female","[""坏她"",""坏我"",""好我"",""好她""]","[""弱她"",""弱我"",""强我"",""强她""]","","","","","","","","match","","","","","","","","","","key","f","16.66674380165319","747","463","f","true","match","img/square.png","坏我","坏我","prac_ALT2_moral","practice_moral","","","","","","","",""
"null","<span style='color:GreenYellow; font-size: 70px;'>正确! </span>","null","html-keyboard-response","95","336444","0.0-8.0-0.0-1.0-0.0-1.42","6","5","7","5","5","4","3","5","4","4","4","1","0","1","0","0","1","2","0","4","5","5","5","4","3","4","4","4","3","6","5","6","7","5","6","6","7","7","6","5","4","6","5","3","4","4","5","5","3","2","5","3","6","5","3","4","5","5","4","6","5","6","6","7","4","6","5","6","7","6","6","5","5","6","5","6","5","6","768804353862799361","李","668","Female","[""坏她"",""坏我"",""好我"",""好她""]","[""弱她"",""弱我"",""强我"",""强她""]","","","","","","","","","","","","","","","","","","","","","","","","","","","","","","feedback_test","","","","","","","",""
"869","","j","psychophysics","96","338315","0.0-8.0-0.0-1.0-0.0-0.43","6","5","7","5","5","4","3","5","4","4","4","1","0","1","0","0","1","2","0","4","5","5","5","4","3","4","4","4","3","6","5","6","7","5","6","6","7","7","6","5","4","6","5","3","4","4","5","5","3","2","5","3","6","5","3","4","5","5","4","6","5","6","6","7","4","6","5","6","7","6","6","5","5","6","5","6","5","6","768804353862799361","李","668","Female","[""坏她"",""坏我"",""好我"",""好她""]","[""弱她"",""弱我"",""强我"",""强她""]","","","","","","","","nonmatch","","","","","","","","","","key","j","16.666657657657755","747","463","j","true","nonmatch","img/pentagon.png","好她","坏她","prac_ALT2_moral","practice_moral","","","","","","","",""
"null","<span style='color:GreenYellow; font-size: 70px;'>正确! </span>","null","html-keyboard-response","97","338815","0.0-8.0-0.0-1.0-0.0-1.43","6","5","7","5","5","4","3","5","4","4","4","1","0","1","0","0","1","2","0","4","5","5","5","4","3","4","4","4","3","6","5","6","7","5","6","6","7","7","6","5","4","6","5","3","4","4","5","5","3","2","5","3","6","5","3","4","5","5","4","6","5","6","6","7","4","6","5","6","7","6","6","5","5","6","5","6","5","6","768804353862799361","李","668","Female","[""坏她"",""坏我"",""好我"",""好她""]","[""弱她"",""弱我"",""强我"",""强她""]","","","","","","","","","","","","","","","","","","","","","","","","","","","","","","feedback_test","","","","","","","",""
"1047","","f","psychophysics","98","340864","0.0-8.0-0.0-1.0-0.0-0.44","6","5","7","5","5","4","3","5","4","4","4","1","0","1","0","0","1","2","0","4","5","5","5","4","3","4","4","4","3","6","5","6","7","5","6","6","7","7","6","5","4","6","5","3","4","4","5","5","3","2","5","3","6","5","3","4","5","5","4","6","5","6","6","7","4","6","5","6","7","6","6","5","5","6","5","6","5","6","768804353862799361","李","668","Female","[""坏她"",""坏我"",""好我"",""好她""]","[""弱她"",""弱我"",""强我"",""强她""]","","","","","","","","match","","","","","","","","","","key","f","16.666303278688442","747","463","f","true","match","img/pentagon.png","坏她","坏她","prac_ALT2_moral","practice_moral","","","","","","","",""
"null","<span style='color:GreenYellow; font-size: 70px;'>正确! </span>","null","html-keyboard-response","99","341365","0.0-8.0-0.0-1.0-0.0-1.44","6","5","7","5","5","4","3","5","4","4","4","1","0","1","0","0","1","2","0","4","5","5","5","4","3","4","4","4","3","6","5","6","7","5","6","6","7","7","6","5","4","6","5","3","4","4","5","5","3","2","5","3","6","5","3","4","5","5","4","6","5","6","6","7","4","6","5","6","7","6","6","5","5","6","5","6","5","6","768804353862799361","李","668","Female","[""坏她"",""坏我"",""好我"",""好她""]","[""弱她"",""弱我"",""强我"",""强她""]","","","","","","","","","","","","","","","","","","","","","","","","","","","","","","feedback_test","","","","","","","",""
"731","","j","psychophysics","100","343098","0.0-8.0-0.0-1.0-0.0-0.45","6","5","7","5","5","4","3","5","4","4","4","1","0","1","0","0","1","2","0","4","5","5","5","4","3","4","4","4","3","6","5","6","7","5","6","6","7","7","6","5","4","6","5","3","4","4","5","5","3","2","5","3","6","5","3","4","5","5","4","6","5","6","6","7","4","6","5","6","7","6","6","5","5","6","5","6","5","6","768804353862799361","李","668","Female","[""坏她"",""坏我"",""好我"",""好她""]","[""弱她"",""弱我"",""强我"",""强她""]","","","","","","","","nonmatch","","","","","","","","","","key","j","16.66603883495159","747","463","j","true","nonmatch","img/pentagon.png","好我","坏她","prac_ALT2_moral","practice_moral","","","","","","","",""
"null","<span style='color:GreenYellow; font-size: 70px;'>正确! </span>","null","html-keyboard-response","101","343599","0.0-8.0-0.0-1.0-0.0-1.45","6","5","7","5","5","4","3","5","4","4","4","1","0","1","0","0","1","2","0","4","5","5","5","4","3","4","4","4","3","6","5","6","7","5","6","6","7","7","6","5","4","6","5","3","4","4","5","5","3","2","5","3","6","5","3","4","5","5","4","6","5","6","6","7","4","6","5","6","7","6","6","5","5","6","5","6","5","6","768804353862799361","李","668","Female","[""坏她"",""坏我"",""好我"",""好她""]","[""弱她"",""弱我"",""强我"",""强她""]","","","","","","","","","","","","","","","","","","","","","","","","","","","","","","feedback_test","","","","","","","",""
"868","","j","psychophysics","102","345467","0.0-8.0-0.0-1.0-0.0-0.46","6","5","7","5","5","4","3","5","4","4","4","1","0","1","0","0","1","2","0","4","5","5","5","4","3","4","4","4","3","6","5","6","7","5","6","6","7","7","6","5","4","6","5","3","4","4","5","5","3","2","5","3","6","5","3","4","5","5","4","6","5","6","6","7","4","6","5","6","7","6","6","5","5","6","5","6","5","6","768804353862799361","李","668","Female","[""坏她"",""坏我"",""好我"",""好她""]","[""弱她"",""弱我"",""强我"",""强她""]","","","","","","","","nonmatch","","","","","","","","","","key","j","16.666396396396145","747","463","j","true","nonmatch","img/trapezoid.png","好我","好她","prac_ALT2_moral","practice_moral","","","","","","","",""
"null","<span style='color:GreenYellow; font-size: 70px;'>正确! </span>","null","html-keyboard-response","103","345968","0.0-8.0-0.0-1.0-0.0-1.46","6","5","7","5","5","4","3","5","4","4","4","1","0","1","0","0","1","2","0","4","5","5","5","4","3","4","4","4","3","6","5","6","7","5","6","6","7","7","6","5","4","6","5","3","4","4","5","5","3","2","5","3","6","5","3","4","5","5","4","6","5","6","6","7","4","6","5","6","7","6","6","5","5","6","5","6","5","6","768804353862799361","李","668","Female","[""坏她"",""坏我"",""好我"",""好她""]","[""弱她"",""弱我"",""强我"",""强她""]","","","","","","","","","","","","","","","","","","","","","","","","","","","","","","feedback_test","","","","","","","",""
"722","","j","psychophysics","104","347692","0.0-8.0-0.0-1.0-0.0-0.47","6","5","7","5","5","4","3","5","4","4","4","1","0","1","0","0","1","2","0","4","5","5","5","4","3","4","4","4","3","6","5","6","7","5","6","6","7","7","6","5","4","6","5","3","4","4","5","5","3","2","5","3","6","5","3","4","5","5","4","6","5","6","6","7","4","6","5","6","7","6","6","5","5","6","5","6","5","6","768804353862799361","李","668","Female","[""坏她"",""坏我"",""好我"",""好她""]","[""弱她"",""弱我"",""强我"",""强她""]","","","","","","","","nonmatch","","","","","","","","","","key","j","16.66477669902921","747","463","j","true","nonmatch","img/ellipse.png","坏我","好我","prac_ALT2_moral","practice_moral","","","","","","","",""
"null","<span style='color:GreenYellow; font-size: 70px;'>正确! </span>","null","html-keyboard-response","105","348193","0.0-8.0-0.0-1.0-0.0-1.47","6","5","7","5","5","4","3","5","4","4","4","1","0","1","0","0","1","2","0","4","5","5","5","4","3","4","4","4","3","6","5","6","7","5","6","6","7","7","6","5","4","6","5","3","4","4","5","5","3","2","5","3","6","5","3","4","5","5","4","6","5","6","6","7","4","6","5","6","7","6","6","5","5","6","5","6","5","6","768804353862799361","李","668","Female","[""坏她"",""坏我"",""好我"",""好她""]","[""弱她"",""弱我"",""强我"",""强她""]","","","","","","","","","","","","","","","","","","","","","","","","","","","","","","feedback_test","","","","","","","",""
"36655","<style>.context{color:white; font-size: 35px; line-height:40px}</style>                            <div><p class='context'>您正确回答了60% 的试次。</p><p class='context'>您的平均反应时为828毫秒。</p><p class='context'>恭喜您完成练习。按空格键进入正式实验。</p><p class='footer' style='font-size: 35px; line-height:40px;'>请在进入正式实验实验之前将您的<span style='color: lightgreen;'>食指</span>放在电脑键盘的相应键位上进行按键。</p>"," ","html-keyboard-response","106","384850","0.0-8.0-0.0-2.0","6","5","7","5","5","4","3","5","4","4","4","1","0","1","0","0","1","2","0","4","5","5","5","4","3","4","4","4","3","6","5","6","7","5","6","6","7","7","6","5","4","6","5","3","4","4","5","5","3","2","5","3","6","5","3","4","5","5","4","6","5","6","6","7","4","6","5","6","7","6","6","5","5","6","5","6","5","6","768804353862799361","李","668","Female","[""坏她"",""坏我"",""好我"",""好她""]","[""弱她"",""弱我"",""强我"",""强她""]","","","","","","","","","","","","","","","","","","","","","","","","","","","","","","","","","","","","","",""
"1724","
    <p style='color: white; font-size: 22px'>请您将手指放在按键上，准备进入正式的匹配任务。</p>
    <p> <div style = ""color: green""><按空格键进入下一阶段的匹配任务></div></p>
    "," ","html-keyboard-response","107","386575","0.0-8.0-0.0-3.0","6","5","7","5","5","4","3","5","4","4","4","1","0","1","0","0","1","2","0","4","5","5","5","4","3","4","4","4","3","6","5","6","7","5","6","6","7","7","6","5","4","6","5","3","4","4","5","5","3","2","5","3","6","5","3","4","5","5","4","6","5","6","6","7","4","6","5","6","7","6","6","5","5","6","5","6","5","6","768804353862799361","李","668","Female","[""坏她"",""坏我"",""好我"",""好她""]","[""弱她"",""弱我"",""强我"",""强她""]","","","","","","","","","","","","","","","","","","","","","","","","","","","","","","","","","","","","","",""
"867","","j","psychophysics","108","388444","0.0-8.0-0.0-4.0-0.0-0.0","6","5","7","5","5","4","3","5","4","4","4","1","0","1","0","0","1","2","0","4","5","5","5","4","3","4","4","4","3","6","5","6","7","5","6","6","7","7","6","5","4","6","5","3","4","4","5","5","3","2","5","3","6","5","3","4","5","5","4","6","5","6","6","7","4","6","5","6","7","6","6","5","5","6","5","6","5","6","768804353862799361","李","668","Female","[""坏她"",""坏我"",""好我"",""好她""]","[""弱她"",""弱我"",""强我"",""强她""]","","","","","","","","nonmatch","","","","","","","","","","key","j","16.66667567567558","747","463","f","false","match","img/square.png","坏我","坏我","ALT2","moral","","","","","","","",""
"null","<span style='color:red; font-size: 70px;'>错误! </span>","null","html-keyboard-response","109","388944","0.0-8.0-0.0-4.0-0.0-1.0","6","5","7","5","5","4","3","5","4","4","4","1","0","1","0","0","1","2","0","4","5","5","5","4","3","4","4","4","3","6","5","6","7","5","6","6","7","7","6","5","4","6","5","3","4","4","5","5","3","2","5","3","6","5","3","4","5","5","4","6","5","6","6","7","4","6","5","6","7","6","6","5","5","6","5","6","5","6","768804353862799361","李","668","Female","[""坏她"",""坏我"",""好我"",""好她""]","[""弱她"",""弱我"",""强我"",""强她""]","","","","","","","","","","","","","","","","","","","","","","","","","","","","","","feedback_test","","","","","","","",""
"618","","f","psychophysics","110","390571","0.0-8.0-0.0-4.0-0.0-0.1","6","5","7","5","5","4","3","5","4","4","4","1","0","1","0","0","1","2","0","4","5","5","5","4","3","4","4","4","3","6","5","6","7","5","6","6","7","7","6","5","4","6","5","3","4","4","5","5","3","2","5","3","6","5","3","4","5","5","4","6","5","6","6","7","4","6","5","6","7","6","6","5","5","6","5","6","5","6","768804353862799361","李","668","Female","[""坏她"",""坏我"",""好我"",""好她""]","[""弱她"",""弱我"",""强我"",""强她""]","","","","","","","","match","","","","","","","","","","key","f","16.667062500000004","747","463","f","true","match","img/pentagon.png","坏她","坏她","ALT2","moral","","","","","","","",""
"null","<span style='color:GreenYellow; font-size: 70px;'>正确! </span>","null","html-keyboard-response","111","391073","0.0-8.0-0.0-4.0-0.0-1.1","6","5","7","5","5","4","3","5","4","4","4","1","0","1","0","0","1","2","0","4","5","5","5","4","3","4","4","4","3","6","5","6","7","5","6","6","7","7","6","5","4","6","5","3","4","4","5","5","3","2","5","3","6","5","3","4","5","5","4","6","5","6","6","7","4","6","5","6","7","6","6","5","5","6","5","6","5","6","768804353862799361","李","668","Female","[""坏她"",""坏我"",""好我"",""好她""]","[""弱她"",""弱我"",""强我"",""强她""]","","","","","","","","","","","","","","","","","","","","","","","","","","","","","","feedback_test","","","","","","","",""
"731","","f","psychophysics","112","392805","0.0-8.0-0.0-4.0-0.0-0.2","6","5","7","5","5","4","3","5","4","4","4","1","0","1","0","0","1","2","0","4","5","5","5","4","3","4","4","4","3","6","5","6","7","5","6","6","7","7","6","5","4","6","5","3","4","4","5","5","3","2","5","3","6","5","3","4","5","5","4","6","5","6","6","7","4","6","5","6","7","6","6","5","5","6","5","6","5","6","768804353862799361","李","668","Female","[""坏她"",""坏我"",""好我"",""好她""]","[""弱她"",""弱我"",""强我"",""强她""]","","","","","","","","match","","","","","","","","","","key","f","16.666029411764683","747","463","f","true","match","img/pentagon.png","坏她","坏她","ALT2","moral","","","","","","","",""
"null","<span style='color:GreenYellow; font-size: 70px;'>正确! </span>","null","html-keyboard-response","113","393305","0.0-8.0-0.0-4.0-0.0-1.2","6","5","7","5","5","4","3","5","4","4","4","1","0","1","0","0","1","2","0","4","5","5","5","4","3","4","4","4","3","6","5","6","7","5","6","6","7","7","6","5","4","6","5","3","4","4","5","5","3","2","5","3","6","5","3","4","5","5","4","6","5","6","6","7","4","6","5","6","7","6","6","5","5","6","5","6","5","6","768804353862799361","李","668","Female","[""坏她"",""坏我"",""好我"",""好她""]","[""弱她"",""弱我"",""强我"",""强她""]","","","","","","","","","","","","","","","","","","","","","","","","","","","","","","feedback_test","","","","","","","",""
"707","","j","psychophysics","114","395014","0.0-8.0-0.0-4.0-0.0-0.3","6","5","7","5","5","4","3","5","4","4","4","1","0","1","0","0","1","2","0","4","5","5","5","4","3","4","4","4","3","6","5","6","7","5","6","6","7","7","6","5","4","6","5","3","4","4","5","5","3","2","5","3","6","5","3","4","5","5","4","6","5","6","6","7","4","6","5","6","7","6","6","5","5","6","5","6","5","6","768804353862799361","李","668","Female","[""坏她"",""坏我"",""好我"",""好她""]","[""弱她"",""弱我"",""强我"",""强她""]","","","","","","","","nonmatch","","","","","","","","","","key","j","16.66798019801995","747","463","j","true","nonmatch","img/square.png","好我","坏我","ALT2","moral","","","","","","","",""
"null","<span style='color:GreenYellow; font-size: 70px;'>正确! </span>","null","html-keyboard-response","115","395514","0.0-8.0-0.0-4.0-0.0-1.3","6","5","7","5","5","4","3","5","4","4","4","1","0","1","0","0","1","2","0","4","5","5","5","4","3","4","4","4","3","6","5","6","7","5","6","6","7","7","6","5","4","6","5","3","4","4","5","5","3","2","5","3","6","5","3","4","5","5","4","6","5","6","6","7","4","6","5","6","7","6","6","5","5","6","5","6","5","6","768804353862799361","李","668","Female","[""坏她"",""坏我"",""好我"",""好她""]","[""弱她"",""弱我"",""强我"",""强她""]","","","","","","","","","","","","","","","","","","","","","","","","","","","","","","feedback_test","","","","","","","",""
"1081","","j","psychophysics","116","397596","0.0-8.0-0.0-4.0-0.0-0.4","6","5","7","5","5","4","3","5","4","4","4","1","0","1","0","0","1","2","0","4","5","5","5","4","3","4","4","4","3","6","5","6","7","5","6","6","7","7","6","5","4","6","5","3","4","4","5","5","3","2","5","3","6","5","3","4","5","5","4","6","5","6","6","7","4","6","5","6","7","6","6","5","5","6","5","6","5","6","768804353862799361","李","668","Female","[""坏她"",""坏我"",""好我"",""好她""]","[""弱她"",""弱我"",""强我"",""强她""]","","","","","","","","nonmatch","","","","","","","","","","key","j","16.666379032258014","747","463","f","false","match","img/trapezoid.png","好她","好她","ALT2","moral","","","","","","","",""
"null","<span style='color:red; font-size: 70px;'>错误! </span>","null","html-keyboard-response","117","398097","0.0-8.0-0.0-4.0-0.0-1.4","6","5","7","5","5","4","3","5","4","4","4","1","0","1","0","0","1","2","0","4","5","5","5","4","3","4","4","4","3","6","5","6","7","5","6","6","7","7","6","5","4","6","5","3","4","4","5","5","3","2","5","3","6","5","3","4","5","5","4","6","5","6","6","7","4","6","5","6","7","6","6","5","5","6","5","6","5","6","768804353862799361","李","668","Female","[""坏她"",""坏我"",""好我"",""好她""]","[""弱她"",""弱我"",""强我"",""强她""]","","","","","","","","","","","","","","","","","","","","","","","","","","","","","","feedback_test","","","","","","","",""
"1029","","j","psychophysics","118","400128","0.0-8.0-0.0-4.0-0.0-0.5","6","5","7","5","5","4","3","5","4","4","4","1","0","1","0","0","1","2","0","4","5","5","5","4","3","4","4","4","3","6","5","6","7","5","6","6","7","7","6","5","4","6","5","3","4","4","5","5","3","2","5","3","6","5","3","4","5","5","4","6","5","6","6","7","4","6","5","6","7","6","6","5","5","6","5","6","5","6","768804353862799361","李","668","Female","[""坏她"",""坏我"",""好我"",""好她""]","[""弱她"",""弱我"",""强我"",""强她""]","","","","","","","","nonmatch","","","","","","","","","","key","j","16.668181818182106","747","463","j","true","nonmatch","img/square.png","坏她","坏我","ALT2","moral","","","","","","","",""
"null","<span style='color:GreenYellow; font-size: 70px;'>正确! </span>","null","html-keyboard-response","119","400628","0.0-8.0-0.0-4.0-0.0-1.5","6","5","7","5","5","4","3","5","4","4","4","1","0","1","0","0","1","2","0","4","5","5","5","4","3","4","4","4","3","6","5","6","7","5","6","6","7","7","6","5","4","6","5","3","4","4","5","5","3","2","5","3","6","5","3","4","5","5","4","6","5","6","6","7","4","6","5","6","7","6","6","5","5","6","5","6","5","6","768804353862799361","李","668","Female","[""坏她"",""坏我"",""好我"",""好她""]","[""弱她"",""弱我"",""强我"",""强她""]","","","","","","","","","","","","","","","","","","","","","","","","","","","","","","feedback_test","","","","","","","",""
"1075","","f","psychophysics","120","402704","0.0-8.0-0.0-4.0-0.0-0.6","6","5","7","5","5","4","3","5","4","4","4","1","0","1","0","0","1","2","0","4","5","5","5","4","3","4","4","4","3","6","5","6","7","5","6","6","7","7","6","5","4","6","5","3","4","4","5","5","3","2","5","3","6","5","3","4","5","5","4","6","5","6","6","7","4","6","5","6","7","6","6","5","5","6","5","6","5","6","768804353862799361","李","668","Female","[""坏她"",""坏我"",""好我"",""好她""]","[""弱她"",""弱我"",""强我"",""强她""]","","","","","","","","match","","","","","","","","","","key","f","16.665617886178737","747","463","f","true","match","img/pentagon.png","坏她","坏她","ALT2","moral","","","","","","","",""
"null","<span style='color:GreenYellow; font-size: 70px;'>正确! </span>","null","html-keyboard-response","121","403204","0.0-8.0-0.0-4.0-0.0-1.6","6","5","7","5","5","4","3","5","4","4","4","1","0","1","0","0","1","2","0","4","5","5","5","4","3","4","4","4","3","6","5","6","7","5","6","6","7","7","6","5","4","6","5","3","4","4","5","5","3","2","5","3","6","5","3","4","5","5","4","6","5","6","6","7","4","6","5","6","7","6","6","5","5","6","5","6","5","6","768804353862799361","李","668","Female","[""坏她"",""坏我"",""好我"",""好她""]","[""弱她"",""弱我"",""强我"",""强她""]","","","","","","","","","","","","","","","","","","","","","","","","","","","","","","feedback_test","","","","","","","",""
"627","","f","psychophysics","122","404832","0.0-8.0-0.0-4.0-0.0-0.7","6","5","7","5","5","4","3","5","4","4","4","1","0","1","0","0","1","2","0","4","5","5","5","4","3","4","4","4","3","6","5","6","7","5","6","6","7","7","6","5","4","6","5","3","4","4","5","5","3","2","5","3","6","5","3","4","5","5","4","6","5","6","6","7","4","6","5","6","7","6","6","5","5","6","5","6","5","6","768804353862799361","李","668","Female","[""坏她"",""坏我"",""好我"",""好她""]","[""弱她"",""弱我"",""强我"",""强她""]","","","","","","","","match","","","","","","","","","","key","f","16.66658333333362","747","463","f","true","match","img/trapezoid.png","好她","好她","ALT2","moral","","","","","","","",""
"null","<span style='color:GreenYellow; font-size: 70px;'>正确! </span>","null","html-keyboard-response","123","405333","0.0-8.0-0.0-4.0-0.0-1.7","6","5","7","5","5","4","3","5","4","4","4","1","0","1","0","0","1","2","0","4","5","5","5","4","3","4","4","4","3","6","5","6","7","5","6","6","7","7","6","5","4","6","5","3","4","4","5","5","3","2","5","3","6","5","3","4","5","5","4","6","5","6","6","7","4","6","5","6","7","6","6","5","5","6","5","6","5","6","768804353862799361","李","668","Female","[""坏她"",""坏我"",""好我"",""好她""]","[""弱她"",""弱我"",""强我"",""强她""]","","","","","","","","","","","","","","","","","","","","","","","","","","","","","","feedback_test","","","","","","","",""
"831","","j","psychophysics","124","407165","0.0-8.0-0.0-4.0-0.0-0.8","6","5","7","5","5","4","3","5","4","4","4","1","0","1","0","0","1","2","0","4","5","5","5","4","3","4","4","4","3","6","5","6","7","5","6","6","7","7","6","5","4","6","5","3","4","4","5","5","3","2","5","3","6","5","3","4","5","5","4","6","5","6","6","7","4","6","5","6","7","6","6","5","5","6","5","6","5","6","768804353862799361","李","668","Female","[""坏她"",""坏我"",""好我"",""好她""]","[""弱她"",""弱我"",""强我"",""强她""]","","","","","","","","nonmatch","","","","","","","","","","key","j","16.663944954128933","747","463","j","true","nonmatch","img/pentagon.png","好她","坏她","ALT2","moral","","","","","","","",""
"null","<span style='color:GreenYellow; font-size: 70px;'>正确! </span>","null","html-keyboard-response","125","407666","0.0-8.0-0.0-4.0-0.0-1.8","6","5","7","5","5","4","3","5","4","4","4","1","0","1","0","0","1","2","0","4","5","5","5","4","3","4","4","4","3","6","5","6","7","5","6","6","7","7","6","5","4","6","5","3","4","4","5","5","3","2","5","3","6","5","3","4","5","5","4","6","5","6","6","7","4","6","5","6","7","6","6","5","5","6","5","6","5","6","768804353862799361","李","668","Female","[""坏她"",""坏我"",""好我"",""好她""]","[""弱她"",""弱我"",""强我"",""强她""]","","","","","","","","","","","","","","","","","","","","","","","","","","","","","","feedback_test","","","","","","","",""
"752","","j","psychophysics","126","409419","0.0-8.0-0.0-4.0-0.0-0.9","6","5","7","5","5","4","3","5","4","4","4","1","0","1","0","0","1","2","0","4","5","5","5","4","3","4","4","4","3","6","5","6","7","5","6","6","7","7","6","5","4","6","5","3","4","4","5","5","3","2","5","3","6","5","3","4","5","5","4","6","5","6","6","7","4","6","5","6","7","6","6","5","5","6","5","6","5","6","768804353862799361","李","668","Female","[""坏她"",""坏我"",""好我"",""好她""]","[""弱她"",""弱我"",""强我"",""强她""]","","","","","","","","nonmatch","","","","","","","","","","key","j","16.663201923076905","747","463","j","true","nonmatch","img/trapezoid.png","坏她","好她","ALT2","moral","","","","","","","",""
"null","<span style='color:GreenYellow; font-size: 70px;'>正确! </span>","null","html-keyboard-response","127","409921","0.0-8.0-0.0-4.0-0.0-1.9","6","5","7","5","5","4","3","5","4","4","4","1","0","1","0","0","1","2","0","4","5","5","5","4","3","4","4","4","3","6","5","6","7","5","6","6","7","7","6","5","4","6","5","3","4","4","5","5","3","2","5","3","6","5","3","4","5","5","4","6","5","6","6","7","4","6","5","6","7","6","6","5","5","6","5","6","5","6","768804353862799361","李","668","Female","[""坏她"",""坏我"",""好我"",""好她""]","[""弱她"",""弱我"",""强我"",""强她""]","","","","","","","","","","","","","","","","","","","","","","","","","","","","","","feedback_test","","","","","","","",""
"803","","j","psychophysics","128","411724","0.0-8.0-0.0-4.0-0.0-0.10","6","5","7","5","5","4","3","5","4","4","4","1","0","1","0","0","1","2","0","4","5","5","5","4","3","4","4","4","3","6","5","6","7","5","6","6","7","7","6","5","4","6","5","3","4","4","5","5","3","2","5","3","6","5","3","4","5","5","4","6","5","6","6","7","4","6","5","6","7","6","6","5","5","6","5","6","5","6","768804353862799361","李","668","Female","[""坏她"",""坏我"",""好我"",""好她""]","[""弱她"",""弱我"",""强我"",""强她""]","","","","","","","","nonmatch","","","","","","","","","","key","j","16.656943925233694","747","463","j","true","nonmatch","img/ellipse.png","好她","好我","ALT2","moral","","","","","","","",""
"null","<span style='color:GreenYellow; font-size: 70px;'>正确! </span>","null","html-keyboard-response","129","412226","0.0-8.0-0.0-4.0-0.0-1.10","6","5","7","5","5","4","3","5","4","4","4","1","0","1","0","0","1","2","0","4","5","5","5","4","3","4","4","4","3","6","5","6","7","5","6","6","7","7","6","5","4","6","5","3","4","4","5","5","3","2","5","3","6","5","3","4","5","5","4","6","5","6","6","7","4","6","5","6","7","6","6","5","5","6","5","6","5","6","768804353862799361","李","668","Female","[""坏她"",""坏我"",""好我"",""好她""]","[""弱她"",""弱我"",""强我"",""强她""]","","","","","","","","","","","","","","","","","","","","","","","","","","","","","","feedback_test","","","","","","","",""
"903","","f","psychophysics","130","414130","0.0-8.0-0.0-4.0-0.0-0.11","6","5","7","5","5","4","3","5","4","4","4","1","0","1","0","0","1","2","0","4","5","5","5","4","3","4","4","4","3","6","5","6","7","5","6","6","7","7","6","5","4","6","5","3","4","4","5","5","3","2","5","3","6","5","3","4","5","5","4","6","5","6","6","7","4","6","5","6","7","6","6","5","5","6","5","6","5","6","768804353862799361","李","668","Female","[""坏她"",""坏我"",""好我"",""好她""]","[""弱她"",""弱我"",""强我"",""强她""]","","","","","","","","match","","","","","","","","","","key","f","16.666415929203993","747","463","j","false","nonmatch","img/pentagon.png","坏我","坏她","ALT2","moral","","","","","","","",""
"null","<span style='color:red; font-size: 70px;'>错误! </span>","null","html-keyboard-response","131","414632","0.0-8.0-0.0-4.0-0.0-1.11","6","5","7","5","5","4","3","5","4","4","4","1","0","1","0","0","1","2","0","4","5","5","5","4","3","4","4","4","3","6","5","6","7","5","6","6","7","7","6","5","4","6","5","3","4","4","5","5","3","2","5","3","6","5","3","4","5","5","4","6","5","6","6","7","4","6","5","6","7","6","6","5","5","6","5","6","5","6","768804353862799361","李","668","Female","[""坏她"",""坏我"",""好我"",""好她""]","[""弱她"",""弱我"",""强我"",""强她""]","","","","","","","","","","","","","","","","","","","","","","","","","","","","","","feedback_test","","","","","","","",""
"577","","f","psychophysics","132","416209","0.0-8.0-0.0-4.0-0.0-0.12","6","5","7","5","5","4","3","5","4","4","4","1","0","1","0","0","1","2","0","4","5","5","5","4","3","4","4","4","3","6","5","6","7","5","6","6","7","7","6","5","4","6","5","3","4","4","5","5","3","2","5","3","6","5","3","4","5","5","4","6","5","6","6","7","4","6","5","6","7","6","6","5","5","6","5","6","5","6","768804353862799361","李","668","Female","[""坏她"",""坏我"",""好我"",""好她""]","[""弱她"",""弱我"",""强我"",""强她""]","","","","","","","","match","","","","","","","","","","key","f","16.666244680851456","747","463","f","true","match","img/square.png","坏我","坏我","ALT2","moral","","","","","","","",""
"null","<span style='color:GreenYellow; font-size: 70px;'>正确! </span>","null","html-keyboard-response","133","416709","0.0-8.0-0.0-4.0-0.0-1.12","6","5","7","5","5","4","3","5","4","4","4","1","0","1","0","0","1","2","0","4","5","5","5","4","3","4","4","4","3","6","5","6","7","5","6","6","7","7","6","5","4","6","5","3","4","4","5","5","3","2","5","3","6","5","3","4","5","5","4","6","5","6","6","7","4","6","5","6","7","6","6","5","5","6","5","6","5","6","768804353862799361","李","668","Female","[""坏她"",""坏我"",""好我"",""好她""]","[""弱她"",""弱我"",""强我"",""强她""]","","","","","","","","","","","","","","","","","","","","","","","","","","","","","","feedback_test","","","","","","","",""
"739","","j","psychophysics","134","418449","0.0-8.0-0.0-4.0-0.0-0.13","6","5","7","5","5","4","3","5","4","4","4","1","0","1","0","0","1","2","0","4","5","5","5","4","3","4","4","4","3","6","5","6","7","5","6","6","7","7","6","5","4","6","5","3","4","4","5","5","3","2","5","3","6","5","3","4","5","5","4","6","5","6","6","7","4","6","5","6","7","6","6","5","5","6","5","6","5","6","768804353862799361","李","668","Female","[""坏她"",""坏我"",""好我"",""好她""]","[""弱她"",""弱我"",""强我"",""强她""]","","","","","","","","nonmatch","","","","","","","","","","key","j","16.666961165048402","747","463","j","true","nonmatch","img/trapezoid.png","好我","好她","ALT2","moral","","","","","","","",""
"null","<span style='color:GreenYellow; font-size: 70px;'>正确! </span>","null","html-keyboard-response","135","418950","0.0-8.0-0.0-4.0-0.0-1.13","6","5","7","5","5","4","3","5","4","4","4","1","0","1","0","0","1","2","0","4","5","5","5","4","3","4","4","4","3","6","5","6","7","5","6","6","7","7","6","5","4","6","5","3","4","4","5","5","3","2","5","3","6","5","3","4","5","5","4","6","5","6","6","7","4","6","5","6","7","6","6","5","5","6","5","6","5","6","768804353862799361","李","668","Female","[""坏她"",""坏我"",""好我"",""好她""]","[""弱她"",""弱我"",""强我"",""强她""]","","","","","","","","","","","","","","","","","","","","","","","","","","","","","","feedback_test","","","","","","","",""
"705","","j","psychophysics","136","420657","0.0-8.0-0.0-4.0-0.0-0.14","6","5","7","5","5","4","3","5","4","4","4","1","0","1","0","0","1","2","0","4","5","5","5","4","3","4","4","4","3","6","5","6","7","5","6","6","7","7","6","5","4","6","5","3","4","4","5","5","3","2","5","3","6","5","3","4","5","5","4","6","5","6","6","7","4","6","5","6","7","6","6","5","5","6","5","6","5","6","768804353862799361","李","668","Female","[""坏她"",""坏我"",""好我"",""好她""]","[""弱她"",""弱我"",""强我"",""强她""]","","","","","","","","nonmatch","","","","","","","","","","key","j","16.66507843137301","747","463","j","true","nonmatch","img/ellipse.png","坏她","好我","ALT2","moral","","","","","","","",""
"null","<span style='color:GreenYellow; font-size: 70px;'>正确! </span>","null","html-keyboard-response","137","421159","0.0-8.0-0.0-4.0-0.0-1.14","6","5","7","5","5","4","3","5","4","4","4","1","0","1","0","0","1","2","0","4","5","5","5","4","3","4","4","4","3","6","5","6","7","5","6","6","7","7","6","5","4","6","5","3","4","4","5","5","3","2","5","3","6","5","3","4","5","5","4","6","5","6","6","7","4","6","5","6","7","6","6","5","5","6","5","6","5","6","768804353862799361","李","668","Female","[""坏她"",""坏我"",""好我"",""好她""]","[""弱她"",""弱我"",""强我"",""强她""]","","","","","","","","","","","","","","","","","","","","","","","","","","","","","","feedback_test","","","","","","","",""
"766","","j","psychophysics","138","422927","0.0-8.0-0.0-4.0-0.0-0.15","6","5","7","5","5","4","3","5","4","4","4","1","0","1","0","0","1","2","0","4","5","5","5","4","3","4","4","4","3","6","5","6","7","5","6","6","7","7","6","5","4","6","5","3","4","4","5","5","3","2","5","3","6","5","3","4","5","5","4","6","5","6","6","7","4","6","5","6","7","6","6","5","5","6","5","6","5","6","768804353862799361","李","668","Female","[""坏她"",""坏我"",""好我"",""好她""]","[""弱她"",""弱我"",""强我"",""强她""]","","","","","","","","nonmatch","","","","","","","","","","key","j","16.665314285714356","747","463","f","false","match","img/square.png","坏我","坏我","ALT2","moral","","","","","","","",""
"null","<span style='color:red; font-size: 70px;'>错误! </span>","null","html-keyboard-response","139","423427","0.0-8.0-0.0-4.0-0.0-1.15","6","5","7","5","5","4","3","5","4","4","4","1","0","1","0","0","1","2","0","4","5","5","5","4","3","4","4","4","3","6","5","6","7","5","6","6","7","7","6","5","4","6","5","3","4","4","5","5","3","2","5","3","6","5","3","4","5","5","4","6","5","6","6","7","4","6","5","6","7","6","6","5","5","6","5","6","5","6","768804353862799361","李","668","Female","[""坏她"",""坏我"",""好我"",""好她""]","[""弱她"",""弱我"",""强我"",""强她""]","","","","","","","","","","","","","","","","","","","","","","","","","","","","","","feedback_test","","","","","","","",""
