"rt","stimulus","response","trial_type","trial_index","time_elapsed","internal_node_id","swb_1","swb_2","swb_3","swb_4","swb_5","LOT_1","LOT_2","LOT_3","LOT_4","LOT_5","LOT_6","IPC_1","IPC_2","IPC_3","IPC_4","IPC_5","IPC_6","IPC_7","IPC_8","MorIden_1","MorIden_2","MorIden_3","MorIden_4","MorIden_5","MorIden_6","MorIden_7","MorIden_8","MorIden_9","MorIden_10","moralSeImag_1","moralSeImag_2","moralSeImag_3","moralSeImag_4","moralSeImag_5","moralSeImag_6","moralSeImag_7","moralSeImag_8","moralSeImag_9","sde_1","sde_2","sde_3","sde_4","sde_5","sde_6","sde_7","sde_8","sde_9","sde_10","sde_11","sde_12","sde_13","sde_14","sde_15","sde_16","sde_17","sde_18","sde_19","sde_20","IM_1","IM_2","IM_3","IM_4","IM_5","IM_6","IM_7","IM_8","IM_9","IM_10","IM_11","IM_12","IM_13","IM_14","IM_15","IM_16","IM_17","IM_18","IM_19","IM_20","subj_idx","friend_name","ParticipantID","Sex","Word","Word2","value","success","timeout","failed_images","failed_audio","failed_video","user_agent","responses","item_order","radio_event_ids","radio_event_times","key_event_times","mouse_event_times","straightlining","zigzagging","honeypot","task_id","screen_id","time_stamp","response_type","key_press","avg_frame_time","center_x","center_y","person","word","valence","domain","math","correct_response","correct","status","view_history","identity","duration","Image","condition","question_order"
"11327","
   <p><div style='color:white; font-size: 25px'>您好，欢迎参加本次实验。</div></p>
   <p><div style='color:white; font-size: 25px'>为充分保障您的权利，请确保您已经知晓并同意《参与实验同意书》以及《数据公开知情同意书》。</div></p>
   <p><div style='color:white; font-size: 25px'>如果您未见过上述内容，请咨询实验员。</div></p>
   <p style='color:white; font-size: 25px'>如果您选择继续实验，则表示您已经清楚两份知情同意书的内容并同意。</p>
   <p><div style = ""color: red;font-size:30px;"">请确保您记得day0的实验编号，您将在本次实验输入该编号，若您忘记，请咨询实验员后作答。</div></p>
   <p> <div style = ""color: green""><按空格键至下页></div> </p>
   "," ","html-keyboard-response","0","11331","0.0-0.0","6","6","7","7","6","4","3","5","5","3","5","2","1","1","1","2","2","2","2","5","5","5","5","5","4","5","4","5","4","7","9","8","9","8","9","8","8","9","5","6","4","7","7","4","3","1","7","7","3","3","4","3","6","5","7","7","3","7","2","5","4","2","4","7","2","7","7","7","5","3","3","4","2","5","2","7","3","6","673561434503774208","王","695","Male","[""坏他"",""好他"",""坏我"",""好我""]","[""弱他"",""强他"",""弱我"",""强我""]","","","","","","","","","","","","","","","","","","","","","","","","","","","","","","","","","","","","","",""
"","","","call-function","1","11334","0.0-1.0-0.0","6","6","7","7","6","4","3","5","5","3","5","2","1","1","1","2","2","2","2","5","5","5","5","5","4","5","4","5","4","7","9","8","9","8","9","8","8","9","5","6","4","7","7","4","3","1","7","7","3","3","4","3","6","5","7","7","3","7","2","5","4","2","4","7","2","7","7","7","5","3","3","4","2","5","2","7","3","6","673561434503774208","王","695","Male","[""坏他"",""好他"",""坏我"",""好我""]","[""弱他"",""强他"",""弱我"",""强我""]","","","","","","","","","","","","","","","","","","","","","","","","","","","","","","","","","","","","","",""
"51546","","[{""name"":""Sex"",""value"":""0""},{""name"":""friend_name"",""value"":""王""},{""name"":""ParticipantID"",""value"":""695""}]","survey-html-form","2","62882","0.0-1.0-1.0","6","6","7","7","6","4","3","5","5","3","5","2","1","1","1","2","2","2","2","5","5","5","5","5","4","5","4","5","4","7","9","8","9","8","9","8","8","9","5","6","4","7","7","4","3","1","7","7","3","3","4","3","6","5","7","7","3","7","2","5","4","2","4","7","2","7","7","7","5","3","3","4","2","5","2","7","3","6","673561434503774208","王","695","Male","[""坏他"",""好他"",""坏我"",""好我""]","[""弱他"",""强他"",""弱我"",""强我""]","","","","","","","","","","","","","","","","","","","","","","","","","","","","","","","","","","","","","",""
"","","","preload","3","63584","0.0-2.0","6","6","7","7","6","4","3","5","5","3","5","2","1","1","1","2","2","2","2","5","5","5","5","5","4","5","4","5","4","7","9","8","9","8","9","8","8","9","5","6","4","7","7","4","3","1","7","7","3","3","4","3","6","5","7","7","3","7","2","5","4","2","4","7","2","7","7","7","5","3","3","4","2","5","2","7","3","6","673561434503774208","王","695","Male","[""坏他"",""好他"",""坏我"",""好我""]","[""弱他"",""强他"",""弱我"",""强我""]","","true","false","[]","[]","[]","","","","","","","","","","","","","","","","","","","","","","","","","","","","","","","",""
"","","","fullscreen","4","75887","0.0-3.0","6","6","7","7","6","4","3","5","5","3","5","2","1","1","1","2","2","2","2","5","5","5","5","5","4","5","4","5","4","7","9","8","9","8","9","8","8","9","5","6","4","7","7","4","3","1","7","7","3","3","4","3","6","5","7","7","3","7","2","5","4","2","4","7","2","7","7","7","5","3","3","4","2","5","2","7","3","6","673561434503774208","王","695","Male","[""坏他"",""好他"",""坏我"",""好我""]","[""弱他"",""强他"",""弱我"",""强我""]","","true","","","","","","","","","","","","","","","","","","","","","","","","","","","","","","","","","","","",""
"20757.094999999943","","{""Q01"":""6"",""Q02"":""6"",""Q03"":""7"",""Q04"":""7"",""Q05"":""6""}","survey-template","5","96652","0.0-4.0","6","6","7","7","6","4","3","5","5","3","5","2","1","1","1","2","2","2","2","5","5","5","5","5","4","5","4","5","4","7","9","8","9","8","9","8","8","9","5","6","4","7","7","4","3","1","7","7","3","3","4","3","6","5","7","7","3","7","2","5","4","2","4","7","2","7","7","7","5","3","3","4","2","5","2","7","3","6","673561434503774208","王","695","Male","[""坏他"",""好他"",""坏我"",""好我""]","[""弱他"",""强他"",""弱我"",""强我""]","","","","","","","","{""Q01"":""6"",""Q02"":""6"",""Q03"":""7"",""Q04"":""7"",""Q05"":""6""}","[0,1,2,3,4]","[""Q01"",""Q02"",""Q03"",""Q04"",""Q05""]","[6579.604999999909,9843.335000000021,12075.240000000122,14459.084999999963,18378.990000000165]","[]","[6579.604999999909,9843.335000000021,12075.240000000122,14459.084999999963,18378.990000000165,20755.024999999936]","0.6","0.5","0","","","","","","","","","","","","","","","","","","","","","",""
"38580.36499999979","","{""Q01"":""4"",""Q02"":""3"",""Q03"":""5"",""Q04"":""5"",""Q05"":""3"",""Q06"":""5""}","survey-template","6","135243","0.0-5.0","6","6","7","7","6","4","3","5","5","3","5","2","1","1","1","2","2","2","2","5","5","5","5","5","4","5","4","5","4","7","9","8","9","8","9","8","8","9","5","6","4","7","7","4","3","1","7","7","3","3","4","3","6","5","7","7","3","7","2","5","4","2","4","7","2","7","7","7","5","3","3","4","2","5","2","7","3","6","673561434503774208","王","695","Male","[""坏他"",""好他"",""坏我"",""好我""]","[""弱他"",""强他"",""弱我"",""强我""]","","","","","","","","{""Q01"":""4"",""Q02"":""3"",""Q03"":""5"",""Q04"":""5"",""Q05"":""3"",""Q06"":""5""}","[0,1,2,3,4,5]","[""Q01"",""Q01"",""Q02"",""Q03"",""Q04"",""Q05"",""Q06""]","[6755.464999999735,8091.460000000094,18595.19999999975,20555.29999999999,24611.28000000007,32882.854999999836,37322.834999999934]","[]","[6755.464999999735,8091.460000000094,18595.19999999975,20555.29999999999,24611.28000000007,32882.854999999836,37322.834999999934,38578.80500000011]","0.3333333333333333","0.4","0","","","","","","","","","","","","","","","","","","","","","",""
"39214.715000000084","","{""Q01"":""2"",""Q02"":""1"",""Q03"":""1"",""Q04"":""1"",""Q05"":""2"",""Q06"":""2"",""Q07"":""2"",""Q08"":""2""}","survey-template","7","174468","0.0-6.0","6","6","7","7","6","4","3","5","5","3","5","2","1","1","1","2","2","2","2","5","5","5","5","5","4","5","4","5","4","7","9","8","9","8","9","8","8","9","5","6","4","7","7","4","3","1","7","7","3","3","4","3","6","5","7","7","3","7","2","5","4","2","4","7","2","7","7","7","5","3","3","4","2","5","2","7","3","6","673561434503774208","王","695","Male","[""坏他"",""好他"",""坏我"",""好我""]","[""弱他"",""强他"",""弱我"",""强我""]","","","","","","","","{""Q01"":""2"",""Q02"":""1"",""Q03"":""1"",""Q04"":""1"",""Q05"":""2"",""Q06"":""2"",""Q07"":""2"",""Q08"":""2""}","[0,1,2,3,4,5,6,7]","[""Q01"",""Q02"",""Q03"",""Q04"",""Q05"",""Q06"",""Q07"",""Q08""]","[5317.33499999973,12189.04999999996,18612.86500000005,24780.800000000017,27884.614999999932,30268.595,34308.504999999976,37116.404999999766]","[]","[5317.33499999973,12189.04999999996,18612.86500000005,24780.800000000017,27884.614999999932,30268.595,34308.504999999976,37116.404999999766,39212.33499999973]","0.625","0.2857142857142857","0","","","","","","","","","","","","","","","","","","","","","",""
"23742","
    <p><div style='color:white;font-size:35px; line-height:20px;'>词汇评估任务</div></p><br>
    <p><div style='color:white;font-size:25px; line-height:20px;'>请再次回忆该亲密的朋友，你们至少2年前就认识了，并且最近2年经常见面。</div></p>
    <p><div style='color:white;font-size:25px; line-height:20px;'>在本实验中，您将会看到一些形容词。</div></p>
    <p><div style='color:yellow;font-size:25px; line-height:20px;'>您的任务是判断这些形容词是否符合对您自己或您的朋友的描述。</div></p><p style='font-size:35px'>符合按<span style=""color:lightgreen""> j 键</span>，不符合按<span style=""color:red""> f 键</span></p>","0","html-button-response","8","198216","0.0-7.0-0.0","6","6","7","7","6","4","3","5","5","3","5","2","1","1","1","2","2","2","2","5","5","5","5","5","4","5","4","5","4","7","9","8","9","8","9","8","8","9","5","6","4","7","7","4","3","1","7","7","3","3","4","3","6","5","7","7","3","7","2","5","4","2","4","7","2","7","7","7","5","3","3","4","2","5","2","7","3","6","673561434503774208","王","695","Male","[""坏他"",""好他"",""坏我"",""好我""]","[""弱他"",""强他"",""弱我"",""强我""]","","","","","","","","","","","","","","","","","SRET_EW","EW_instructions","Sat Nov 25 2023 19:47:52 GMT+0800 (中国标准时间)","","","","","","","","","","","","","","","","","","",""
"1024","","j","psychophysics","9","200252","0.0-7.0-1.0-0.0","6","6","7","7","6","4","3","5","5","3","5","2","1","1","1","2","2","2","2","5","5","5","5","5","4","5","4","5","4","7","9","8","9","8","9","8","8","9","5","6","4","7","7","4","3","1","7","7","3","3","4","3","6","5","7","7","3","7","2","5","4","2","4","7","2","7","7","7","5","3","3","4","2","5","2","7","3","6","673561434503774208","王","695","Male","[""坏他"",""好他"",""坏我"",""好我""]","[""弱他"",""强他"",""弱我"",""强我""]","","","","","","","","yes","","","","","","","","","SRET_EW","EW_practice","","key","j","18.345522522522547","999.999985098839","558.1249916832895","自己","严谨","Positive","ability","","","","","","","","","",""
"1075","","f","psychophysics","10","202330","0.0-7.0-1.0-0.1","6","6","7","7","6","4","3","5","5","3","5","2","1","1","1","2","2","2","2","5","5","5","5","5","4","5","4","5","4","7","9","8","9","8","9","8","8","9","5","6","4","7","7","4","3","1","7","7","3","3","4","3","6","5","7","7","3","7","2","5","4","2","4","7","2","7","7","7","5","3","3","4","2","5","2","7","3","6","673561434503774208","王","695","Male","[""坏他"",""好他"",""坏我"",""好我""]","[""弱他"",""强他"",""弱我"",""强我""]","","","","","","","","no","","","","","","","","","SRET_EW","EW_practice","","key","f","17.546222222222188","999.999985098839","558.1249916832895","自己","刻板","Negative","ability","","","","","","","","","",""
"1432","","f","psychophysics","11","204764","0.0-7.0-1.0-0.2","6","6","7","7","6","4","3","5","5","3","5","2","1","1","1","2","2","2","2","5","5","5","5","5","4","5","4","5","4","7","9","8","9","8","9","8","8","9","5","6","4","7","7","4","3","1","7","7","3","3","4","3","6","5","7","7","3","7","2","5","4","2","4","7","2","7","7","7","5","3","3","4","2","5","2","7","3","6","673561434503774208","王","695","Male","[""坏他"",""好他"",""坏我"",""好我""]","[""弱他"",""强他"",""弱我"",""强我""]","","","","","","","","no","","","","","","","","","SRET_EW","EW_practice","","key","f","17.284635714285834","999.999985098839","558.1249916832895","朋友","徇私","Negative","morality","","","","","","","","","",""
"1400","","j","psychophysics","12","207166","0.0-7.0-1.0-0.3","6","6","7","7","6","4","3","5","5","3","5","2","1","1","1","2","2","2","2","5","5","5","5","5","4","5","4","5","4","7","9","8","9","8","9","8","8","9","5","6","4","7","7","4","3","1","7","7","3","3","4","3","6","5","7","7","3","7","2","5","4","2","4","7","2","7","7","7","5","3","3","4","2","5","2","7","3","6","673561434503774208","王","695","Male","[""坏他"",""好他"",""坏我"",""好我""]","[""弱他"",""强他"",""弱我"",""强我""]","","","","","","","","yes","","","","","","","","","SRET_EW","EW_practice","","key","j","16.926156028368716","999.999985098839","558.1249916832895","朋友","忠实","Positive","morality","","","","","","","","","",""
"13896","
    <p><div style='color:white;font-size:35px; line-height:20px;'>请您再次阅读实验要求</div></p><br>
    <p><div style='color:white;font-size:25px; line-height:20px;'>请回忆某一个亲密的朋友，你们至少2年前就认识了，并且最近2年经常见面。</div></p>
    <p><div style='color:white;font-size:25px; line-height:20px;'>在本实验中，您将会看到一些形容词。</div></p>
    <p><div style='color:yellow;font-size:25px; line-height:20px;'>您的任务是判断这些形容词是否符合对您自己或您的朋友的描述。</div></p>
    <p><div class='footer' style='font-size:25px; line-height:20px;'>如果对本实验还有不清楚之处，请立即向实验员咨询。</p><p style='font-size:25px; line-height:20px;'>如果您明白了规则：</p><p style='font-size:22px; line-height:20px;'>请按 继续 进入正式实验</p>
    </div>
    <p style='font-size:35px'>符合按<span style=""color:lightgreen""> j 键</span>，不符合按<span style=""color:red""> f 键</span></p>","0","html-button-response","13","221064","0.0-7.0-2.0","6","6","7","7","6","4","3","5","5","3","5","2","1","1","1","2","2","2","2","5","5","5","5","5","4","5","4","5","4","7","9","8","9","8","9","8","8","9","5","6","4","7","7","4","3","1","7","7","3","3","4","3","6","5","7","7","3","7","2","5","4","2","4","7","2","7","7","7","5","3","3","4","2","5","2","7","3","6","673561434503774208","王","695","Male","[""坏他"",""好他"",""坏我"",""好我""]","[""弱他"",""强他"",""弱我"",""强我""]","","","","","","","","","","","","","","","","","SRET_EW","prac_instructions","Sat Nov 25 2023 19:47:52 GMT+0800 (中国标准时间)","","","","","","","","","","","","","","","","","","",""
"1072","","j","psychophysics","14","223138","0.0-7.0-3.0-0.0","6","6","7","7","6","4","3","5","5","3","5","2","1","1","1","2","2","2","2","5","5","5","5","5","4","5","4","5","4","7","9","8","9","8","9","8","8","9","5","6","4","7","7","4","3","1","7","7","3","3","4","3","6","5","7","7","3","7","2","5","4","2","4","7","2","7","7","7","5","3","3","4","2","5","2","7","3","6","673561434503774208","王","695","Male","[""坏他"",""好他"",""坏我"",""好我""]","[""弱他"",""强他"",""弱我"",""强我""]","","","","","","","","yes","","","","","","","","","SRET","EW_formal","","key","j","16.961540983606476","999.999985098839","558.1249916832895","朋友","务实","Positive","ability","","","","","","","","","",""
"1200","","j","psychophysics","15","225341","0.0-7.0-3.0-0.1","6","6","7","7","6","4","3","5","5","3","5","2","1","1","1","2","2","2","2","5","5","5","5","5","4","5","4","5","4","7","9","8","9","8","9","8","8","9","5","6","4","7","7","4","3","1","7","7","3","3","4","3","6","5","7","7","3","7","2","5","4","2","4","7","2","7","7","7","5","3","3","4","2","5","2","7","3","6","673561434503774208","王","695","Male","[""坏他"",""好他"",""坏我"",""好我""]","[""弱他"",""强他"",""弱我"",""强我""]","","","","","","","","yes","","","","","","","","","SRET","EW_formal","","key","j","16.689687022900667","999.999985098839","558.1249916832895","自己","坚贞","Positive","morality","","","","","","","","","",""
"1860","","f","psychophysics","16","228203","0.0-7.0-3.0-0.2","6","6","7","7","6","4","3","5","5","3","5","2","1","1","1","2","2","2","2","5","5","5","5","5","4","5","4","5","4","7","9","8","9","8","9","8","8","9","5","6","4","7","7","4","3","1","7","7","3","3","4","3","6","5","7","7","3","7","2","5","4","2","4","7","2","7","7","7","5","3","3","4","2","5","2","7","3","6","673561434503774208","王","695","Male","[""坏他"",""好他"",""坏我"",""好我""]","[""弱他"",""强他"",""弱我"",""强我""]","","","","","","","","no","","","","","","","","","SRET","EW_formal","","key","f","16.989053892215516","999.999985098839","558.1249916832895","自己","说谎","Negative","morality","","","","","","","","","",""
"1878","","f","psychophysics","17","231083","0.0-7.0-3.0-0.3","6","6","7","7","6","4","3","5","5","3","5","2","1","1","1","2","2","2","2","5","5","5","5","5","4","5","4","5","4","7","9","8","9","8","9","8","8","9","5","6","4","7","7","4","3","1","7","7","3","3","4","3","6","5","7","7","3","7","2","5","4","2","4","7","2","7","7","7","5","3","3","4","2","5","2","7","3","6","673561434503774208","王","695","Male","[""坏他"",""好他"",""坏我"",""好我""]","[""弱他"",""强他"",""弱我"",""强我""]","","","","","","","","no","","","","","","","","","SRET","EW_formal","","key","f","17.086797619047587","999.999985098839","558.1249916832895","朋友","迷糊","Negative","ability","","","","","","","","","",""
"1321","","j","psychophysics","18","233406","0.0-7.0-3.0-0.4","6","6","7","7","6","4","3","5","5","3","5","2","1","1","1","2","2","2","2","5","5","5","5","5","4","5","4","5","4","7","9","8","9","8","9","8","8","9","5","6","4","7","7","4","3","1","7","7","3","3","4","3","6","5","7","7","3","7","2","5","4","2","4","7","2","7","7","7","5","3","3","4","2","5","2","7","3","6","673561434503774208","王","695","Male","[""坏他"",""好他"",""坏我"",""好我""]","[""弱他"",""强他"",""弱我"",""强我""]","","","","","","","","yes","","","","","","","","","SRET","EW_formal","","key","j","16.689434782608643","999.999985098839","558.1249916832895","朋友","仁爱","Positive","morality","","","","","","","","","",""
"1082","","j","psychophysics","19","235491","0.0-7.0-3.0-0.5","6","6","7","7","6","4","3","5","5","3","5","2","1","1","1","2","2","2","2","5","5","5","5","5","4","5","4","5","4","7","9","8","9","8","9","8","8","9","5","6","4","7","7","4","3","1","7","7","3","3","4","3","6","5","7","7","3","7","2","5","4","2","4","7","2","7","7","7","5","3","3","4","2","5","2","7","3","6","673561434503774208","王","695","Male","[""坏他"",""好他"",""坏我"",""好我""]","[""弱他"",""强他"",""弱我"",""强我""]","","","","","","","","yes","","","","","","","","","SRET","EW_formal","","key","j","16.689491935483897","999.999985098839","558.1249916832895","朋友","宽容","Positive","morality","","","","","","","","","",""
"1210","","f","psychophysics","20","237702","0.0-7.0-3.0-0.6","6","6","7","7","6","4","3","5","5","3","5","2","1","1","1","2","2","2","2","5","5","5","5","5","4","5","4","5","4","7","9","8","9","8","9","8","8","9","5","6","4","7","7","4","3","1","7","7","3","3","4","3","6","5","7","7","3","7","2","5","4","2","4","7","2","7","7","7","5","3","3","4","2","5","2","7","3","6","673561434503774208","王","695","Male","[""坏他"",""好他"",""坏我"",""好我""]","[""弱他"",""强他"",""弱我"",""强我""]","","","","","","","","no","","","","","","","","","SRET","EW_formal","","key","f","16.68881060606068","999.999985098839","558.1249916832895","自己","阴毒","Negative","morality","","","","","","","","","",""
"1763","","j","psychophysics","21","240469","0.0-7.0-3.0-0.7","6","6","7","7","6","4","3","5","5","3","5","2","1","1","1","2","2","2","2","5","5","5","5","5","4","5","4","5","4","7","9","8","9","8","9","8","8","9","5","6","4","7","7","4","3","1","7","7","3","3","4","3","6","5","7","7","3","7","2","5","4","2","4","7","2","7","7","7","5","3","3","4","2","5","2","7","3","6","673561434503774208","王","695","Male","[""坏他"",""好他"",""坏我"",""好我""]","[""弱他"",""强他"",""弱我"",""强我""]","","","","","","","","yes","","","","","","","","","SRET","EW_formal","","key","j","16.689609756097504","999.999985098839","558.1249916832895","自己","利落","Positive","ability","","","","","","","","","",""
"1180","","f","psychophysics","22","242650","0.0-7.0-3.0-0.8","6","6","7","7","6","4","3","5","5","3","5","2","1","1","1","2","2","2","2","5","5","5","5","5","4","5","4","5","4","7","9","8","9","8","9","8","8","9","5","6","4","7","7","4","3","1","7","7","3","3","4","3","6","5","7","7","3","7","2","5","4","2","4","7","2","7","7","7","5","3","3","4","2","5","2","7","3","6","673561434503774208","王","695","Male","[""坏他"",""好他"",""坏我"",""好我""]","[""弱他"",""强他"",""弱我"",""强我""]","","","","","","","","no","","","","","","","","","SRET","EW_formal","","key","f","16.688607692307695","999.999985098839","558.1249916832895","朋友","黑心","Negative","morality","","","","","","","","","",""
"1191","","f","psychophysics","23","244843","0.0-7.0-3.0-0.9","6","6","7","7","6","4","3","5","5","3","5","2","1","1","1","2","2","2","2","5","5","5","5","5","4","5","4","5","4","7","9","8","9","8","9","8","8","9","5","6","4","7","7","4","3","1","7","7","3","3","4","3","6","5","7","7","3","7","2","5","4","2","4","7","2","7","7","7","5","3","3","4","2","5","2","7","3","6","673561434503774208","王","695","Male","[""坏他"",""好他"",""坏我"",""好我""]","[""弱他"",""强他"",""弱我"",""强我""]","","","","","","","","no","","","","","","","","","SRET","EW_formal","","key","f","16.688200000000116","999.999985098839","558.1249916832895","自己","无助","Negative","ability","","","","","","","","","",""
"2535","","j","psychophysics","24","248379","0.0-7.0-3.0-0.10","6","6","7","7","6","4","3","5","5","3","5","2","1","1","1","2","2","2","2","5","5","5","5","5","4","5","4","5","4","7","9","8","9","8","9","8","8","9","5","6","4","7","7","4","3","1","7","7","3","3","4","3","6","5","7","7","3","7","2","5","4","2","4","7","2","7","7","7","5","3","3","4","2","5","2","7","3","6","673561434503774208","王","695","Male","[""坏他"",""好他"",""坏我"",""好我""]","[""弱他"",""强他"",""弱我"",""强我""]","","","","","","","","yes","","","","","","","","","SRET","EW_formal","","key","j","16.687649289099443","999.999985098839","558.1249916832895","朋友","屈才","Negative","ability","","","","","","","","","",""
"1845","","j","psychophysics","25","251225","0.0-7.0-3.0-0.11","6","6","7","7","6","4","3","5","5","3","5","2","1","1","1","2","2","2","2","5","5","5","5","5","4","5","4","5","4","7","9","8","9","8","9","8","8","9","5","6","4","7","7","4","3","1","7","7","3","3","4","3","6","5","7","7","3","7","2","5","4","2","4","7","2","7","7","7","5","3","3","4","2","5","2","7","3","6","673561434503774208","王","695","Male","[""坏他"",""好他"",""坏我"",""好我""]","[""弱他"",""强他"",""弱我"",""强我""]","","","","","","","","yes","","","","","","","","","SRET","EW_formal","","key","j","16.690241176470675","999.999985098839","558.1249916832895","朋友","短视","Negative","ability","","","","","","","","","",""
"1668","","f","psychophysics","26","253896","0.0-7.0-3.0-0.12","6","6","7","7","6","4","3","5","5","3","5","2","1","1","1","2","2","2","2","5","5","5","5","5","4","5","4","5","4","7","9","8","9","8","9","8","8","9","5","6","4","7","7","4","3","1","7","7","3","3","4","3","6","5","7","7","3","7","2","5","4","2","4","7","2","7","7","7","5","3","3","4","2","5","2","7","3","6","673561434503774208","王","695","Male","[""坏他"",""好他"",""坏我"",""好我""]","[""弱他"",""强他"",""弱我"",""强我""]","","","","","","","","no","","","","","","","","","SRET","EW_formal","","key","f","16.689163522012517","999.999985098839","558.1249916832895","朋友","毛糙","Negative","ability","","","","","","","","","",""
"963","","f","psychophysics","27","255860","0.0-7.0-3.0-0.13","6","6","7","7","6","4","3","5","5","3","5","2","1","1","1","2","2","2","2","5","5","5","5","5","4","5","4","5","4","7","9","8","9","8","9","8","8","9","5","6","4","7","7","4","3","1","7","7","3","3","4","3","6","5","7","7","3","7","2","5","4","2","4","7","2","7","7","7","5","3","3","4","2","5","2","7","3","6","673561434503774208","王","695","Male","[""坏他"",""好他"",""坏我"",""好我""]","[""弱他"",""强他"",""弱我"",""强我""]","","","","","","","","no","","","","","","","","","SRET","EW_formal","","key","f","16.688615384615378","999.999985098839","558.1249916832895","朋友","贪腐","Negative","morality","","","","","","","","","",""
"1528","","j","psychophysics","28","258393","0.0-7.0-3.0-0.14","6","6","7","7","6","4","3","5","5","3","5","2","1","1","1","2","2","2","2","5","5","5","5","5","4","5","4","5","4","7","9","8","9","8","9","8","8","9","5","6","4","7","7","4","3","1","7","7","3","3","4","3","6","5","7","7","3","7","2","5","4","2","4","7","2","7","7","7","5","3","3","4","2","5","2","7","3","6","673561434503774208","王","695","Male","[""坏他"",""好他"",""坏我"",""好我""]","[""弱他"",""强他"",""弱我"",""强我""]","","","","","","","","yes","","","","","","","","","SRET","EW_formal","","key","j","16.689333333333295","999.999985098839","558.1249916832895","朋友","坦荡","Positive","morality","","","","","","","","","",""
"1105","","j","psychophysics","29","260500","0.0-7.0-3.0-0.15","6","6","7","7","6","4","3","5","5","3","5","2","1","1","1","2","2","2","2","5","5","5","5","5","4","5","4","5","4","7","9","8","9","8","9","8","8","9","5","6","4","7","7","4","3","1","7","7","3","3","4","3","6","5","7","7","3","7","2","5","4","2","4","7","2","7","7","7","5","3","3","4","2","5","2","7","3","6","673561434503774208","王","695","Male","[""坏他"",""好他"",""坏我"",""好我""]","[""弱他"",""强他"",""弱我"",""强我""]","","","","","","","","yes","","","","","","","","","SRET","EW_formal","","key","j","16.689476190476274","999.999985098839","558.1249916832895","朋友","智慧","Positive","ability","","","","","","","","","",""
"1309","","j","psychophysics","30","262812","0.0-7.0-3.0-0.16","6","6","7","7","6","4","3","5","5","3","5","2","1","1","1","2","2","2","2","5","5","5","5","5","4","5","4","5","4","7","9","8","9","8","9","8","8","9","5","6","4","7","7","4","3","1","7","7","3","3","4","3","6","5","7","7","3","7","2","5","4","2","4","7","2","7","7","7","5","3","3","4","2","5","2","7","3","6","673561434503774208","王","695","Male","[""坏他"",""好他"",""坏我"",""好我""]","[""弱他"",""强他"",""弱我"",""强我""]","","","","","","","","yes","","","","","","","","","SRET","EW_formal","","key","j","16.688737226277503","999.999985098839","558.1249916832895","自己","依靠","Negative","ability","","","","","","","","","",""
"1316","","f","psychophysics","31","265130","0.0-7.0-3.0-0.17","6","6","7","7","6","4","3","5","5","3","5","2","1","1","1","2","2","2","2","5","5","5","5","5","4","5","4","5","4","7","9","8","9","8","9","8","8","9","5","6","4","7","7","4","3","1","7","7","3","3","4","3","6","5","7","7","3","7","2","5","4","2","4","7","2","7","7","7","5","3","3","4","2","5","2","7","3","6","673561434503774208","王","695","Male","[""坏他"",""好他"",""坏我"",""好我""]","[""弱他"",""强他"",""弱我"",""强我""]","","","","","","","","no","","","","","","","","","SRET","EW_formal","","key","f","16.689492753622936","999.999985098839","558.1249916832895","自己","拜金","Negative","morality","","","","","","","","","",""
"2060","","j","psychophysics","32","268192","0.0-7.0-3.0-0.18","6","6","7","7","6","4","3","5","5","3","5","2","1","1","1","2","2","2","2","5","5","5","5","5","4","5","4","5","4","7","9","8","9","8","9","8","8","9","5","6","4","7","7","4","3","1","7","7","3","3","4","3","6","5","7","7","3","7","2","5","4","2","4","7","2","7","7","7","5","3","3","4","2","5","2","7","3","6","673561434503774208","王","695","Male","[""坏他"",""好他"",""坏我"",""好我""]","[""弱他"",""强他"",""弱我"",""强我""]","","","","","","","","yes","","","","","","","","","SRET","EW_formal","","key","j","16.78208839779016","999.999985098839","558.1249916832895","朋友","爱国","Positive","morality","","","","","","","","","",""
"1020","","f","psychophysics","33","270215","0.0-7.0-3.0-0.19","6","6","7","7","6","4","3","5","5","3","5","2","1","1","1","2","2","2","2","5","5","5","5","5","4","5","4","5","4","7","9","8","9","8","9","8","8","9","5","6","4","7","7","4","3","1","7","7","3","3","4","3","6","5","7","7","3","7","2","5","4","2","4","7","2","7","7","7","5","3","3","4","2","5","2","7","3","6","673561434503774208","王","695","Male","[""坏他"",""好他"",""坏我"",""好我""]","[""弱他"",""强他"",""弱我"",""强我""]","","","","","","","","no","","","","","","","","","SRET","EW_formal","","key","f","16.68967768595042","999.999985098839","558.1249916832895","自己","短浅","Negative","ability","","","","","","","","","",""
"1386","","j","psychophysics","34","272604","0.0-7.0-3.0-0.20","6","6","7","7","6","4","3","5","5","3","5","2","1","1","1","2","2","2","2","5","5","5","5","5","4","5","4","5","4","7","9","8","9","8","9","8","8","9","5","6","4","7","7","4","3","1","7","7","3","3","4","3","6","5","7","7","3","7","2","5","4","2","4","7","2","7","7","7","5","3","3","4","2","5","2","7","3","6","673561434503774208","王","695","Male","[""坏他"",""好他"",""坏我"",""好我""]","[""弱他"",""强他"",""弱我"",""强我""]","","","","","","","","yes","","","","","","","","","SRET","EW_formal","","key","j","16.688704225351923","999.999985098839","558.1249916832895","自己","顶事","Positive","ability","","","","","","","","","",""
"1343","","j","psychophysics","35","274948","0.0-7.0-3.0-0.21","6","6","7","7","6","4","3","5","5","3","5","2","1","1","1","2","2","2","2","5","5","5","5","5","4","5","4","5","4","7","9","8","9","8","9","8","8","9","5","6","4","7","7","4","3","1","7","7","3","3","4","3","6","5","7","7","3","7","2","5","4","2","4","7","2","7","7","7","5","3","3","4","2","5","2","7","3","6","673561434503774208","王","695","Male","[""坏他"",""好他"",""坏我"",""好我""]","[""弱他"",""强他"",""弱我"",""强我""]","","","","","","","","yes","","","","","","","","","SRET","EW_formal","","key","j","16.688841726618783","999.999985098839","558.1249916832895","朋友","谦逊","Positive","morality","","","","","","","","","",""
"932","","j","psychophysics","36","276882","0.0-7.0-3.0-0.22","6","6","7","7","6","4","3","5","5","3","5","2","1","1","1","2","2","2","2","5","5","5","5","5","4","5","4","5","4","7","9","8","9","8","9","8","8","9","5","6","4","7","7","4","3","1","7","7","3","3","4","3","6","5","7","7","3","7","2","5","4","2","4","7","2","7","7","7","5","3","3","4","2","5","2","7","3","6","673561434503774208","王","695","Male","[""坏他"",""好他"",""坏我"",""好我""]","[""弱他"",""强他"",""弱我"",""强我""]","","","","","","","","yes","","","","","","","","","SRET","EW_formal","","key","j","16.68943478260898","999.999985098839","558.1249916832895","朋友","热心","Positive","morality","","","","","","","","","",""
"894","","j","psychophysics","37","278778","0.0-7.0-3.0-0.23","6","6","7","7","6","4","3","5","5","3","5","2","1","1","1","2","2","2","2","5","5","5","5","5","4","5","4","5","4","7","9","8","9","8","9","8","8","9","5","6","4","7","7","4","3","1","7","7","3","3","4","3","6","5","7","7","3","7","2","5","4","2","4","7","2","7","7","7","5","3","3","4","2","5","2","7","3","6","673561434503774208","王","695","Male","[""坏他"",""好他"",""坏我"",""好我""]","[""弱他"",""强他"",""弱我"",""强我""]","","","","","","","","yes","","","","","","","","","SRET","EW_formal","","key","j","16.688247787610596","999.999985098839","558.1249916832895","自己","诚信","Positive","morality","","","","","","","","","",""
"1106","","f","psychophysics","38","280887","0.0-7.0-3.0-0.24","6","6","7","7","6","4","3","5","5","3","5","2","1","1","1","2","2","2","2","5","5","5","5","5","4","5","4","5","4","7","9","8","9","8","9","8","8","9","5","6","4","7","7","4","3","1","7","7","3","3","4","3","6","5","7","7","3","7","2","5","4","2","4","7","2","7","7","7","5","3","3","4","2","5","2","7","3","6","673561434503774208","王","695","Male","[""坏他"",""好他"",""坏我"",""好我""]","[""弱他"",""强他"",""弱我"",""强我""]","","","","","","","","no","","","","","","","","","SRET","EW_formal","","key","f","16.68895200000005","999.999985098839","558.1249916832895","朋友","昏庸","Negative","ability","","","","","","","","","",""
"852","","j","psychophysics","39","282741","0.0-7.0-3.0-0.25","6","6","7","7","6","4","3","5","5","3","5","2","1","1","1","2","2","2","2","5","5","5","5","5","4","5","4","5","4","7","9","8","9","8","9","8","8","9","5","6","4","7","7","4","3","1","7","7","3","3","4","3","6","5","7","7","3","7","2","5","4","2","4","7","2","7","7","7","5","3","3","4","2","5","2","7","3","6","673561434503774208","王","695","Male","[""坏他"",""好他"",""坏我"",""好我""]","[""弱他"",""强他"",""弱我"",""强我""]","","","","","","","","yes","","","","","","","","","SRET","EW_formal","","key","j","16.6882999999999","999.999985098839","558.1249916832895","自己","坚持","Positive","ability","","","","","","","","","",""
"1067","","j","psychophysics","40","284810","0.0-7.0-3.0-0.26","6","6","7","7","6","4","3","5","5","3","5","2","1","1","1","2","2","2","2","5","5","5","5","5","4","5","4","5","4","7","9","8","9","8","9","8","8","9","5","6","4","7","7","4","3","1","7","7","3","3","4","3","6","5","7","7","3","7","2","5","4","2","4","7","2","7","7","7","5","3","3","4","2","5","2","7","3","6","673561434503774208","王","695","Male","[""坏他"",""好他"",""坏我"",""好我""]","[""弱他"",""强他"",""弱我"",""强我""]","","","","","","","","yes","","","","","","","","","SRET","EW_formal","","key","j","16.688821138211193","999.999985098839","558.1249916832895","朋友","仗义","Positive","morality","","","","","","","","","",""
"1150","","f","psychophysics","41","286962","0.0-7.0-3.0-0.27","6","6","7","7","6","4","3","5","5","3","5","2","1","1","1","2","2","2","2","5","5","5","5","5","4","5","4","5","4","7","9","8","9","8","9","8","8","9","5","6","4","7","7","4","3","1","7","7","3","3","4","3","6","5","7","7","3","7","2","5","4","2","4","7","2","7","7","7","5","3","3","4","2","5","2","7","3","6","673561434503774208","王","695","Male","[""坏他"",""好他"",""坏我"",""好我""]","[""弱他"",""强他"",""弱我"",""强我""]","","","","","","","","no","","","","","","","","","SRET","EW_formal","","key","f","16.689445312500084","999.999985098839","558.1249916832895","朋友","畏难","Negative","ability","","","","","","","","","",""
"1688","","f","psychophysics","42","289651","0.0-7.0-3.0-0.28","6","6","7","7","6","4","3","5","5","3","5","2","1","1","1","2","2","2","2","5","5","5","5","5","4","5","4","5","4","7","9","8","9","8","9","8","8","9","5","6","4","7","7","4","3","1","7","7","3","3","4","3","6","5","7","7","3","7","2","5","4","2","4","7","2","7","7","7","5","3","3","4","2","5","2","7","3","6","673561434503774208","王","695","Male","[""坏他"",""好他"",""坏我"",""好我""]","[""弱他"",""强他"",""弱我"",""强我""]","","","","","","","","no","","","","","","","","","SRET","EW_formal","","key","f","16.689650000000256","999.999985098839","558.1249916832895","朋友","伪善","Negative","morality","","","","","","","","","",""
"2083","","j","psychophysics","43","292737","0.0-7.0-3.0-0.29","6","6","7","7","6","4","3","5","5","3","5","2","1","1","1","2","2","2","2","5","5","5","5","5","4","5","4","5","4","7","9","8","9","8","9","8","8","9","5","6","4","7","7","4","3","1","7","7","3","3","4","3","6","5","7","7","3","7","2","5","4","2","4","7","2","7","7","7","5","3","3","4","2","5","2","7","3","6","673561434503774208","王","695","Male","[""坏他"",""好他"",""坏我"",""好我""]","[""弱他"",""强他"",""弱我"",""强我""]","","","","","","","","yes","","","","","","","","","SRET","EW_formal","","key","j","16.690114130434623","999.999985098839","558.1249916832895","朋友","骁勇","Positive","ability","","","","","","","","","",""
"1935","","f","psychophysics","44","295676","0.0-7.0-3.0-0.30","6","6","7","7","6","4","3","5","5","3","5","2","1","1","1","2","2","2","2","5","5","5","5","5","4","5","4","5","4","7","9","8","9","8","9","8","8","9","5","6","4","7","7","4","3","1","7","7","3","3","4","3","6","5","7","7","3","7","2","5","4","2","4","7","2","7","7","7","5","3","3","4","2","5","2","7","3","6","673561434503774208","王","695","Male","[""坏他"",""好他"",""坏我"",""好我""]","[""弱他"",""强他"",""弱我"",""强我""]","","","","","","","","no","","","","","","","","","SRET","EW_formal","","key","f","16.68950285714286","999.999985098839","558.1249916832895","自己","淫乱","Negative","morality","","","","","","","","","",""
"1385","","f","psychophysics","45","298062","0.0-7.0-3.0-0.31","6","6","7","7","6","4","3","5","5","3","5","2","1","1","1","2","2","2","2","5","5","5","5","5","4","5","4","5","4","7","9","8","9","8","9","8","8","9","5","6","4","7","7","4","3","1","7","7","3","3","4","3","6","5","7","7","3","7","2","5","4","2","4","7","2","7","7","7","5","3","3","4","2","5","2","7","3","6","673561434503774208","王","695","Male","[""坏他"",""好他"",""坏我"",""好我""]","[""弱他"",""强他"",""弱我"",""强我""]","","","","","","","","no","","","","","","","","","SRET","EW_formal","","key","f","16.689084507042498","999.999985098839","558.1249916832895","自己","低劣","Negative","morality","","","","","","","","","",""
"931","","j","psychophysics","46","299995","0.0-7.0-3.0-0.32","6","6","7","7","6","4","3","5","5","3","5","2","1","1","1","2","2","2","2","5","5","5","5","5","4","5","4","5","4","7","9","8","9","8","9","8","8","9","5","6","4","7","7","4","3","1","7","7","3","3","4","3","6","5","7","7","3","7","2","5","4","2","4","7","2","7","7","7","5","3","3","4","2","5","2","7","3","6","673561434503774208","王","695","Male","[""坏他"",""好他"",""坏我"",""好我""]","[""弱他"",""强他"",""弱我"",""强我""]","","","","","","","","yes","","","","","","","","","SRET","EW_formal","","key","j","16.689878260869655","999.999985098839","558.1249916832895","自己","精干","Positive","ability","","","","","","","","","",""
"1497","","f","psychophysics","47","302494","0.0-7.0-3.0-0.33","6","6","7","7","6","4","3","5","5","3","5","2","1","1","1","2","2","2","2","5","5","5","5","5","4","5","4","5","4","7","9","8","9","8","9","8","8","9","5","6","4","7","7","4","3","1","7","7","3","3","4","3","6","5","7","7","3","7","2","5","4","2","4","7","2","7","7","7","5","3","3","4","2","5","2","7","3","6","673561434503774208","王","695","Male","[""坏他"",""好他"",""坏我"",""好我""]","[""弱他"",""强他"",""弱我"",""强我""]","","","","","","","","no","","","","","","","","","SRET","EW_formal","","key","f","17.032164383561618","999.999985098839","558.1249916832895","朋友","学霸","Positive","ability","","","","","","","","","",""
"2550","","f","psychophysics","48","306048","0.0-7.0-3.0-0.34","6","6","7","7","6","4","3","5","5","3","5","2","1","1","1","2","2","2","2","5","5","5","5","5","4","5","4","5","4","7","9","8","9","8","9","8","8","9","5","6","4","7","7","4","3","1","7","7","3","3","4","3","6","5","7","7","3","7","2","5","4","2","4","7","2","7","7","7","5","3","3","4","2","5","2","7","3","6","673561434503774208","王","695","Male","[""坏他"",""好他"",""坏我"",""好我""]","[""弱他"",""强他"",""弱我"",""强我""]","","","","","","","","no","","","","","","","","","SRET","EW_formal","","key","f","16.6895566037738","999.999985098839","558.1249916832895","自己","才尽","Negative","ability","","","","","","","","","",""
"2406","","f","psychophysics","49","309458","0.0-7.0-3.0-0.35","6","6","7","7","6","4","3","5","5","3","5","2","1","1","1","2","2","2","2","5","5","5","5","5","4","5","4","5","4","7","9","8","9","8","9","8","8","9","5","6","4","7","7","4","3","1","7","7","3","3","4","3","6","5","7","7","3","7","2","5","4","2","4","7","2","7","7","7","5","3","3","4","2","5","2","7","3","6","673561434503774208","王","695","Male","[""坏他"",""好他"",""坏我"",""好我""]","[""弱他"",""强他"",""弱我"",""强我""]","","","","","","","","no","","","","","","","","","SRET","EW_formal","","key","f","16.68944827586199","999.999985098839","558.1249916832895","自己","势利","Negative","morality","","","","","","","","","",""
"1758","","f","psychophysics","50","312217","0.0-7.0-3.0-0.36","6","6","7","7","6","4","3","5","5","3","5","2","1","1","1","2","2","2","2","5","5","5","5","5","4","5","4","5","4","7","9","8","9","8","9","8","8","9","5","6","4","7","7","4","3","1","7","7","3","3","4","3","6","5","7","7","3","7","2","5","4","2","4","7","2","7","7","7","5","3","3","4","2","5","2","7","3","6","673561434503774208","王","695","Male","[""坏他"",""好他"",""坏我"",""好我""]","[""弱他"",""强他"",""弱我"",""强我""]","","","","","","","","no","","","","","","","","","SRET","EW_formal","","key","f","16.68869512195155","999.999985098839","558.1249916832895","自己","愚痴","Negative","ability","","","","","","","","","",""
"2437","","j","psychophysics","51","315655","0.0-7.0-3.0-0.37","6","6","7","7","6","4","3","5","5","3","5","2","1","1","1","2","2","2","2","5","5","5","5","5","4","5","4","5","4","7","9","8","9","8","9","8","8","9","5","6","4","7","7","4","3","1","7","7","3","3","4","3","6","5","7","7","3","7","2","5","4","2","4","7","2","7","7","7","5","3","3","4","2","5","2","7","3","6","673561434503774208","王","695","Male","[""坏他"",""好他"",""坏我"",""好我""]","[""弱他"",""强他"",""弱我"",""强我""]","","","","","","","","yes","","","","","","","","","SRET","EW_formal","","key","j","16.689160975609997","999.999985098839","558.1249916832895","朋友","自律","Positive","ability","","","","","","","","","",""
"1339","","f","psychophysics","52","317996","0.0-7.0-3.0-0.38","6","6","7","7","6","4","3","5","5","3","5","2","1","1","1","2","2","2","2","5","5","5","5","5","4","5","4","5","4","7","9","8","9","8","9","8","8","9","5","6","4","7","7","4","3","1","7","7","3","3","4","3","6","5","7","7","3","7","2","5","4","2","4","7","2","7","7","7","5","3","3","4","2","5","2","7","3","6","673561434503774208","王","695","Male","[""坏他"",""好他"",""坏我"",""好我""]","[""弱他"",""强他"",""弱我"",""强我""]","","","","","","","","no","","","","","","","","","SRET","EW_formal","","key","f","16.68890714285704","999.999985098839","558.1249916832895","自己","迟钝","Negative","ability","","","","","","","","","",""
"1799","","j","psychophysics","53","320799","0.0-7.0-3.0-0.39","6","6","7","7","6","4","3","5","5","3","5","2","1","1","1","2","2","2","2","5","5","5","5","5","4","5","4","5","4","7","9","8","9","8","9","8","8","9","5","6","4","7","7","4","3","1","7","7","3","3","4","3","6","5","7","7","3","7","2","5","4","2","4","7","2","7","7","7","5","3","3","4","2","5","2","7","3","6","673561434503774208","王","695","Male","[""坏他"",""好他"",""坏我"",""好我""]","[""弱他"",""强他"",""弱我"",""强我""]","","","","","","","","yes","","","","","","","","","SRET","EW_formal","","key","j","16.688957831325116","999.999985098839","558.1249916832895","朋友","刚正","Positive","morality","","","","","","","","","",""
"960","","j","psychophysics","54","322764","0.0-7.0-3.0-0.40","6","6","7","7","6","4","3","5","5","3","5","2","1","1","1","2","2","2","2","5","5","5","5","5","4","5","4","5","4","7","9","8","9","8","9","8","8","9","5","6","4","7","7","4","3","1","7","7","3","3","4","3","6","5","7","7","3","7","2","5","4","2","4","7","2","7","7","7","5","3","3","4","2","5","2","7","3","6","673561434503774208","王","695","Male","[""坏他"",""好他"",""坏我"",""好我""]","[""弱他"",""强他"",""弱我"",""强我""]","","","","","","","","yes","","","","","","","","","SRET","EW_formal","","key","j","16.68919658119657","999.999985098839","558.1249916832895","自己","勤奋","Positive","ability","","","","","","","","","",""
"967","","j","psychophysics","55","324732","0.0-7.0-3.0-0.41","6","6","7","7","6","4","3","5","5","3","5","2","1","1","1","2","2","2","2","5","5","5","5","5","4","5","4","5","4","7","9","8","9","8","9","8","8","9","5","6","4","7","7","4","3","1","7","7","3","3","4","3","6","5","7","7","3","7","2","5","4","2","4","7","2","7","7","7","5","3","3","4","2","5","2","7","3","6","673561434503774208","王","695","Male","[""坏他"",""好他"",""坏我"",""好我""]","[""弱他"",""强他"",""弱我"",""强我""]","","","","","","","","yes","","","","","","","","","SRET","EW_formal","","key","j","16.68958974359","999.999985098839","558.1249916832895","自己","孝顺","Positive","morality","","","","","","","","","",""
"1687","","j","psychophysics","56","327421","0.0-7.0-3.0-0.42","6","6","7","7","6","4","3","5","5","3","5","2","1","1","1","2","2","2","2","5","5","5","5","5","4","5","4","5","4","7","9","8","9","8","9","8","8","9","5","6","4","7","7","4","3","1","7","7","3","3","4","3","6","5","7","7","3","7","2","5","4","2","4","7","2","7","7","7","5","3","3","4","2","5","2","7","3","6","673561434503774208","王","695","Male","[""坏他"",""好他"",""坏我"",""好我""]","[""弱他"",""强他"",""弱我"",""强我""]","","","","","","","","yes","","","","","","","","","SRET","EW_formal","","key","j","16.68978750000024","999.999985098839","558.1249916832895","自己","果决","Positive","ability","","","","","","","","","",""
"1105","","f","psychophysics","57","329529","0.0-7.0-3.0-0.43","6","6","7","7","6","4","3","5","5","3","5","2","1","1","1","2","2","2","2","5","5","5","5","5","4","5","4","5","4","7","9","8","9","8","9","8","8","9","5","6","4","7","7","4","3","1","7","7","3","3","4","3","6","5","7","7","3","7","2","5","4","2","4","7","2","7","7","7","5","3","3","4","2","5","2","7","3","6","673561434503774208","王","695","Male","[""坏他"",""好他"",""坏我"",""好我""]","[""弱他"",""强他"",""弱我"",""强我""]","","","","","","","","no","","","","","","","","","SRET","EW_formal","","key","f","16.689857142857306","999.999985098839","558.1249916832895","自己","缺德","Negative","morality","","","","","","","","","",""
"940","","j","psychophysics","58","331472","0.0-7.0-3.0-0.44","6","6","7","7","6","4","3","5","5","3","5","2","1","1","1","2","2","2","2","5","5","5","5","5","4","5","4","5","4","7","9","8","9","8","9","8","8","9","5","6","4","7","7","4","3","1","7","7","3","3","4","3","6","5","7","7","3","7","2","5","4","2","4","7","2","7","7","7","5","3","3","4","2","5","2","7","3","6","673561434503774208","王","695","Male","[""坏他"",""好他"",""坏我"",""好我""]","[""弱他"",""强他"",""弱我"",""强我""]","","","","","","","","yes","","","","","","","","","SRET","EW_formal","","key","j","16.689626086956782","999.999985098839","558.1249916832895","自己","忠良","Positive","morality","","","","","","","","","",""
"1090","","f","psychophysics","59","333563","0.0-7.0-3.0-0.45","6","6","7","7","6","4","3","5","5","3","5","2","1","1","1","2","2","2","2","5","5","5","5","5","4","5","4","5","4","7","9","8","9","8","9","8","8","9","5","6","4","7","7","4","3","1","7","7","3","3","4","3","6","5","7","7","3","7","2","5","4","2","4","7","2","7","7","7","5","3","3","4","2","5","2","7","3","6","673561434503774208","王","695","Male","[""坏他"",""好他"",""坏我"",""好我""]","[""弱他"",""强他"",""弱我"",""强我""]","","","","","","","","no","","","","","","","","","SRET","EW_formal","","key","f","16.826772357723335","999.999985098839","558.1249916832895","朋友","腐败","Negative","morality","","","","","","","","","",""
"1744","","f","psychophysics","60","336309","0.0-7.0-3.0-0.46","6","6","7","7","6","4","3","5","5","3","5","2","1","1","1","2","2","2","2","5","5","5","5","5","4","5","4","5","4","7","9","8","9","8","9","8","8","9","5","6","4","7","7","4","3","1","7","7","3","3","4","3","6","5","7","7","3","7","2","5","4","2","4","7","2","7","7","7","5","3","3","4","2","5","2","7","3","6","673561434503774208","王","695","Male","[""坏他"",""好他"",""坏我"",""好我""]","[""弱他"",""强他"",""弱我"",""强我""]","","","","","","","","no","","","","","","","","","SRET","EW_formal","","key","f","16.69065853658561","999.999985098839","558.1249916832895","朋友","思辨","Positive","ability","","","","","","","","","",""
"1440","","j","psychophysics","61","338751","0.0-7.0-3.0-0.47","6","6","7","7","6","4","3","5","5","3","5","2","1","1","1","2","2","2","2","5","5","5","5","5","4","5","4","5","4","7","9","8","9","8","9","8","8","9","5","6","4","7","7","4","3","1","7","7","3","3","4","3","6","5","7","7","3","7","2","5","4","2","4","7","2","7","7","7","5","3","3","4","2","5","2","7","3","6","673561434503774208","王","695","Male","[""坏他"",""好他"",""坏我"",""好我""]","[""弱他"",""强他"",""弱我"",""强我""]","","","","","","","","yes","","","","","","","","","SRET","EW_formal","","key","j","16.689703448275747","999.999985098839","558.1249916832895","自己","高洁","Positive","morality","","","","","","","","","",""
"897","","f","psychophysics","62","340650","0.0-7.0-3.0-0.48","6","6","7","7","6","4","3","5","5","3","5","2","1","1","1","2","2","2","2","5","5","5","5","5","4","5","4","5","4","7","9","8","9","8","9","8","8","9","5","6","4","7","7","4","3","1","7","7","3","3","4","3","6","5","7","7","3","7","2","5","4","2","4","7","2","7","7","7","5","3","3","4","2","5","2","7","3","6","673561434503774208","王","695","Male","[""坏他"",""好他"",""坏我"",""好我""]","[""弱他"",""强他"",""弱我"",""强我""]","","","","","","","","no","","","","","","","","","SRET","EW_formal","","key","f","16.689858407079885","999.999985098839","558.1249916832895","自己","弱智","Negative","ability","","","","","","","","","",""
"2186","","j","psychophysics","63","343838","0.0-7.0-3.0-0.49","6","6","7","7","6","4","3","5","5","3","5","2","1","1","1","2","2","2","2","5","5","5","5","5","4","5","4","5","4","7","9","8","9","8","9","8","8","9","5","6","4","7","7","4","3","1","7","7","3","3","4","3","6","5","7","7","3","7","2","5","4","2","4","7","2","7","7","7","5","3","3","4","2","5","2","7","3","6","673561434503774208","王","695","Male","[""坏他"",""好他"",""坏我"",""好我""]","[""弱他"",""强他"",""弱我"",""强我""]","","","","","","","","yes","","","","","","","","","SRET","EW_formal","","key","j","16.688605263157697","999.999985098839","558.1249916832895","朋友","浅薄","Negative","ability","","","","","","","","","",""
"1241","","f","psychophysics","64","346081","0.0-7.0-3.0-0.50","6","6","7","7","6","4","3","5","5","3","5","2","1","1","1","2","2","2","2","5","5","5","5","5","4","5","4","5","4","7","9","8","9","8","9","8","8","9","5","6","4","7","7","4","3","1","7","7","3","3","4","3","6","5","7","7","3","7","2","5","4","2","4","7","2","7","7","7","5","3","3","4","2","5","2","7","3","6","673561434503774208","王","695","Male","[""坏他"",""好他"",""坏我"",""好我""]","[""弱他"",""强他"",""弱我"",""强我""]","","","","","","","","no","","","","","","","","","SRET","EW_formal","","key","f","16.688781954886835","999.999985098839","558.1249916832895","朋友","失信","Negative","morality","","","","","","","","","",""
"1868","","f","psychophysics","65","348951","0.0-7.0-3.0-0.51","6","6","7","7","6","4","3","5","5","3","5","2","1","1","1","2","2","2","2","5","5","5","5","5","4","5","4","5","4","7","9","8","9","8","9","8","8","9","5","6","4","7","7","4","3","1","7","7","3","3","4","3","6","5","7","7","3","7","2","5","4","2","4","7","2","7","7","7","5","3","3","4","2","5","2","7","3","6","673561434503774208","王","695","Male","[""坏他"",""好他"",""坏我"",""好我""]","[""弱他"",""强他"",""弱我"",""强我""]","","","","","","","","no","","","","","","","","","SRET","EW_formal","","key","f","16.68990058479531","999.999985098839","558.1249916832895","朋友","新手","Negative","ability","","","","","","","","","",""
"1013","","f","psychophysics","66","350966","0.0-7.0-3.0-0.52","6","6","7","7","6","4","3","5","5","3","5","2","1","1","1","2","2","2","2","5","5","5","5","5","4","5","4","5","4","7","9","8","9","8","9","8","8","9","5","6","4","7","7","4","3","1","7","7","3","3","4","3","6","5","7","7","3","7","2","5","4","2","4","7","2","7","7","7","5","3","3","4","2","5","2","7","3","6","673561434503774208","王","695","Male","[""坏他"",""好他"",""坏我"",""好我""]","[""弱他"",""强他"",""弱我"",""强我""]","","","","","","","","no","","","","","","","","","SRET","EW_formal","","key","f","16.689458333333217","999.999985098839","558.1249916832895","自己","贪污","Negative","morality","","","","","","","","","",""
"1047","","j","psychophysics","67","353015","0.0-7.0-3.0-0.53","6","6","7","7","6","4","3","5","5","3","5","2","1","1","1","2","2","2","2","5","5","5","5","5","4","5","4","5","4","7","9","8","9","8","9","8","8","9","5","6","4","7","7","4","3","1","7","7","3","3","4","3","6","5","7","7","3","7","2","5","4","2","4","7","2","7","7","7","5","3","3","4","2","5","2","7","3","6","673561434503774208","王","695","Male","[""坏他"",""好他"",""坏我"",""好我""]","[""弱他"",""强他"",""弱我"",""强我""]","","","","","","","","yes","","","","","","","","","SRET","EW_formal","","key","j","16.688639344262498","999.999985098839","558.1249916832895","朋友","厚道","Positive","morality","","","","","","","","","",""
"1755","","f","psychophysics","68","355772","0.0-7.0-3.0-0.54","6","6","7","7","6","4","3","5","5","3","5","2","1","1","1","2","2","2","2","5","5","5","5","5","4","5","4","5","4","7","9","8","9","8","9","8","8","9","5","6","4","7","7","4","3","1","7","7","3","3","4","3","6","5","7","7","3","7","2","5","4","2","4","7","2","7","7","7","5","3","3","4","2","5","2","7","3","6","673561434503774208","王","695","Male","[""坏他"",""好他"",""坏我"",""好我""]","[""弱他"",""强他"",""弱我"",""强我""]","","","","","","","","no","","","","","","","","","SRET","EW_formal","","key","f","16.689268292682797","999.999985098839","558.1249916832895","朋友","无耻","Negative","morality","","","","","","","","","",""
"2251","","j","psychophysics","69","359025","0.0-7.0-3.0-0.55","6","6","7","7","6","4","3","5","5","3","5","2","1","1","1","2","2","2","2","5","5","5","5","5","4","5","4","5","4","7","9","8","9","8","9","8","8","9","5","6","4","7","7","4","3","1","7","7","3","3","4","3","6","5","7","7","3","7","2","5","4","2","4","7","2","7","7","7","5","3","3","4","2","5","2","7","3","6","673561434503774208","王","695","Male","[""坏他"",""好他"",""坏我"",""好我""]","[""弱他"",""强他"",""弱我"",""强我""]","","","","","","","","yes","","","","","","","","","SRET","EW_formal","","key","j","16.689639175257923","999.999985098839","558.1249916832895","自己","马虎","Negative","ability","","","","","","","","","",""
"889","","f","psychophysics","70","360916","0.0-7.0-3.0-0.56","6","6","7","7","6","4","3","5","5","3","5","2","1","1","1","2","2","2","2","5","5","5","5","5","4","5","4","5","4","7","9","8","9","8","9","8","8","9","5","6","4","7","7","4","3","1","7","7","3","3","4","3","6","5","7","7","3","7","2","5","4","2","4","7","2","7","7","7","5","3","3","4","2","5","2","7","3","6","673561434503774208","王","695","Male","[""坏他"",""好他"",""坏我"",""好我""]","[""弱他"",""强他"",""弱我"",""强我""]","","","","","","","","no","","","","","","","","","SRET","EW_formal","","key","f","16.68972321428529","999.999985098839","558.1249916832895","自己","背叛","Negative","morality","","","","","","","","","",""
"990","","j","psychophysics","71","362907","0.0-7.0-3.0-0.57","6","6","7","7","6","4","3","5","5","3","5","2","1","1","1","2","2","2","2","5","5","5","5","5","4","5","4","5","4","7","9","8","9","8","9","8","8","9","5","6","4","7","7","4","3","1","7","7","3","3","4","3","6","5","7","7","3","7","2","5","4","2","4","7","2","7","7","7","5","3","3","4","2","5","2","7","3","6","673561434503774208","王","695","Male","[""坏他"",""好他"",""坏我"",""好我""]","[""弱他"",""强他"",""弱我"",""强我""]","","","","","","","","yes","","","","","","","","","SRET","EW_formal","","key","j","16.689991596638627","999.999985098839","558.1249916832895","自己","廉明","Positive","morality","","","","","","","","","",""
"1142","","j","psychophysics","72","365052","0.0-7.0-3.0-0.58","6","6","7","7","6","4","3","5","5","3","5","2","1","1","1","2","2","2","2","5","5","5","5","5","4","5","4","5","4","7","9","8","9","8","9","8","8","9","5","6","4","7","7","4","3","1","7","7","3","3","4","3","6","5","7","7","3","7","2","5","4","2","4","7","2","7","7","7","5","3","3","4","2","5","2","7","3","6","673561434503774208","王","695","Male","[""坏他"",""好他"",""坏我"",""好我""]","[""弱他"",""强他"",""弱我"",""强我""]","","","","","","","","yes","","","","","","","","","SRET","EW_formal","","key","j","16.690220472440913","999.999985098839","558.1249916832895","朋友","善良","Positive","morality","","","","","","","","","",""
"2955","","f","psychophysics","73","369009","0.0-7.0-3.0-0.59","6","6","7","7","6","4","3","5","5","3","5","2","1","1","1","2","2","2","2","5","5","5","5","5","4","5","4","5","4","7","9","8","9","8","9","8","8","9","5","6","4","7","7","4","3","1","7","7","3","3","4","3","6","5","7","7","3","7","2","5","4","2","4","7","2","7","7","7","5","3","3","4","2","5","2","7","3","6","673561434503774208","王","695","Male","[""坏他"",""好他"",""坏我"",""好我""]","[""弱他"",""强他"",""弱我"",""强我""]","","","","","","","","no","","","","","","","","","SRET","EW_formal","","key","f","16.68980508474574","999.999985098839","558.1249916832895","自己","驽钝","Negative","ability","","","","","","","","","",""
"870","","j","psychophysics","74","370880","0.0-7.0-3.0-0.60","6","6","7","7","6","4","3","5","5","3","5","2","1","1","1","2","2","2","2","5","5","5","5","5","4","5","4","5","4","7","9","8","9","8","9","8","8","9","5","6","4","7","7","4","3","1","7","7","3","3","4","3","6","5","7","7","3","7","2","5","4","2","4","7","2","7","7","7","5","3","3","4","2","5","2","7","3","6","673561434503774208","王","695","Male","[""坏他"",""好他"",""坏我"",""好我""]","[""弱他"",""强他"",""弱我"",""强我""]","","","","","","","","yes","","","","","","","","","SRET","EW_formal","","key","j","16.689153153153015","999.999985098839","558.1249916832895","自己","正气","Positive","morality","","","","","","","","","",""
"994","","f","psychophysics","75","372875","0.0-7.0-3.0-0.61","6","6","7","7","6","4","3","5","5","3","5","2","1","1","1","2","2","2","2","5","5","5","5","5","4","5","4","5","4","7","9","8","9","8","9","8","8","9","5","6","4","7","7","4","3","1","7","7","3","3","4","3","6","5","7","7","3","7","2","5","4","2","4","7","2","7","7","7","5","3","3","4","2","5","2","7","3","6","673561434503774208","王","695","Male","[""坏他"",""好他"",""坏我"",""好我""]","[""弱他"",""强他"",""弱我"",""强我""]","","","","","","","","no","","","","","","","","","SRET","EW_formal","","key","f","16.68989915966385","999.999985098839","558.1249916832895","朋友","狡狯","Negative","morality","","","","","","","","","",""
"1625","","f","psychophysics","76","375504","0.0-7.0-3.0-0.62","6","6","7","7","6","4","3","5","5","3","5","2","1","1","1","2","2","2","2","5","5","5","5","5","4","5","4","5","4","7","9","8","9","8","9","8","8","9","5","6","4","7","7","4","3","1","7","7","3","3","4","3","6","5","7","7","3","7","2","5","4","2","4","7","2","7","7","7","5","3","3","4","2","5","2","7","3","6","673561434503774208","王","695","Male","[""坏他"",""好他"",""坏我"",""好我""]","[""弱他"",""强他"",""弱我"",""强我""]","","","","","","","","no","","","","","","","","","SRET","EW_formal","","key","f","16.688955128205215","999.999985098839","558.1249916832895","朋友","差生","Negative","ability","","","","","","","","","",""
"1005","","f","psychophysics","77","377511","0.0-7.0-3.0-0.63","6","6","7","7","6","4","3","5","5","3","5","2","1","1","1","2","2","2","2","5","5","5","5","5","4","5","4","5","4","7","9","8","9","8","9","8","8","9","5","6","4","7","7","4","3","1","7","7","3","3","4","3","6","5","7","7","3","7","2","5","4","2","4","7","2","7","7","7","5","3","3","4","2","5","2","7","3","6","673561434503774208","王","695","Male","[""坏他"",""好他"",""坏我"",""好我""]","[""弱他"",""强他"",""弱我"",""强我""]","","","","","","","","no","","","","","","","","","SRET","EW_formal","","key","f","16.690558333333076","999.999985098839","558.1249916832895","自己","不孝","Negative","morality","","","","","","","","","",""
"899","","j","psychophysics","78","379411","0.0-7.0-3.0-0.64","6","6","7","7","6","4","3","5","5","3","5","2","1","1","1","2","2","2","2","5","5","5","5","5","4","5","4","5","4","7","9","8","9","8","9","8","8","9","5","6","4","7","7","4","3","1","7","7","3","3","4","3","6","5","7","7","3","7","2","5","4","2","4","7","2","7","7","7","5","3","3","4","2","5","2","7","3","6","673561434503774208","王","695","Male","[""坏他"",""好他"",""坏我"",""好我""]","[""弱他"",""强他"",""弱我"",""强我""]","","","","","","","","yes","","","","","","","","","SRET","EW_formal","","key","j","16.6900357142861","999.999985098839","558.1249916832895","朋友","干练","Positive","ability","","","","","","","","","",""
"1402","","f","psychophysics","79","381818","0.0-7.0-3.0-0.65","6","6","7","7","6","4","3","5","5","3","5","2","1","1","1","2","2","2","2","5","5","5","5","5","4","5","4","5","4","7","9","8","9","8","9","8","8","9","5","6","4","7","7","4","3","1","7","7","3","3","4","3","6","5","7","7","3","7","2","5","4","2","4","7","2","7","7","7","5","3","3","4","2","5","2","7","3","6","673561434503774208","王","695","Male","[""坏他"",""好他"",""坏我"",""好我""]","[""弱他"",""强他"",""弱我"",""强我""]","","","","","","","","no","","","","","","","","","SRET","EW_formal","","key","f","16.688854166666715","999.999985098839","558.1249916832895","自己","博学","Positive","ability","","","","","","","","","",""
"1296","","f","psychophysics","80","384116","0.0-7.0-3.0-0.66","6","6","7","7","6","4","3","5","5","3","5","2","1","1","1","2","2","2","2","5","5","5","5","5","4","5","4","5","4","7","9","8","9","8","9","8","8","9","5","6","4","7","7","4","3","1","7","7","3","3","4","3","6","5","7","7","3","7","2","5","4","2","4","7","2","7","7","7","5","3","3","4","2","5","2","7","3","6","673561434503774208","王","695","Male","[""坏他"",""好他"",""坏我"",""好我""]","[""弱他"",""强他"",""弱我"",""强我""]","","","","","","","","no","","","","","","","","","SRET","EW_formal","","key","f","16.689433823529242","999.999985098839","558.1249916832895","朋友","无为","Negative","ability","","","","","","","","","",""
"989","","f","psychophysics","81","386109","0.0-7.0-3.0-0.67","6","6","7","7","6","4","3","5","5","3","5","2","1","1","1","2","2","2","2","5","5","5","5","5","4","5","4","5","4","7","9","8","9","8","9","8","8","9","5","6","4","7","7","4","3","1","7","7","3","3","4","3","6","5","7","7","3","7","2","5","4","2","4","7","2","7","7","7","5","3","3","4","2","5","2","7","3","6","673561434503774208","王","695","Male","[""坏他"",""好他"",""坏我"",""好我""]","[""弱他"",""强他"",""弱我"",""强我""]","","","","","","","","no","","","","","","","","","SRET","EW_formal","","key","f","16.68949579831923","999.999985098839","558.1249916832895","自己","拖延","Negative","ability","","","","","","","","","",""
"908","","j","psychophysics","82","388019","0.0-7.0-3.0-0.68","6","6","7","7","6","4","3","5","5","3","5","2","1","1","1","2","2","2","2","5","5","5","5","5","4","5","4","5","4","7","9","8","9","8","9","8","8","9","5","6","4","7","7","4","3","1","7","7","3","3","4","3","6","5","7","7","3","7","2","5","4","2","4","7","2","7","7","7","5","3","3","4","2","5","2","7","3","6","673561434503774208","王","695","Male","[""坏他"",""好他"",""坏我"",""好我""]","[""弱他"",""强他"",""弱我"",""强我""]","","","","","","","","yes","","","","","","","","","SRET","EW_formal","","key","j","16.689840707964514","999.999985098839","558.1249916832895","自己","聪明","Positive","ability","","","","","","","","","",""
"1181","","f","psychophysics","83","390202","0.0-7.0-3.0-0.69","6","6","7","7","6","4","3","5","5","3","5","2","1","1","1","2","2","2","2","5","5","5","5","5","4","5","4","5","4","7","9","8","9","8","9","8","8","9","5","6","4","7","7","4","3","1","7","7","3","3","4","3","6","5","7","7","3","7","2","5","4","2","4","7","2","7","7","7","5","3","3","4","2","5","2","7","3","6","673561434503774208","王","695","Male","[""坏他"",""好他"",""坏我"",""好我""]","[""弱他"",""强他"",""弱我"",""强我""]","","","","","","","","no","","","","","","","","","SRET","EW_formal","","key","f","16.689607692307504","999.999985098839","558.1249916832895","朋友","全才","Positive","ability","","","","","","","","","",""
"1022","","f","psychophysics","84","392225","0.0-7.0-3.0-0.70","6","6","7","7","6","4","3","5","5","3","5","2","1","1","1","2","2","2","2","5","5","5","5","5","4","5","4","5","4","7","9","8","9","8","9","8","8","9","5","6","4","7","7","4","3","1","7","7","3","3","4","3","6","5","7","7","3","7","2","5","4","2","4","7","2","7","7","7","5","3","3","4","2","5","2","7","3","6","673561434503774208","王","695","Male","[""坏他"",""好他"",""坏我"",""好我""]","[""弱他"",""强他"",""弱我"",""强我""]","","","","","","","","no","","","","","","","","","SRET","EW_formal","","key","f","16.689224999999958","999.999985098839","558.1249916832895","朋友","奸诈","Negative","morality","","","","","","","","","",""
"957","","j","psychophysics","85","394183","0.0-7.0-3.0-0.71","6","6","7","7","6","4","3","5","5","3","5","2","1","1","1","2","2","2","2","5","5","5","5","5","4","5","4","5","4","7","9","8","9","8","9","8","8","9","5","6","4","7","7","4","3","1","7","7","3","3","4","3","6","5","7","7","3","7","2","5","4","2","4","7","2","7","7","7","5","3","3","4","2","5","2","7","3","6","673561434503774208","王","695","Male","[""坏他"",""好他"",""坏我"",""好我""]","[""弱他"",""强他"",""弱我"",""强我""]","","","","","","","","yes","","","","","","","","","SRET","EW_formal","","key","j","16.6902735042734","999.999985098839","558.1249916832895","自己","侠义","Positive","morality","","","","","","","","","",""
"921","","f","psychophysics","86","396107","0.0-7.0-3.0-0.72","6","6","7","7","6","4","3","5","5","3","5","2","1","1","1","2","2","2","2","5","5","5","5","5","4","5","4","5","4","7","9","8","9","8","9","8","8","9","5","6","4","7","7","4","3","1","7","7","3","3","4","3","6","5","7","7","3","7","2","5","4","2","4","7","2","7","7","7","5","3","3","4","2","5","2","7","3","6","673561434503774208","王","695","Male","[""坏他"",""好他"",""坏我"",""好我""]","[""弱他"",""强他"",""弱我"",""强我""]","","","","","","","","no","","","","","","","","","SRET","EW_formal","","key","f","16.68892982456141","999.999985098839","558.1249916832895","朋友","不良","Negative","morality","","","","","","","","","",""
"1622","","j","psychophysics","87","398731","0.0-7.0-3.0-0.73","6","6","7","7","6","4","3","5","5","3","5","2","1","1","1","2","2","2","2","5","5","5","5","5","4","5","4","5","4","7","9","8","9","8","9","8","8","9","5","6","4","7","7","4","3","1","7","7","3","3","4","3","6","5","7","7","3","7","2","5","4","2","4","7","2","7","7","7","5","3","3","4","2","5","2","7","3","6","673561434503774208","王","695","Male","[""坏他"",""好他"",""坏我"",""好我""]","[""弱他"",""强他"",""弱我"",""强我""]","","","","","","","","yes","","","","","","","","","SRET","EW_formal","","key","j","16.689102564102566","999.999985098839","558.1249916832895","朋友","高效","Positive","ability","","","","","","","","","",""
"1300","","j","psychophysics","88","401032","0.0-7.0-3.0-0.74","6","6","7","7","6","4","3","5","5","3","5","2","1","1","1","2","2","2","2","5","5","5","5","5","4","5","4","5","4","7","9","8","9","8","9","8","8","9","5","6","4","7","7","4","3","1","7","7","3","3","4","3","6","5","7","7","3","7","2","5","4","2","4","7","2","7","7","7","5","3","3","4","2","5","2","7","3","6","673561434503774208","王","695","Male","[""坏他"",""好他"",""坏我"",""好我""]","[""弱他"",""强他"",""弱我"",""强我""]","","","","","","","","yes","","","","","","","","","SRET","EW_formal","","key","j","16.81155882352922","999.999985098839","558.1249916832895","自己","清廉","Positive","morality","","","","","","","","","",""
"707","","j","psychophysics","89","402740","0.0-7.0-3.0-0.75","6","6","7","7","6","4","3","5","5","3","5","2","1","1","1","2","2","2","2","5","5","5","5","5","4","5","4","5","4","7","9","8","9","8","9","8","8","9","5","6","4","7","7","4","3","1","7","7","3","3","4","3","6","5","7","7","3","7","2","5","4","2","4","7","2","7","7","7","5","3","3","4","2","5","2","7","3","6","673561434503774208","王","695","Male","[""坏他"",""好他"",""坏我"",""好我""]","[""弱他"",""强他"",""弱我"",""强我""]","","","","","","","","yes","","","","","","","","","SRET","EW_formal","","key","j","16.689158415841977","999.999985098839","558.1249916832895","自己","好心","Positive","morality","","","","","","","","","",""
"961","","f","psychophysics","90","404702","0.0-7.0-3.0-0.76","6","6","7","7","6","4","3","5","5","3","5","2","1","1","1","2","2","2","2","5","5","5","5","5","4","5","4","5","4","7","9","8","9","8","9","8","8","9","5","6","4","7","7","4","3","1","7","7","3","3","4","3","6","5","7","7","3","7","2","5","4","2","4","7","2","7","7","7","5","3","3","4","2","5","2","7","3","6","673561434503774208","王","695","Male","[""坏他"",""好他"",""坏我"",""好我""]","[""弱他"",""强他"",""弱我"",""强我""]","","","","","","","","no","","","","","","","","","SRET","EW_formal","","key","f","16.68900854700856","999.999985098839","558.1249916832895","自己","小人","Negative","morality","","","","","","","","","",""
"982","","j","psychophysics","91","406687","0.0-7.0-3.0-0.77","6","6","7","7","6","4","3","5","5","3","5","2","1","1","1","2","2","2","2","5","5","5","5","5","4","5","4","5","4","7","9","8","9","8","9","8","8","9","5","6","4","7","7","4","3","1","7","7","3","3","4","3","6","5","7","7","3","7","2","5","4","2","4","7","2","7","7","7","5","3","3","4","2","5","2","7","3","6","673561434503774208","王","695","Male","[""坏他"",""好他"",""坏我"",""好我""]","[""弱他"",""强他"",""弱我"",""强我""]","","","","","","","","yes","","","","","","","","","SRET","EW_formal","","key","j","16.689711864406767","999.999985098839","558.1249916832895","朋友","努力","Positive","ability","","","","","","","","","",""
"1061","","j","psychophysics","92","408750","0.0-7.0-3.0-0.78","6","6","7","7","6","4","3","5","5","3","5","2","1","1","1","2","2","2","2","5","5","5","5","5","4","5","4","5","4","7","9","8","9","8","9","8","8","9","5","6","4","7","7","4","3","1","7","7","3","3","4","3","6","5","7","7","3","7","2","5","4","2","4","7","2","7","7","7","5","3","3","4","2","5","2","7","3","6","673561434503774208","王","695","Male","[""坏他"",""好他"",""坏我"",""好我""]","[""弱他"",""强他"",""弱我"",""强我""]","","","","","","","","yes","","","","","","","","","SRET","EW_formal","","key","j","16.690352459016378","999.999985098839","558.1249916832895","自己","专注","Positive","ability","","","","","","","","","",""
"1795","","f","psychophysics","93","411551","0.0-7.0-3.0-0.79","6","6","7","7","6","4","3","5","5","3","5","2","1","1","1","2","2","2","2","5","5","5","5","5","4","5","4","5","4","7","9","8","9","8","9","8","8","9","5","6","4","7","7","4","3","1","7","7","3","3","4","3","6","5","7","7","3","7","2","5","4","2","4","7","2","7","7","7","5","3","3","4","2","5","2","7","3","6","673561434503774208","王","695","Male","[""坏他"",""好他"",""坏我"",""好我""]","[""弱他"",""强他"",""弱我"",""强我""]","","","","","","","","no","","","","","","","","","SRET","EW_formal","","key","f","16.68913772455096","999.999985098839","558.1249916832895","朋友","敏捷","Positive","ability","","","","","","","","","",""
"920","","j","psychophysics","94","413473","0.0-7.0-3.0-0.80","6","6","7","7","6","4","3","5","5","3","5","2","1","1","1","2","2","2","2","5","5","5","5","5","4","5","4","5","4","7","9","8","9","8","9","8","8","9","5","6","4","7","7","4","3","1","7","7","3","3","4","3","6","5","7","7","3","7","2","5","4","2","4","7","2","7","7","7","5","3","3","4","2","5","2","7","3","6","673561434503774208","王","695","Male","[""坏他"",""好他"",""坏我"",""好我""]","[""弱他"",""强他"",""弱我"",""强我""]","","","","","","","","yes","","","","","","","","","SRET","EW_formal","","key","j","16.688280701754195","999.999985098839","558.1249916832895","自己","高尚","Positive","morality","","","","","","","","","",""
"1766","","j","psychophysics","95","416242","0.0-7.0-3.0-0.81","6","6","7","7","6","4","3","5","5","3","5","2","1","1","1","2","2","2","2","5","5","5","5","5","4","5","4","5","4","7","9","8","9","8","9","8","8","9","5","6","4","7","7","4","3","1","7","7","3","3","4","3","6","5","7","7","3","7","2","5","4","2","4","7","2","7","7","7","5","3","3","4","2","5","2","7","3","6","673561434503774208","王","695","Male","[""坏他"",""好他"",""坏我"",""好我""]","[""弱他"",""强他"",""弱我"",""强我""]","","","","","","","","yes","","","","","","","","","SRET","EW_formal","","key","j","16.68892727272698","999.999985098839","558.1249916832895","朋友","粗心","Negative","ability","","","","","","","","","",""
"1051","","j","psychophysics","96","418295","0.0-7.0-3.0-0.82","6","6","7","7","6","4","3","5","5","3","5","2","1","1","1","2","2","2","2","5","5","5","5","5","4","5","4","5","4","7","9","8","9","8","9","8","8","9","5","6","4","7","7","4","3","1","7","7","3","3","4","3","6","5","7","7","3","7","2","5","4","2","4","7","2","7","7","7","5","3","3","4","2","5","2","7","3","6","673561434503774208","王","695","Male","[""坏他"",""好他"",""坏我"",""好我""]","[""弱他"",""强他"",""弱我"",""强我""]","","","","","","","","yes","","","","","","","","","SRET","EW_formal","","key","j","16.689672131147656","999.999985098839","558.1249916832895","自己","娴熟","Positive","ability","","","","","","","","","",""
"978","","f","psychophysics","97","420274","0.0-7.0-3.0-0.83","6","6","7","7","6","4","3","5","5","3","5","2","1","1","1","2","2","2","2","5","5","5","5","5","4","5","4","5","4","7","9","8","9","8","9","8","8","9","5","6","4","7","7","4","3","1","7","7","3","3","4","3","6","5","7","7","3","7","2","5","4","2","4","7","2","7","7","7","5","3","3","4","2","5","2","7","3","6","673561434503774208","王","695","Male","[""坏他"",""好他"",""坏我"",""好我""]","[""弱他"",""强他"",""弱我"",""强我""]","","","","","","","","no","","","","","","","","","SRET","EW_formal","","key","f","16.68866101694905","999.999985098839","558.1249916832895","朋友","罪恶","Negative","morality","","","","","","","","","",""
"1074","","j","psychophysics","98","422350","0.0-7.0-3.0-0.84","6","6","7","7","6","4","3","5","5","3","5","2","1","1","1","2","2","2","2","5","5","5","5","5","4","5","4","5","4","7","9","8","9","8","9","8","8","9","5","6","4","7","7","4","3","1","7","7","3","3","4","3","6","5","7","7","3","7","2","5","4","2","4","7","2","7","7","7","5","3","3","4","2","5","2","7","3","6","673561434503774208","王","695","Male","[""坏他"",""好他"",""坏我"",""好我""]","[""弱他"",""强他"",""弱我"",""强我""]","","","","","","","","yes","","","","","","","","","SRET","EW_formal","","key","j","16.68871544715447","999.999985098839","558.1249916832895","朋友","素养","Positive","morality","","","","","","","","","",""
"1548","","f","psychophysics","99","424899","0.0-7.0-3.0-0.85","6","6","7","7","6","4","3","5","5","3","5","2","1","1","1","2","2","2","2","5","5","5","5","5","4","5","4","5","4","7","9","8","9","8","9","8","8","9","5","6","4","7","7","4","3","1","7","7","3","3","4","3","6","5","7","7","3","7","2","5","4","2","4","7","2","7","7","7","5","3","3","4","2","5","2","7","3","6","673561434503774208","王","695","Male","[""坏他"",""好他"",""坏我"",""好我""]","[""弱他"",""强他"",""弱我"",""强我""]","","","","","","","","no","","","","","","","","","SRET","EW_formal","","key","f","16.690197368420883","999.999985098839","558.1249916832895","自己","缓慢","Negative","ability","","","","","","","","","",""
"806","","j","psychophysics","100","426706","0.0-7.0-3.0-0.86","6","6","7","7","6","4","3","5","5","3","5","2","1","1","1","2","2","2","2","5","5","5","5","5","4","5","4","5","4","7","9","8","9","8","9","8","8","9","5","6","4","7","7","4","3","1","7","7","3","3","4","3","6","5","7","7","3","7","2","5","4","2","4","7","2","7","7","7","5","3","3","4","2","5","2","7","3","6","673561434503774208","王","695","Male","[""坏他"",""好他"",""坏我"",""好我""]","[""弱他"",""强他"",""弱我"",""强我""]","","","","","","","","yes","","","","","","","","","SRET","EW_formal","","key","j","16.689140186916003","999.999985098839","558.1249916832895","自己","主见","Positive","ability","","","","","","","","","",""
"1068","","f","psychophysics","101","428776","0.0-7.0-3.0-0.87","6","6","7","7","6","4","3","5","5","3","5","2","1","1","1","2","2","2","2","5","5","5","5","5","4","5","4","5","4","7","9","8","9","8","9","8","8","9","5","6","4","7","7","4","3","1","7","7","3","3","4","3","6","5","7","7","3","7","2","5","4","2","4","7","2","7","7","7","5","3","3","4","2","5","2","7","3","6","673561434503774208","王","695","Male","[""坏他"",""好他"",""坏我"",""好我""]","[""弱他"",""强他"",""弱我"",""强我""]","","","","","","","","no","","","","","","","","","SRET","EW_formal","","key","f","16.689073170731657","999.999985098839","558.1249916832895","朋友","低俗","Negative","morality","","","","","","","","","",""
"20159","
    <p><div style='color:white;font-size:35px; line-height:20px;'>计算任务</div></p><br>
    <p><div style='color:red;font-size:25px; line-height:20px;'>接下来，您将看到一些四则运算题，<b>请从键盘选择 0-9 进行反应。</b></div></p>
    <p><div style='color:red;font-size:25px; line-height:20px;'>请尽可能快地进行计算，计算的速度和正确率将影响报酬的发放。</div></p>
    <p><div class='footer' style='color:white;font-size:25px; line-height:20px;'>如果对本实验还有不清楚之处，请立即向实验员咨询。</p><p style='color:white;font-size:25px; line-height:20px;'>如果您明白了规则：</p><p style='color:white;font-size:22px; line-height:20px;'>请按 继续 进入练习</p>
    </div>
    ","0","html-button-response","102","448936","0.0-7.0-4.0","6","6","7","7","6","4","3","5","5","3","5","2","1","1","1","2","2","2","2","5","5","5","5","5","4","5","4","5","4","7","9","8","9","8","9","8","8","9","5","6","4","7","7","4","3","1","7","7","3","3","4","3","6","5","7","7","3","7","2","5","4","2","4","7","2","7","7","7","5","3","3","4","2","5","2","7","3","6","673561434503774208","王","695","Male","[""坏他"",""好他"",""坏我"",""好我""]","[""弱他"",""强他"",""弱我"",""强我""]","","","","","","","","","","","","","","","","","SRET_math","math_instructions","Sat Nov 25 2023 19:47:52 GMT+0800 (中国标准时间)","","","","","","","","","","","","","","","","","","",""
"3833","","5","psychophysics","103","452785","0.0-7.0-5.0-0.0","6","6","7","7","6","4","3","5","5","3","5","2","1","1","1","2","2","2","2","5","5","5","5","5","4","5","4","5","4","7","9","8","9","8","9","8","8","9","5","6","4","7","7","4","3","1","7","7","3","3","4","3","6","5","7","7","3","7","2","5","4","2","4","7","2","7","7","7","5","3","3","4","2","5","2","7","3","6","673561434503774208","王","695","Male","[""坏他"",""好他"",""坏我"",""好我""]","[""弱他"",""强他"",""弱我"",""强我""]","","","","","","","","5","","","","","","","","","SRET","SRET_math_calculate","","key","5","16.835401746725022","999.999985098839","558.1249916832895","","","","","3*2= ?","6","0","","","","","","",""
"2270","","9","psychophysics","104","455058","0.0-7.0-5.0-0.1","6","6","7","7","6","4","3","5","5","3","5","2","1","1","1","2","2","2","2","5","5","5","5","5","4","5","4","5","4","7","9","8","9","8","9","8","8","9","5","6","4","7","7","4","3","1","7","7","3","3","4","3","6","5","7","7","3","7","2","5","4","2","4","7","2","7","7","7","5","3","3","4","2","5","2","7","3","6","673561434503774208","王","695","Male","[""坏他"",""好他"",""坏我"",""好我""]","[""弱他"",""强他"",""弱我"",""强我""]","","","","","","","","9","","","","","","","","","SRET","SRET_math_calculate","","key","9","16.68949629629626","999.999985098839","558.1249916832895","","","","","4+5= ?","9","1","","","","","","",""
"2006","","9","psychophysics","105","457066","0.0-7.0-5.0-0.2","6","6","7","7","6","4","3","5","5","3","5","2","1","1","1","2","2","2","2","5","5","5","5","5","4","5","4","5","4","7","9","8","9","8","9","8","8","9","5","6","4","7","7","4","3","1","7","7","3","3","4","3","6","5","7","7","3","7","2","5","4","2","4","7","2","7","7","7","5","3","3","4","2","5","2","7","3","6","673561434503774208","王","695","Male","[""坏他"",""好他"",""坏我"",""好我""]","[""弱他"",""强他"",""弱我"",""强我""]","","","","","","","","9","","","","","","","","","SRET","SRET_math_calculate","","key","9","16.689512605041738","999.999985098839","558.1249916832895","","","","","1+8= ?","9","1","","","","","","",""
"2185","","3","psychophysics","106","459256","0.0-7.0-5.0-0.3","6","6","7","7","6","4","3","5","5","3","5","2","1","1","1","2","2","2","2","5","5","5","5","5","4","5","4","5","4","7","9","8","9","8","9","8","8","9","5","6","4","7","7","4","3","1","7","7","3","3","4","3","6","5","7","7","3","7","2","5","4","2","4","7","2","7","7","7","5","3","3","4","2","5","2","7","3","6","673561434503774208","王","695","Male","[""坏他"",""好他"",""坏我"",""好我""]","[""弱他"",""强他"",""弱我"",""强我""]","","","","","","","","3","","","","","","","","","SRET","SRET_math_calculate","","key","3","16.689625954198586","999.999985098839","558.1249916832895","","","","","2+1= ?","3","1","","","","","","",""
"1910","","4","psychophysics","107","461171","0.0-7.0-5.0-0.4","6","6","7","7","6","4","3","5","5","3","5","2","1","1","1","2","2","2","2","5","5","5","5","5","4","5","4","5","4","7","9","8","9","8","9","8","8","9","5","6","4","7","7","4","3","1","7","7","3","3","4","3","6","5","7","7","3","7","2","5","4","2","4","7","2","7","7","7","5","3","3","4","2","5","2","7","3","6","673561434503774208","王","695","Male","[""坏他"",""好他"",""坏我"",""好我""]","[""弱他"",""强他"",""弱我"",""强我""]","","","","","","","","4","","","","","","","","","SRET","SRET_math_calculate","","key","4","16.838017857142923","999.999985098839","558.1249916832895","","","","","2+2= ?","4","1","","","","","","",""
"2507","","3","psychophysics","108","463682","0.0-7.0-5.0-0.5","6","6","7","7","6","4","3","5","5","3","5","2","1","1","1","2","2","2","2","5","5","5","5","5","4","5","4","5","4","7","9","8","9","8","9","8","8","9","5","6","4","7","7","4","3","1","7","7","3","3","4","3","6","5","7","7","3","7","2","5","4","2","4","7","2","7","7","7","5","3","3","4","2","5","2","7","3","6","673561434503774208","王","695","Male","[""坏他"",""好他"",""坏我"",""好我""]","[""弱他"",""强他"",""弱我"",""强我""]","","","","","","","","3","","","","","","","","","SRET","SRET_math_calculate","","key","3","16.68867999999978","999.999985098839","558.1249916832895","","","","","21/7=  ?","3","1","","","","","","",""
"2535","","8","psychophysics","109","466220","0.0-7.0-5.0-0.6","6","6","7","7","6","4","3","5","5","3","5","2","1","1","1","2","2","2","2","5","5","5","5","5","4","5","4","5","4","7","9","8","9","8","9","8","8","9","5","6","4","7","7","4","3","1","7","7","3","3","4","3","6","5","7","7","3","7","2","5","4","2","4","7","2","7","7","7","5","3","3","4","2","5","2","7","3","6","673561434503774208","王","695","Male","[""坏他"",""好他"",""坏我"",""好我""]","[""弱他"",""强他"",""弱我"",""强我""]","","","","","","","","8","","","","","","","","","SRET","SRET_math_calculate","","key","8","16.68932450331157","999.999985098839","558.1249916832895","","","","","13-5= ?","8","1","","","","","","",""
"2153","","1","psychophysics","110","468376","0.0-7.0-5.0-0.7","6","6","7","7","6","4","3","5","5","3","5","2","1","1","1","2","2","2","2","5","5","5","5","5","4","5","4","5","4","7","9","8","9","8","9","8","8","9","5","6","4","7","7","4","3","1","7","7","3","3","4","3","6","5","7","7","3","7","2","5","4","2","4","7","2","7","7","7","5","3","3","4","2","5","2","7","3","6","673561434503774208","王","695","Male","[""坏他"",""好他"",""坏我"",""好我""]","[""弱他"",""强他"",""弱我"",""强我""]","","","","","","","","1","","","","","","","","","SRET","SRET_math_calculate","","key","1","16.689187500000116","999.999985098839","558.1249916832895","","","","","4/4= ?","1","1","","","","","","",""
"2191","","8","psychophysics","111","470571","0.0-7.0-5.0-0.8","6","6","7","7","6","4","3","5","5","3","5","2","1","1","1","2","2","2","2","5","5","5","5","5","4","5","4","5","4","7","9","8","9","8","9","8","8","9","5","6","4","7","7","4","3","1","7","7","3","3","4","3","6","5","7","7","3","7","2","5","4","2","4","7","2","7","7","7","5","3","3","4","2","5","2","7","3","6","673561434503774208","王","695","Male","[""坏他"",""好他"",""坏我"",""好我""]","[""弱他"",""强他"",""弱我"",""强我""]","","","","","","","","8","","","","","","","","","SRET","SRET_math_calculate","","key","8","16.68881679389302","999.999985098839","558.1249916832895","","","","","4*2= ?","8","1","","","","","","",""
"1998","","9","psychophysics","112","472574","0.0-7.0-5.0-0.9","6","6","7","7","6","4","3","5","5","3","5","2","1","1","1","2","2","2","2","5","5","5","5","5","4","5","4","5","4","7","9","8","9","8","9","8","8","9","5","6","4","7","7","4","3","1","7","7","3","3","4","3","6","5","7","7","3","7","2","5","4","2","4","7","2","7","7","7","5","3","3","4","2","5","2","7","3","6","673561434503774208","王","695","Male","[""坏他"",""好他"",""坏我"",""好我""]","[""弱他"",""强他"",""弱我"",""强我""]","","","","","","","","9","","","","","","","","","SRET","SRET_math_calculate","","key","9","16.687983193277272","999.999985098839","558.1249916832895","","","","","1+8= ?","9","1","","","","","","",""
"2134","","1","psychophysics","113","474714","0.0-7.0-5.0-0.10","6","6","7","7","6","4","3","5","5","3","5","2","1","1","1","2","2","2","2","5","5","5","5","5","4","5","4","5","4","7","9","8","9","8","9","8","8","9","5","6","4","7","7","4","3","1","7","7","3","3","4","3","6","5","7","7","3","7","2","5","4","2","4","7","2","7","7","7","5","3","3","4","2","5","2","7","3","6","673561434503774208","王","695","Male","[""坏他"",""好他"",""坏我"",""好我""]","[""弱他"",""强他"",""弱我"",""强我""]","","","","","","","","1","","","","","","","","","SRET","SRET_math_calculate","","key","1","16.68886614173209","999.999985098839","558.1249916832895","","","","","12/12= ?","1","1","","","","","","",""
"1925","","8","psychophysics","114","476643","0.0-7.0-5.0-0.11","6","6","7","7","6","4","3","5","5","3","5","2","1","1","1","2","2","2","2","5","5","5","5","5","4","5","4","5","4","7","9","8","9","8","9","8","8","9","5","6","4","7","7","4","3","1","7","7","3","3","4","3","6","5","7","7","3","7","2","5","4","2","4","7","2","7","7","7","5","3","3","4","2","5","2","7","3","6","673561434503774208","王","695","Male","[""坏他"",""好他"",""坏我"",""好我""]","[""弱他"",""强他"",""弱我"",""强我""]","","","","","","","","8","","","","","","","","","SRET","SRET_math_calculate","","key","8","16.686938596491625","999.999985098839","558.1249916832895","","","","","1+7= ?","8","1","","","","","","",""
"2038","","7","psychophysics","115","478683","0.0-7.0-5.0-0.12","6","6","7","7","6","4","3","5","5","3","5","2","1","1","1","2","2","2","2","5","5","5","5","5","4","5","4","5","4","7","9","8","9","8","9","8","8","9","5","6","4","7","7","4","3","1","7","7","3","3","4","3","6","5","7","7","3","7","2","5","4","2","4","7","2","7","7","7","5","3","3","4","2","5","2","7","3","6","673561434503774208","王","695","Male","[""坏他"",""好他"",""坏我"",""好我""]","[""弱他"",""强他"",""弱我"",""强我""]","","","","","","","","7","","","","","","","","","SRET","SRET_math_calculate","","key","7","16.68918852459021","999.999985098839","558.1249916832895","","","","","12-5= ?","7","1","","","","","","",""
"1969","","0","psychophysics","116","480657","0.0-7.0-5.0-0.13","6","6","7","7","6","4","3","5","5","3","5","2","1","1","1","2","2","2","2","5","5","5","5","5","4","5","4","5","4","7","9","8","9","8","9","8","8","9","5","6","4","7","7","4","3","1","7","7","3","3","4","3","6","5","7","7","3","7","2","5","4","2","4","7","2","7","7","7","5","3","3","4","2","5","2","7","3","6","673561434503774208","王","695","Male","[""坏他"",""好他"",""坏我"",""好我""]","[""弱他"",""强他"",""弱我"",""强我""]","","","","","","","","0","","","","","","","","","SRET","SRET_math_calculate","","key","0","16.69070085470065","999.999985098839","558.1249916832895","","","","","22-22= ?","0","1","","","","","","",""
"2242","","2","psychophysics","117","482901","0.0-7.0-5.0-0.14","6","6","7","7","6","4","3","5","5","3","5","2","1","1","1","2","2","2","2","5","5","5","5","5","4","5","4","5","4","7","9","8","9","8","9","8","8","9","5","6","4","7","7","4","3","1","7","7","3","3","4","3","6","5","7","7","3","7","2","5","4","2","4","7","2","7","7","7","5","3","3","4","2","5","2","7","3","6","673561434503774208","王","695","Male","[""坏他"",""好他"",""坏我"",""好我""]","[""弱他"",""强他"",""弱我"",""强我""]","","","","","","","","2","","","","","","","","","SRET","SRET_math_calculate","","key","2","16.688932330826827","999.999985098839","558.1249916832895","","","","","18/9= ?","2","1","","","","","","",""
"1912","","4","psychophysics","118","484815","0.0-7.0-5.0-0.15","6","6","7","7","6","4","3","5","5","3","5","2","1","1","1","2","2","2","2","5","5","5","5","5","4","5","4","5","4","7","9","8","9","8","9","8","8","9","5","6","4","7","7","4","3","1","7","7","3","3","4","3","6","5","7","7","3","7","2","5","4","2","4","7","2","7","7","7","5","3","3","4","2","5","2","7","3","6","673561434503774208","王","695","Male","[""坏他"",""好他"",""坏我"",""好我""]","[""弱他"",""强他"",""弱我"",""强我""]","","","","","","","","4","","","","","","","","","SRET","SRET_math_calculate","","key","4","16.68826315789473","999.999985098839","558.1249916832895","","","","","3+1= ?","4","1","","","","","","",""
"2060","","3","psychophysics","119","486878","0.0-7.0-5.0-0.16","6","6","7","7","6","4","3","5","5","3","5","2","1","1","1","2","2","2","2","5","5","5","5","5","4","5","4","5","4","7","9","8","9","8","9","8","8","9","5","6","4","7","7","4","3","1","7","7","3","3","4","3","6","5","7","7","3","7","2","5","4","2","4","7","2","7","7","7","5","3","3","4","2","5","2","7","3","6","673561434503774208","王","695","Male","[""坏他"",""好他"",""坏我"",""好我""]","[""弱他"",""强他"",""弱我"",""强我""]","","","","","","","","3","","","","","","","","","SRET","SRET_math_calculate","","key","3","16.688682926829138","999.999985098839","558.1249916832895","","","","","3+0= ?","3","1","","","","","","",""
"2227","","0","psychophysics","120","489109","0.0-7.0-5.0-0.17","6","6","7","7","6","4","3","5","5","3","5","2","1","1","1","2","2","2","2","5","5","5","5","5","4","5","4","5","4","7","9","8","9","8","9","8","8","9","5","6","4","7","7","4","3","1","7","7","3","3","4","3","6","5","7","7","3","7","2","5","4","2","4","7","2","7","7","7","5","3","3","4","2","5","2","7","3","6","673561434503774208","王","695","Male","[""坏他"",""好他"",""坏我"",""好我""]","[""弱他"",""强他"",""弱我"",""强我""]","","","","","","","","0","","","","","","","","","SRET","SRET_math_calculate","","key","0","16.81516793893138","999.999985098839","558.1249916832895","","","","","43-34= ?","9","0","","","","","","",""
"2414","","8","psychophysics","121","491526","0.0-7.0-5.0-0.18","6","6","7","7","6","4","3","5","5","3","5","2","1","1","1","2","2","2","2","5","5","5","5","5","4","5","4","5","4","7","9","8","9","8","9","8","8","9","5","6","4","7","7","4","3","1","7","7","3","3","4","3","6","5","7","7","3","7","2","5","4","2","4","7","2","7","7","7","5","3","3","4","2","5","2","7","3","6","673561434503774208","王","695","Male","[""坏他"",""好他"",""坏我"",""好我""]","[""弱他"",""强他"",""弱我"",""强我""]","","","","","","","","8","","","","","","","","","SRET","SRET_math_calculate","","key","8","16.689583333333253","999.999985098839","558.1249916832895","","","","","56/7= ?","8","1","","","","","","",""
"1992","","3","psychophysics","122","493520","0.0-7.0-5.0-0.19","6","6","7","7","6","4","3","5","5","3","5","2","1","1","1","2","2","2","2","5","5","5","5","5","4","5","4","5","4","7","9","8","9","8","9","8","8","9","5","6","4","7","7","4","3","1","7","7","3","3","4","3","6","5","7","7","3","7","2","5","4","2","4","7","2","7","7","7","5","3","3","4","2","5","2","7","3","6","673561434503774208","王","695","Male","[""坏他"",""好他"",""坏我"",""好我""]","[""弱他"",""强他"",""弱我"",""强我""]","","","","","","","","3","","","","","","","","","SRET","SRET_math_calculate","","key","3","16.69012605042017","999.999985098839","558.1249916832895","","","","","9/3= ?","3","1","","","","","","",""
"1838","","5","psychophysics","123","495362","0.0-7.0-5.0-0.20","6","6","7","7","6","4","3","5","5","3","5","2","1","1","1","2","2","2","2","5","5","5","5","5","4","5","4","5","4","7","9","8","9","8","9","8","8","9","5","6","4","7","7","4","3","1","7","7","3","3","4","3","6","5","7","7","3","7","2","5","4","2","4","7","2","7","7","7","5","3","3","4","2","5","2","7","3","6","673561434503774208","王","695","Male","[""坏他"",""好他"",""坏我"",""好我""]","[""弱他"",""强他"",""弱我"",""强我""]","","","","","","","","5","","","","","","","","","SRET","SRET_math_calculate","","key","5","16.689935779816327","999.999985098839","558.1249916832895","","","","","3+2= ?","5","1","","","","","","",""
"2126","","3","psychophysics","124","497492","0.0-7.0-5.0-0.21","6","6","7","7","6","4","3","5","5","3","5","2","1","1","1","2","2","2","2","5","5","5","5","5","4","5","4","5","4","7","9","8","9","8","9","8","8","9","5","6","4","7","7","4","3","1","7","7","3","3","4","3","6","5","7","7","3","7","2","5","4","2","4","7","2","7","7","7","5","3","3","4","2","5","2","7","3","6","673561434503774208","王","695","Male","[""坏他"",""好他"",""坏我"",""好我""]","[""弱他"",""强他"",""弱我"",""强我""]","","","","","","","","3","","","","","","","","","SRET","SRET_math_calculate","","key","3","16.68877952755933","999.999985098839","558.1249916832895","","","","","12/4= ?","3","1","","","","","","",""
"1998","","8","psychophysics","125","499496","0.0-7.0-5.0-0.22","6","6","7","7","6","4","3","5","5","3","5","2","1","1","1","2","2","2","2","5","5","5","5","5","4","5","4","5","4","7","9","8","9","8","9","8","8","9","5","6","4","7","7","4","3","1","7","7","3","3","4","3","6","5","7","7","3","7","2","5","4","2","4","7","2","7","7","7","5","3","3","4","2","5","2","7","3","6","673561434503774208","王","695","Male","[""坏他"",""好他"",""坏我"",""好我""]","[""弱他"",""强他"",""弱我"",""强我""]","","","","","","","","8","","","","","","","","","SRET","SRET_math_calculate","","key","8","16.68905042016785","999.999985098839","558.1249916832895","","","","","9-1= ?","8","1","","","","","","",""
"2058","","8","psychophysics","126","501559","0.0-7.0-5.0-0.23","6","6","7","7","6","4","3","5","5","3","5","2","1","1","1","2","2","2","2","5","5","5","5","5","4","5","4","5","4","7","9","8","9","8","9","8","8","9","5","6","4","7","7","4","3","1","7","7","3","3","4","3","6","5","7","7","3","7","2","5","4","2","4","7","2","7","7","7","5","3","3","4","2","5","2","7","3","6","673561434503774208","王","695","Male","[""坏他"",""好他"",""坏我"",""好我""]","[""弱他"",""强他"",""弱我"",""强我""]","","","","","","","","8","","","","","","","","","SRET","SRET_math_calculate","","key","8","16.68945081967175","999.999985098839","558.1249916832895","","","","","2+6= ?","8","1","","","","","","",""
"2064","","5","psychophysics","127","503626","0.0-7.0-5.0-0.24","6","6","7","7","6","4","3","5","5","3","5","2","1","1","1","2","2","2","2","5","5","5","5","5","4","5","4","5","4","7","9","8","9","8","9","8","8","9","5","6","4","7","7","4","3","1","7","7","3","3","4","3","6","5","7","7","3","7","2","5","4","2","4","7","2","7","7","7","5","3","3","4","2","5","2","7","3","6","673561434503774208","王","695","Male","[""坏他"",""好他"",""坏我"",""好我""]","[""弱他"",""强他"",""弱我"",""强我""]","","","","","","","","5","","","","","","","","","SRET","SRET_math_calculate","","key","5","16.69155284552835","999.999985098839","558.1249916832895","","","","","15-10= ?","5","1","","","","","","",""
"2025","","3","psychophysics","128","505654","0.0-7.0-5.0-0.25","6","6","7","7","6","4","3","5","5","3","5","2","1","1","1","2","2","2","2","5","5","5","5","5","4","5","4","5","4","7","9","8","9","8","9","8","8","9","5","6","4","7","7","4","3","1","7","7","3","3","4","3","6","5","7","7","3","7","2","5","4","2","4","7","2","7","7","7","5","3","3","4","2","5","2","7","3","6","673561434503774208","王","695","Male","[""坏他"",""好他"",""坏我"",""好我""]","[""弱他"",""强他"",""弱我"",""强我""]","","","","","","","","3","","","","","","","","","SRET","SRET_math_calculate","","key","3","16.689438016529095","999.999985098839","558.1249916832895","","","","","6/2= ?","3","1","","","","","","",""
"2093","","7","psychophysics","129","507752","0.0-7.0-5.0-0.26","6","6","7","7","6","4","3","5","5","3","5","2","1","1","1","2","2","2","2","5","5","5","5","5","4","5","4","5","4","7","9","8","9","8","9","8","8","9","5","6","4","7","7","4","3","1","7","7","3","3","4","3","6","5","7","7","3","7","2","5","4","2","4","7","2","7","7","7","5","3","3","4","2","5","2","7","3","6","673561434503774208","王","695","Male","[""坏他"",""好他"",""坏我"",""好我""]","[""弱他"",""强他"",""弱我"",""强我""]","","","","","","","","7","","","","","","","","","SRET","SRET_math_calculate","","key","7","16.68832258064527","999.999985098839","558.1249916832895","","","","","1+6= ?","7","1","","","","","","",""
"1962","","9","psychophysics","130","509720","0.0-7.0-5.0-0.27","6","6","7","7","6","4","3","5","5","3","5","2","1","1","1","2","2","2","2","5","5","5","5","5","4","5","4","5","4","7","9","8","9","8","9","8","8","9","5","6","4","7","7","4","3","1","7","7","3","3","4","3","6","5","7","7","3","7","2","5","4","2","4","7","2","7","7","7","5","3","3","4","2","5","2","7","3","6","673561434503774208","王","695","Male","[""坏他"",""好他"",""坏我"",""好我""]","[""弱他"",""强他"",""弱我"",""强我""]","","","","","","","","9","","","","","","","","","SRET","SRET_math_calculate","","key","9","16.68965811965814","999.999985098839","558.1249916832895","","","","","7+2= ?","9","1","","","","","","",""
"3280","","7","psychophysics","131","513002","0.0-7.0-5.0-0.28","6","6","7","7","6","4","3","5","5","3","5","2","1","1","1","2","2","2","2","5","5","5","5","5","4","5","4","5","4","7","9","8","9","8","9","8","8","9","5","6","4","7","7","4","3","1","7","7","3","3","4","3","6","5","7","7","3","7","2","5","4","2","4","7","2","7","7","7","5","3","3","4","2","5","2","7","3","6","673561434503774208","王","695","Male","[""坏他"",""好他"",""坏我"",""好我""]","[""弱他"",""强他"",""弱我"",""强我""]","","","","","","","","7","","","","","","","","","SRET","SRET_math_calculate","","key","7","16.68957653061228","999.999985098839","558.1249916832895","","","","","49/7 = ?","7","1","","","","","","",""
"2475","","8","psychophysics","132","515480","0.0-7.0-5.0-0.29","6","6","7","7","6","4","3","5","5","3","5","2","1","1","1","2","2","2","2","5","5","5","5","5","4","5","4","5","4","7","9","8","9","8","9","8","8","9","5","6","4","7","7","4","3","1","7","7","3","3","4","3","6","5","7","7","3","7","2","5","4","2","4","7","2","7","7","7","5","3","3","4","2","5","2","7","3","6","673561434503774208","王","695","Male","[""坏他"",""好他"",""坏我"",""好我""]","[""弱他"",""强他"",""弱我"",""强我""]","","","","","","","","8","","","","","","","","","SRET","SRET_math_calculate","","key","8","16.68916326530593","999.999985098839","558.1249916832895","","","","","8*1= ?","8","1","","","","","","",""
"2039","","5","psychophysics","133","517526","0.0-7.0-5.0-0.30","6","6","7","7","6","4","3","5","5","3","5","2","1","1","1","2","2","2","2","5","5","5","5","5","4","5","4","5","4","7","9","8","9","8","9","8","8","9","5","6","4","7","7","4","3","1","7","7","3","3","4","3","6","5","7","7","3","7","2","5","4","2","4","7","2","7","7","7","5","3","3","4","2","5","2","7","3","6","673561434503774208","王","695","Male","[""坏他"",""好他"",""坏我"",""好我""]","[""弱他"",""强他"",""弱我"",""强我""]","","","","","","","","5","","","","","","","","","SRET","SRET_math_calculate","","key","5","16.68973770491792","999.999985098839","558.1249916832895","","","","","16-11= ?","5","1","","","","","","",""
"2045","","4","psychophysics","134","519575","0.0-7.0-5.0-0.31","6","6","7","7","6","4","3","5","5","3","5","2","1","1","1","2","2","2","2","5","5","5","5","5","4","5","4","5","4","7","9","8","9","8","9","8","8","9","5","6","4","7","7","4","3","1","7","7","3","3","4","3","6","5","7","7","3","7","2","5","4","2","4","7","2","7","7","7","5","3","3","4","2","5","2","7","3","6","673561434503774208","王","695","Male","[""坏他"",""好他"",""坏我"",""好我""]","[""弱他"",""强他"",""弱我"",""强我""]","","","","","","","","4","","","","","","","","","SRET","SRET_math_calculate","","key","4","16.68921311475436","999.999985098839","558.1249916832895","","","","","4*1= ?","4","1","","","","","","",""
"1885","","9","psychophysics","135","521463","0.0-7.0-5.0-0.32","6","6","7","7","6","4","3","5","5","3","5","2","1","1","1","2","2","2","2","5","5","5","5","5","4","5","4","5","4","7","9","8","9","8","9","8","8","9","5","6","4","7","7","4","3","1","7","7","3","3","4","3","6","5","7","7","3","7","2","5","4","2","4","7","2","7","7","7","5","3","3","4","2","5","2","7","3","6","673561434503774208","王","695","Male","[""坏他"",""好他"",""坏我"",""好我""]","[""弱他"",""强他"",""弱我"",""强我""]","","","","","","","","9","","","","","","","","","SRET","SRET_math_calculate","","key","9","16.687392857142445","999.999985098839","558.1249916832895","","","","","3+6= ?","9","1","","","","","","",""
"2621","","3","psychophysics","136","524087","0.0-7.0-5.0-0.33","6","6","7","7","6","4","3","5","5","3","5","2","1","1","1","2","2","2","2","5","5","5","5","5","4","5","4","5","4","7","9","8","9","8","9","8","8","9","5","6","4","7","7","4","3","1","7","7","3","3","4","3","6","5","7","7","3","7","2","5","4","2","4","7","2","7","7","7","5","3","3","4","2","5","2","7","3","6","673561434503774208","王","695","Male","[""坏他"",""好他"",""坏我"",""好我""]","[""弱他"",""强他"",""弱我"",""强我""]","","","","","","","","3","","","","","","","","","SRET","SRET_math_calculate","","key","3","16.689070512820482","999.999985098839","558.1249916832895","","","","","11-8= ?","3","1","","","","","","",""
"1731","","5","psychophysics","137","525837","0.0-7.0-5.0-0.34","6","6","7","7","6","4","3","5","5","3","5","2","1","1","1","2","2","2","2","5","5","5","5","5","4","5","4","5","4","7","9","8","9","8","9","8","8","9","5","6","4","7","7","4","3","1","7","7","3","3","4","3","6","5","7","7","3","7","2","5","4","2","4","7","2","7","7","7","5","3","3","4","2","5","2","7","3","6","673561434503774208","王","695","Male","[""坏他"",""好他"",""坏我"",""好我""]","[""弱他"",""强他"",""弱我"",""强我""]","","","","","","","","5","","","","","","","","","SRET","SRET_math_calculate","","key","5","16.690134615384384","999.999985098839","558.1249916832895","","","","","4+1= ?","5","1","","","","","","",""
"1800","","6","psychophysics","138","527640","0.0-7.0-5.0-0.35","6","6","7","7","6","4","3","5","5","3","5","2","1","1","1","2","2","2","2","5","5","5","5","5","4","5","4","5","4","7","9","8","9","8","9","8","8","9","5","6","4","7","7","4","3","1","7","7","3","3","4","3","6","5","7","7","3","7","2","5","4","2","4","7","2","7","7","7","5","3","3","4","2","5","2","7","3","6","673561434503774208","王","695","Male","[""坏他"",""好他"",""坏我"",""好我""]","[""弱他"",""强他"",""弱我"",""强我""]","","","","","","","","6","","","","","","","","","SRET","SRET_math_calculate","","key","6","16.68924299065376","999.999985098839","558.1249916832895","","","","","3+3= ?","6","1","","","","","","",""
"1879","","9","psychophysics","139","529522","0.0-7.0-5.0-0.36","6","6","7","7","6","4","3","5","5","3","5","2","1","1","1","2","2","2","2","5","5","5","5","5","4","5","4","5","4","7","9","8","9","8","9","8","8","9","5","6","4","7","7","4","3","1","7","7","3","3","4","3","6","5","7","7","3","7","2","5","4","2","4","7","2","7","7","7","5","3","3","4","2","5","2","7","3","6","673561434503774208","王","695","Male","[""坏他"",""好他"",""坏我"",""好我""]","[""弱他"",""强他"",""弱我"",""强我""]","","","","","","","","9","","","","","","","","","SRET","SRET_math_calculate","","key","9","16.688625000000425","999.999985098839","558.1249916832895","","","","","6+3= ?","9","1","","","","","","",""
