"rt","stimulus","response","trial_type","trial_index","time_elapsed","internal_node_id","swb_1","swb_2","swb_3","swb_4","swb_5","LOT_1","LOT_2","LOT_3","LOT_4","LOT_5","LOT_6","IPC_1","IPC_2","IPC_3","IPC_4","IPC_5","IPC_6","IPC_7","IPC_8","MorIden_1","MorIden_2","MorIden_3","MorIden_4","MorIden_5","MorIden_6","MorIden_7","MorIden_8","MorIden_9","MorIden_10","moralSeImag_1","moralSeImag_2","moralSeImag_3","moralSeImag_4","moralSeImag_5","moralSeImag_6","moralSeImag_7","moralSeImag_8","moralSeImag_9","sde_1","sde_2","sde_3","sde_4","sde_5","sde_6","sde_7","sde_8","sde_9","sde_10","sde_11","sde_12","sde_13","sde_14","sde_15","sde_16","sde_17","sde_18","sde_19","sde_20","IM_1","IM_2","IM_3","IM_4","IM_5","IM_6","IM_7","IM_8","IM_9","IM_10","IM_11","IM_12","IM_13","IM_14","IM_15","IM_16","IM_17","IM_18","IM_19","IM_20","subj_idx","friend_name","ParticipantID","Sex","Word","Word2","value","success","timeout","failed_images","failed_audio","failed_video","user_agent","responses","item_order","radio_event_ids","radio_event_times","key_event_times","mouse_event_times","straightlining","zigzagging","honeypot","view_history","response_type","key_press","avg_frame_time","center_x","center_y","correct_response","correct","identity","Image","word","condition","task_id","screen_id","time_stamp","person","valence","domain","math","status","duration","question_order"
"2411","
   <p><div style='color:white; font-size: 25px'>您好，欢迎参加本次实验。</div></p>
   <p><div style='color:white; font-size: 25px'>为充分保障您的权利，请确保您已经知晓并同意《参与实验同意书》以及《数据公开知情同意书》。</div></p>
   <p><div style='color:white; font-size: 25px'>如果您未见过上述内容，请咨询实验员。</div></p>
   <p style='color:white; font-size: 25px'>如果您选择继续实验，则表示您已经清楚两份知情同意书的内容并同意。</p>
   <p><div style = ""color: red;font-size:30px;"">请确保您记得day0的实验编号，您将在本次实验输入该编号，若您忘记，请咨询实验员后作答。</div></p>
   <p> <div style = ""color: green""><按空格键至下页></div> </p>
   "," ","html-keyboard-response","0","2416","0.0-0.0","7","5","6","7","5","5","4","4","5","4","5","-1","-3","1","0","1","2","0","1","4","5","5","4","4","5","4","4","5","4","8","6","7","7","8","9","6","8","7","5","6","6","5","7","6","6","7","5","6","6","7","2","5","7","7","6","6","5","7","2","5","2","7","6","5","5","6","6","5","6","6","7","1","3","2","7","6","7","5","634800368890413056","陈","266","Male","[""好我"",""好他"",""坏我"",""坏他""]","[""强我"",""强他"",""弱我"",""弱他""]","","","","","","","","","","","","","","","","","","","","","","","","","","","","","","","","","","","","","",""
"","","","call-function","1","2417","0.0-1.0-0.0","7","5","6","7","5","5","4","4","5","4","5","-1","-3","1","0","1","2","0","1","4","5","5","4","4","5","4","4","5","4","8","6","7","7","8","9","6","8","7","5","6","6","5","7","6","6","7","5","6","6","7","2","5","7","7","6","6","5","7","2","5","2","7","6","5","5","6","6","5","6","6","7","1","3","2","7","6","7","5","634800368890413056","陈","266","Male","[""好我"",""好他"",""坏我"",""坏他""]","[""强我"",""强他"",""弱我"",""弱他""]","","","","","","","","","","","","","","","","","","","","","","","","","","","","","","","","","","","","","",""
"21522","","[{""name"":""Sex"",""value"":""0""},{""name"":""friend_name"",""value"":""陈""},{""name"":""ParticipantID"",""value"":""266""}]","survey-html-form","2","23949","0.0-1.0-1.0","7","5","6","7","5","5","4","4","5","4","5","-1","-3","1","0","1","2","0","1","4","5","5","4","4","5","4","4","5","4","8","6","7","7","8","9","6","8","7","5","6","6","5","7","6","6","7","5","6","6","7","2","5","7","7","6","6","5","7","2","5","2","7","6","5","5","6","6","5","6","6","7","1","3","2","7","6","7","5","634800368890413056","陈","266","Male","[""好我"",""好他"",""坏我"",""坏他""]","[""强我"",""强他"",""弱我"",""弱他""]","","","","","","","","","","","","","","","","","","","","","","","","","","","","","","","","","","","","","",""
"","","","preload","3","24490","0.0-2.0","7","5","6","7","5","5","4","4","5","4","5","-1","-3","1","0","1","2","0","1","4","5","5","4","4","5","4","4","5","4","8","6","7","7","8","9","6","8","7","5","6","6","5","7","6","6","7","5","6","6","7","2","5","7","7","6","6","5","7","2","5","2","7","6","5","5","6","6","5","6","6","7","1","3","2","7","6","7","5","634800368890413056","陈","266","Male","[""好我"",""好他"",""坏我"",""坏他""]","[""强我"",""强他"",""弱我"",""弱他""]","","true","false","[]","[]","[]","","","","","","","","","","","","","","","","","","","","","","","","","","","","","","","",""
"","","","fullscreen","4","25585","0.0-3.0","7","5","6","7","5","5","4","4","5","4","5","-1","-3","1","0","1","2","0","1","4","5","5","4","4","5","4","4","5","4","8","6","7","7","8","9","6","8","7","5","6","6","5","7","6","6","7","5","6","6","7","2","5","7","7","6","6","5","7","2","5","2","7","6","5","5","6","6","5","6","6","7","1","3","2","7","6","7","5","634800368890413056","陈","266","Male","[""好我"",""好他"",""坏我"",""坏他""]","[""强我"",""强他"",""弱我"",""弱他""]","","true","","","","","{}","","","","","","","","","","","","","","","","","","","","","","","","","","","","","","",""
"95783.79999999702","","{""Q01"":""7"",""Q02"":""5"",""Q03"":""6"",""Q04"":""7"",""Q05"":""5""}","survey-template","5","121373","0.0-4.0","7","5","6","7","5","5","4","4","5","4","5","-1","-3","1","0","1","2","0","1","4","5","5","4","4","5","4","4","5","4","8","6","7","7","8","9","6","8","7","5","6","6","5","7","6","6","7","5","6","6","7","2","5","7","7","6","6","5","7","2","5","2","7","6","5","5","6","6","5","6","6","7","1","3","2","7","6","7","5","634800368890413056","陈","266","Male","[""好我"",""好他"",""坏我"",""坏他""]","[""强我"",""强他"",""弱我"",""弱他""]","","","","","","","","{""Q01"":""7"",""Q02"":""5"",""Q03"":""6"",""Q04"":""7"",""Q05"":""5""}","[0,1,2,3,4]","[""Q01"",""Q02"",""Q03"",""Q04"",""Q05""]","[4898.5,6414.699999988079,8590.59999999404,9318.59999999404,10090.59999999404]","[]","[4898.5,6414.699999988079,7624.399999991059,8590.59999999404,9318.59999999404,10090.59999999404,95781.89999999106]","0.4","0.5","0","","","","","","","","","","","","","","","","","","","","","",""
"18304","","{""Q01"":""5"",""Q02"":""4"",""Q03"":""4"",""Q04"":""5"",""Q05"":""4"",""Q06"":""5""}","survey-template","6","139682","0.0-5.0","7","5","6","7","5","5","4","4","5","4","5","-1","-3","1","0","1","2","0","1","4","5","5","4","4","5","4","4","5","4","8","6","7","7","8","9","6","8","7","5","6","6","5","7","6","6","7","5","6","6","7","2","5","7","7","6","6","5","7","2","5","2","7","6","5","5","6","6","5","6","6","7","1","3","2","7","6","7","5","634800368890413056","陈","266","Male","[""好我"",""好他"",""坏我"",""坏他""]","[""强我"",""强他"",""弱我"",""弱他""]","","","","","","","","{""Q01"":""5"",""Q02"":""4"",""Q03"":""4"",""Q04"":""5"",""Q05"":""4"",""Q06"":""5""}","[0,1,2,3,4,5]","[""Q01"",""Q02"",""Q03"",""Q04"",""Q05"",""Q06""]","[2973.2999999970198,5015.0999999940395,6275.29999999702,7653.5,8541.79999999702,11281.5]","[]","[2973.2999999970198,5015.0999999940395,6275.29999999702,7653.5,8541.79999999702,10887.29999999702,11281.5,18303.09999999404]","0.3333333333333333","0.2","0","","","","","","","","","","","","","","","","","","","","","",""
"26696.59999999404","","{""Q01"":""-1"",""Q02"":""-3"",""Q03"":""1"",""Q04"":""0"",""Q05"":""1"",""Q06"":""2"",""Q07"":""0"",""Q08"":""1""}","survey-template","7","166382","0.0-6.0","7","5","6","7","5","5","4","4","5","4","5","-1","-3","1","0","1","2","0","1","4","5","5","4","4","5","4","4","5","4","8","6","7","7","8","9","6","8","7","5","6","6","5","7","6","6","7","5","6","6","7","2","5","7","7","6","6","5","7","2","5","2","7","6","5","5","6","6","5","6","6","7","1","3","2","7","6","7","5","634800368890413056","陈","266","Male","[""好我"",""好他"",""坏我"",""坏他""]","[""强我"",""强他"",""弱我"",""弱他""]","","","","","","","","{""Q01"":""-1"",""Q02"":""-3"",""Q03"":""1"",""Q04"":""0"",""Q05"":""1"",""Q06"":""2"",""Q07"":""0"",""Q08"":""1""}","[0,1,2,3,4,5,6,7]","[""Q01"",""Q02"",""Q03"",""Q04"",""Q05"",""Q06"",""Q07"",""Q08""]","[3039.5999999940395,5313.899999991059,6221,8141.70000000298,10069.70000000298,11459.70000000298,13187.5,14153.70000000298]","[]","[2481.7999999970198,3039.5999999940395,3539.8999999910593,4377.70000000298,5313.899999991059,6221,8141.70000000298,10069.70000000298,11459.70000000298,13187.5,14153.70000000298,25809,26695.20000000298]","0.375","0.5714285714285714","0","","","","","","","","","","","","","","","","","","","","","",""
"345509","","","instructions","8","511894","0.0-7.0","7","5","6","7","5","5","4","4","5","4","5","-1","-3","1","0","1","2","0","1","4","5","5","4","4","5","4","4","5","4","8","6","7","7","8","9","6","8","7","5","6","6","5","7","6","6","7","5","6","6","7","2","5","7","7","6","6","5","7","2","5","2","7","6","5","5","6","6","5","6","6","7","1","3","2","7","6","7","5","634800368890413056","陈","266","Male","[""好我"",""好他"",""坏我"",""坏他""]","[""强我"",""强他"",""弱我"",""弱他""]","","","","","","","","","","","","","","","","","[{""page_index"":0,""viewing_time"":345509}]","","","","","","","","","","","","","","","","","","","","",""
"258647","","","instructions","9","770544","0.0-8.0-0.0-0.0","7","5","6","7","5","5","4","4","5","4","5","-1","-3","1","0","1","2","0","1","4","5","5","4","4","5","4","4","5","4","8","6","7","7","8","9","6","8","7","5","6","6","5","7","6","6","7","5","6","6","7","2","5","7","7","6","6","5","7","2","5","2","7","6","5","5","6","6","5","6","6","7","1","3","2","7","6","7","5","634800368890413056","陈","266","Male","[""好我"",""好他"",""坏我"",""坏他""]","[""强我"",""强他"",""弱我"",""弱他""]","","","","","","","","","","","","","","","","","[{""page_index"":0,""viewing_time"":3835},{""page_index"":1,""viewing_time"":246478},{""page_index"":2,""viewing_time"":5764},{""page_index"":3,""viewing_time"":2570}]","","","","","","","","","","","","","","","","","","","","",""
"859","","f","psychophysics","10","772411","0.0-8.0-0.0-1.0-0.0-0.0","7","5","6","7","5","5","4","4","5","4","5","-1","-3","1","0","1","2","0","1","4","5","5","4","4","5","4","4","5","4","8","6","7","7","8","9","6","8","7","5","6","6","5","7","6","6","7","5","6","6","7","2","5","7","7","6","6","5","7","2","5","2","7","6","5","5","6","6","5","6","6","7","1","3","2","7","6","7","5","634800368890413056","陈","266","Male","[""好我"",""好他"",""坏我"",""坏他""]","[""强我"",""强他"",""弱我"",""弱他""]","","","","","","","","match","","","","","","","","","","key","f","16.95853211009264","799.9999682108573","445.8333156175091","f","true","match","img/pentagon.png","坏他","坏他","prac_ALT2_moral","practice_moral","","","","","","","",""
"null","<span style='color:GreenYellow; font-size: 70px;'>正确! </span>","null","html-keyboard-response","11","772912","0.0-8.0-0.0-1.0-0.0-1.0","7","5","6","7","5","5","4","4","5","4","5","-1","-3","1","0","1","2","0","1","4","5","5","4","4","5","4","4","5","4","8","6","7","7","8","9","6","8","7","5","6","6","5","7","6","6","7","5","6","6","7","2","5","7","7","6","6","5","7","2","5","2","7","6","5","5","6","6","5","6","6","7","1","3","2","7","6","7","5","634800368890413056","陈","266","Male","[""好我"",""好他"",""坏我"",""坏他""]","[""强我"",""强他"",""弱我"",""弱他""]","","","","","","","","","","","","","","","","","","","","","","","","","","","","","","feedback_test","","","","","","","",""
"801","","j","psychophysics","12","774715","0.0-8.0-0.0-1.0-0.0-0.1","7","5","6","7","5","5","4","4","5","4","5","-1","-3","1","0","1","2","0","1","4","5","5","4","4","5","4","4","5","4","8","6","7","7","8","9","6","8","7","5","6","6","5","7","6","6","7","5","6","6","7","2","5","7","7","6","6","5","7","2","5","2","7","6","5","5","6","6","5","6","6","7","1","3","2","7","6","7","5","634800368890413056","陈","266","Male","[""好我"",""好他"",""坏我"",""坏他""]","[""强我"",""强他"",""弱我"",""弱他""]","","","","","","","","nonmatch","","","","","","","","","","key","j","16.65388785046634","799.9999682108573","445.8333156175091","f","false","match","img/triangle.png","好我","好我","prac_ALT2_moral","practice_moral","","","","","","","",""
"null","<span style='color:red; font-size: 70px;'>错误! </span>","null","html-keyboard-response","13","775216","0.0-8.0-0.0-1.0-0.0-1.1","7","5","6","7","5","5","4","4","5","4","5","-1","-3","1","0","1","2","0","1","4","5","5","4","4","5","4","4","5","4","8","6","7","7","8","9","6","8","7","5","6","6","5","7","6","6","7","5","6","6","7","2","5","7","7","6","6","5","7","2","5","2","7","6","5","5","6","6","5","6","6","7","1","3","2","7","6","7","5","634800368890413056","陈","266","Male","[""好我"",""好他"",""坏我"",""坏他""]","[""强我"",""强他"",""弱我"",""弱他""]","","","","","","","","","","","","","","","","","","","","","","","","","","","","","","feedback_test","","","","","","","",""
"584","","f","psychophysics","14","776803","0.0-8.0-0.0-1.0-0.0-0.2","7","5","6","7","5","5","4","4","5","4","5","-1","-3","1","0","1","2","0","1","4","5","5","4","4","5","4","4","5","4","8","6","7","7","8","9","6","8","7","5","6","6","5","7","6","6","7","5","6","6","7","2","5","7","7","6","6","5","7","2","5","2","7","6","5","5","6","6","5","6","6","7","1","3","2","7","6","7","5","634800368890413056","陈","266","Male","[""好我"",""好他"",""坏我"",""坏他""]","[""强我"",""强他"",""弱我"",""弱他""]","","","","","","","","match","","","","","","","","","","key","f","16.653468085106145","799.9999682108573","445.8333156175091","j","false","nonmatch","img/trapezoid.png","好他","坏我","prac_ALT2_moral","practice_moral","","","","","","","",""
"null","<span style='color:red; font-size: 70px;'>错误! </span>","null","html-keyboard-response","15","777304","0.0-8.0-0.0-1.0-0.0-1.2","7","5","6","7","5","5","4","4","5","4","5","-1","-3","1","0","1","2","0","1","4","5","5","4","4","5","4","4","5","4","8","6","7","7","8","9","6","8","7","5","6","6","5","7","6","6","7","5","6","6","7","2","5","7","7","6","6","5","7","2","5","2","7","6","5","5","6","6","5","6","6","7","1","3","2","7","6","7","5","634800368890413056","陈","266","Male","[""好我"",""好他"",""坏我"",""坏他""]","[""强我"",""强他"",""弱我"",""弱他""]","","","","","","","","","","","","","","","","","","","","","","","","","","","","","","feedback_test","","","","","","","",""
"569","","f","psychophysics","16","778875","0.0-8.0-0.0-1.0-0.0-0.3","7","5","6","7","5","5","4","4","5","4","5","-1","-3","1","0","1","2","0","1","4","5","5","4","4","5","4","4","5","4","8","6","7","7","8","9","6","8","7","5","6","6","5","7","6","6","7","5","6","6","7","2","5","7","7","6","6","5","7","2","5","2","7","6","5","5","6","6","5","6","6","7","1","3","2","7","6","7","5","634800368890413056","陈","266","Male","[""好我"",""好他"",""坏我"",""坏他""]","[""强我"",""强他"",""弱我"",""弱他""]","","","","","","","","match","","","","","","","","","","key","f","16.648387096774695","799.9999682108573","445.8333156175091","f","true","match","img/pentagon.png","坏他","坏他","prac_ALT2_moral","practice_moral","","","","","","","",""
"null","<span style='color:GreenYellow; font-size: 70px;'>正确! </span>","null","html-keyboard-response","17","779375","0.0-8.0-0.0-1.0-0.0-1.3","7","5","6","7","5","5","4","4","5","4","5","-1","-3","1","0","1","2","0","1","4","5","5","4","4","5","4","4","5","4","8","6","7","7","8","9","6","8","7","5","6","6","5","7","6","6","7","5","6","6","7","2","5","7","7","6","6","5","7","2","5","2","7","6","5","5","6","6","5","6","6","7","1","3","2","7","6","7","5","634800368890413056","陈","266","Male","[""好我"",""好他"",""坏我"",""坏他""]","[""强我"",""强他"",""弱我"",""弱他""]","","","","","","","","","","","","","","","","","","","","","","","","","","","","","","feedback_test","","","","","","","",""
"921","","f","psychophysics","18","781299","0.0-8.0-0.0-1.0-0.0-0.4","7","5","6","7","5","5","4","4","5","4","5","-1","-3","1","0","1","2","0","1","4","5","5","4","4","5","4","4","5","4","8","6","7","7","8","9","6","8","7","5","6","6","5","7","6","6","7","5","6","6","7","2","5","7","7","6","6","5","7","2","5","2","7","6","5","5","6","6","5","6","6","7","1","3","2","7","6","7","5","634800368890413056","陈","266","Male","[""好我"",""好他"",""坏我"",""坏他""]","[""强我"",""强他"",""弱我"",""弱他""]","","","","","","","","match","","","","","","","","","","key","f","16.654200000000063","799.9999682108573","445.8333156175091","f","true","match","img/ellipse.png","好他","好他","prac_ALT2_moral","practice_moral","","","","","","","",""
"null","<span style='color:GreenYellow; font-size: 70px;'>正确! </span>","null","html-keyboard-response","19","781800","0.0-8.0-0.0-1.0-0.0-1.4","7","5","6","7","5","5","4","4","5","4","5","-1","-3","1","0","1","2","0","1","4","5","5","4","4","5","4","4","5","4","8","6","7","7","8","9","6","8","7","5","6","6","5","7","6","6","7","5","6","6","7","2","5","7","7","6","6","5","7","2","5","2","7","6","5","5","6","6","5","6","6","7","1","3","2","7","6","7","5","634800368890413056","陈","266","Male","[""好我"",""好他"",""坏我"",""坏他""]","[""强我"",""强他"",""弱我"",""弱他""]","","","","","","","","","","","","","","","","","","","","","","","","","","","","","","feedback_test","","","","","","","",""
"914","","f","psychophysics","20","783716","0.0-8.0-0.0-1.0-0.0-0.5","7","5","6","7","5","5","4","4","5","4","5","-1","-3","1","0","1","2","0","1","4","5","5","4","4","5","4","4","5","4","8","6","7","7","8","9","6","8","7","5","6","6","5","7","6","6","7","5","6","6","7","2","5","7","7","6","6","5","7","2","5","2","7","6","5","5","6","6","5","6","6","7","1","3","2","7","6","7","5","634800368890413056","陈","266","Male","[""好我"",""好他"",""坏我"",""坏他""]","[""强我"",""强他"",""弱我"",""弱他""]","","","","","","","","match","","","","","","","","","","key","f","16.654166666666256","799.9999682108573","445.8333156175091","j","false","nonmatch","img/pentagon.png","好我","坏他","prac_ALT2_moral","practice_moral","","","","","","","",""
"null","<span style='color:red; font-size: 70px;'>错误! </span>","null","html-keyboard-response","21","784218","0.0-8.0-0.0-1.0-0.0-1.5","7","5","6","7","5","5","4","4","5","4","5","-1","-3","1","0","1","2","0","1","4","5","5","4","4","5","4","4","5","4","8","6","7","7","8","9","6","8","7","5","6","6","5","7","6","6","7","5","6","6","7","2","5","7","7","6","6","5","7","2","5","2","7","6","5","5","6","6","5","6","6","7","1","3","2","7","6","7","5","634800368890413056","陈","266","Male","[""好我"",""好他"",""坏我"",""坏他""]","[""强我"",""强他"",""弱我"",""弱他""]","","","","","","","","","","","","","","","","","","","","","","","","","","","","","","feedback_test","","","","","","","",""
"null","","null","psychophysics","22","786422","0.0-8.0-0.0-1.0-0.0-0.6","7","5","6","7","5","5","4","4","5","4","5","-1","-3","1","0","1","2","0","1","4","5","5","4","4","5","4","4","5","4","8","6","7","7","8","9","6","8","7","5","6","6","5","7","6","6","7","5","6","6","7","2","5","7","7","6","6","5","7","2","5","2","7","6","5","5","6","6","5","6","6","7","1","3","2","7","6","7","5","634800368890413056","陈","266","Male","[""好我"",""好他"",""坏我"",""坏他""]","[""强我"",""强他"",""弱我"",""弱他""]","","","","","","","","null","","","","","","","","","","key","null","16.653954198473766","799.9999682108573","445.8333156175091","f","false","match","img/trapezoid.png","坏我","坏我","prac_ALT2_moral","practice_moral","","","","","","","",""
"null","<span class='add_' style='color:yellow; font-size: 70px;'> 太慢! </span>","null","html-keyboard-response","23","786923","0.0-8.0-0.0-1.0-0.0-1.6","7","5","6","7","5","5","4","4","5","4","5","-1","-3","1","0","1","2","0","1","4","5","5","4","4","5","4","4","5","4","8","6","7","7","8","9","6","8","7","5","6","6","5","7","6","6","7","5","6","6","7","2","5","7","7","6","6","5","7","2","5","2","7","6","5","5","6","6","5","6","6","7","1","3","2","7","6","7","5","634800368890413056","陈","266","Male","[""好我"",""好他"",""坏我"",""坏他""]","[""强我"",""强他"",""弱我"",""弱他""]","","","","","","","","","","","","","","","","","","","","","","","","","","","","","","feedback_test","","","","","","","",""
"788","","j","psychophysics","24","788713","0.0-8.0-0.0-1.0-0.0-0.7","7","5","6","7","5","5","4","4","5","4","5","-1","-3","1","0","1","2","0","1","4","5","5","4","4","5","4","4","5","4","8","6","7","7","8","9","6","8","7","5","6","6","5","7","6","6","7","5","6","6","7","2","5","7","7","6","6","5","7","2","5","2","7","6","5","5","6","6","5","6","6","7","1","3","2","7","6","7","5","634800368890413056","陈","266","Male","[""好我"",""好他"",""坏我"",""坏他""]","[""强我"",""强他"",""弱我"",""弱他""]","","","","","","","","nonmatch","","","","","","","","","","key","j","16.653235849056763","799.9999682108573","445.8333156175091","f","false","match","img/ellipse.png","好他","好他","prac_ALT2_moral","practice_moral","","","","","","","",""
"null","<span style='color:red; font-size: 70px;'>错误! </span>","null","html-keyboard-response","25","789215","0.0-8.0-0.0-1.0-0.0-1.7","7","5","6","7","5","5","4","4","5","4","5","-1","-3","1","0","1","2","0","1","4","5","5","4","4","5","4","4","5","4","8","6","7","7","8","9","6","8","7","5","6","6","5","7","6","6","7","5","6","6","7","2","5","7","7","6","6","5","7","2","5","2","7","6","5","5","6","6","5","6","6","7","1","3","2","7","6","7","5","634800368890413056","陈","266","Male","[""好我"",""好他"",""坏我"",""坏他""]","[""强我"",""强他"",""弱我"",""弱他""]","","","","","","","","","","","","","","","","","","","","","","","","","","","","","","feedback_test","","","","","","","",""
"666","","f","psychophysics","26","790882","0.0-8.0-0.0-1.0-0.0-0.8","7","5","6","7","5","5","4","4","5","4","5","-1","-3","1","0","1","2","0","1","4","5","5","4","4","5","4","4","5","4","8","6","7","7","8","9","6","8","7","5","6","6","5","7","6","6","7","5","6","6","7","2","5","7","7","6","6","5","7","2","5","2","7","6","5","5","6","6","5","6","6","7","1","3","2","7","6","7","5","634800368890413056","陈","266","Male","[""好我"",""好他"",""坏我"",""坏他""]","[""强我"",""强他"",""弱我"",""弱他""]","","","","","","","","match","","","","","","","","","","key","f","16.65311111111048","799.9999682108573","445.8333156175091","f","true","match","img/pentagon.png","坏他","坏他","prac_ALT2_moral","practice_moral","","","","","","","",""
"null","<span style='color:GreenYellow; font-size: 70px;'>正确! </span>","null","html-keyboard-response","27","791383","0.0-8.0-0.0-1.0-0.0-1.8","7","5","6","7","5","5","4","4","5","4","5","-1","-3","1","0","1","2","0","1","4","5","5","4","4","5","4","4","5","4","8","6","7","7","8","9","6","8","7","5","6","6","5","7","6","6","7","5","6","6","7","2","5","7","7","6","6","5","7","2","5","2","7","6","5","5","6","6","5","6","6","7","1","3","2","7","6","7","5","634800368890413056","陈","266","Male","[""好我"",""好他"",""坏我"",""坏他""]","[""强我"",""强他"",""弱我"",""弱他""]","","","","","","","","","","","","","","","","","","","","","","","","","","","","","","feedback_test","","","","","","","",""
"1004","","j","psychophysics","28","793390","0.0-8.0-0.0-1.0-0.0-0.9","7","5","6","7","5","5","4","4","5","4","5","-1","-3","1","0","1","2","0","1","4","5","5","4","4","5","4","4","5","4","8","6","7","7","8","9","6","8","7","5","6","6","5","7","6","6","7","5","6","6","7","2","5","7","7","6","6","5","7","2","5","2","7","6","5","5","6","6","5","6","6","7","1","3","2","7","6","7","5","634800368890413056","陈","266","Male","[""好我"",""好他"",""坏我"",""坏他""]","[""强我"",""强他"",""弱我"",""弱他""]","","","","","","","","nonmatch","","","","","","","","","","key","j","16.653549999999814","799.9999682108573","445.8333156175091","j","true","nonmatch","img/ellipse.png","坏我","好他","prac_ALT2_moral","practice_moral","","","","","","","",""
"null","<span style='color:GreenYellow; font-size: 70px;'>正确! </span>","null","html-keyboard-response","29","793890","0.0-8.0-0.0-1.0-0.0-1.9","7","5","6","7","5","5","4","4","5","4","5","-1","-3","1","0","1","2","0","1","4","5","5","4","4","5","4","4","5","4","8","6","7","7","8","9","6","8","7","5","6","6","5","7","6","6","7","5","6","6","7","2","5","7","7","6","6","5","7","2","5","2","7","6","5","5","6","6","5","6","6","7","1","3","2","7","6","7","5","634800368890413056","陈","266","Male","[""好我"",""好他"",""坏我"",""坏他""]","[""强我"",""强他"",""弱我"",""弱他""]","","","","","","","","","","","","","","","","","","","","","","","","","","","","","","feedback_test","","","","","","","",""
"1070","","f","psychophysics","30","795962","0.0-8.0-0.0-1.0-0.0-0.10","7","5","6","7","5","5","4","4","5","4","5","-1","-3","1","0","1","2","0","1","4","5","5","4","4","5","4","4","5","4","8","6","7","7","8","9","6","8","7","5","6","6","5","7","6","6","7","5","6","6","7","2","5","7","7","6","6","5","7","2","5","2","7","6","5","5","6","6","5","6","6","7","1","3","2","7","6","7","5","634800368890413056","陈","266","Male","[""好我"",""好他"",""坏我"",""坏他""]","[""强我"",""强他"",""弱我"",""弱他""]","","","","","","","","match","","","","","","","","","","key","f","16.654121951219945","799.9999682108573","445.8333156175091","j","false","nonmatch","img/triangle.png","好他","好我","prac_ALT2_moral","practice_moral","","","","","","","",""
"null","<span style='color:red; font-size: 70px;'>错误! </span>","null","html-keyboard-response","31","796463","0.0-8.0-0.0-1.0-0.0-1.10","7","5","6","7","5","5","4","4","5","4","5","-1","-3","1","0","1","2","0","1","4","5","5","4","4","5","4","4","5","4","8","6","7","7","8","9","6","8","7","5","6","6","5","7","6","6","7","5","6","6","7","2","5","7","7","6","6","5","7","2","5","2","7","6","5","5","6","6","5","6","6","7","1","3","2","7","6","7","5","634800368890413056","陈","266","Male","[""好我"",""好他"",""坏我"",""坏他""]","[""强我"",""强他"",""弱我"",""弱他""]","","","","","","","","","","","","","","","","","","","","","","","","","","","","","","feedback_test","","","","","","","",""
"429","","j","psychophysics","32","797893","0.0-8.0-0.0-1.0-0.0-0.11","7","5","6","7","5","5","4","4","5","4","5","-1","-3","1","0","1","2","0","1","4","5","5","4","4","5","4","4","5","4","8","6","7","7","8","9","6","8","7","5","6","6","5","7","6","6","7","5","6","6","7","2","5","7","7","6","6","5","7","2","5","2","7","6","5","5","6","6","5","6","6","7","1","3","2","7","6","7","5","634800368890413056","陈","266","Male","[""好我"",""好他"",""坏我"",""坏他""]","[""强我"",""强他"",""弱我"",""弱他""]","","","","","","","","nonmatch","","","","","","","","","","key","j","16.653258823529434","799.9999682108573","445.8333156175091","f","false","match","img/trapezoid.png","坏我","坏我","prac_ALT2_moral","practice_moral","","","","","","","",""
"null","<span style='color:red; font-size: 70px;'>错误! </span>","null","html-keyboard-response","33","798394","0.0-8.0-0.0-1.0-0.0-1.11","7","5","6","7","5","5","4","4","5","4","5","-1","-3","1","0","1","2","0","1","4","5","5","4","4","5","4","4","5","4","8","6","7","7","8","9","6","8","7","5","6","6","5","7","6","6","7","5","6","6","7","2","5","7","7","6","6","5","7","2","5","2","7","6","5","5","6","6","5","6","6","7","1","3","2","7","6","7","5","634800368890413056","陈","266","Male","[""好我"",""好他"",""坏我"",""坏他""]","[""强我"",""强他"",""弱我"",""弱他""]","","","","","","","","","","","","","","","","","","","","","","","","","","","","","","feedback_test","","","","","","","",""
"923","","f","psychophysics","34","800318","0.0-8.0-0.0-1.0-0.0-0.12","7","5","6","7","5","5","4","4","5","4","5","-1","-3","1","0","1","2","0","1","4","5","5","4","4","5","4","4","5","4","8","6","7","7","8","9","6","8","7","5","6","6","5","7","6","6","7","5","6","6","7","2","5","7","7","6","6","5","7","2","5","2","7","6","5","5","6","6","5","6","6","7","1","3","2","7","6","7","5","634800368890413056","陈","266","Male","[""好我"",""好他"",""坏我"",""坏他""]","[""强我"",""强他"",""弱我"",""弱他""]","","","","","","","","match","","","","","","","","","","key","f","16.654260869565135","799.9999682108573","445.8333156175091","j","false","nonmatch","img/ellipse.png","坏他","好他","prac_ALT2_moral","practice_moral","","","","","","","",""
"null","<span style='color:red; font-size: 70px;'>错误! </span>","null","html-keyboard-response","35","800819","0.0-8.0-0.0-1.0-0.0-1.12","7","5","6","7","5","5","4","4","5","4","5","-1","-3","1","0","1","2","0","1","4","5","5","4","4","5","4","4","5","4","8","6","7","7","8","9","6","8","7","5","6","6","5","7","6","6","7","5","6","6","7","2","5","7","7","6","6","5","7","2","5","2","7","6","5","5","6","6","5","6","6","7","1","3","2","7","6","7","5","634800368890413056","陈","266","Male","[""好我"",""好他"",""坏我"",""坏他""]","[""强我"",""强他"",""弱我"",""弱他""]","","","","","","","","","","","","","","","","","","","","","","","","","","","","","","feedback_test","","","","","","","",""
"1200","","f","psychophysics","36","803021","0.0-8.0-0.0-1.0-0.0-0.13","7","5","6","7","5","5","4","4","5","4","5","-1","-3","1","0","1","2","0","1","4","5","5","4","4","5","4","4","5","4","8","6","7","7","8","9","6","8","7","5","6","6","5","7","6","6","7","5","6","6","7","2","5","7","7","6","6","5","7","2","5","2","7","6","5","5","6","6","5","6","6","7","1","3","2","7","6","7","5","634800368890413056","陈","266","Male","[""好我"",""好他"",""坏我"",""坏他""]","[""强我"",""强他"",""弱我"",""弱他""]","","","","","","","","match","","","","","","","","","","key","f","16.651000000000575","799.9999682108573","445.8333156175091","f","true","match","img/triangle.png","好我","好我","prac_ALT2_moral","practice_moral","","","","","","","",""
"null","<span style='color:GreenYellow; font-size: 70px;'>正确! </span>","null","html-keyboard-response","37","803522","0.0-8.0-0.0-1.0-0.0-1.13","7","5","6","7","5","5","4","4","5","4","5","-1","-3","1","0","1","2","0","1","4","5","5","4","4","5","4","4","5","4","8","6","7","7","8","9","6","8","7","5","6","6","5","7","6","6","7","5","6","6","7","2","5","7","7","6","6","5","7","2","5","2","7","6","5","5","6","6","5","6","6","7","1","3","2","7","6","7","5","634800368890413056","陈","266","Male","[""好我"",""好他"",""坏我"",""坏他""]","[""强我"",""强他"",""弱我"",""弱他""]","","","","","","","","","","","","","","","","","","","","","","","","","","","","","","feedback_test","","","","","","","",""
"993","","j","psychophysics","38","805517","0.0-8.0-0.0-1.0-0.0-0.14","7","5","6","7","5","5","4","4","5","4","5","-1","-3","1","0","1","2","0","1","4","5","5","4","4","5","4","4","5","4","8","6","7","7","8","9","6","8","7","5","6","6","5","7","6","6","7","5","6","6","7","2","5","7","7","6","6","5","7","2","5","2","7","6","5","5","6","6","5","6","6","7","1","3","2","7","6","7","5","634800368890413056","陈","266","Male","[""好我"",""好他"",""坏我"",""坏他""]","[""强我"",""强他"",""弱我"",""弱他""]","","","","","","","","nonmatch","","","","","","","","","","key","j","16.65452100840366","799.9999682108573","445.8333156175091","f","false","match","img/triangle.png","好我","好我","prac_ALT2_moral","practice_moral","","","","","","","",""
"null","<span style='color:red; font-size: 70px;'>错误! </span>","null","html-keyboard-response","39","806018","0.0-8.0-0.0-1.0-0.0-1.14","7","5","6","7","5","5","4","4","5","4","5","-1","-3","1","0","1","2","0","1","4","5","5","4","4","5","4","4","5","4","8","6","7","7","8","9","6","8","7","5","6","6","5","7","6","6","7","5","6","6","7","2","5","7","7","6","6","5","7","2","5","2","7","6","5","5","6","6","5","6","6","7","1","3","2","7","6","7","5","634800368890413056","陈","266","Male","[""好我"",""好他"",""坏我"",""坏他""]","[""强我"",""强他"",""弱我"",""弱他""]","","","","","","","","","","","","","","","","","","","","","","","","","","","","","","feedback_test","","","","","","","",""
"1156","","j","psychophysics","40","808176","0.0-8.0-0.0-1.0-0.0-0.15","7","5","6","7","5","5","4","4","5","4","5","-1","-3","1","0","1","2","0","1","4","5","5","4","4","5","4","4","5","4","8","6","7","7","8","9","6","8","7","5","6","6","5","7","6","6","7","5","6","6","7","2","5","7","7","6","6","5","7","2","5","2","7","6","5","5","6","6","5","6","6","7","1","3","2","7","6","7","5","634800368890413056","陈","266","Male","[""好我"",""好他"",""坏我"",""坏他""]","[""强我"",""强他"",""弱我"",""弱他""]","","","","","","","","nonmatch","","","","","","","","","","key","j","16.650170542635458","799.9999682108573","445.8333156175091","j","true","nonmatch","img/trapezoid.png","坏他","坏我","prac_ALT2_moral","practice_moral","","","","","","","",""
"null","<span style='color:GreenYellow; font-size: 70px;'>正确! </span>","null","html-keyboard-response","41","808677","0.0-8.0-0.0-1.0-0.0-1.15","7","5","6","7","5","5","4","4","5","4","5","-1","-3","1","0","1","2","0","1","4","5","5","4","4","5","4","4","5","4","8","6","7","7","8","9","6","8","7","5","6","6","5","7","6","6","7","5","6","6","7","2","5","7","7","6","6","5","7","2","5","2","7","6","5","5","6","6","5","6","6","7","1","3","2","7","6","7","5","634800368890413056","陈","266","Male","[""好我"",""好他"",""坏我"",""坏他""]","[""强我"",""强他"",""弱我"",""弱他""]","","","","","","","","","","","","","","","","","","","","","","","","","","","","","","feedback_test","","","","","","","",""
"1008","","j","psychophysics","42","810688","0.0-8.0-0.0-1.0-0.0-0.16","7","5","6","7","5","5","4","4","5","4","5","-1","-3","1","0","1","2","0","1","4","5","5","4","4","5","4","4","5","4","8","6","7","7","8","9","6","8","7","5","6","6","5","7","6","6","7","5","6","6","7","2","5","7","7","6","6","5","7","2","5","2","7","6","5","5","6","6","5","6","6","7","1","3","2","7","6","7","5","634800368890413056","陈","266","Male","[""好我"",""好他"",""坏我"",""坏他""]","[""强我"",""强他"",""弱我"",""弱他""]","","","","","","","","nonmatch","","","","","","","","","","key","j","16.653957983193244","799.9999682108573","445.8333156175091","j","true","nonmatch","img/pentagon.png","坏我","坏他","prac_ALT2_moral","practice_moral","","","","","","","",""
"null","<span style='color:GreenYellow; font-size: 70px;'>正确! </span>","null","html-keyboard-response","43","811189","0.0-8.0-0.0-1.0-0.0-1.16","7","5","6","7","5","5","4","4","5","4","5","-1","-3","1","0","1","2","0","1","4","5","5","4","4","5","4","4","5","4","8","6","7","7","8","9","6","8","7","5","6","6","5","7","6","6","7","5","6","6","7","2","5","7","7","6","6","5","7","2","5","2","7","6","5","5","6","6","5","6","6","7","1","3","2","7","6","7","5","634800368890413056","陈","266","Male","[""好我"",""好他"",""坏我"",""坏他""]","[""强我"",""强他"",""弱我"",""弱他""]","","","","","","","","","","","","","","","","","","","","","","","","","","","","","","feedback_test","","","","","","","",""
"1110","","f","psychophysics","44","813300","0.0-8.0-0.0-1.0-0.0-0.17","7","5","6","7","5","5","4","4","5","4","5","-1","-3","1","0","1","2","0","1","4","5","5","4","4","5","4","4","5","4","8","6","7","7","8","9","6","8","7","5","6","6","5","7","6","6","7","5","6","6","7","2","5","7","7","6","6","5","7","2","5","2","7","6","5","5","6","6","5","6","6","7","1","3","2","7","6","7","5","634800368890413056","陈","266","Male","[""好我"",""好他"",""坏我"",""坏他""]","[""强我"",""强他"",""弱我"",""弱他""]","","","","","","","","match","","","","","","","","","","key","f","16.65412799999956","799.9999682108573","445.8333156175091","j","false","nonmatch","img/pentagon.png","好他","坏他","prac_ALT2_moral","practice_moral","","","","","","","",""
"null","<span style='color:red; font-size: 70px;'>错误! </span>","null","html-keyboard-response","45","813801","0.0-8.0-0.0-1.0-0.0-1.17","7","5","6","7","5","5","4","4","5","4","5","-1","-3","1","0","1","2","0","1","4","5","5","4","4","5","4","4","5","4","8","6","7","7","8","9","6","8","7","5","6","6","5","7","6","6","7","5","6","6","7","2","5","7","7","6","6","5","7","2","5","2","7","6","5","5","6","6","5","6","6","7","1","3","2","7","6","7","5","634800368890413056","陈","266","Male","[""好我"",""好他"",""坏我"",""坏他""]","[""强我"",""强他"",""弱我"",""弱他""]","","","","","","","","","","","","","","","","","","","","","","","","","","","","","","feedback_test","","","","","","","",""
"870","","j","psychophysics","46","815674","0.0-8.0-0.0-1.0-0.0-0.18","7","5","6","7","5","5","4","4","5","4","5","-1","-3","1","0","1","2","0","1","4","5","5","4","4","5","4","4","5","4","8","6","7","7","8","9","6","8","7","5","6","6","5","7","6","6","7","5","6","6","7","2","5","7","7","6","6","5","7","2","5","2","7","6","5","5","6","6","5","6","6","7","1","3","2","7","6","7","5","634800368890413056","陈","266","Male","[""好我"",""好他"",""坏我"",""坏他""]","[""强我"",""强他"",""弱我"",""弱他""]","","","","","","","","nonmatch","","","","","","","","","","key","j","16.65345045044989","799.9999682108573","445.8333156175091","j","true","nonmatch","img/ellipse.png","好我","好他","prac_ALT2_moral","practice_moral","","","","","","","",""
"null","<span style='color:GreenYellow; font-size: 70px;'>正确! </span>","null","html-keyboard-response","47","816175","0.0-8.0-0.0-1.0-0.0-1.18","7","5","6","7","5","5","4","4","5","4","5","-1","-3","1","0","1","2","0","1","4","5","5","4","4","5","4","4","5","4","8","6","7","7","8","9","6","8","7","5","6","6","5","7","6","6","7","5","6","6","7","2","5","7","7","6","6","5","7","2","5","2","7","6","5","5","6","6","5","6","6","7","1","3","2","7","6","7","5","634800368890413056","陈","266","Male","[""好我"",""好他"",""坏我"",""坏他""]","[""强我"",""强他"",""弱我"",""弱他""]","","","","","","","","","","","","","","","","","","","","","","","","","","","","","","feedback_test","","","","","","","",""
"null","","null","psychophysics","48","818379","0.0-8.0-0.0-1.0-0.0-0.19","7","5","6","7","5","5","4","4","5","4","5","-1","-3","1","0","1","2","0","1","4","5","5","4","4","5","4","4","5","4","8","6","7","7","8","9","6","8","7","5","6","6","5","7","6","6","7","5","6","6","7","2","5","7","7","6","6","5","7","2","5","2","7","6","5","5","6","6","5","6","6","7","1","3","2","7","6","7","5","634800368890413056","陈","266","Male","[""好我"",""好他"",""坏我"",""坏他""]","[""强我"",""强他"",""弱我"",""弱他""]","","","","","","","","null","","","","","","","","","","key","null","16.649091603053122","799.9999682108573","445.8333156175091","f","false","match","img/ellipse.png","好他","好他","prac_ALT2_moral","practice_moral","","","","","","","",""
"null","<span class='add_' style='color:yellow; font-size: 70px;'> 太慢! </span>","null","html-keyboard-response","49","818881","0.0-8.0-0.0-1.0-0.0-1.19","7","5","6","7","5","5","4","4","5","4","5","-1","-3","1","0","1","2","0","1","4","5","5","4","4","5","4","4","5","4","8","6","7","7","8","9","6","8","7","5","6","6","5","7","6","6","7","5","6","6","7","2","5","7","7","6","6","5","7","2","5","2","7","6","5","5","6","6","5","6","6","7","1","3","2","7","6","7","5","634800368890413056","陈","266","Male","[""好我"",""好他"",""坏我"",""坏他""]","[""强我"",""强他"",""弱我"",""弱他""]","","","","","","","","","","","","","","","","","","","","","","","","","","","","","","feedback_test","","","","","","","",""
"1024","","j","psychophysics","50","820906","0.0-8.0-0.0-1.0-0.0-0.20","7","5","6","7","5","5","4","4","5","4","5","-1","-3","1","0","1","2","0","1","4","5","5","4","4","5","4","4","5","4","8","6","7","7","8","9","6","8","7","5","6","6","5","7","6","6","7","5","6","6","7","2","5","7","7","6","6","5","7","2","5","2","7","6","5","5","6","6","5","6","6","7","1","3","2","7","6","7","5","634800368890413056","陈","266","Male","[""好我"",""好他"",""坏我"",""坏他""]","[""强我"",""强他"",""弱我"",""弱他""]","","","","","","","","nonmatch","","","","","","","","","","key","j","16.653425000000667","799.9999682108573","445.8333156175091","f","false","match","img/trapezoid.png","坏我","坏我","prac_ALT2_moral","practice_moral","","","","","","","",""
"null","<span style='color:red; font-size: 70px;'>错误! </span>","null","html-keyboard-response","51","821407","0.0-8.0-0.0-1.0-0.0-1.20","7","5","6","7","5","5","4","4","5","4","5","-1","-3","1","0","1","2","0","1","4","5","5","4","4","5","4","4","5","4","8","6","7","7","8","9","6","8","7","5","6","6","5","7","6","6","7","5","6","6","7","2","5","7","7","6","6","5","7","2","5","2","7","6","5","5","6","6","5","6","6","7","1","3","2","7","6","7","5","634800368890413056","陈","266","Male","[""好我"",""好他"",""坏我"",""坏他""]","[""强我"",""强他"",""弱我"",""弱他""]","","","","","","","","","","","","","","","","","","","","","","","","","","","","","","feedback_test","","","","","","","",""
"910","","f","psychophysics","52","823318","0.0-8.0-0.0-1.0-0.0-0.21","7","5","6","7","5","5","4","4","5","4","5","-1","-3","1","0","1","2","0","1","4","5","5","4","4","5","4","4","5","4","8","6","7","7","8","9","6","8","7","5","6","6","5","7","6","6","7","5","6","6","7","2","5","7","7","6","6","5","7","2","5","2","7","6","5","5","6","6","5","6","6","7","1","3","2","7","6","7","5","634800368890413056","陈","266","Male","[""好我"",""好他"",""坏我"",""坏他""]","[""强我"",""强他"",""弱我"",""弱他""]","","","","","","","","match","","","","","","","","","","key","f","16.654421052630997","799.9999682108573","445.8333156175091","j","false","nonmatch","img/triangle.png","坏我","好我","prac_ALT2_moral","practice_moral","","","","","","","",""
"null","<span style='color:red; font-size: 70px;'>错误! </span>","null","html-keyboard-response","53","823819","0.0-8.0-0.0-1.0-0.0-1.21","7","5","6","7","5","5","4","4","5","4","5","-1","-3","1","0","1","2","0","1","4","5","5","4","4","5","4","4","5","4","8","6","7","7","8","9","6","8","7","5","6","6","5","7","6","6","7","5","6","6","7","2","5","7","7","6","6","5","7","2","5","2","7","6","5","5","6","6","5","6","6","7","1","3","2","7","6","7","5","634800368890413056","陈","266","Male","[""好我"",""好他"",""坏我"",""坏他""]","[""强我"",""强他"",""弱我"",""弱他""]","","","","","","","","","","","","","","","","","","","","","","","","","","","","","","feedback_test","","","","","","","",""
"1010","","j","psychophysics","54","825831","0.0-8.0-0.0-1.0-0.0-0.22","7","5","6","7","5","5","4","4","5","4","5","-1","-3","1","0","1","2","0","1","4","5","5","4","4","5","4","4","5","4","8","6","7","7","8","9","6","8","7","5","6","6","5","7","6","6","7","5","6","6","7","2","5","7","7","6","6","5","7","2","5","2","7","6","5","5","6","6","5","6","6","7","1","3","2","7","6","7","5","634800368890413056","陈","266","Male","[""好我"",""好他"",""坏我"",""坏他""]","[""强我"",""强他"",""弱我"",""弱他""]","","","","","","","","nonmatch","","","","","","","","","","key","j","16.65360000000025","799.9999682108573","445.8333156175091","j","true","nonmatch","img/triangle.png","坏他","好我","prac_ALT2_moral","practice_moral","","","","","","","",""
"null","<span style='color:GreenYellow; font-size: 70px;'>正确! </span>","null","html-keyboard-response","55","826331","0.0-8.0-0.0-1.0-0.0-1.22","7","5","6","7","5","5","4","4","5","4","5","-1","-3","1","0","1","2","0","1","4","5","5","4","4","5","4","4","5","4","8","6","7","7","8","9","6","8","7","5","6","6","5","7","6","6","7","5","6","6","7","2","5","7","7","6","6","5","7","2","5","2","7","6","5","5","6","6","5","6","6","7","1","3","2","7","6","7","5","634800368890413056","陈","266","Male","[""好我"",""好他"",""坏我"",""坏他""]","[""强我"",""强他"",""弱我"",""弱他""]","","","","","","","","","","","","","","","","","","","","","","","","","","","","","","feedback_test","","","","","","","",""
"null","","null","psychophysics","56","828534","0.0-8.0-0.0-1.0-0.0-0.23","7","5","6","7","5","5","4","4","5","4","5","-1","-3","1","0","1","2","0","1","4","5","5","4","4","5","4","4","5","4","8","6","7","7","8","9","6","8","7","5","6","6","5","7","6","6","7","5","6","6","7","2","5","7","7","6","6","5","7","2","5","2","7","6","5","5","6","6","5","6","6","7","1","3","2","7","6","7","5","634800368890413056","陈","266","Male","[""好我"",""好他"",""坏我"",""坏他""]","[""强我"",""强他"",""弱我"",""弱他""]","","","","","","","","null","","","","","","","","","","key","null","16.65416793893127","799.9999682108573","445.8333156175091","j","false","nonmatch","img/trapezoid.png","好我","坏我","prac_ALT2_moral","practice_moral","","","","","","","",""
"null","<span class='add_' style='color:yellow; font-size: 70px;'> 太慢! </span>","null","html-keyboard-response","57","829035","0.0-8.0-0.0-1.0-0.0-1.23","7","5","6","7","5","5","4","4","5","4","5","-1","-3","1","0","1","2","0","1","4","5","5","4","4","5","4","4","5","4","8","6","7","7","8","9","6","8","7","5","6","6","5","7","6","6","7","5","6","6","7","2","5","7","7","6","6","5","7","2","5","2","7","6","5","5","6","6","5","6","6","7","1","3","2","7","6","7","5","634800368890413056","陈","266","Male","[""好我"",""好他"",""坏我"",""坏他""]","[""强我"",""强他"",""弱我"",""弱他""]","","","","","","","","","","","","","","","","","","","","","","","","","","","","","","feedback_test","","","","","","","",""
"731","","f","psychophysics","58","830768","0.0-8.0-0.0-1.0-0.0-0.24","7","5","6","7","5","5","4","4","5","4","5","-1","-3","1","0","1","2","0","1","4","5","5","4","4","5","4","4","5","4","8","6","7","7","8","9","6","8","7","5","6","6","5","7","6","6","7","5","6","6","7","2","5","7","7","6","6","5","7","2","5","2","7","6","5","5","6","6","5","6","6","7","1","3","2","7","6","7","5","634800368890413056","陈","266","Male","[""好我"",""好他"",""坏我"",""坏他""]","[""强我"",""强他"",""弱我"",""弱他""]","","","","","","","","match","","","","","","","","","","key","f","16.654398058252905","799.9999682108573","445.8333156175091","f","true","match","img/pentagon.png","坏他","坏他","prac_ALT2_moral","practice_moral","","","","","","","",""
"null","<span style='color:GreenYellow; font-size: 70px;'>正确! </span>","null","html-keyboard-response","59","831269","0.0-8.0-0.0-1.0-0.0-1.24","7","5","6","7","5","5","4","4","5","4","5","-1","-3","1","0","1","2","0","1","4","5","5","4","4","5","4","4","5","4","8","6","7","7","8","9","6","8","7","5","6","6","5","7","6","6","7","5","6","6","7","2","5","7","7","6","6","5","7","2","5","2","7","6","5","5","6","6","5","6","6","7","1","3","2","7","6","7","5","634800368890413056","陈","266","Male","[""好我"",""好他"",""坏我"",""坏他""]","[""强我"",""强他"",""弱我"",""弱他""]","","","","","","","","","","","","","","","","","","","","","","","","","","","","","","feedback_test","","","","","","","",""
"1097","","j","psychophysics","60","833367","0.0-8.0-0.0-1.0-0.0-0.25","7","5","6","7","5","5","4","4","5","4","5","-1","-3","1","0","1","2","0","1","4","5","5","4","4","5","4","4","5","4","8","6","7","7","8","9","6","8","7","5","6","6","5","7","6","6","7","5","6","6","7","2","5","7","7","6","6","5","7","2","5","2","7","6","5","5","6","6","5","6","6","7","1","3","2","7","6","7","5","634800368890413056","陈","266","Male","[""好我"",""好他"",""坏我"",""坏他""]","[""强我"",""强他"",""弱我"",""弱他""]","","","","","","","","nonmatch","","","","","","","","","","key","j","16.64876612903167","799.9999682108573","445.8333156175091","f","false","match","img/ellipse.png","好他","好他","prac_ALT2_moral","practice_moral","","","","","","","",""
"null","<span style='color:red; font-size: 70px;'>错误! </span>","null","html-keyboard-response","61","833868","0.0-8.0-0.0-1.0-0.0-1.25","7","5","6","7","5","5","4","4","5","4","5","-1","-3","1","0","1","2","0","1","4","5","5","4","4","5","4","4","5","4","8","6","7","7","8","9","6","8","7","5","6","6","5","7","6","6","7","5","6","6","7","2","5","7","7","6","6","5","7","2","5","2","7","6","5","5","6","6","5","6","6","7","1","3","2","7","6","7","5","634800368890413056","陈","266","Male","[""好我"",""好他"",""坏我"",""坏他""]","[""强我"",""强他"",""弱我"",""弱他""]","","","","","","","","","","","","","","","","","","","","","","","","","","","","","","feedback_test","","","","","","","",""
"1114","","f","psychophysics","62","835984","0.0-8.0-0.0-1.0-0.0-0.26","7","5","6","7","5","5","4","4","5","4","5","-1","-3","1","0","1","2","0","1","4","5","5","4","4","5","4","4","5","4","8","6","7","7","8","9","6","8","7","5","6","6","5","7","6","6","7","5","6","6","7","2","5","7","7","6","6","5","7","2","5","2","7","6","5","5","6","6","5","6","6","7","1","3","2","7","6","7","5","634800368890413056","陈","266","Male","[""好我"",""好他"",""坏我"",""坏他""]","[""强我"",""强他"",""弱我"",""弱他""]","","","","","","","","match","","","","","","","","","","key","f","16.65315873015927","799.9999682108573","445.8333156175091","f","true","match","img/trapezoid.png","坏我","坏我","prac_ALT2_moral","practice_moral","","","","","","","",""
"null","<span style='color:GreenYellow; font-size: 70px;'>正确! </span>","null","html-keyboard-response","63","836486","0.0-8.0-0.0-1.0-0.0-1.26","7","5","6","7","5","5","4","4","5","4","5","-1","-3","1","0","1","2","0","1","4","5","5","4","4","5","4","4","5","4","8","6","7","7","8","9","6","8","7","5","6","6","5","7","6","6","7","5","6","6","7","2","5","7","7","6","6","5","7","2","5","2","7","6","5","5","6","6","5","6","6","7","1","3","2","7","6","7","5","634800368890413056","陈","266","Male","[""好我"",""好他"",""坏我"",""坏他""]","[""强我"",""强他"",""弱我"",""弱他""]","","","","","","","","","","","","","","","","","","","","","","","","","","","","","","feedback_test","","","","","","","",""
"950","","j","psychophysics","64","838437","0.0-8.0-0.0-1.0-0.0-0.27","7","5","6","7","5","5","4","4","5","4","5","-1","-3","1","0","1","2","0","1","4","5","5","4","4","5","4","4","5","4","8","6","7","7","8","9","6","8","7","5","6","6","5","7","6","6","7","5","6","6","7","2","5","7","7","6","6","5","7","2","5","2","7","6","5","5","6","6","5","6","6","7","1","3","2","7","6","7","5","634800368890413056","陈","266","Male","[""好我"",""好他"",""坏我"",""坏他""]","[""强我"",""强他"",""弱我"",""弱他""]","","","","","","","","nonmatch","","","","","","","","","","key","j","16.653379310344963","799.9999682108573","445.8333156175091","j","true","nonmatch","img/triangle.png","坏我","好我","prac_ALT2_moral","practice_moral","","","","","","","",""
"null","<span style='color:GreenYellow; font-size: 70px;'>正确! </span>","null","html-keyboard-response","65","838947","0.0-8.0-0.0-1.0-0.0-1.27","7","5","6","7","5","5","4","4","5","4","5","-1","-3","1","0","1","2","0","1","4","5","5","4","4","5","4","4","5","4","8","6","7","7","8","9","6","8","7","5","6","6","5","7","6","6","7","5","6","6","7","2","5","7","7","6","6","5","7","2","5","2","7","6","5","5","6","6","5","6","6","7","1","3","2","7","6","7","5","634800368890413056","陈","266","Male","[""好我"",""好他"",""坏我"",""坏他""]","[""强我"",""强他"",""弱我"",""弱他""]","","","","","","","","","","","","","","","","","","","","","","","","","","","","","","feedback_test","","","","","","","",""
"862","","j","psychophysics","66","840810","0.0-8.0-0.0-1.0-0.0-0.28","7","5","6","7","5","5","4","4","5","4","5","-1","-3","1","0","1","2","0","1","4","5","5","4","4","5","4","4","5","4","8","6","7","7","8","9","6","8","7","5","6","6","5","7","6","6","7","5","6","6","7","2","5","7","7","6","6","5","7","2","5","2","7","6","5","5","6","6","5","6","6","7","1","3","2","7","6","7","5","634800368890413056","陈","266","Male","[""好我"",""好他"",""坏我"",""坏他""]","[""强我"",""强他"",""弱我"",""弱他""]","","","","","","","","nonmatch","","","","","","","","","","key","j","16.654145454545507","799.9999682108573","445.8333156175091","j","true","nonmatch","img/pentagon.png","好我","坏他","prac_ALT2_moral","practice_moral","","","","","","","",""
"null","<span style='color:GreenYellow; font-size: 70px;'>正确! </span>","null","html-keyboard-response","67","841311","0.0-8.0-0.0-1.0-0.0-1.28","7","5","6","7","5","5","4","4","5","4","5","-1","-3","1","0","1","2","0","1","4","5","5","4","4","5","4","4","5","4","8","6","7","7","8","9","6","8","7","5","6","6","5","7","6","6","7","5","6","6","7","2","5","7","7","6","6","5","7","2","5","2","7","6","5","5","6","6","5","6","6","7","1","3","2","7","6","7","5","634800368890413056","陈","266","Male","[""好我"",""好他"",""坏我"",""坏他""]","[""强我"",""强他"",""弱我"",""弱他""]","","","","","","","","","","","","","","","","","","","","","","","","","","","","","","feedback_test","","","","","","","",""
"820","","f","psychophysics","68","843133","0.0-8.0-0.0-1.0-0.0-0.29","7","5","6","7","5","5","4","4","5","4","5","-1","-3","1","0","1","2","0","1","4","5","5","4","4","5","4","4","5","4","8","6","7","7","8","9","6","8","7","5","6","6","5","7","6","6","7","5","6","6","7","2","5","7","7","6","6","5","7","2","5","2","7","6","5","5","6","6","5","6","6","7","1","3","2","7","6","7","5","634800368890413056","陈","266","Male","[""好我"",""好他"",""坏我"",""坏他""]","[""强我"",""强他"",""弱我"",""弱他""]","","","","","","","","match","","","","","","","","","","key","f","16.654361111110862","799.9999682108573","445.8333156175091","f","true","match","img/pentagon.png","坏他","坏他","prac_ALT2_moral","practice_moral","","","","","","","",""
"null","<span style='color:GreenYellow; font-size: 70px;'>正确! </span>","null","html-keyboard-response","69","843634","0.0-8.0-0.0-1.0-0.0-1.29","7","5","6","7","5","5","4","4","5","4","5","-1","-3","1","0","1","2","0","1","4","5","5","4","4","5","4","4","5","4","8","6","7","7","8","9","6","8","7","5","6","6","5","7","6","6","7","5","6","6","7","2","5","7","7","6","6","5","7","2","5","2","7","6","5","5","6","6","5","6","6","7","1","3","2","7","6","7","5","634800368890413056","陈","266","Male","[""好我"",""好他"",""坏我"",""坏他""]","[""强我"",""强他"",""弱我"",""弱他""]","","","","","","","","","","","","","","","","","","","","","","","","","","","","","","feedback_test","","","","","","","",""
"994","","f","psychophysics","70","845629","0.0-8.0-0.0-1.0-0.0-0.30","7","5","6","7","5","5","4","4","5","4","5","-1","-3","1","0","1","2","0","1","4","5","5","4","4","5","4","4","5","4","8","6","7","7","8","9","6","8","7","5","6","6","5","7","6","6","7","5","6","6","7","2","5","7","7","6","6","5","7","2","5","2","7","6","5","5","6","6","5","6","6","7","1","3","2","7","6","7","5","634800368890413056","陈","266","Male","[""好我"",""好他"",""坏我"",""坏他""]","[""强我"",""强他"",""弱我"",""弱他""]","","","","","","","","match","","","","","","","","","","key","f","16.65429411764734","799.9999682108573","445.8333156175091","f","true","match","img/triangle.png","好我","好我","prac_ALT2_moral","practice_moral","","","","","","","",""
"null","<span style='color:GreenYellow; font-size: 70px;'>正确! </span>","null","html-keyboard-response","71","846131","0.0-8.0-0.0-1.0-0.0-1.30","7","5","6","7","5","5","4","4","5","4","5","-1","-3","1","0","1","2","0","1","4","5","5","4","4","5","4","4","5","4","8","6","7","7","8","9","6","8","7","5","6","6","5","7","6","6","7","5","6","6","7","2","5","7","7","6","6","5","7","2","5","2","7","6","5","5","6","6","5","6","6","7","1","3","2","7","6","7","5","634800368890413056","陈","266","Male","[""好我"",""好他"",""坏我"",""坏他""]","[""强我"",""强他"",""弱我"",""弱他""]","","","","","","","","","","","","","","","","","","","","","","","","","","","","","","feedback_test","","","","","","","",""
"1035","","f","psychophysics","72","848168","0.0-8.0-0.0-1.0-0.0-0.31","7","5","6","7","5","5","4","4","5","4","5","-1","-3","1","0","1","2","0","1","4","5","5","4","4","5","4","4","5","4","8","6","7","7","8","9","6","8","7","5","6","6","5","7","6","6","7","5","6","6","7","2","5","7","7","6","6","5","7","2","5","2","7","6","5","5","6","6","5","6","6","7","1","3","2","7","6","7","5","634800368890413056","陈","266","Male","[""好我"",""好他"",""坏我"",""坏他""]","[""强我"",""强他"",""弱我"",""弱他""]","","","","","","","","match","","","","","","","","","","key","f","16.65412396694195","799.9999682108573","445.8333156175091","j","false","nonmatch","img/ellipse.png","坏他","好他","prac_ALT2_moral","practice_moral","","","","","","","",""
"null","<span style='color:red; font-size: 70px;'>错误! </span>","null","html-keyboard-response","73","848669","0.0-8.0-0.0-1.0-0.0-1.31","7","5","6","7","5","5","4","4","5","4","5","-1","-3","1","0","1","2","0","1","4","5","5","4","4","5","4","4","5","4","8","6","7","7","8","9","6","8","7","5","6","6","5","7","6","6","7","5","6","6","7","2","5","7","7","6","6","5","7","2","5","2","7","6","5","5","6","6","5","6","6","7","1","3","2","7","6","7","5","634800368890413056","陈","266","Male","[""好我"",""好他"",""坏我"",""坏他""]","[""强我"",""强他"",""弱我"",""弱他""]","","","","","","","","","","","","","","","","","","","","","","","","","","","","","","feedback_test","","","","","","","",""
"1105","","j","psychophysics","74","850776","0.0-8.0-0.0-1.0-0.0-0.32","7","5","6","7","5","5","4","4","5","4","5","-1","-3","1","0","1","2","0","1","4","5","5","4","4","5","4","4","5","4","8","6","7","7","8","9","6","8","7","5","6","6","5","7","6","6","7","5","6","6","7","2","5","7","7","6","6","5","7","2","5","2","7","6","5","5","6","6","5","6","6","7","1","3","2","7","6","7","5","634800368890413056","陈","266","Male","[""好我"",""好他"",""坏我"",""坏他""]","[""强我"",""强他"",""弱我"",""弱他""]","","","","","","","","nonmatch","","","","","","","","","","key","j","16.653317460317222","799.9999682108573","445.8333156175091","j","true","nonmatch","img/trapezoid.png","好我","坏我","prac_ALT2_moral","practice_moral","","","","","","","",""
"null","<span style='color:GreenYellow; font-size: 70px;'>正确! </span>","null","html-keyboard-response","75","851277","0.0-8.0-0.0-1.0-0.0-1.32","7","5","6","7","5","5","4","4","5","4","5","-1","-3","1","0","1","2","0","1","4","5","5","4","4","5","4","4","5","4","8","6","7","7","8","9","6","8","7","5","6","6","5","7","6","6","7","5","6","6","7","2","5","7","7","6","6","5","7","2","5","2","7","6","5","5","6","6","5","6","6","7","1","3","2","7","6","7","5","634800368890413056","陈","266","Male","[""好我"",""好他"",""坏我"",""坏他""]","[""强我"",""强他"",""弱我"",""弱他""]","","","","","","","","","","","","","","","","","","","","","","","","","","","","","","feedback_test","","","","","","","",""
"980","","j","psychophysics","76","853258","0.0-8.0-0.0-1.0-0.0-0.33","7","5","6","7","5","5","4","4","5","4","5","-1","-3","1","0","1","2","0","1","4","5","5","4","4","5","4","4","5","4","8","6","7","7","8","9","6","8","7","5","6","6","5","7","6","6","7","5","6","6","7","2","5","7","7","6","6","5","7","2","5","2","7","6","5","5","6","6","5","6","6","7","1","3","2","7","6","7","5","634800368890413056","陈","266","Male","[""好我"",""好他"",""坏我"",""坏他""]","[""强我"",""强他"",""弱我"",""弱他""]","","","","","","","","nonmatch","","","","","","","","","","key","j","16.65388135593266","799.9999682108573","445.8333156175091","j","true","nonmatch","img/trapezoid.png","坏他","坏我","prac_ALT2_moral","practice_moral","","","","","","","",""
"null","<span style='color:GreenYellow; font-size: 70px;'>正确! </span>","null","html-keyboard-response","77","853760","0.0-8.0-0.0-1.0-0.0-1.33","7","5","6","7","5","5","4","4","5","4","5","-1","-3","1","0","1","2","0","1","4","5","5","4","4","5","4","4","5","4","8","6","7","7","8","9","6","8","7","5","6","6","5","7","6","6","7","5","6","6","7","2","5","7","7","6","6","5","7","2","5","2","7","6","5","5","6","6","5","6","6","7","1","3","2","7","6","7","5","634800368890413056","陈","266","Male","[""好我"",""好他"",""坏我"",""坏他""]","[""强我"",""强他"",""弱我"",""弱他""]","","","","","","","","","","","","","","","","","","","","","","","","","","","","","","feedback_test","","","","","","","",""
"1078","","f","psychophysics","78","855839","0.0-8.0-0.0-1.0-0.0-0.34","7","5","6","7","5","5","4","4","5","4","5","-1","-3","1","0","1","2","0","1","4","5","5","4","4","5","4","4","5","4","8","6","7","7","8","9","6","8","7","5","6","6","5","7","6","6","7","5","6","6","7","2","5","7","7","6","6","5","7","2","5","2","7","6","5","5","6","6","5","6","6","7","1","3","2","7","6","7","5","634800368890413056","陈","266","Male","[""好我"",""好他"",""坏我"",""坏他""]","[""强我"",""强他"",""弱我"",""弱他""]","","","","","","","","match","","","","","","","","","","key","f","16.653362903225748","799.9999682108573","445.8333156175091","j","false","nonmatch","img/ellipse.png","好我","好他","prac_ALT2_moral","practice_moral","","","","","","","",""
"null","<span style='color:red; font-size: 70px;'>错误! </span>","null","html-keyboard-response","79","856340","0.0-8.0-0.0-1.0-0.0-1.34","7","5","6","7","5","5","4","4","5","4","5","-1","-3","1","0","1","2","0","1","4","5","5","4","4","5","4","4","5","4","8","6","7","7","8","9","6","8","7","5","6","6","5","7","6","6","7","5","6","6","7","2","5","7","7","6","6","5","7","2","5","2","7","6","5","5","6","6","5","6","6","7","1","3","2","7","6","7","5","634800368890413056","陈","266","Male","[""好我"",""好他"",""坏我"",""坏他""]","[""强我"",""强他"",""弱我"",""弱他""]","","","","","","","","","","","","","","","","","","","","","","","","","","","","","","feedback_test","","","","","","","",""
"892","","j","psychophysics","80","858234","0.0-8.0-0.0-1.0-0.0-0.35","7","5","6","7","5","5","4","4","5","4","5","-1","-3","1","0","1","2","0","1","4","5","5","4","4","5","4","4","5","4","8","6","7","7","8","9","6","8","7","5","6","6","5","7","6","6","7","5","6","6","7","2","5","7","7","6","6","5","7","2","5","2","7","6","5","5","6","6","5","6","6","7","1","3","2","7","6","7","5","634800368890413056","陈","266","Male","[""好我"",""好他"",""坏我"",""坏他""]","[""强我"",""强他"",""弱我"",""弱他""]","","","","","","","","nonmatch","","","","","","","","","","key","j","16.651345132742968","799.9999682108573","445.8333156175091","f","false","match","img/trapezoid.png","坏我","坏我","prac_ALT2_moral","practice_moral","","","","","","","",""
"null","<span style='color:red; font-size: 70px;'>错误! </span>","null","html-keyboard-response","81","858735","0.0-8.0-0.0-1.0-0.0-1.35","7","5","6","7","5","5","4","4","5","4","5","-1","-3","1","0","1","2","0","1","4","5","5","4","4","5","4","4","5","4","8","6","7","7","8","9","6","8","7","5","6","6","5","7","6","6","7","5","6","6","7","2","5","7","7","6","6","5","7","2","5","2","7","6","5","5","6","6","5","6","6","7","1","3","2","7","6","7","5","634800368890413056","陈","266","Male","[""好我"",""好他"",""坏我"",""坏他""]","[""强我"",""强他"",""弱我"",""弱他""]","","","","","","","","","","","","","","","","","","","","","","","","","","","","","","feedback_test","","","","","","","",""
"null","","null","psychophysics","82","860939","0.0-8.0-0.0-1.0-0.0-0.36","7","5","6","7","5","5","4","4","5","4","5","-1","-3","1","0","1","2","0","1","4","5","5","4","4","5","4","4","5","4","8","6","7","7","8","9","6","8","7","5","6","6","5","7","6","6","7","5","6","6","7","2","5","7","7","6","6","5","7","2","5","2","7","6","5","5","6","6","5","6","6","7","1","3","2","7","6","7","5","634800368890413056","陈","266","Male","[""好我"",""好他"",""坏我"",""坏他""]","[""强我"",""强他"",""弱我"",""弱他""]","","","","","","","","null","","","","","","","","","","key","null","16.65389312977124","799.9999682108573","445.8333156175091","f","false","match","img/ellipse.png","好他","好他","prac_ALT2_moral","practice_moral","","","","","","","",""
"null","<span class='add_' style='color:yellow; font-size: 70px;'> 太慢! </span>","null","html-keyboard-response","83","861440","0.0-8.0-0.0-1.0-0.0-1.36","7","5","6","7","5","5","4","4","5","4","5","-1","-3","1","0","1","2","0","1","4","5","5","4","4","5","4","4","5","4","8","6","7","7","8","9","6","8","7","5","6","6","5","7","6","6","7","5","6","6","7","2","5","7","7","6","6","5","7","2","5","2","7","6","5","5","6","6","5","6","6","7","1","3","2","7","6","7","5","634800368890413056","陈","266","Male","[""好我"",""好他"",""坏我"",""坏他""]","[""强我"",""强他"",""弱我"",""弱他""]","","","","","","","","","","","","","","","","","","","","","","","","","","","","","","feedback_test","","","","","","","",""
"1116","","f","psychophysics","84","863558","0.0-8.0-0.0-1.0-0.0-0.37","7","5","6","7","5","5","4","4","5","4","5","-1","-3","1","0","1","2","0","1","4","5","5","4","4","5","4","4","5","4","8","6","7","7","8","9","6","8","7","5","6","6","5","7","6","6","7","5","6","6","7","2","5","7","7","6","6","5","7","2","5","2","7","6","5","5","6","6","5","6","6","7","1","3","2","7","6","7","5","634800368890413056","陈","266","Male","[""好我"",""好他"",""坏我"",""坏他""]","[""强我"",""强他"",""弱我"",""弱他""]","","","","","","","","match","","","","","","","","","","key","f","16.65380952380956","799.9999682108573","445.8333156175091","f","true","match","img/triangle.png","好我","好我","prac_ALT2_moral","practice_moral","","","","","","","",""
"null","<span style='color:GreenYellow; font-size: 70px;'>正确! </span>","null","html-keyboard-response","85","864058","0.0-8.0-0.0-1.0-0.0-1.37","7","5","6","7","5","5","4","4","5","4","5","-1","-3","1","0","1","2","0","1","4","5","5","4","4","5","4","4","5","4","8","6","7","7","8","9","6","8","7","5","6","6","5","7","6","6","7","5","6","6","7","2","5","7","7","6","6","5","7","2","5","2","7","6","5","5","6","6","5","6","6","7","1","3","2","7","6","7","5","634800368890413056","陈","266","Male","[""好我"",""好他"",""坏我"",""坏他""]","[""强我"",""强他"",""弱我"",""弱他""]","","","","","","","","","","","","","","","","","","","","","","","","","","","","","","feedback_test","","","","","","","",""
"1004","","j","psychophysics","86","866066","0.0-8.0-0.0-1.0-0.0-0.38","7","5","6","7","5","5","4","4","5","4","5","-1","-3","1","0","1","2","0","1","4","5","5","4","4","5","4","4","5","4","8","6","7","7","8","9","6","8","7","5","6","6","5","7","6","6","7","5","6","6","7","2","5","7","7","6","6","5","7","2","5","2","7","6","5","5","6","6","5","6","6","7","1","3","2","7","6","7","5","634800368890413056","陈","266","Male","[""好我"",""好他"",""坏我"",""坏他""]","[""强我"",""强他"",""弱我"",""弱他""]","","","","","","","","nonmatch","","","","","","","","","","key","j","16.653117647058988","799.9999682108573","445.8333156175091","j","true","nonmatch","img/trapezoid.png","好他","坏我","prac_ALT2_moral","practice_moral","","","","","","","",""
"null","<span style='color:GreenYellow; font-size: 70px;'>正确! </span>","null","html-keyboard-response","87","866567","0.0-8.0-0.0-1.0-0.0-1.38","7","5","6","7","5","5","4","4","5","4","5","-1","-3","1","0","1","2","0","1","4","5","5","4","4","5","4","4","5","4","8","6","7","7","8","9","6","8","7","5","6","6","5","7","6","6","7","5","6","6","7","2","5","7","7","6","6","5","7","2","5","2","7","6","5","5","6","6","5","6","6","7","1","3","2","7","6","7","5","634800368890413056","陈","266","Male","[""好我"",""好他"",""坏我"",""坏他""]","[""强我"",""强他"",""弱我"",""弱他""]","","","","","","","","","","","","","","","","","","","","","","","","","","","","","","feedback_test","","","","","","","",""
"null","","null","psychophysics","88","868770","0.0-8.0-0.0-1.0-0.0-0.39","7","5","6","7","5","5","4","4","5","4","5","-1","-3","1","0","1","2","0","1","4","5","5","4","4","5","4","4","5","4","8","6","7","7","8","9","6","8","7","5","6","6","5","7","6","6","7","5","6","6","7","2","5","7","7","6","6","5","7","2","5","2","7","6","5","5","6","6","5","6","6","7","1","3","2","7","6","7","5","634800368890413056","陈","266","Male","[""好我"",""好他"",""坏我"",""坏他""]","[""强我"",""强他"",""弱我"",""弱他""]","","","","","","","","null","","","","","","","","","","key","null","16.652625954198076","799.9999682108573","445.8333156175091","f","false","match","img/triangle.png","好我","好我","prac_ALT2_moral","practice_moral","","","","","","","",""
"null","<span class='add_' style='color:yellow; font-size: 70px;'> 太慢! </span>","null","html-keyboard-response","89","869272","0.0-8.0-0.0-1.0-0.0-1.39","7","5","6","7","5","5","4","4","5","4","5","-1","-3","1","0","1","2","0","1","4","5","5","4","4","5","4","4","5","4","8","6","7","7","8","9","6","8","7","5","6","6","5","7","6","6","7","5","6","6","7","2","5","7","7","6","6","5","7","2","5","2","7","6","5","5","6","6","5","6","6","7","1","3","2","7","6","7","5","634800368890413056","陈","266","Male","[""好我"",""好他"",""坏我"",""坏他""]","[""强我"",""强他"",""弱我"",""弱他""]","","","","","","","","","","","","","","","","","","","","","","","","","","","","","","feedback_test","","","","","","","",""
"911","","j","psychophysics","90","871184","0.0-8.0-0.0-1.0-0.0-0.40","7","5","6","7","5","5","4","4","5","4","5","-1","-3","1","0","1","2","0","1","4","5","5","4","4","5","4","4","5","4","8","6","7","7","8","9","6","8","7","5","6","6","5","7","6","6","7","5","6","6","7","2","5","7","7","6","6","5","7","2","5","2","7","6","5","5","6","6","5","6","6","7","1","3","2","7","6","7","5","634800368890413056","陈","266","Male","[""好我"",""好他"",""坏我"",""坏他""]","[""强我"",""强他"",""弱我"",""弱他""]","","","","","","","","nonmatch","","","","","","","","","","key","j","16.654008849557957","799.9999682108573","445.8333156175091","j","true","nonmatch","img/pentagon.png","好他","坏他","prac_ALT2_moral","practice_moral","","","","","","","",""
"null","<span style='color:GreenYellow; font-size: 70px;'>正确! </span>","null","html-keyboard-response","91","871685","0.0-8.0-0.0-1.0-0.0-1.40","7","5","6","7","5","5","4","4","5","4","5","-1","-3","1","0","1","2","0","1","4","5","5","4","4","5","4","4","5","4","8","6","7","7","8","9","6","8","7","5","6","6","5","7","6","6","7","5","6","6","7","2","5","7","7","6","6","5","7","2","5","2","7","6","5","5","6","6","5","6","6","7","1","3","2","7","6","7","5","634800368890413056","陈","266","Male","[""好我"",""好他"",""坏我"",""坏他""]","[""强我"",""强他"",""弱我"",""弱他""]","","","","","","","","","","","","","","","","","","","","","","","","","","","","","","feedback_test","","","","","","","",""
"822","","j","psychophysics","92","873508","0.0-8.0-0.0-1.0-0.0-0.41","7","5","6","7","5","5","4","4","5","4","5","-1","-3","1","0","1","2","0","1","4","5","5","4","4","5","4","4","5","4","8","6","7","7","8","9","6","8","7","5","6","6","5","7","6","6","7","5","6","6","7","2","5","7","7","6","6","5","7","2","5","2","7","6","5","5","6","6","5","6","6","7","1","3","2","7","6","7","5","634800368890413056","陈","266","Male","[""好我"",""好他"",""坏我"",""坏他""]","[""强我"",""强他"",""弱我"",""弱他""]","","","","","","","","nonmatch","","","","","","","","","","key","j","16.6492314814812","799.9999682108573","445.8333156175091","j","true","nonmatch","img/ellipse.png","坏我","好他","prac_ALT2_moral","practice_moral","","","","","","","",""
"null","<span style='color:GreenYellow; font-size: 70px;'>正确! </span>","null","html-keyboard-response","93","874011","0.0-8.0-0.0-1.0-0.0-1.41","7","5","6","7","5","5","4","4","5","4","5","-1","-3","1","0","1","2","0","1","4","5","5","4","4","5","4","4","5","4","8","6","7","7","8","9","6","8","7","5","6","6","5","7","6","6","7","5","6","6","7","2","5","7","7","6","6","5","7","2","5","2","7","6","5","5","6","6","5","6","6","7","1","3","2","7","6","7","5","634800368890413056","陈","266","Male","[""好我"",""好他"",""坏我"",""坏他""]","[""强我"",""强他"",""弱我"",""弱他""]","","","","","","","","","","","","","","","","","","","","","","","","","","","","","","feedback_test","","","","","","","",""
"726","","f","psychophysics","94","875738","0.0-8.0-0.0-1.0-0.0-0.42","7","5","6","7","5","5","4","4","5","4","5","-1","-3","1","0","1","2","0","1","4","5","5","4","4","5","4","4","5","4","8","6","7","7","8","9","6","8","7","5","6","6","5","7","6","6","7","5","6","6","7","2","5","7","7","6","6","5","7","2","5","2","7","6","5","5","6","6","5","6","6","7","1","3","2","7","6","7","5","634800368890413056","陈","266","Male","[""好我"",""好他"",""坏我"",""坏他""]","[""强我"",""强他"",""弱我"",""弱他""]","","","","","","","","match","","","","","","","","","","key","f","16.648359223301703","799.9999682108573","445.8333156175091","f","true","match","img/pentagon.png","坏他","坏他","prac_ALT2_moral","practice_moral","","","","","","","",""
"null","<span style='color:GreenYellow; font-size: 70px;'>正确! </span>","null","html-keyboard-response","95","876239","0.0-8.0-0.0-1.0-0.0-1.42","7","5","6","7","5","5","4","4","5","4","5","-1","-3","1","0","1","2","0","1","4","5","5","4","4","5","4","4","5","4","8","6","7","7","8","9","6","8","7","5","6","6","5","7","6","6","7","5","6","6","7","2","5","7","7","6","6","5","7","2","5","2","7","6","5","5","6","6","5","6","6","7","1","3","2","7","6","7","5","634800368890413056","陈","266","Male","[""好我"",""好他"",""坏我"",""坏他""]","[""强我"",""强他"",""弱我"",""弱他""]","","","","","","","","","","","","","","","","","","","","","","","","","","","","","","feedback_test","","","","","","","",""
"721","","j","psychophysics","96","877963","0.0-8.0-0.0-1.0-0.0-0.43","7","5","6","7","5","5","4","4","5","4","5","-1","-3","1","0","1","2","0","1","4","5","5","4","4","5","4","4","5","4","8","6","7","7","8","9","6","8","7","5","6","6","5","7","6","6","7","5","6","6","7","2","5","7","7","6","6","5","7","2","5","2","7","6","5","5","6","6","5","6","6","7","1","3","2","7","6","7","5","634800368890413056","陈","266","Male","[""好我"",""好他"",""坏我"",""坏他""]","[""强我"",""强他"",""弱我"",""弱他""]","","","","","","","","nonmatch","","","","","","","","","","key","j","16.654421568626777","799.9999682108573","445.8333156175091","f","false","match","img/ellipse.png","好他","好他","prac_ALT2_moral","practice_moral","","","","","","","",""
"null","<span style='color:red; font-size: 70px;'>错误! </span>","null","html-keyboard-response","97","878464","0.0-8.0-0.0-1.0-0.0-1.43","7","5","6","7","5","5","4","4","5","4","5","-1","-3","1","0","1","2","0","1","4","5","5","4","4","5","4","4","5","4","8","6","7","7","8","9","6","8","7","5","6","6","5","7","6","6","7","5","6","6","7","2","5","7","7","6","6","5","7","2","5","2","7","6","5","5","6","6","5","6","6","7","1","3","2","7","6","7","5","634800368890413056","陈","266","Male","[""好我"",""好他"",""坏我"",""坏他""]","[""强我"",""强他"",""弱我"",""弱他""]","","","","","","","","","","","","","","","","","","","","","","","","","","","","","","feedback_test","","","","","","","",""
"853","","j","psychophysics","98","880318","0.0-8.0-0.0-1.0-0.0-0.44","7","5","6","7","5","5","4","4","5","4","5","-1","-3","1","0","1","2","0","1","4","5","5","4","4","5","4","4","5","4","8","6","7","7","8","9","6","8","7","5","6","6","5","7","6","6","7","5","6","6","7","2","5","7","7","6","6","5","7","2","5","2","7","6","5","5","6","6","5","6","6","7","1","3","2","7","6","7","5","634800368890413056","陈","266","Male","[""好我"",""好他"",""坏我"",""坏他""]","[""强我"",""强他"",""弱我"",""弱他""]","","","","","","","","nonmatch","","","","","","","","","","key","j","16.653200000000652","799.9999682108573","445.8333156175091","j","true","nonmatch","img/pentagon.png","坏我","坏他","prac_ALT2_moral","practice_moral","","","","","","","",""
"null","<span style='color:GreenYellow; font-size: 70px;'>正确! </span>","null","html-keyboard-response","99","880820","0.0-8.0-0.0-1.0-0.0-1.44","7","5","6","7","5","5","4","4","5","4","5","-1","-3","1","0","1","2","0","1","4","5","5","4","4","5","4","4","5","4","8","6","7","7","8","9","6","8","7","5","6","6","5","7","6","6","7","5","6","6","7","2","5","7","7","6","6","5","7","2","5","2","7","6","5","5","6","6","5","6","6","7","1","3","2","7","6","7","5","634800368890413056","陈","266","Male","[""好我"",""好他"",""坏我"",""坏他""]","[""强我"",""强他"",""弱我"",""弱他""]","","","","","","","","","","","","","","","","","","","","","","","","","","","","","","feedback_test","","","","","","","",""
"955","","j","psychophysics","100","882777","0.0-8.0-0.0-1.0-0.0-0.45","7","5","6","7","5","5","4","4","5","4","5","-1","-3","1","0","1","2","0","1","4","5","5","4","4","5","4","4","5","4","8","6","7","7","8","9","6","8","7","5","6","6","5","7","6","6","7","5","6","6","7","2","5","7","7","6","6","5","7","2","5","2","7","6","5","5","6","6","5","6","6","7","1","3","2","7","6","7","5","634800368890413056","陈","266","Male","[""好我"",""好他"",""坏我"",""坏他""]","[""强我"",""强他"",""弱我"",""弱他""]","","","","","","","","nonmatch","","","","","","","","","","key","j","16.650758620688755","799.9999682108573","445.8333156175091","j","true","nonmatch","img/triangle.png","坏他","好我","prac_ALT2_moral","practice_moral","","","","","","","",""
"null","<span style='color:GreenYellow; font-size: 70px;'>正确! </span>","null","html-keyboard-response","101","883278","0.0-8.0-0.0-1.0-0.0-1.45","7","5","6","7","5","5","4","4","5","4","5","-1","-3","1","0","1","2","0","1","4","5","5","4","4","5","4","4","5","4","8","6","7","7","8","9","6","8","7","5","6","6","5","7","6","6","7","5","6","6","7","2","5","7","7","6","6","5","7","2","5","2","7","6","5","5","6","6","5","6","6","7","1","3","2","7","6","7","5","634800368890413056","陈","266","Male","[""好我"",""好他"",""坏我"",""坏他""]","[""强我"",""强他"",""弱我"",""弱他""]","","","","","","","","","","","","","","","","","","","","","","","","","","","","","","feedback_test","","","","","","","",""
"922","","j","psychophysics","102","885203","0.0-8.0-0.0-1.0-0.0-0.46","7","5","6","7","5","5","4","4","5","4","5","-1","-3","1","0","1","2","0","1","4","5","5","4","4","5","4","4","5","4","8","6","7","7","8","9","6","8","7","5","6","6","5","7","6","6","7","5","6","6","7","2","5","7","7","6","6","5","7","2","5","2","7","6","5","5","6","6","5","6","6","7","1","3","2","7","6","7","5","634800368890413056","陈","266","Male","[""好我"",""好他"",""坏我"",""坏他""]","[""强我"",""强他"",""弱我"",""弱他""]","","","","","","","","nonmatch","","","","","","","","","","key","j","16.650938596490672","799.9999682108573","445.8333156175091","f","false","match","img/trapezoid.png","坏我","坏我","prac_ALT2_moral","practice_moral","","","","","","","",""
"null","<span style='color:red; font-size: 70px;'>错误! </span>","null","html-keyboard-response","103","885704","0.0-8.0-0.0-1.0-0.0-1.46","7","5","6","7","5","5","4","4","5","4","5","-1","-3","1","0","1","2","0","1","4","5","5","4","4","5","4","4","5","4","8","6","7","7","8","9","6","8","7","5","6","6","5","7","6","6","7","5","6","6","7","2","5","7","7","6","6","5","7","2","5","2","7","6","5","5","6","6","5","6","6","7","1","3","2","7","6","7","5","634800368890413056","陈","266","Male","[""好我"",""好他"",""坏我"",""坏他""]","[""强我"",""强他"",""弱我"",""弱他""]","","","","","","","","","","","","","","","","","","","","","","","","","","","","","","feedback_test","","","","","","","",""
"1050","","j","psychophysics","104","887755","0.0-8.0-0.0-1.0-0.0-0.47","7","5","6","7","5","5","4","4","5","4","5","-1","-3","1","0","1","2","0","1","4","5","5","4","4","5","4","4","5","4","8","6","7","7","8","9","6","8","7","5","6","6","5","7","6","6","7","5","6","6","7","2","5","7","7","6","6","5","7","2","5","2","7","6","5","5","6","6","5","6","6","7","1","3","2","7","6","7","5","634800368890413056","陈","266","Male","[""好我"",""好他"",""坏我"",""坏他""]","[""强我"",""强他"",""弱我"",""弱他""]","","","","","","","","nonmatch","","","","","","","","","","key","j","16.65330327868931","799.9999682108573","445.8333156175091","j","true","nonmatch","img/triangle.png","好他","好我","prac_ALT2_moral","practice_moral","","","","","","","",""
"null","<span style='color:GreenYellow; font-size: 70px;'>正确! </span>","null","html-keyboard-response","105","888255","0.0-8.0-0.0-1.0-0.0-1.47","7","5","6","7","5","5","4","4","5","4","5","-1","-3","1","0","1","2","0","1","4","5","5","4","4","5","4","4","5","4","8","6","7","7","8","9","6","8","7","5","6","6","5","7","6","6","7","5","6","6","7","2","5","7","7","6","6","5","7","2","5","2","7","6","5","5","6","6","5","6","6","7","1","3","2","7","6","7","5","634800368890413056","陈","266","Male","[""好我"",""好他"",""坏我"",""坏他""]","[""强我"",""强他"",""弱我"",""弱他""]","","","","","","","","","","","","","","","","","","","","","","","","","","","","","","feedback_test","","","","","","","",""
"5287","<style>.context{color:white; font-size: 35px; line-height:40px}</style>                            <div><p class='context'>您正确回答了54% 的试次。</p><p class='context'>您的平均反应时为933毫秒。</p><p class='context'>按空格键继续。</p></div>"," ","html-keyboard-response","106","893545","0.0-8.0-0.0-1.0-1.0-0.0","7","5","6","7","5","5","4","4","5","4","5","-1","-3","1","0","1","2","0","1","4","5","5","4","4","5","4","4","5","4","8","6","7","7","8","9","6","8","7","5","6","6","5","7","6","6","7","5","6","6","7","2","5","7","7","6","6","5","7","2","5","2","7","6","5","5","6","6","5","6","6","7","1","3","2","7","6","7","5","634800368890413056","陈","266","Male","[""好我"",""好他"",""坏我"",""坏他""]","[""强我"",""强他"",""弱我"",""弱他""]","","","","","","","","","","","","","","","","","","","","","","","","","","","","","","","","","","","","","",""
"44884","","","instructions","107","938432","0.0-8.0-0.0-1.0-1.0-1.0","7","5","6","7","5","5","4","4","5","4","5","-1","-3","1","0","1","2","0","1","4","5","5","4","4","5","4","4","5","4","8","6","7","7","8","9","6","8","7","5","6","6","5","7","6","6","7","5","6","6","7","2","5","7","7","6","6","5","7","2","5","2","7","6","5","5","6","6","5","6","6","7","1","3","2","7","6","7","5","634800368890413056","陈","266","Male","[""好我"",""好他"",""坏我"",""坏他""]","[""强我"",""强他"",""弱我"",""弱他""]","","","","","","","","","","","","","","","","","[{""page_index"":0,""viewing_time"":9464},{""page_index"":1,""viewing_time"":31906},{""page_index"":2,""viewing_time"":3514}]","","","","","","","","","","","","","","","","","","","","",""
"null","","null","psychophysics","108","940639","0.0-8.0-0.0-1.1-0.1-0.48","7","5","6","7","5","5","4","4","5","4","5","-1","-3","1","0","1","2","0","1","4","5","5","4","4","5","4","4","5","4","8","6","7","7","8","9","6","8","7","5","6","6","5","7","6","6","7","5","6","6","7","2","5","7","7","6","6","5","7","2","5","2","7","6","5","5","6","6","5","6","6","7","1","3","2","7","6","7","5","634800368890413056","陈","266","Male","[""好我"",""好他"",""坏我"",""坏他""]","[""强我"",""强他"",""弱我"",""弱他""]","","","","","","","","null","","","","","","","","","","key","null","16.653045801526712","799.9999682108573","445.8333156175091","j","false","nonmatch","img/triangle.png","好他","好我","prac_ALT2_moral","practice_moral","","","","","","","",""
"null","<span class='add_' style='color:yellow; font-size: 70px;'> 太慢! </span>","null","html-keyboard-response","109","941155","0.0-8.0-0.0-1.1-0.1-1.48","7","5","6","7","5","5","4","4","5","4","5","-1","-3","1","0","1","2","0","1","4","5","5","4","4","5","4","4","5","4","8","6","7","7","8","9","6","8","7","5","6","6","5","7","6","6","7","5","6","6","7","2","5","7","7","6","6","5","7","2","5","2","7","6","5","5","6","6","5","6","6","7","1","3","2","7","6","7","5","634800368890413056","陈","266","Male","[""好我"",""好他"",""坏我"",""坏他""]","[""强我"",""强他"",""弱我"",""弱他""]","","","","","","","","","","","","","","","","","","","","","","","","","","","","","","feedback_test","","","","","","","",""
"792","","j","psychophysics","110","942949","0.0-8.0-0.0-1.1-0.1-0.49","7","5","6","7","5","5","4","4","5","4","5","-1","-3","1","0","1","2","0","1","4","5","5","4","4","5","4","4","5","4","8","6","7","7","8","9","6","8","7","5","6","6","5","7","6","6","7","5","6","6","7","2","5","7","7","6","6","5","7","2","5","2","7","6","5","5","6","6","5","6","6","7","1","3","2","7","6","7","5","634800368890413056","陈","266","Male","[""好我"",""好他"",""坏我"",""坏他""]","[""强我"",""强他"",""弱我"",""弱他""]","","","","","","","","nonmatch","","","","","","","","","","key","j","16.65445794392525","799.9999682108573","445.8333156175091","f","false","match","img/triangle.png","好我","好我","prac_ALT2_moral","practice_moral","","","","","","","",""
"null","<span style='color:red; font-size: 70px;'>错误! </span>","null","html-keyboard-response","111","943450","0.0-8.0-0.0-1.1-0.1-1.49","7","5","6","7","5","5","4","4","5","4","5","-1","-3","1","0","1","2","0","1","4","5","5","4","4","5","4","4","5","4","8","6","7","7","8","9","6","8","7","5","6","6","5","7","6","6","7","5","6","6","7","2","5","7","7","6","6","5","7","2","5","2","7","6","5","5","6","6","5","6","6","7","1","3","2","7","6","7","5","634800368890413056","陈","266","Male","[""好我"",""好他"",""坏我"",""坏他""]","[""强我"",""强他"",""弱我"",""弱他""]","","","","","","","","","","","","","","","","","","","","","","","","","","","","","","feedback_test","","","","","","","",""
"756","","j","psychophysics","112","945207","0.0-8.0-0.0-1.1-0.1-0.50","7","5","6","7","5","5","4","4","5","4","5","-1","-3","1","0","1","2","0","1","4","5","5","4","4","5","4","4","5","4","8","6","7","7","8","9","6","8","7","5","6","6","5","7","6","6","7","5","6","6","7","2","5","7","7","6","6","5","7","2","5","2","7","6","5","5","6","6","5","6","6","7","1","3","2","7","6","7","5","634800368890413056","陈","266","Male","[""好我"",""好他"",""坏我"",""坏他""]","[""强我"",""强他"",""弱我"",""弱他""]","","","","","","","","nonmatch","","","","","","","","","","key","j","16.65439423076952","799.9999682108573","445.8333156175091","j","true","nonmatch","img/trapezoid.png","好我","坏我","prac_ALT2_moral","practice_moral","","","","","","","",""
"null","<span style='color:GreenYellow; font-size: 70px;'>正确! </span>","null","html-keyboard-response","113","945708","0.0-8.0-0.0-1.1-0.1-1.50","7","5","6","7","5","5","4","4","5","4","5","-1","-3","1","0","1","2","0","1","4","5","5","4","4","5","4","4","5","4","8","6","7","7","8","9","6","8","7","5","6","6","5","7","6","6","7","5","6","6","7","2","5","7","7","6","6","5","7","2","5","2","7","6","5","5","6","6","5","6","6","7","1","3","2","7","6","7","5","634800368890413056","陈","266","Male","[""好我"",""好他"",""坏我"",""坏他""]","[""强我"",""强他"",""弱我"",""弱他""]","","","","","","","","","","","","","","","","","","","","","","","","","","","","","","feedback_test","","","","","","","",""
"936","","f","psychophysics","114","947646","0.0-8.0-0.0-1.1-0.1-0.51","7","5","6","7","5","5","4","4","5","4","5","-1","-3","1","0","1","2","0","1","4","5","5","4","4","5","4","4","5","4","8","6","7","7","8","9","6","8","7","5","6","6","5","7","6","6","7","5","6","6","7","2","5","7","7","6","6","5","7","2","5","2","7","6","5","5","6","6","5","6","6","7","1","3","2","7","6","7","5","634800368890413056","陈","266","Male","[""好我"",""好他"",""坏我"",""坏他""]","[""强我"",""强他"",""弱我"",""弱他""]","","","","","","","","match","","","","","","","","","","key","f","16.652078260870084","799.9999682108573","445.8333156175091","j","false","nonmatch","img/triangle.png","坏他","好我","prac_ALT2_moral","practice_moral","","","","","","","",""
"null","<span style='color:red; font-size: 70px;'>错误! </span>","null","html-keyboard-response","115","948146","0.0-8.0-0.0-1.1-0.1-1.51","7","5","6","7","5","5","4","4","5","4","5","-1","-3","1","0","1","2","0","1","4","5","5","4","4","5","4","4","5","4","8","6","7","7","8","9","6","8","7","5","6","6","5","7","6","6","7","5","6","6","7","2","5","7","7","6","6","5","7","2","5","2","7","6","5","5","6","6","5","6","6","7","1","3","2","7","6","7","5","634800368890413056","陈","266","Male","[""好我"",""好他"",""坏我"",""坏他""]","[""强我"",""强他"",""弱我"",""弱他""]","","","","","","","","","","","","","","","","","","","","","","","","","","","","","","feedback_test","","","","","","","",""
"1044","","f","psychophysics","116","950192","0.0-8.0-0.0-1.1-0.1-0.52","7","5","6","7","5","5","4","4","5","4","5","-1","-3","1","0","1","2","0","1","4","5","5","4","4","5","4","4","5","4","8","6","7","7","8","9","6","8","7","5","6","6","5","7","6","6","7","5","6","6","7","2","5","7","7","6","6","5","7","2","5","2","7","6","5","5","6","6","5","6","6","7","1","3","2","7","6","7","5","634800368890413056","陈","266","Male","[""好我"",""好他"",""坏我"",""坏他""]","[""强我"",""强他"",""弱我"",""弱他""]","","","","","","","","match","","","","","","","","","","key","f","16.653696721311864","799.9999682108573","445.8333156175091","f","true","match","img/trapezoid.png","坏我","坏我","prac_ALT2_moral","practice_moral","","","","","","","",""
"null","<span style='color:GreenYellow; font-size: 70px;'>正确! </span>","null","html-keyboard-response","117","950695","0.0-8.0-0.0-1.1-0.1-1.52","7","5","6","7","5","5","4","4","5","4","5","-1","-3","1","0","1","2","0","1","4","5","5","4","4","5","4","4","5","4","8","6","7","7","8","9","6","8","7","5","6","6","5","7","6","6","7","5","6","6","7","2","5","7","7","6","6","5","7","2","5","2","7","6","5","5","6","6","5","6","6","7","1","3","2","7","6","7","5","634800368890413056","陈","266","Male","[""好我"",""好他"",""坏我"",""坏他""]","[""强我"",""强他"",""弱我"",""弱他""]","","","","","","","","","","","","","","","","","","","","","","","","","","","","","","feedback_test","","","","","","","",""
"812","","j","psychophysics","118","952509","0.0-8.0-0.0-1.1-0.1-0.53","7","5","6","7","5","5","4","4","5","4","5","-1","-3","1","0","1","2","0","1","4","5","5","4","4","5","4","4","5","4","8","6","7","7","8","9","6","8","7","5","6","6","5","7","6","6","7","5","6","6","7","2","5","7","7","6","6","5","7","2","5","2","7","6","5","5","6","6","5","6","6","7","1","3","2","7","6","7","5","634800368890413056","陈","266","Male","[""好我"",""好他"",""坏我"",""坏他""]","[""强我"",""强他"",""弱我"",""弱他""]","","","","","","","","nonmatch","","","","","","","","","","key","j","16.65433333333392","799.9999682108573","445.8333156175091","j","true","nonmatch","img/ellipse.png","坏我","好他","prac_ALT2_moral","practice_moral","","","","","","","",""
"null","<span style='color:GreenYellow; font-size: 70px;'>正确! </span>","null","html-keyboard-response","119","953011","0.0-8.0-0.0-1.1-0.1-1.53","7","5","6","7","5","5","4","4","5","4","5","-1","-3","1","0","1","2","0","1","4","5","5","4","4","5","4","4","5","4","8","6","7","7","8","9","6","8","7","5","6","6","5","7","6","6","7","5","6","6","7","2","5","7","7","6","6","5","7","2","5","2","7","6","5","5","6","6","5","6","6","7","1","3","2","7","6","7","5","634800368890413056","陈","266","Male","[""好我"",""好他"",""坏我"",""坏他""]","[""强我"",""强他"",""弱我"",""弱他""]","","","","","","","","","","","","","","","","","","","","","","","","","","","","","","feedback_test","","","","","","","",""
"862","","f","psychophysics","120","954875","0.0-8.0-0.0-1.1-0.1-0.54","7","5","6","7","5","5","4","4","5","4","5","-1","-3","1","0","1","2","0","1","4","5","5","4","4","5","4","4","5","4","8","6","7","7","8","9","6","8","7","5","6","6","5","7","6","6","7","5","6","6","7","2","5","7","7","6","6","5","7","2","5","2","7","6","5","5","6","6","5","6","6","7","1","3","2","7","6","7","5","634800368890413056","陈","266","Male","[""好我"",""好他"",""坏我"",""坏他""]","[""强我"",""强他"",""弱我"",""弱他""]","","","","","","","","match","","","","","","","","","","key","f","16.654261261261453","799.9999682108573","445.8333156175091","j","false","nonmatch","img/ellipse.png","好我","好他","prac_ALT2_moral","practice_moral","","","","","","","",""
"null","<span style='color:red; font-size: 70px;'>错误! </span>","null","html-keyboard-response","121","955376","0.0-8.0-0.0-1.1-0.1-1.54","7","5","6","7","5","5","4","4","5","4","5","-1","-3","1","0","1","2","0","1","4","5","5","4","4","5","4","4","5","4","8","6","7","7","8","9","6","8","7","5","6","6","5","7","6","6","7","5","6","6","7","2","5","7","7","6","6","5","7","2","5","2","7","6","5","5","6","6","5","6","6","7","1","3","2","7","6","7","5","634800368890413056","陈","266","Male","[""好我"",""好他"",""坏我"",""坏他""]","[""强我"",""强他"",""弱我"",""弱他""]","","","","","","","","","","","","","","","","","","","","","","","","","","","","","","feedback_test","","","","","","","",""
"787","","f","psychophysics","122","957164","0.0-8.0-0.0-1.1-0.1-0.55","7","5","6","7","5","5","4","4","5","4","5","-1","-3","1","0","1","2","0","1","4","5","5","4","4","5","4","4","5","4","8","6","7","7","8","9","6","8","7","5","6","6","5","7","6","6","7","5","6","6","7","2","5","7","7","6","6","5","7","2","5","2","7","6","5","5","6","6","5","6","6","7","1","3","2","7","6","7","5","634800368890413056","陈","266","Male","[""好我"",""好他"",""坏我"",""坏他""]","[""强我"",""强他"",""弱我"",""弱他""]","","","","","","","","match","","","","","","","","","","key","f","16.649150943396755","799.9999682108573","445.8333156175091","f","true","match","img/ellipse.png","好他","好他","prac_ALT2_moral","practice_moral","","","","","","","",""
"null","<span style='color:GreenYellow; font-size: 70px;'>正确! </span>","null","html-keyboard-response","123","957665","0.0-8.0-0.0-1.1-0.1-1.55","7","5","6","7","5","5","4","4","5","4","5","-1","-3","1","0","1","2","0","1","4","5","5","4","4","5","4","4","5","4","8","6","7","7","8","9","6","8","7","5","6","6","5","7","6","6","7","5","6","6","7","2","5","7","7","6","6","5","7","2","5","2","7","6","5","5","6","6","5","6","6","7","1","3","2","7","6","7","5","634800368890413056","陈","266","Male","[""好我"",""好他"",""坏我"",""坏他""]","[""强我"",""强他"",""弱我"",""弱他""]","","","","","","","","","","","","","","","","","","","","","","","","","","","","","","feedback_test","","","","","","","",""
"1075","","j","psychophysics","124","959742","0.0-8.0-0.0-1.1-0.1-0.56","7","5","6","7","5","5","4","4","5","4","5","-1","-3","1","0","1","2","0","1","4","5","5","4","4","5","4","4","5","4","8","6","7","7","8","9","6","8","7","5","6","6","5","7","6","6","7","5","6","6","7","2","5","7","7","6","6","5","7","2","5","2","7","6","5","5","6","6","5","6","6","7","1","3","2","7","6","7","5","634800368890413056","陈","266","Male","[""好我"",""好他"",""坏我"",""坏他""]","[""强我"",""强他"",""弱我"",""弱他""]","","","","","","","","nonmatch","","","","","","","","","","key","j","16.652365853658846","799.9999682108573","445.8333156175091","f","false","match","img/trapezoid.png","坏我","坏我","prac_ALT2_moral","practice_moral","","","","","","","",""
"null","<span style='color:red; font-size: 70px;'>错误! </span>","null","html-keyboard-response","125","960243","0.0-8.0-0.0-1.1-0.1-1.56","7","5","6","7","5","5","4","4","5","4","5","-1","-3","1","0","1","2","0","1","4","5","5","4","4","5","4","4","5","4","8","6","7","7","8","9","6","8","7","5","6","6","5","7","6","6","7","5","6","6","7","2","5","7","7","6","6","5","7","2","5","2","7","6","5","5","6","6","5","6","6","7","1","3","2","7","6","7","5","634800368890413056","陈","266","Male","[""好我"",""好他"",""坏我"",""坏他""]","[""强我"",""强他"",""弱我"",""弱他""]","","","","","","","","","","","","","","","","","","","","","","","","","","","","","","feedback_test","","","","","","","",""
"860","","f","psychophysics","126","962105","0.0-8.0-0.0-1.1-0.1-0.57","7","5","6","7","5","5","4","4","5","4","5","-1","-3","1","0","1","2","0","1","4","5","5","4","4","5","4","4","5","4","8","6","7","7","8","9","6","8","7","5","6","6","5","7","6","6","7","5","6","6","7","2","5","7","7","6","6","5","7","2","5","2","7","6","5","5","6","6","5","6","6","7","1","3","2","7","6","7","5","634800368890413056","陈","266","Male","[""好我"",""好他"",""坏我"",""坏他""]","[""强我"",""强他"",""弱我"",""弱他""]","","","","","","","","match","","","","","","","","","","key","f","16.654153153152407","799.9999682108573","445.8333156175091","j","false","nonmatch","img/triangle.png","坏我","好我","prac_ALT2_moral","practice_moral","","","","","","","",""
"null","<span style='color:red; font-size: 70px;'>错误! </span>","null","html-keyboard-response","127","962607","0.0-8.0-0.0-1.1-0.1-1.57","7","5","6","7","5","5","4","4","5","4","5","-1","-3","1","0","1","2","0","1","4","5","5","4","4","5","4","4","5","4","8","6","7","7","8","9","6","8","7","5","6","6","5","7","6","6","7","5","6","6","7","2","5","7","7","6","6","5","7","2","5","2","7","6","5","5","6","6","5","6","6","7","1","3","2","7","6","7","5","634800368890413056","陈","266","Male","[""好我"",""好他"",""坏我"",""坏他""]","[""强我"",""强他"",""弱我"",""弱他""]","","","","","","","","","","","","","","","","","","","","","","","","","","","","","","feedback_test","","","","","","","",""
"864","","j","psychophysics","128","964473","0.0-8.0-0.0-1.1-0.1-0.58","7","5","6","7","5","5","4","4","5","4","5","-1","-3","1","0","1","2","0","1","4","5","5","4","4","5","4","4","5","4","8","6","7","7","8","9","6","8","7","5","6","6","5","7","6","6","7","5","6","6","7","2","5","7","7","6","6","5","7","2","5","2","7","6","5","5","6","6","5","6","6","7","1","3","2","7","6","7","5","634800368890413056","陈","266","Male","[""好我"",""好他"",""坏我"",""坏他""]","[""强我"",""强他"",""弱我"",""弱他""]","","","","","","","","nonmatch","","","","","","","","","","key","j","16.65427927927928","799.9999682108573","445.8333156175091","f","false","match","img/ellipse.png","好他","好他","prac_ALT2_moral","practice_moral","","","","","","","",""
"null","<span style='color:red; font-size: 70px;'>错误! </span>","null","html-keyboard-response","129","964974","0.0-8.0-0.0-1.1-0.1-1.58","7","5","6","7","5","5","4","4","5","4","5","-1","-3","1","0","1","2","0","1","4","5","5","4","4","5","4","4","5","4","8","6","7","7","8","9","6","8","7","5","6","6","5","7","6","6","7","5","6","6","7","2","5","7","7","6","6","5","7","2","5","2","7","6","5","5","6","6","5","6","6","7","1","3","2","7","6","7","5","634800368890413056","陈","266","Male","[""好我"",""好他"",""坏我"",""坏他""]","[""强我"",""强他"",""弱我"",""弱他""]","","","","","","","","","","","","","","","","","","","","","","","","","","","","","","feedback_test","","","","","","","",""
"1027","","f","psychophysics","130","967003","0.0-8.0-0.0-1.1-0.1-0.59","7","5","6","7","5","5","4","4","5","4","5","-1","-3","1","0","1","2","0","1","4","5","5","4","4","5","4","4","5","4","8","6","7","7","8","9","6","8","7","5","6","6","5","7","6","6","7","5","6","6","7","2","5","7","7","6","6","5","7","2","5","2","7","6","5","5","6","6","5","6","6","7","1","3","2","7","6","7","5","634800368890413056","陈","266","Male","[""好我"",""好他"",""坏我"",""坏他""]","[""强我"",""强他"",""弱我"",""弱他""]","","","","","","","","match","","","","","","","","","","key","f","16.653628099173854","799.9999682108573","445.8333156175091","j","false","nonmatch","img/trapezoid.png","坏他","坏我","prac_ALT2_moral","practice_moral","","","","","","","",""
"null","<span style='color:red; font-size: 70px;'>错误! </span>","null","html-keyboard-response","131","967504","0.0-8.0-0.0-1.1-0.1-1.59","7","5","6","7","5","5","4","4","5","4","5","-1","-3","1","0","1","2","0","1","4","5","5","4","4","5","4","4","5","4","8","6","7","7","8","9","6","8","7","5","6","6","5","7","6","6","7","5","6","6","7","2","5","7","7","6","6","5","7","2","5","2","7","6","5","5","6","6","5","6","6","7","1","3","2","7","6","7","5","634800368890413056","陈","266","Male","[""好我"",""好他"",""坏我"",""坏他""]","[""强我"",""强他"",""弱我"",""弱他""]","","","","","","","","","","","","","","","","","","","","","","","","","","","","","","feedback_test","","","","","","","",""
"820","","f","psychophysics","132","969327","0.0-8.0-0.0-1.1-0.1-0.60","7","5","6","7","5","5","4","4","5","4","5","-1","-3","1","0","1","2","0","1","4","5","5","4","4","5","4","4","5","4","8","6","7","7","8","9","6","8","7","5","6","6","5","7","6","6","7","5","6","6","7","2","5","7","7","6","6","5","7","2","5","2","7","6","5","5","6","6","5","6","6","7","1","3","2","7","6","7","5","634800368890413056","陈","266","Male","[""好我"",""好他"",""坏我"",""坏他""]","[""强我"",""强他"",""弱我"",""弱他""]","","","","","","","","match","","","","","","","","","","key","f","16.652706422018518","799.9999682108573","445.8333156175091","f","true","match","img/pentagon.png","坏他","坏他","prac_ALT2_moral","practice_moral","","","","","","","",""
"null","<span style='color:GreenYellow; font-size: 70px;'>正确! </span>","null","html-keyboard-response","133","969829","0.0-8.0-0.0-1.1-0.1-1.60","7","5","6","7","5","5","4","4","5","4","5","-1","-3","1","0","1","2","0","1","4","5","5","4","4","5","4","4","5","4","8","6","7","7","8","9","6","8","7","5","6","6","5","7","6","6","7","5","6","6","7","2","5","7","7","6","6","5","7","2","5","2","7","6","5","5","6","6","5","6","6","7","1","3","2","7","6","7","5","634800368890413056","陈","266","Male","[""好我"",""好他"",""坏我"",""坏他""]","[""强我"",""强他"",""弱我"",""弱他""]","","","","","","","","","","","","","","","","","","","","","","","","","","","","","","feedback_test","","","","","","","",""
"913","","f","psychophysics","134","971743","0.0-8.0-0.0-1.1-0.1-0.61","7","5","6","7","5","5","4","4","5","4","5","-1","-3","1","0","1","2","0","1","4","5","5","4","4","5","4","4","5","4","8","6","7","7","8","9","6","8","7","5","6","6","5","7","6","6","7","5","6","6","7","2","5","7","7","6","6","5","7","2","5","2","7","6","5","5","6","6","5","6","6","7","1","3","2","7","6","7","5","634800368890413056","陈","266","Male","[""好我"",""好他"",""坏我"",""坏他""]","[""强我"",""强他"",""弱我"",""弱他""]","","","","","","","","match","","","","","","","","","","key","f","16.65322807017538","799.9999682108573","445.8333156175091","j","false","nonmatch","img/pentagon.png","坏我","坏他","prac_ALT2_moral","practice_moral","","","","","","","",""
"null","<span style='color:red; font-size: 70px;'>错误! </span>","null","html-keyboard-response","135","972245","0.0-8.0-0.0-1.1-0.1-1.61","7","5","6","7","5","5","4","4","5","4","5","-1","-3","1","0","1","2","0","1","4","5","5","4","4","5","4","4","5","4","8","6","7","7","8","9","6","8","7","5","6","6","5","7","6","6","7","5","6","6","7","2","5","7","7","6","6","5","7","2","5","2","7","6","5","5","6","6","5","6","6","7","1","3","2","7","6","7","5","634800368890413056","陈","266","Male","[""好我"",""好他"",""坏我"",""坏他""]","[""强我"",""强他"",""弱我"",""弱他""]","","","","","","","","","","","","","","","","","","","","","","","","","","","","","","feedback_test","","","","","","","",""
"798","","j","psychophysics","136","974045","0.0-8.0-0.0-1.1-0.1-0.62","7","5","6","7","5","5","4","4","5","4","5","-1","-3","1","0","1","2","0","1","4","5","5","4","4","5","4","4","5","4","8","6","7","7","8","9","6","8","7","5","6","6","5","7","6","6","7","5","6","6","7","2","5","7","7","6","6","5","7","2","5","2","7","6","5","5","6","6","5","6","6","7","1","3","2","7","6","7","5","634800368890413056","陈","266","Male","[""好我"",""好他"",""坏我"",""坏他""]","[""强我"",""强他"",""弱我"",""弱他""]","","","","","","","","nonmatch","","","","","","","","","","key","j","16.65344859813079","799.9999682108573","445.8333156175091","f","false","match","img/triangle.png","好我","好我","prac_ALT2_moral","practice_moral","","","","","","","",""
"null","<span style='color:red; font-size: 70px;'>错误! </span>","null","html-keyboard-response","137","974546","0.0-8.0-0.0-1.1-0.1-1.62","7","5","6","7","5","5","4","4","5","4","5","-1","-3","1","0","1","2","0","1","4","5","5","4","4","5","4","4","5","4","8","6","7","7","8","9","6","8","7","5","6","6","5","7","6","6","7","5","6","6","7","2","5","7","7","6","6","5","7","2","5","2","7","6","5","5","6","6","5","6","6","7","1","3","2","7","6","7","5","634800368890413056","陈","266","Male","[""好我"",""好他"",""坏我"",""坏他""]","[""强我"",""强他"",""弱我"",""弱他""]","","","","","","","","","","","","","","","","","","","","","","","","","","","","","","feedback_test","","","","","","","",""
