"rt","stimulus","response","trial_type","trial_index","time_elapsed","internal_node_id","swb_1","swb_2","swb_3","swb_4","swb_5","LOT_1","LOT_2","LOT_3","LOT_4","LOT_5","LOT_6","IPC_1","IPC_2","IPC_3","IPC_4","IPC_5","IPC_6","IPC_7","IPC_8","MorIden_1","MorIden_2","MorIden_3","MorIden_4","MorIden_5","MorIden_6","MorIden_7","MorIden_8","MorIden_9","MorIden_10","moralSeImag_1","moralSeImag_2","moralSeImag_3","moralSeImag_4","moralSeImag_5","moralSeImag_6","moralSeImag_7","moralSeImag_8","moralSeImag_9","sde_1","sde_2","sde_3","sde_4","sde_5","sde_6","sde_7","sde_8","sde_9","sde_10","sde_11","sde_12","sde_13","sde_14","sde_15","sde_16","sde_17","sde_18","sde_19","sde_20","IM_1","IM_2","IM_3","IM_4","IM_5","IM_6","IM_7","IM_8","IM_9","IM_10","IM_11","IM_12","IM_13","IM_14","IM_15","IM_16","IM_17","IM_18","IM_19","IM_20","subj_idx","friend_name","ParticipantID","Sex","Word","Word2","value","success","timeout","failed_images","failed_audio","failed_video","user_agent","responses","item_order","radio_event_ids","radio_event_times","key_event_times","mouse_event_times","straightlining","zigzagging","honeypot","task_id","screen_id","time_stamp","response_type","key_press","avg_frame_time","center_x","center_y","person","word","valence","domain","math","correct_response","correct","status","identity","view_history","duration","Image","condition","question_order"
"6605","
   <p><div style='color:white; font-size: 25px'>您好，欢迎参加本次实验。</div></p>
   <p><div style='color:white; font-size: 25px'>为充分保障您的权利，请确保您已经知晓并同意《参与实验同意书》以及《数据公开知情同意书》。</div></p>
   <p><div style='color:white; font-size: 25px'>如果您未见过上述内容，请咨询实验员。</div></p>
   <p style='color:white; font-size: 25px'>如果您选择继续实验，则表示您已经清楚两份知情同意书的内容并同意。</p>
   <p><div style = ""color: red;font-size:30px;"">请确保您记得day0的实验编号，您将在本次实验输入该编号，若您忘记，请咨询实验员后作答。</div></p>
   <p> <div style = ""color: green""><按空格键至下页></div> </p>
   "," ","html-keyboard-response","0","6606","0.0-0.0","5","4","5","5","3","4","4","4","4","4","4","1","0","1","0","-1","1","1","0","4","4","3","2","3","3","3","3","4","4","6","7","5","6","4","4","6","7","7","5","5","4","3","4","3","5","4","3","5","4","3","5","5","3","4","5","3","4","4","4","3","4","4","4","5","5","6","6","6","7","3","6","2","5","5","7","5","3","4","697447755366268928","罗","271","Male","[""坏我"",""好我"",""坏他"",""好他""]","[""弱我"",""强我"",""弱他"",""强他""]","","","","","","","","","","","","","","","","","","","","","","","","","","","","","","","","","","","","","",""
"","","","call-function","1","6607","0.0-1.0-0.0","5","4","5","5","3","4","4","4","4","4","4","1","0","1","0","-1","1","1","0","4","4","3","2","3","3","3","3","4","4","6","7","5","6","4","4","6","7","7","5","5","4","3","4","3","5","4","3","5","4","3","5","5","3","4","5","3","4","4","4","3","4","4","4","5","5","6","6","6","7","3","6","2","5","5","7","5","3","4","697447755366268928","罗","271","Male","[""坏我"",""好我"",""坏他"",""好他""]","[""弱我"",""强我"",""弱他"",""强他""]","","","","","","","","","","","","","","","","","","","","","","","","","","","","","","","","","","","","","",""
"34612","","[{""name"":""Sex"",""value"":""0""},{""name"":""friend_name"",""value"":""罗""},{""name"":""ParticipantID"",""value"":""271""}]","survey-html-form","2","41220","0.0-1.0-1.0","5","4","5","5","3","4","4","4","4","4","4","1","0","1","0","-1","1","1","0","4","4","3","2","3","3","3","3","4","4","6","7","5","6","4","4","6","7","7","5","5","4","3","4","3","5","4","3","5","4","3","5","5","3","4","5","3","4","4","4","3","4","4","4","5","5","6","6","6","7","3","6","2","5","5","7","5","3","4","697447755366268928","罗","271","Male","[""坏我"",""好我"",""坏他"",""好他""]","[""弱我"",""强我"",""弱他"",""强他""]","","","","","","","","","","","","","","","","","","","","","","","","","","","","","","","","","","","","","",""
"","","","preload","3","41473","0.0-2.0","5","4","5","5","3","4","4","4","4","4","4","1","0","1","0","-1","1","1","0","4","4","3","2","3","3","3","3","4","4","6","7","5","6","4","4","6","7","7","5","5","4","3","4","3","5","4","3","5","4","3","5","5","3","4","5","3","4","4","4","3","4","4","4","5","5","6","6","6","7","3","6","2","5","5","7","5","3","4","697447755366268928","罗","271","Male","[""坏我"",""好我"",""坏他"",""好他""]","[""弱我"",""强我"",""弱他"",""强他""]","","true","false","[]","[]","[]","","","","","","","","","","","","","","","","","","","","","","","","","","","","","","","",""
"","","","fullscreen","4","44370","0.0-3.0","5","4","5","5","3","4","4","4","4","4","4","1","0","1","0","-1","1","1","0","4","4","3","2","3","3","3","3","4","4","6","7","5","6","4","4","6","7","7","5","5","4","3","4","3","5","4","3","5","4","3","5","5","3","4","5","3","4","4","4","3","4","4","4","5","5","6","6","6","7","3","6","2","5","5","7","5","3","4","697447755366268928","罗","271","Male","[""坏我"",""好我"",""坏他"",""好他""]","[""弱我"",""强我"",""弱他"",""强他""]","","true","","","","","{}","","","","","","","","","","","","","","","","","","","","","","","","","","","","","","",""
"18950","","{""Q01"":""5"",""Q02"":""4"",""Q03"":""5"",""Q04"":""5"",""Q05"":""3""}","survey-template","5","63322","0.0-4.0","5","4","5","5","3","4","4","4","4","4","4","1","0","1","0","-1","1","1","0","4","4","3","2","3","3","3","3","4","4","6","7","5","6","4","4","6","7","7","5","5","4","3","4","3","5","4","3","5","4","3","5","5","3","4","5","3","4","4","4","3","4","4","4","5","5","6","6","6","7","3","6","2","5","5","7","5","3","4","697447755366268928","罗","271","Male","[""坏我"",""好我"",""坏他"",""好他""]","[""弱我"",""强我"",""弱他"",""强他""]","","","","","","","","{""Q01"":""5"",""Q02"":""4"",""Q03"":""5"",""Q04"":""5"",""Q05"":""3""}","[0,1,2,3,4]","[""Q01"",""Q02"",""Q03"",""Q04"",""Q05""]","[5972.899999999441,7282.799999999814,9399.399999999441,14589.200000000186,17561.099999999627]","[]","[5972.899999999441,7282.799999999814,9399.399999999441,14589.200000000186,17561.099999999627,18949.099999999627]","0.6","0.5","0","","","","","","","","","","","","","","","","","","","","","",""
"47616.39999999944","","{""Q01"":""4"",""Q02"":""4"",""Q03"":""4"",""Q04"":""4"",""Q05"":""4"",""Q06"":""4""}","survey-template","6","110941","0.0-5.0","5","4","5","5","3","4","4","4","4","4","4","1","0","1","0","-1","1","1","0","4","4","3","2","3","3","3","3","4","4","6","7","5","6","4","4","6","7","7","5","5","4","3","4","3","5","4","3","5","4","3","5","5","3","4","5","3","4","4","4","3","4","4","4","5","5","6","6","6","7","3","6","2","5","5","7","5","3","4","697447755366268928","罗","271","Male","[""坏我"",""好我"",""坏他"",""好他""]","[""弱我"",""强我"",""弱他"",""强他""]","","","","","","","","{""Q01"":""4"",""Q02"":""4"",""Q03"":""4"",""Q04"":""4"",""Q05"":""4"",""Q06"":""4""}","[0,1,2,3,4,5]","[""Q01"",""Q01"",""Q02"",""Q03"",""Q04"",""Q05"",""Q06""]","[13354.299999999814,15644.399999999441,24700.299999999814,28614.700000000186,33797.59999999963,43051.799999999814,47018]","[]","[13354.299999999814,15644.399999999441,24700.299999999814,28614.700000000186,33797.59999999963,43051.799999999814,47018,47615.799999999814]","0.5","0","0","","","","","","","","","","","","","","","","","","","","","",""
"97673.90000000037","","{""Q01"":""1"",""Q02"":""0"",""Q03"":""1"",""Q04"":""0"",""Q05"":""-1"",""Q06"":""1"",""Q07"":""1"",""Q08"":""0""}","survey-template","7","208617","0.0-6.0","5","4","5","5","3","4","4","4","4","4","4","1","0","1","0","-1","1","1","0","4","4","3","2","3","3","3","3","4","4","6","7","5","6","4","4","6","7","7","5","5","4","3","4","3","5","4","3","5","4","3","5","5","3","4","5","3","4","4","4","3","4","4","4","5","5","6","6","6","7","3","6","2","5","5","7","5","3","4","697447755366268928","罗","271","Male","[""坏我"",""好我"",""坏他"",""好他""]","[""弱我"",""强我"",""弱他"",""强他""]","","","","","","","","{""Q01"":""1"",""Q02"":""0"",""Q03"":""1"",""Q04"":""0"",""Q05"":""-1"",""Q06"":""1"",""Q07"":""1"",""Q08"":""0""}","[0,1,2,3,4,5,6,7]","[""Q01"",""Q02"",""Q03"",""Q04"",""Q05"",""Q06"",""Q07"",""Q08""]","[41165.09999999963,54563.09999999963,63345.40000000037,71144.79999999981,76750.79999999981,79804.90000000037,93023.09999999963,96885]","[]","[41165.09999999963,54563.09999999963,63345.40000000037,71144.79999999981,76750.79999999981,79804.90000000037,93023.09999999963,96885,97673.09999999963]","0.5","0.7142857142857143","0","","","","","","","","","","","","","","","","","","","","","",""
"80871","
    <p><div style='color:white;font-size:35px; line-height:20px;'>词汇评估任务</div></p><br>
    <p><div style='color:white;font-size:25px; line-height:20px;'>请再次回忆该亲密的朋友，你们至少2年前就认识了，并且最近2年经常见面。</div></p>
    <p><div style='color:white;font-size:25px; line-height:20px;'>在本实验中，您将会看到一些形容词。</div></p>
    <p><div style='color:yellow;font-size:25px; line-height:20px;'>您的任务是判断这些形容词是否符合对您自己或您的朋友的描述。</div></p><p style='font-size:35px'>符合按<span style=""color:lightgreen""> j 键</span>，不符合按<span style=""color:red""> f 键</span></p>","0","html-button-response","8","289491","0.0-7.0-0.0","5","4","5","5","3","4","4","4","4","4","4","1","0","1","0","-1","1","1","0","4","4","3","2","3","3","3","3","4","4","6","7","5","6","4","4","6","7","7","5","5","4","3","4","3","5","4","3","5","4","3","5","5","3","4","5","3","4","4","4","3","4","4","4","5","5","6","6","6","7","3","6","2","5","5","7","5","3","4","697447755366268928","罗","271","Male","[""坏我"",""好我"",""坏他"",""好他""]","[""弱我"",""强我"",""弱他"",""强他""]","","","","","","","","","","","","","","","","","SRET_EW","EW_instructions","Sat Nov 25 2023 12:28:02 GMT+0800 (中国标准时间)","","","","","","","","","","","","","","","","","","",""
"1366","","f","psychophysics","9","291860","0.0-7.0-1.0-0.0","5","4","5","5","3","4","4","4","4","4","4","1","0","1","0","-1","1","1","0","4","4","3","2","3","3","3","3","4","4","6","7","5","6","4","4","6","7","7","5","5","4","3","4","3","5","4","3","5","4","3","5","5","3","4","5","3","4","4","4","3","4","4","4","5","5","6","6","6","7","3","6","2","5","5","7","5","3","4","697447755366268928","罗","271","Male","[""坏我"",""好我"",""坏他"",""好他""]","[""弱我"",""强我"",""弱他"",""强他""]","","","","","","","","no","","","","","","","","","SRET_EW","EW_practice","","key","f","16.66653521126751","640","396","自己","刻板","Negative","ability","","","","","","","","","",""
"632","","j","psychophysics","10","293494","0.0-7.0-1.0-0.1","5","4","5","5","3","4","4","4","4","4","4","1","0","1","0","-1","1","1","0","4","4","3","2","3","3","3","3","4","4","6","7","5","6","4","4","6","7","7","5","5","4","3","4","3","5","4","3","5","4","3","5","5","3","4","5","3","4","4","4","3","4","4","4","5","5","6","6","6","7","3","6","2","5","5","7","5","3","4","697447755366268928","罗","271","Male","[""坏我"",""好我"",""坏他"",""好他""]","[""弱我"",""强我"",""弱他"",""强他""]","","","","","","","","yes","","","","","","","","","SRET_EW","EW_practice","","key","j","16.66648979591828","640","396","朋友","忠实","Positive","morality","","","","","","","","","",""
"702","","f","psychophysics","11","295198","0.0-7.0-1.0-0.2","5","4","5","5","3","4","4","4","4","4","4","1","0","1","0","-1","1","1","0","4","4","3","2","3","3","3","3","4","4","6","7","5","6","4","4","6","7","7","5","5","4","3","4","3","5","4","3","5","4","3","5","5","3","4","5","3","4","4","4","3","4","4","4","5","5","6","6","6","7","3","6","2","5","5","7","5","3","4","697447755366268928","罗","271","Male","[""坏我"",""好我"",""坏他"",""好他""]","[""弱我"",""强我"",""弱他"",""强他""]","","","","","","","","no","","","","","","","","","SRET_EW","EW_practice","","key","f","16.666227722772753","640","396","朋友","徇私","Negative","morality","","","","","","","","","",""
"690","","j","psychophysics","12","296888","0.0-7.0-1.0-0.3","5","4","5","5","3","4","4","4","4","4","4","1","0","1","0","-1","1","1","0","4","4","3","2","3","3","3","3","4","4","6","7","5","6","4","4","6","7","7","5","5","4","3","4","3","5","4","3","5","4","3","5","5","3","4","5","3","4","4","4","3","4","4","4","5","5","6","6","6","7","3","6","2","5","5","7","5","3","4","697447755366268928","罗","271","Male","[""坏我"",""好我"",""坏他"",""好他""]","[""弱我"",""强我"",""弱他"",""强他""]","","","","","","","","yes","","","","","","","","","SRET_EW","EW_practice","","key","j","16.66359999999986","640","396","自己","严谨","Positive","ability","","","","","","","","","",""
"3985","
    <p><div style='color:white;font-size:35px; line-height:20px;'>请您再次阅读实验要求</div></p><br>
    <p><div style='color:white;font-size:25px; line-height:20px;'>请回忆某一个亲密的朋友，你们至少2年前就认识了，并且最近2年经常见面。</div></p>
    <p><div style='color:white;font-size:25px; line-height:20px;'>在本实验中，您将会看到一些形容词。</div></p>
    <p><div style='color:yellow;font-size:25px; line-height:20px;'>您的任务是判断这些形容词是否符合对您自己或您的朋友的描述。</div></p>
    <p><div class='footer' style='font-size:25px; line-height:20px;'>如果对本实验还有不清楚之处，请立即向实验员咨询。</p><p style='font-size:25px; line-height:20px;'>如果您明白了规则：</p><p style='font-size:22px; line-height:20px;'>请按 继续 进入正式实验</p>
    </div>
    <p style='font-size:35px'>符合按<span style=""color:lightgreen""> j 键</span>，不符合按<span style=""color:red""> f 键</span></p>","0","html-button-response","13","300874","0.0-7.0-2.0","5","4","5","5","3","4","4","4","4","4","4","1","0","1","0","-1","1","1","0","4","4","3","2","3","3","3","3","4","4","6","7","5","6","4","4","6","7","7","5","5","4","3","4","3","5","4","3","5","4","3","5","5","3","4","5","3","4","4","4","3","4","4","4","5","5","6","6","6","7","3","6","2","5","5","7","5","3","4","697447755366268928","罗","271","Male","[""坏我"",""好我"",""坏他"",""好他""]","[""弱我"",""强我"",""弱他"",""强他""]","","","","","","","","","","","","","","","","","SRET_EW","prac_instructions","Sat Nov 25 2023 12:28:02 GMT+0800 (中国标准时间)","","","","","","","","","","","","","","","","","","",""
"1005","","j","psychophysics","14","302880","0.0-7.0-3.0-0.0","5","4","5","5","3","4","4","4","4","4","4","1","0","1","0","-1","1","1","0","4","4","3","2","3","3","3","3","4","4","6","7","5","6","4","4","6","7","7","5","5","4","3","4","3","5","4","3","5","4","3","5","5","3","4","5","3","4","4","4","3","4","4","4","5","5","6","6","6","7","3","6","2","5","5","7","5","3","4","697447755366268928","罗","271","Male","[""坏我"",""好我"",""坏他"",""好他""]","[""弱我"",""强我"",""弱他"",""强他""]","","","","","","","","yes","","","","","","","","","SRET","EW_formal","","key","j","16.663008264462707","640","396","朋友","迷糊","Negative","ability","","","","","","","","","",""
"657","","f","psychophysics","15","304538","0.0-7.0-3.0-0.1","5","4","5","5","3","4","4","4","4","4","4","1","0","1","0","-1","1","1","0","4","4","3","2","3","3","3","3","4","4","6","7","5","6","4","4","6","7","7","5","5","4","3","4","3","5","4","3","5","4","3","5","5","3","4","5","3","4","4","4","3","4","4","4","5","5","6","6","6","7","3","6","2","5","5","7","5","3","4","697447755366268928","罗","271","Male","[""坏我"",""好我"",""坏他"",""好他""]","[""弱我"",""强我"",""弱他"",""强他""]","","","","","","","","no","","","","","","","","","SRET","EW_formal","","key","f","16.666510204081924","640","396","自己","坚贞","Positive","morality","","","","","","","","","",""
"923","","f","psychophysics","16","306462","0.0-7.0-3.0-0.2","5","4","5","5","3","4","4","4","4","4","4","1","0","1","0","-1","1","1","0","4","4","3","2","3","3","3","3","4","4","6","7","5","6","4","4","6","7","7","5","5","4","3","4","3","5","4","3","5","4","3","5","5","3","4","5","3","4","4","4","3","4","4","4","5","5","6","6","6","7","3","6","2","5","5","7","5","3","4","697447755366268928","罗","271","Male","[""坏我"",""好我"",""坏他"",""好他""]","[""弱我"",""强我"",""弱他"",""强他""]","","","","","","","","no","","","","","","","","","SRET","EW_formal","","key","f","16.666104347826206","640","396","自己","说谎","Negative","morality","","","","","","","","","",""
"922","","f","psychophysics","17","308385","0.0-7.0-3.0-0.3","5","4","5","5","3","4","4","4","4","4","4","1","0","1","0","-1","1","1","0","4","4","3","2","3","3","3","3","4","4","6","7","5","6","4","4","6","7","7","5","5","4","3","4","3","5","4","3","5","4","3","5","5","3","4","5","3","4","4","4","3","4","4","4","5","5","6","6","6","7","3","6","2","5","5","7","5","3","4","697447755366268928","罗","271","Male","[""坏我"",""好我"",""坏他"",""好他""]","[""弱我"",""强我"",""弱他"",""强他""]","","","","","","","","no","","","","","","","","","SRET","EW_formal","","key","f","16.666061403508618","640","396","朋友","务实","Positive","ability","","","","","","","","","",""
"943","","j","psychophysics","18","310330","0.0-7.0-3.0-0.4","5","4","5","5","3","4","4","4","4","4","4","1","0","1","0","-1","1","1","0","4","4","3","2","3","3","3","3","4","4","6","7","5","6","4","4","6","7","7","5","5","4","3","4","3","5","4","3","5","4","3","5","5","3","4","5","3","4","4","4","3","4","4","4","5","5","6","6","6","7","3","6","2","5","5","7","5","3","4","697447755366268928","罗","271","Male","[""坏我"",""好我"",""坏他"",""好他""]","[""弱我"",""强我"",""弱他"",""强他""]","","","","","","","","yes","","","","","","","","","SRET","EW_formal","","key","j","16.666681034482938","640","396","朋友","慷慨","Positive","morality","","","","","","","","","",""
"757","","f","psychophysics","19","312089","0.0-7.0-3.0-0.5","5","4","5","5","3","4","4","4","4","4","4","1","0","1","0","-1","1","1","0","4","4","3","2","3","3","3","3","4","4","6","7","5","6","4","4","6","7","7","5","5","4","3","4","3","5","4","3","5","4","3","5","5","3","4","5","3","4","4","4","3","4","4","4","5","5","6","6","6","7","3","6","2","5","5","7","5","3","4","697447755366268928","罗","271","Male","[""坏我"",""好我"",""坏他"",""好他""]","[""弱我"",""强我"",""弱他"",""强他""]","","","","","","","","no","","","","","","","","","SRET","EW_formal","","key","f","16.66647115384638","640","396","朋友","无敌","Positive","ability","","","","","","","","","",""
"766","","f","psychophysics","20","313857","0.0-7.0-3.0-0.6","5","4","5","5","3","4","4","4","4","4","4","1","0","1","0","-1","1","1","0","4","4","3","2","3","3","3","3","4","4","6","7","5","6","4","4","6","7","7","5","5","4","3","4","3","5","4","3","5","4","3","5","5","3","4","5","3","4","4","4","3","4","4","4","5","5","6","6","6","7","3","6","2","5","5","7","5","3","4","697447755366268928","罗","271","Male","[""坏我"",""好我"",""坏他"",""好他""]","[""弱我"",""强我"",""弱他"",""强他""]","","","","","","","","no","","","","","","","","","SRET","EW_formal","","key","f","16.67186666666641","640","396","自己","高尚","Positive","morality","","","","","","","","","",""
"2902","","j","psychophysics","21","317760","0.0-7.0-3.0-0.7","5","4","5","5","3","4","4","4","4","4","4","1","0","1","0","-1","1","1","0","4","4","3","2","3","3","3","3","4","4","6","7","5","6","4","4","6","7","7","5","5","4","3","4","3","5","4","3","5","4","3","5","5","3","4","5","3","4","4","4","3","4","4","4","5","5","6","6","6","7","3","6","2","5","5","7","5","3","4","697447755366268928","罗","271","Male","[""坏我"",""好我"",""坏他"",""好他""]","[""弱我"",""强我"",""弱他"",""强他""]","","","","","","","","yes","","","","","","","","","SRET","EW_formal","","key","j","16.666487179487113","640","396","朋友","聪明","Positive","ability","","","","","","","","","",""
"1098","","j","psychophysics","22","319859","0.0-7.0-3.0-0.8","5","4","5","5","3","4","4","4","4","4","4","1","0","1","0","-1","1","1","0","4","4","3","2","3","3","3","3","4","4","6","7","5","6","4","4","6","7","7","5","5","4","3","4","3","5","4","3","5","4","3","5","5","3","4","5","3","4","4","4","3","4","4","4","5","5","6","6","6","7","3","6","2","5","5","7","5","3","4","697447755366268928","罗","271","Male","[""坏我"",""好我"",""坏他"",""好他""]","[""弱我"",""强我"",""弱他"",""强他""]","","","","","","","","yes","","","","","","","","","SRET","EW_formal","","key","j","16.666217741935753","640","396","朋友","拖拉","Negative","ability","","","","","","","","","",""
"2701","","f","psychophysics","23","323563","0.0-7.0-3.0-0.9","5","4","5","5","3","4","4","4","4","4","4","1","0","1","0","-1","1","1","0","4","4","3","2","3","3","3","3","4","4","6","7","5","6","4","4","6","7","7","5","5","4","3","4","3","5","4","3","5","4","3","5","5","3","4","5","3","4","4","4","3","4","4","4","5","5","6","6","6","7","3","6","2","5","5","7","5","3","4","697447755366268928","罗","271","Male","[""坏我"",""好我"",""坏他"",""好他""]","[""弱我"",""强我"",""弱他"",""强他""]","","","","","","","","no","","","","","","","","","SRET","EW_formal","","key","f","16.666490990991036","640","396","自己","依靠","Negative","ability","","","","","","","","","",""
"4437","","j","psychophysics","24","329001","0.0-7.0-3.0-0.10","5","4","5","5","3","4","4","4","4","4","4","1","0","1","0","-1","1","1","0","4","4","3","2","3","3","3","3","4","4","6","7","5","6","4","4","6","7","7","5","5","4","3","4","3","5","4","3","5","4","3","5","5","3","4","5","3","4","4","4","3","4","4","4","5","5","6","6","6","7","3","6","2","5","5","7","5","3","4","697447755366268928","罗","271","Male","[""坏我"",""好我"",""坏他"",""好他""]","[""弱我"",""强我"",""弱他"",""强他""]","","","","","","","","yes","","","","","","","","","SRET","EW_formal","","key","j","16.666403076923093","640","396","自己","奉献","Positive","morality","","","","","","","","","",""
"834","","f","psychophysics","25","330836","0.0-7.0-3.0-0.11","5","4","5","5","3","4","4","4","4","4","4","1","0","1","0","-1","1","1","0","4","4","3","2","3","3","3","3","4","4","6","7","5","6","4","4","6","7","7","5","5","4","3","4","3","5","4","3","5","4","3","5","5","3","4","5","3","4","4","4","3","4","4","4","5","5","6","6","6","7","3","6","2","5","5","7","5","3","4","697447755366268928","罗","271","Male","[""坏我"",""好我"",""坏他"",""好他""]","[""弱我"",""强我"",""弱他"",""强他""]","","","","","","","","no","","","","","","","","","SRET","EW_formal","","key","f","16.67012844036692","640","396","自己","龌龊","Negative","morality","","","","","","","","","",""
"1376","","j","psychophysics","26","333213","0.0-7.0-3.0-0.12","5","4","5","5","3","4","4","4","4","4","4","1","0","1","0","-1","1","1","0","4","4","3","2","3","3","3","3","4","4","6","7","5","6","4","4","6","7","7","5","5","4","3","4","3","5","4","3","5","4","3","5","5","3","4","5","3","4","4","4","3","4","4","4","5","5","6","6","6","7","3","6","2","5","5","7","5","3","4","697447755366268928","罗","271","Male","[""坏我"",""好我"",""坏他"",""好他""]","[""弱我"",""强我"",""弱他"",""强他""]","","","","","","","","yes","","","","","","","","","SRET","EW_formal","","key","j","16.668549295774707","640","396","朋友","细心","Positive","ability","","","","","","","","","",""
"966","","j","psychophysics","27","335181","0.0-7.0-3.0-0.13","5","4","5","5","3","4","4","4","4","4","4","1","0","1","0","-1","1","1","0","4","4","3","2","3","3","3","3","4","4","6","7","5","6","4","4","6","7","7","5","5","4","3","4","3","5","4","3","5","4","3","5","5","3","4","5","3","4","4","4","3","4","4","4","5","5","6","6","6","7","3","6","2","5","5","7","5","3","4","697447755366268928","罗","271","Male","[""坏我"",""好我"",""坏他"",""好他""]","[""弱我"",""强我"",""弱他"",""强他""]","","","","","","","","yes","","","","","","","","","SRET","EW_formal","","key","j","16.666247863247374","640","396","自己","爱国","Positive","morality","","","","","","","","","",""
"868","","f","psychophysics","28","337049","0.0-7.0-3.0-0.14","5","4","5","5","3","4","4","4","4","4","4","1","0","1","0","-1","1","1","0","4","4","3","2","3","3","3","3","4","4","6","7","5","6","4","4","6","7","7","5","5","4","3","4","3","5","4","3","5","4","3","5","5","3","4","5","3","4","4","4","3","4","4","4","5","5","6","6","6","7","3","6","2","5","5","7","5","3","4","697447755366268928","罗","271","Male","[""坏我"",""好我"",""坏他"",""好他""]","[""弱我"",""强我"",""弱他"",""强他""]","","","","","","","","no","","","","","","","","","SRET","EW_formal","","key","f","16.66621621621632","640","396","朋友","阴毒","Negative","morality","","","","","","","","","",""
"789","","f","psychophysics","29","338839","0.0-7.0-3.0-0.15","5","4","5","5","3","4","4","4","4","4","4","1","0","1","0","-1","1","1","0","4","4","3","2","3","3","3","3","4","4","6","7","5","6","4","4","6","7","7","5","5","4","3","4","3","5","4","3","5","4","3","5","5","3","4","5","3","4","4","4","3","4","4","4","5","5","6","6","6","7","3","6","2","5","5","7","5","3","4","697447755366268928","罗","271","Male","[""坏我"",""好我"",""坏他"",""好他""]","[""弱我"",""强我"",""弱他"",""强他""]","","","","","","","","no","","","","","","","","","SRET","EW_formal","","key","f","16.666386792452716","640","396","朋友","浅薄","Negative","ability","","","","","","","","","",""
"746","","f","psychophysics","30","340587","0.0-7.0-3.0-0.16","5","4","5","5","3","4","4","4","4","4","4","1","0","1","0","-1","1","1","0","4","4","3","2","3","3","3","3","4","4","6","7","5","6","4","4","6","7","7","5","5","4","3","4","3","5","4","3","5","4","3","5","5","3","4","5","3","4","4","4","3","4","4","4","5","5","6","6","6","7","3","6","2","5","5","7","5","3","4","697447755366268928","罗","271","Male","[""坏我"",""好我"",""坏他"",""好他""]","[""弱我"",""强我"",""弱他"",""强他""]","","","","","","","","no","","","","","","","","","SRET","EW_formal","","key","f","16.66625961538487","640","396","自己","小人","Negative","morality","","","","","","","","","",""
"823","","f","psychophysics","31","342411","0.0-7.0-3.0-0.17","5","4","5","5","3","4","4","4","4","4","4","1","0","1","0","-1","1","1","0","4","4","3","2","3","3","3","3","4","4","6","7","5","6","4","4","6","7","7","5","5","4","3","4","3","5","4","3","5","4","3","5","5","3","4","5","3","4","4","4","3","4","4","4","5","5","6","6","6","7","3","6","2","5","5","7","5","3","4","697447755366268928","罗","271","Male","[""坏我"",""好我"",""坏他"",""好他""]","[""弱我"",""强我"",""弱他"",""强他""]","","","","","","","","no","","","","","","","","","SRET","EW_formal","","key","f","16.666100917431557","640","396","朋友","黑心","Negative","morality","","","","","","","","","",""
"2149","","f","psychophysics","32","345561","0.0-7.0-3.0-0.18","5","4","5","5","3","4","4","4","4","4","4","1","0","1","0","-1","1","1","0","4","4","3","2","3","3","3","3","4","4","6","7","5","6","4","4","6","7","7","5","5","4","3","4","3","5","4","3","5","4","3","5","5","3","4","5","3","4","4","4","3","4","4","4","5","5","6","6","6","7","3","6","2","5","5","7","5","3","4","697447755366268928","罗","271","Male","[""坏我"",""好我"",""坏他"",""好他""]","[""弱我"",""强我"",""弱他"",""强他""]","","","","","","","","no","","","","","","","","","SRET","EW_formal","","key","f","16.666638297872232","640","396","自己","骁勇","Positive","ability","","","","","","","","","",""
"955","","j","psychophysics","33","347518","0.0-7.0-3.0-0.19","5","4","5","5","3","4","4","4","4","4","4","1","0","1","0","-1","1","1","0","4","4","3","2","3","3","3","3","4","4","6","7","5","6","4","4","6","7","7","5","5","4","3","4","3","5","4","3","5","4","3","5","5","3","4","5","3","4","4","4","3","4","4","4","5","5","6","6","6","7","3","6","2","5","5","7","5","3","4","697447755366268928","罗","271","Male","[""坏我"",""好我"",""坏他"",""好他""]","[""弱我"",""强我"",""弱他"",""强他""]","","","","","","","","yes","","","","","","","","","SRET","EW_formal","","key","j","16.666146551724022","640","396","自己","守法","Positive","morality","","","","","","","","","",""
"746","","f","psychophysics","34","349265","0.0-7.0-3.0-0.20","5","4","5","5","3","4","4","4","4","4","4","1","0","1","0","-1","1","1","0","4","4","3","2","3","3","3","3","4","4","6","7","5","6","4","4","6","7","7","5","5","4","3","4","3","5","4","3","5","4","3","5","5","3","4","5","3","4","4","4","3","4","4","4","5","5","6","6","6","7","3","6","2","5","5","7","5","3","4","697447755366268928","罗","271","Male","[""坏我"",""好我"",""坏他"",""好他""]","[""弱我"",""强我"",""弱他"",""强他""]","","","","","","","","no","","","","","","","","","SRET","EW_formal","","key","f","16.666192307692164","640","396","朋友","贪腐","Negative","morality","","","","","","","","","",""
"933","","j","psychophysics","35","351198","0.0-7.0-3.0-0.21","5","4","5","5","3","4","4","4","4","4","4","1","0","1","0","-1","1","1","0","4","4","3","2","3","3","3","3","4","4","6","7","5","6","4","4","6","7","7","5","5","4","3","4","3","5","4","3","5","4","3","5","5","3","4","5","3","4","4","4","3","4","4","4","5","5","6","6","6","7","3","6","2","5","5","7","5","3","4","697447755366268928","罗","271","Male","[""坏我"",""好我"",""坏他"",""好他""]","[""弱我"",""强我"",""弱他"",""强他""]","","","","","","","","yes","","","","","","","","","SRET","EW_formal","","key","j","16.66926086956544","640","396","朋友","专注","Positive","ability","","","","","","","","","",""
"745","","f","psychophysics","36","352945","0.0-7.0-3.0-0.22","5","4","5","5","3","4","4","4","4","4","4","1","0","1","0","-1","1","1","0","4","4","3","2","3","3","3","3","4","4","6","7","5","6","4","4","6","7","7","5","5","4","3","4","3","5","4","3","5","4","3","5","5","3","4","5","3","4","4","4","3","4","4","4","5","5","6","6","6","7","3","6","2","5","5","7","5","3","4","697447755366268928","罗","271","Male","[""坏我"",""好我"",""坏他"",""好他""]","[""弱我"",""强我"",""弱他"",""强他""]","","","","","","","","no","","","","","","","","","SRET","EW_formal","","key","f","16.6662211538457","640","396","自己","废物","Negative","ability","","","","","","","","","",""
"967","","j","psychophysics","37","354914","0.0-7.0-3.0-0.23","5","4","5","5","3","4","4","4","4","4","4","1","0","1","0","-1","1","1","0","4","4","3","2","3","3","3","3","4","4","6","7","5","6","4","4","6","7","7","5","5","4","3","4","3","5","4","3","5","4","3","5","5","3","4","5","3","4","4","4","3","4","4","4","5","5","6","6","6","7","3","6","2","5","5","7","5","3","4","697447755366268928","罗","271","Male","[""坏我"",""好我"",""坏他"",""好他""]","[""弱我"",""强我"",""弱他"",""强他""]","","","","","","","","yes","","","","","","","","","SRET","EW_formal","","key","j","16.666264957264783","640","396","自己","厚道","Positive","morality","","","","","","","","","",""
"2127","","j","psychophysics","38","358042","0.0-7.0-3.0-0.24","5","4","5","5","3","4","4","4","4","4","4","1","0","1","0","-1","1","1","0","4","4","3","2","3","3","3","3","4","4","6","7","5","6","4","4","6","7","7","5","5","4","3","4","3","5","4","3","5","4","3","5","5","3","4","5","3","4","4","4","3","4","4","4","5","5","6","6","6","7","3","6","2","5","5","7","5","3","4","697447755366268928","罗","271","Male","[""坏我"",""好我"",""坏他"",""好他""]","[""弱我"",""强我"",""弱他"",""强他""]","","","","","","","","yes","","","","","","","","","SRET","EW_formal","","key","j","16.666333333333462","640","396","朋友","智慧","Positive","ability","","","","","","","","","",""
"2150","","f","psychophysics","39","361193","0.0-7.0-3.0-0.25","5","4","5","5","3","4","4","4","4","4","4","1","0","1","0","-1","1","1","0","4","4","3","2","3","3","3","3","4","4","6","7","5","6","4","4","6","7","7","5","5","4","3","4","3","5","4","3","5","4","3","5","5","3","4","5","3","4","4","4","3","4","4","4","5","5","6","6","6","7","3","6","2","5","5","7","5","3","4","697447755366268928","罗","271","Male","[""坏我"",""好我"",""坏他"",""好他""]","[""弱我"",""强我"",""弱他"",""强他""]","","","","","","","","no","","","","","","","","","SRET","EW_formal","","key","f","16.666494680850946","640","396","朋友","思辨","Positive","ability","","","","","","","","","",""
"1221","","f","psychophysics","40","363414","0.0-7.0-3.0-0.26","5","4","5","5","3","4","4","4","4","4","4","1","0","1","0","-1","1","1","0","4","4","3","2","3","3","3","3","4","4","6","7","5","6","4","4","6","7","7","5","5","4","3","4","3","5","4","3","5","4","3","5","5","3","4","5","3","4","4","4","3","4","4","4","5","5","6","6","6","7","3","6","2","5","5","7","5","3","4","697447755366268928","罗","271","Male","[""坏我"",""好我"",""坏他"",""好他""]","[""弱我"",""强我"",""弱他"",""强他""]","","","","","","","","no","","","","","","","","","SRET","EW_formal","","key","f","16.66645864661673","640","396","朋友","文明","Positive","morality","","","","","","","","","",""
"2470","","j","psychophysics","41","366885","0.0-7.0-3.0-0.27","5","4","5","5","3","4","4","4","4","4","4","1","0","1","0","-1","1","1","0","4","4","3","2","3","3","3","3","4","4","6","7","5","6","4","4","6","7","7","5","5","4","3","4","3","5","4","3","5","4","3","5","5","3","4","5","3","4","4","4","3","4","4","4","5","5","6","6","6","7","3","6","2","5","5","7","5","3","4","697447755366268928","罗","271","Male","[""坏我"",""好我"",""坏他"",""好他""]","[""弱我"",""强我"",""弱他"",""强他""]","","","","","","","","yes","","","","","","","","","SRET","EW_formal","","key","j","16.666381642512036","640","396","朋友","独断","Negative","ability","","","","","","","","","",""
"1497","","f","psychophysics","42","369384","0.0-7.0-3.0-0.28","5","4","5","5","3","4","4","4","4","4","4","1","0","1","0","-1","1","1","0","4","4","3","2","3","3","3","3","4","4","6","7","5","6","4","4","6","7","7","5","5","4","3","4","3","5","4","3","5","4","3","5","5","3","4","5","3","4","4","4","3","4","4","4","5","5","6","6","6","7","3","6","2","5","5","7","5","3","4","697447755366268928","罗","271","Male","[""坏我"",""好我"",""坏他"",""好他""]","[""弱我"",""强我"",""弱他"",""强他""]","","","","","","","","no","","","","","","","","","SRET","EW_formal","","key","f","16.667570469798616","640","396","自己","粗心","Negative","ability","","","","","","","","","",""
"1894","","f","psychophysics","43","372279","0.0-7.0-3.0-0.29","5","4","5","5","3","4","4","4","4","4","4","1","0","1","0","-1","1","1","0","4","4","3","2","3","3","3","3","4","4","6","7","5","6","4","4","6","7","7","5","5","4","3","4","3","5","4","3","5","4","3","5","5","3","4","5","3","4","4","4","3","4","4","4","5","5","6","6","6","7","3","6","2","5","5","7","5","3","4","697447755366268928","罗","271","Male","[""坏我"",""好我"",""坏他"",""好他""]","[""弱我"",""强我"",""弱他"",""强他""]","","","","","","","","no","","","","","","","","","SRET","EW_formal","","key","f","16.66646242774572","640","396","朋友","驽钝","Negative","ability","","","","","","","","","",""
"2260","","j","psychophysics","44","375540","0.0-7.0-3.0-0.30","5","4","5","5","3","4","4","4","4","4","4","1","0","1","0","-1","1","1","0","4","4","3","2","3","3","3","3","4","4","6","7","5","6","4","4","6","7","7","5","5","4","3","4","3","5","4","3","5","4","3","5","5","3","4","5","3","4","4","4","3","4","4","4","5","5","6","6","6","7","3","6","2","5","5","7","5","3","4","697447755366268928","罗","271","Male","[""坏我"",""好我"",""坏他"",""好他""]","[""弱我"",""强我"",""弱他"",""强他""]","","","","","","","","yes","","","","","","","","","SRET","EW_formal","","key","j","16.666417525773365","640","396","朋友","清廉","Positive","morality","","","","","","","","","",""
"1299","","f","psychophysics","45","377840","0.0-7.0-3.0-0.31","5","4","5","5","3","4","4","4","4","4","4","1","0","1","0","-1","1","1","0","4","4","3","2","3","3","3","3","4","4","6","7","5","6","4","4","6","7","7","5","5","4","3","4","3","5","4","3","5","4","3","5","5","3","4","5","3","4","4","4","3","4","4","4","5","5","6","6","6","7","3","6","2","5","5","7","5","3","4","697447755366268928","罗","271","Male","[""坏我"",""好我"",""坏他"",""好他""]","[""弱我"",""强我"",""弱他"",""强他""]","","","","","","","","no","","","","","","","","","SRET","EW_formal","","key","f","16.66880291970795","640","396","朋友","混账","Negative","morality","","","","","","","","","",""
"978","","f","psychophysics","46","379819","0.0-7.0-3.0-0.32","5","4","5","5","3","4","4","4","4","4","4","1","0","1","0","-1","1","1","0","4","4","3","2","3","3","3","3","4","4","6","7","5","6","4","4","6","7","7","5","5","4","3","4","3","5","4","3","5","4","3","5","5","3","4","5","3","4","4","4","3","4","4","4","5","5","6","6","6","7","3","6","2","5","5","7","5","3","4","697447755366268928","罗","271","Male","[""坏我"",""好我"",""坏他"",""好他""]","[""弱我"",""强我"",""弱他"",""强他""]","","","","","","","","no","","","","","","","","","SRET","EW_formal","","key","f","16.666322033898215","640","396","朋友","窝囊","Negative","ability","","","","","","","","","",""
"1231","","f","psychophysics","47","382051","0.0-7.0-3.0-0.33","5","4","5","5","3","4","4","4","4","4","4","1","0","1","0","-1","1","1","0","4","4","3","2","3","3","3","3","4","4","6","7","5","6","4","4","6","7","7","5","5","4","3","4","3","5","4","3","5","4","3","5","5","3","4","5","3","4","4","4","3","4","4","4","5","5","6","6","6","7","3","6","2","5","5","7","5","3","4","697447755366268928","罗","271","Male","[""坏我"",""好我"",""坏他"",""好他""]","[""弱我"",""强我"",""弱他"",""强他""]","","","","","","","","no","","","","","","","","","SRET","EW_formal","","key","f","16.66716541353389","640","396","自己","学霸","Positive","ability","","","","","","","","","",""
"845","","f","psychophysics","48","383898","0.0-7.0-3.0-0.34","5","4","5","5","3","4","4","4","4","4","4","1","0","1","0","-1","1","1","0","4","4","3","2","3","3","3","3","4","4","6","7","5","6","4","4","6","7","7","5","5","4","3","4","3","5","4","3","5","4","3","5","5","3","4","5","3","4","4","4","3","4","4","4","5","5","6","6","6","7","3","6","2","5","5","7","5","3","4","697447755366268928","罗","271","Male","[""坏我"",""好我"",""坏他"",""好他""]","[""弱我"",""强我"",""弱他"",""强他""]","","","","","","","","no","","","","","","","","","SRET","EW_formal","","key","f","16.666527272727002","640","396","自己","愚蠢","Negative","ability","","","","","","","","","",""
"1684","","f","psychophysics","49","386584","0.0-7.0-3.0-0.35","5","4","5","5","3","4","4","4","4","4","4","1","0","1","0","-1","1","1","0","4","4","3","2","3","3","3","3","4","4","6","7","5","6","4","4","6","7","7","5","5","4","3","4","3","5","4","3","5","4","3","5","5","3","4","5","3","4","4","4","3","4","4","4","5","5","6","6","6","7","3","6","2","5","5","7","5","3","4","697447755366268928","罗","271","Male","[""坏我"",""好我"",""坏他"",""好他""]","[""弱我"",""强我"",""弱他"",""强他""]","","","","","","","","no","","","","","","","","","SRET","EW_formal","","key","f","16.666325000000143","640","396","自己","无知","Negative","ability","","","","","","","","","",""
"3123","","f","psychophysics","50","390708","0.0-7.0-3.0-0.36","5","4","5","5","3","4","4","4","4","4","4","1","0","1","0","-1","1","1","0","4","4","3","2","3","3","3","3","4","4","6","7","5","6","4","4","6","7","7","5","5","4","3","4","3","5","4","3","5","4","3","5","5","3","4","5","3","4","4","4","3","4","4","4","5","5","6","6","6","7","3","6","2","5","5","7","5","3","4","697447755366268928","罗","271","Male","[""坏我"",""好我"",""坏他"",""好他""]","[""弱我"",""强我"",""弱他"",""强他""]","","","","","","","","no","","","","","","","","","SRET","EW_formal","","key","f","16.667784552845387","640","396","朋友","守时","Positive","morality","","","","","","","","","",""
"1309","","j","psychophysics","51","393018","0.0-7.0-3.0-0.37","5","4","5","5","3","4","4","4","4","4","4","1","0","1","0","-1","1","1","0","4","4","3","2","3","3","3","3","4","4","6","7","5","6","4","4","6","7","7","5","5","4","3","4","3","5","4","3","5","4","3","5","5","3","4","5","3","4","4","4","3","4","4","4","5","5","6","6","6","7","3","6","2","5","5","7","5","3","4","697447755366268928","罗","271","Male","[""坏我"",""好我"",""坏他"",""好他""]","[""弱我"",""强我"",""弱他"",""强他""]","","","","","","","","yes","","","","","","","","","SRET","EW_formal","","key","j","16.666463768116007","640","396","朋友","上进","Positive","ability","","","","","","","","","",""
"1065","","f","psychophysics","52","395084","0.0-7.0-3.0-0.38","5","4","5","5","3","4","4","4","4","4","4","1","0","1","0","-1","1","1","0","4","4","3","2","3","3","3","3","4","4","6","7","5","6","4","4","6","7","7","5","5","4","3","4","3","5","4","3","5","4","3","5","5","3","4","5","3","4","4","4","3","4","4","4","5","5","6","6","6","7","3","6","2","5","5","7","5","3","4","697447755366268928","罗","271","Male","[""坏我"",""好我"",""坏他"",""好他""]","[""弱我"",""强我"",""弱他"",""强他""]","","","","","","","","no","","","","","","","","","SRET","EW_formal","","key","f","16.666186991870322","640","396","自己","草率","Negative","ability","","","","","","","","","",""
"1464","","f","psychophysics","53","397549","0.0-7.0-3.0-0.39","5","4","5","5","3","4","4","4","4","4","4","1","0","1","0","-1","1","1","0","4","4","3","2","3","3","3","3","4","4","6","7","5","6","4","4","6","7","7","5","5","4","3","4","3","5","4","3","5","4","3","5","5","3","4","5","3","4","4","4","3","4","4","4","5","5","6","6","6","7","3","6","2","5","5","7","5","3","4","697447755366268928","罗","271","Male","[""坏我"",""好我"",""坏他"",""好他""]","[""弱我"",""强我"",""弱他"",""强他""]","","","","","","","","no","","","","","","","","","SRET","EW_formal","","key","f","16.666380952380845","640","396","朋友","利落","Positive","ability","","","","","","","","","",""
"1398","","f","psychophysics","54","399948","0.0-7.0-3.0-0.40","5","4","5","5","3","4","4","4","4","4","4","1","0","1","0","-1","1","1","0","4","4","3","2","3","3","3","3","4","4","6","7","5","6","4","4","6","7","7","5","5","4","3","4","3","5","4","3","5","4","3","5","5","3","4","5","3","4","4","4","3","4","4","4","5","5","6","6","6","7","3","6","2","5","5","7","5","3","4","697447755366268928","罗","271","Male","[""坏我"",""好我"",""坏他"",""好他""]","[""弱我"",""强我"",""弱他"",""强他""]","","","","","","","","no","","","","","","","","","SRET","EW_formal","","key","f","16.66630069930041","640","396","朋友","无助","Negative","ability","","","","","","","","","",""
"1234","","j","psychophysics","55","402183","0.0-7.0-3.0-0.41","5","4","5","5","3","4","4","4","4","4","4","1","0","1","0","-1","1","1","0","4","4","3","2","3","3","3","3","4","4","6","7","5","6","4","4","6","7","7","5","5","4","3","4","3","5","4","3","5","4","3","5","5","3","4","5","3","4","4","4","3","4","4","4","5","5","6","6","6","7","3","6","2","5","5","7","5","3","4","697447755366268928","罗","271","Male","[""坏我"",""好我"",""坏他"",""好他""]","[""弱我"",""强我"",""弱他"",""强他""]","","","","","","","","yes","","","","","","","","","SRET","EW_formal","","key","j","16.666248120300565","640","396","自己","逞强","Negative","ability","","","","","","","","","",""
"2326","","f","psychophysics","56","405510","0.0-7.0-3.0-0.42","5","4","5","5","3","4","4","4","4","4","4","1","0","1","0","-1","1","1","0","4","4","3","2","3","3","3","3","4","4","6","7","5","6","4","4","6","7","7","5","5","4","3","4","3","5","4","3","5","4","3","5","5","3","4","5","3","4","4","4","3","4","4","4","5","5","6","6","6","7","3","6","2","5","5","7","5","3","4","697447755366268928","罗","271","Male","[""坏我"",""好我"",""坏他"",""好他""]","[""弱我"",""强我"",""弱他"",""强他""]","","","","","","","","no","","","","","","","","","SRET","EW_formal","","key","f","16.664959798994925","640","396","自己","不良","Negative","morality","","","","","","","","","",""
"2491","","j","psychophysics","57","409002","0.0-7.0-3.0-0.43","5","4","5","5","3","4","4","4","4","4","4","1","0","1","0","-1","1","1","0","4","4","3","2","3","3","3","3","4","4","6","7","5","6","4","4","6","7","7","5","5","4","3","4","3","5","4","3","5","4","3","5","5","3","4","5","3","4","4","4","3","4","4","4","5","5","6","6","6","7","3","6","2","5","5","7","5","3","4","697447755366268928","罗","271","Male","[""坏我"",""好我"",""坏他"",""好他""]","[""弱我"",""强我"",""弱他"",""强他""]","","","","","","","","yes","","","","","","","","","SRET","EW_formal","","key","j","16.66636057692309","640","396","自己","果决","Positive","ability","","","","","","","","","",""
"877","","j","psychophysics","58","410882","0.0-7.0-3.0-0.44","5","4","5","5","3","4","4","4","4","4","4","1","0","1","0","-1","1","1","0","4","4","3","2","3","3","3","3","4","4","6","7","5","6","4","4","6","7","7","5","5","4","3","4","3","5","4","3","5","4","3","5","5","3","4","5","3","4","4","4","3","4","4","4","5","5","6","6","6","7","3","6","2","5","5","7","5","3","4","697447755366268928","罗","271","Male","[""坏我"",""好我"",""坏他"",""好他""]","[""弱我"",""强我"",""弱他"",""强他""]","","","","","","","","yes","","","","","","","","","SRET","EW_formal","","key","j","16.668196428571328","640","396","自己","果断","Positive","ability","","","","","","","","","",""
"1089","","j","psychophysics","59","412970","0.0-7.0-3.0-0.45","5","4","5","5","3","4","4","4","4","4","4","1","0","1","0","-1","1","1","0","4","4","3","2","3","3","3","3","4","4","6","7","5","6","4","4","6","7","7","5","5","4","3","4","3","5","4","3","5","4","3","5","5","3","4","5","3","4","4","4","3","4","4","4","5","5","6","6","6","7","3","6","2","5","5","7","5","3","4","697447755366268928","罗","271","Male","[""坏我"",""好我"",""坏他"",""好他""]","[""弱我"",""强我"",""弱他"",""强他""]","","","","","","","","yes","","","","","","","","","SRET","EW_formal","","key","j","16.66638709677453","640","396","自己","正气","Positive","morality","","","","","","","","","",""
"1364","","j","psychophysics","60","415335","0.0-7.0-3.0-0.46","5","4","5","5","3","4","4","4","4","4","4","1","0","1","0","-1","1","1","0","4","4","3","2","3","3","3","3","4","4","6","7","5","6","4","4","6","7","7","5","5","4","3","4","3","5","4","3","5","4","3","5","5","3","4","5","3","4","4","4","3","4","4","4","5","5","6","6","6","7","3","6","2","5","5","7","5","3","4","697447755366268928","罗","271","Male","[""坏我"",""好我"",""坏他"",""好他""]","[""弱我"",""强我"",""弱他"",""强他""]","","","","","","","","yes","","","","","","","","","SRET","EW_formal","","key","j","16.66627659574473","640","396","自己","有力","Positive","ability","","","","","","","","","",""
"5399","","j","psychophysics","61","421737","0.0-7.0-3.0-0.47","5","4","5","5","3","4","4","4","4","4","4","1","0","1","0","-1","1","1","0","4","4","3","2","3","3","3","3","4","4","6","7","5","6","4","4","6","7","7","5","5","4","3","4","3","5","4","3","5","4","3","5","5","3","4","5","3","4","4","4","3","4","4","4","5","5","6","6","6","7","3","6","2","5","5","7","5","3","4","697447755366268928","罗","271","Male","[""坏我"",""好我"",""坏他"",""好他""]","[""弱我"",""强我"",""弱他"",""强他""]","","","","","","","","yes","","","","","","","","","SRET","EW_formal","","key","j","16.667859007832995","640","396","自己","忠义","Positive","morality","","","","","","","","","",""
"878","","j","psychophysics","62","423616","0.0-7.0-3.0-0.48","5","4","5","5","3","4","4","4","4","4","4","1","0","1","0","-1","1","1","0","4","4","3","2","3","3","3","3","4","4","6","7","5","6","4","4","6","7","7","5","5","4","3","4","3","5","4","3","5","4","3","5","5","3","4","5","3","4","4","4","3","4","4","4","5","5","6","6","6","7","3","6","2","5","5","7","5","3","4","697447755366268928","罗","271","Male","[""坏我"",""好我"",""坏他"",""好他""]","[""弱我"",""强我"",""弱他"",""强他""]","","","","","","","","yes","","","","","","","","","SRET","EW_formal","","key","j","16.666178571428777","640","396","自己","独立","Positive","ability","","","","","","","","","",""
"711","","f","psychophysics","63","425328","0.0-7.0-3.0-0.49","5","4","5","5","3","4","4","4","4","4","4","1","0","1","0","-1","1","1","0","4","4","3","2","3","3","3","3","4","4","6","7","5","6","4","4","6","7","7","5","5","4","3","4","3","5","4","3","5","4","3","5","5","3","4","5","3","4","4","4","3","4","4","4","5","5","6","6","6","7","3","6","2","5","5","7","5","3","4","697447755366268928","罗","271","Male","[""坏我"",""好我"",""坏他"",""好他""]","[""弱我"",""强我"",""弱他"",""强他""]","","","","","","","","no","","","","","","","","","SRET","EW_formal","","key","f","16.66642156862722","640","396","自己","诡诈","Negative","morality","","","","","","","","","",""
"1077","","j","psychophysics","64","427407","0.0-7.0-3.0-0.50","5","4","5","5","3","4","4","4","4","4","4","1","0","1","0","-1","1","1","0","4","4","3","2","3","3","3","3","4","4","6","7","5","6","4","4","6","7","7","5","5","4","3","4","3","5","4","3","5","4","3","5","5","3","4","5","3","4","4","4","3","4","4","4","5","5","6","6","6","7","3","6","2","5","5","7","5","3","4","697447755366268928","罗","271","Male","[""坏我"",""好我"",""坏他"",""好他""]","[""弱我"",""强我"",""弱他"",""强他""]","","","","","","","","yes","","","","","","","","","SRET","EW_formal","","key","j","16.66624390243882","640","396","朋友","孝顺","Positive","morality","","","","","","","","","",""
"1133","","f","psychophysics","65","429541","0.0-7.0-3.0-0.51","5","4","5","5","3","4","4","4","4","4","4","1","0","1","0","-1","1","1","0","4","4","3","2","3","3","3","3","4","4","6","7","5","6","4","4","6","7","7","5","5","4","3","4","3","5","4","3","5","4","3","5","5","3","4","5","3","4","4","4","3","4","4","4","5","5","6","6","6","7","3","6","2","5","5","7","5","3","4","697447755366268928","罗","271","Male","[""坏我"",""好我"",""坏他"",""好他""]","[""弱我"",""强我"",""弱他"",""强他""]","","","","","","","","no","","","","","","","","","SRET","EW_formal","","key","f","16.66672440944881","640","396","自己","偏私","Negative","morality","","","","","","","","","",""
"2459","","f","psychophysics","66","433001","0.0-7.0-3.0-0.52","5","4","5","5","3","4","4","4","4","4","4","1","0","1","0","-1","1","1","0","4","4","3","2","3","3","3","3","4","4","6","7","5","6","4","4","6","7","7","5","5","4","3","4","3","5","4","3","5","4","3","5","5","3","4","5","3","4","4","4","3","4","4","4","5","5","6","6","6","7","3","6","2","5","5","7","5","3","4","697447755366268928","罗","271","Male","[""坏我"",""好我"",""坏他"",""好他""]","[""弱我"",""强我"",""弱他"",""强他""]","","","","","","","","no","","","","","","","","","SRET","EW_formal","","key","f","16.666565217391266","640","396","朋友","利己","Negative","morality","","","","","","","","","",""
"1144","","f","psychophysics","67","435146","0.0-7.0-3.0-0.53","5","4","5","5","3","4","4","4","4","4","4","1","0","1","0","-1","1","1","0","4","4","3","2","3","3","3","3","4","4","6","7","5","6","4","4","6","7","7","5","5","4","3","4","3","5","4","3","5","4","3","5","5","3","4","5","3","4","4","4","3","4","4","4","5","5","6","6","6","7","3","6","2","5","5","7","5","3","4","697447755366268928","罗","271","Male","[""坏我"",""好我"",""坏他"",""好他""]","[""弱我"",""强我"",""弱他"",""强他""]","","","","","","","","no","","","","","","","","","SRET","EW_formal","","key","f","16.666523437500018","640","396","自己","无赖","Negative","morality","","","","","","","","","",""
"1718","","f","psychophysics","68","437864","0.0-7.0-3.0-0.54","5","4","5","5","3","4","4","4","4","4","4","1","0","1","0","-1","1","1","0","4","4","3","2","3","3","3","3","4","4","6","7","5","6","4","4","6","7","7","5","5","4","3","4","3","5","4","3","5","4","3","5","5","3","4","5","3","4","4","4","3","4","4","4","5","5","6","6","6","7","3","6","2","5","5","7","5","3","4","697447755366268928","罗","271","Male","[""坏我"",""好我"",""坏他"",""好他""]","[""弱我"",""强我"",""弱他"",""强他""]","","","","","","","","no","","","","","","","","","SRET","EW_formal","","key","f","16.66648765432075","640","396","自己","远见","Positive","ability","","","","","","","","","",""
"1309","","j","psychophysics","69","440174","0.0-7.0-3.0-0.55","5","4","5","5","3","4","4","4","4","4","4","1","0","1","0","-1","1","1","0","4","4","3","2","3","3","3","3","4","4","6","7","5","6","4","4","6","7","7","5","5","4","3","4","3","5","4","3","5","4","3","5","5","3","4","5","3","4","4","4","3","4","4","4","5","5","6","6","6","7","3","6","2","5","5","7","5","3","4","697447755366268928","罗","271","Male","[""坏我"",""好我"",""坏他"",""好他""]","[""弱我"",""强我"",""弱他"",""强他""]","","","","","","","","yes","","","","","","","","","SRET","EW_formal","","key","j","16.666262773722565","640","396","朋友","忠诚","Positive","morality","","","","","","","","","",""
"757","","f","psychophysics","70","441932","0.0-7.0-3.0-0.56","5","4","5","5","3","4","4","4","4","4","4","1","0","1","0","-1","1","1","0","4","4","3","2","3","3","3","3","4","4","6","7","5","6","4","4","6","7","7","5","5","4","3","4","3","5","4","3","5","4","3","5","5","3","4","5","3","4","4","4","3","4","4","4","5","5","6","6","6","7","3","6","2","5","5","7","5","3","4","697447755366268928","罗","271","Male","[""坏我"",""好我"",""坏他"",""好他""]","[""弱我"",""强我"",""弱他"",""强他""]","","","","","","","","no","","","","","","","","","SRET","EW_formal","","key","f","16.66649523809541","640","396","自己","邪恶","Negative","morality","","","","","","","","","",""
"1475","","j","psychophysics","71","444409","0.0-7.0-3.0-0.57","5","4","5","5","3","4","4","4","4","4","4","1","0","1","0","-1","1","1","0","4","4","3","2","3","3","3","3","4","4","6","7","5","6","4","4","6","7","7","5","5","4","3","4","3","5","4","3","5","4","3","5","5","3","4","5","3","4","4","4","3","4","4","4","5","5","6","6","6","7","3","6","2","5","5","7","5","3","4","697447755366268928","罗","271","Male","[""坏我"",""好我"",""坏他"",""好他""]","[""弱我"",""强我"",""弱他"",""强他""]","","","","","","","","yes","","","","","","","","","SRET","EW_formal","","key","j","16.668567567567397","640","396","自己","忠良","Positive","morality","","","","","","","","","",""
"1011","","f","psychophysics","72","446421","0.0-7.0-3.0-0.58","5","4","5","5","3","4","4","4","4","4","4","1","0","1","0","-1","1","1","0","4","4","3","2","3","3","3","3","4","4","6","7","5","6","4","4","6","7","7","5","5","4","3","4","3","5","4","3","5","4","3","5","5","3","4","5","3","4","4","4","3","4","4","4","5","5","6","6","6","7","3","6","2","5","5","7","5","3","4","697447755366268928","罗","271","Male","[""坏我"",""好我"",""坏他"",""好他""]","[""弱我"",""强我"",""弱他"",""强他""]","","","","","","","","no","","","","","","","","","SRET","EW_formal","","key","f","16.666285714285717","640","396","自己","笨蛋","Negative","ability","","","","","","","","","",""
"1674","","f","psychophysics","73","449096","0.0-7.0-3.0-0.59","5","4","5","5","3","4","4","4","4","4","4","1","0","1","0","-1","1","1","0","4","4","3","2","3","3","3","3","4","4","6","7","5","6","4","4","6","7","7","5","5","4","3","4","3","5","4","3","5","4","3","5","5","3","4","5","3","4","4","4","3","4","4","4","5","5","6","6","6","7","3","6","2","5","5","7","5","3","4","697447755366268928","罗","271","Male","[""坏我"",""好我"",""坏他"",""好他""]","[""弱我"",""强我"",""弱他"",""强他""]","","","","","","","","no","","","","","","","","","SRET","EW_formal","","key","f","16.668624999999885","640","396","朋友","蛇蝎","Negative","morality","","","","","","","","","",""
"1143","","j","psychophysics","74","451240","0.0-7.0-3.0-0.60","5","4","5","5","3","4","4","4","4","4","4","1","0","1","0","-1","1","1","0","4","4","3","2","3","3","3","3","4","4","6","7","5","6","4","4","6","7","7","5","5","4","3","4","3","5","4","3","5","4","3","5","5","3","4","5","3","4","4","4","3","4","4","4","5","5","6","6","6","7","3","6","2","5","5","7","5","3","4","697447755366268928","罗","271","Male","[""坏我"",""好我"",""坏他"",""好他""]","[""弱我"",""强我"",""弱他"",""强他""]","","","","","","","","yes","","","","","","","","","SRET","EW_formal","","key","j","16.666244094488285","640","396","自己","懂行","Positive","ability","","","","","","","","","",""
"1099","","f","psychophysics","75","453340","0.0-7.0-3.0-0.61","5","4","5","5","3","4","4","4","4","4","4","1","0","1","0","-1","1","1","0","4","4","3","2","3","3","3","3","4","4","6","7","5","6","4","4","6","7","7","5","5","4","3","4","3","5","4","3","5","4","3","5","5","3","4","5","3","4","4","4","3","4","4","4","5","5","6","6","6","7","3","6","2","5","5","7","5","3","4","697447755366268928","罗","271","Male","[""坏我"",""好我"",""坏他"",""好他""]","[""弱我"",""强我"",""弱他"",""强他""]","","","","","","","","no","","","","","","","","","SRET","EW_formal","","key","f","16.66654399999976","640","396","朋友","高洁","Positive","morality","","","","","","","","","",""
"1110","","f","psychophysics","76","455451","0.0-7.0-3.0-0.62","5","4","5","5","3","4","4","4","4","4","4","1","0","1","0","-1","1","1","0","4","4","3","2","3","3","3","3","4","4","6","7","5","6","4","4","6","7","7","5","5","4","3","4","3","5","4","3","5","4","3","5","5","3","4","5","3","4","4","4","3","4","4","4","5","5","6","6","6","7","3","6","2","5","5","7","5","3","4","697447755366268928","罗","271","Male","[""坏我"",""好我"",""坏他"",""好他""]","[""弱我"",""强我"",""弱他"",""强他""]","","","","","","","","no","","","","","","","","","SRET","EW_formal","","key","f","16.666507936507788","640","396","自己","短视","Negative","ability","","","","","","","","","",""
"1785","","f","psychophysics","77","458237","0.0-7.0-3.0-0.63","5","4","5","5","3","4","4","4","4","4","4","1","0","1","0","-1","1","1","0","4","4","3","2","3","3","3","3","4","4","6","7","5","6","4","4","6","7","7","5","5","4","3","4","3","5","4","3","5","4","3","5","5","3","4","5","3","4","4","4","3","4","4","4","5","5","6","6","6","7","3","6","2","5","5","7","5","3","4","697447755366268928","罗","271","Male","[""坏我"",""好我"",""坏他"",""好他""]","[""弱我"",""强我"",""弱他"",""强他""]","","","","","","","","no","","","","","","","","","SRET","EW_formal","","key","f","16.666487951807156","640","396","朋友","虚假","Negative","morality","","","","","","","","","",""
"1298","","j","psychophysics","78","460536","0.0-7.0-3.0-0.64","5","4","5","5","3","4","4","4","4","4","4","1","0","1","0","-1","1","1","0","4","4","3","2","3","3","3","3","4","4","6","7","5","6","4","4","6","7","7","5","5","4","3","4","3","5","4","3","5","4","3","5","5","3","4","5","3","4","4","4","3","4","4","4","5","5","6","6","6","7","3","6","2","5","5","7","5","3","4","697447755366268928","罗","271","Male","[""坏我"",""好我"",""坏他"",""好他""]","[""弱我"",""强我"",""弱他"",""强他""]","","","","","","","","yes","","","","","","","","","SRET","EW_formal","","key","j","16.66608759124056","640","396","朋友","高效","Positive","ability","","","","","","","","","",""
"3067","","f","psychophysics","79","464605","0.0-7.0-3.0-0.65","5","4","5","5","3","4","4","4","4","4","4","1","0","1","0","-1","1","1","0","4","4","3","2","3","3","3","3","4","4","6","7","5","6","4","4","6","7","7","5","5","4","3","4","3","5","4","3","5","4","3","5","5","3","4","5","3","4","4","4","3","4","4","4","5","5","6","6","6","7","3","6","2","5","5","7","5","3","4","697447755366268928","罗","271","Male","[""坏我"",""好我"",""坏他"",""好他""]","[""弱我"",""强我"",""弱他"",""强他""]","","","","","","","","no","","","","","","","","","SRET","EW_formal","","key","f","16.666390946502137","640","396","自己","缺德","Negative","morality","","","","","","","","","",""
"1110","","j","psychophysics","80","466715","0.0-7.0-3.0-0.66","5","4","5","5","3","4","4","4","4","4","4","1","0","1","0","-1","1","1","0","4","4","3","2","3","3","3","3","4","4","6","7","5","6","4","4","6","7","7","5","5","4","3","4","3","5","4","3","5","4","3","5","5","3","4","5","3","4","4","4","3","4","4","4","5","5","6","6","6","7","3","6","2","5","5","7","5","3","4","697447755366268928","罗","271","Male","[""坏我"",""好我"",""坏他"",""好他""]","[""弱我"",""强我"",""弱他"",""强他""]","","","","","","","","yes","","","","","","","","","SRET","EW_formal","","key","j","16.666333333333206","640","396","自己","稳健","Positive","ability","","","","","","","","","",""
"802","","f","psychophysics","81","468518","0.0-7.0-3.0-0.67","5","4","5","5","3","4","4","4","4","4","4","1","0","1","0","-1","1","1","0","4","4","3","2","3","3","3","3","4","4","6","7","5","6","4","4","6","7","7","5","5","4","3","4","3","5","4","3","5","4","3","5","5","3","4","5","3","4","4","4","3","4","4","4","5","5","6","6","6","7","3","6","2","5","5","7","5","3","4","697447755366268928","罗","271","Male","[""坏我"",""好我"",""坏他"",""好他""]","[""弱我"",""强我"",""弱他"",""强他""]","","","","","","","","no","","","","","","","","","SRET","EW_formal","","key","f","16.666196261682202","640","396","朋友","背叛","Negative","morality","","","","","","","","","",""
"1297","","j","psychophysics","82","470816","0.0-7.0-3.0-0.68","5","4","5","5","3","4","4","4","4","4","4","1","0","1","0","-1","1","1","0","4","4","3","2","3","3","3","3","4","4","6","7","5","6","4","4","6","7","7","5","5","4","3","4","3","5","4","3","5","4","3","5","5","3","4","5","3","4","4","4","3","4","4","4","5","5","6","6","6","7","3","6","2","5","5","7","5","3","4","697447755366268928","罗","271","Male","[""坏我"",""好我"",""坏他"",""好他""]","[""弱我"",""强我"",""弱他"",""强他""]","","","","","","","","yes","","","","","","","","","SRET","EW_formal","","key","j","16.666518248175358","640","396","朋友","努力","Positive","ability","","","","","","","","","",""
"2039","","j","psychophysics","83","473858","0.0-7.0-3.0-0.69","5","4","5","5","3","4","4","4","4","4","4","1","0","1","0","-1","1","1","0","4","4","3","2","3","3","3","3","4","4","6","7","5","6","4","4","6","7","7","5","5","4","3","4","3","5","4","3","5","4","3","5","5","3","4","5","3","4","4","4","3","4","4","4","5","5","6","6","6","7","3","6","2","5","5","7","5","3","4","697447755366268928","罗","271","Male","[""坏我"",""好我"",""坏他"",""好他""]","[""弱我"",""强我"",""弱他"",""强他""]","","","","","","","","yes","","","","","","","","","SRET","EW_formal","","key","j","16.66459668508264","640","396","朋友","才尽","Negative","ability","","","","","","","","","",""
"1575","","j","psychophysics","84","476433","0.0-7.0-3.0-0.70","5","4","5","5","3","4","4","4","4","4","4","1","0","1","0","-1","1","1","0","4","4","3","2","3","3","3","3","4","4","6","7","5","6","4","4","6","7","7","5","5","4","3","4","3","5","4","3","5","4","3","5","5","3","4","5","3","4","4","4","3","4","4","4","5","5","6","6","6","7","3","6","2","5","5","7","5","3","4","697447755366268928","罗","271","Male","[""坏我"",""好我"",""坏他"",""好他""]","[""弱我"",""强我"",""弱他"",""强他""]","","","","","","","","yes","","","","","","","","","SRET","EW_formal","","key","j","16.669928571428535","640","396","朋友","善心","Positive","morality","","","","","","","","","",""
"911","","f","psychophysics","85","478346","0.0-7.0-3.0-0.71","5","4","5","5","3","4","4","4","4","4","4","1","0","1","0","-1","1","1","0","4","4","3","2","3","3","3","3","4","4","6","7","5","6","4","4","6","7","7","5","5","4","3","4","3","5","4","3","5","4","3","5","5","3","4","5","3","4","4","4","3","4","4","4","5","5","6","6","6","7","3","6","2","5","5","7","5","3","4","697447755366268928","罗","271","Male","[""坏我"",""好我"",""坏他"",""好他""]","[""弱我"",""强我"",""弱他"",""强他""]","","","","","","","","no","","","","","","","","","SRET","EW_formal","","key","f","16.66645614035109","640","396","朋友","无为","Negative","ability","","","","","","","","","",""
"801","","f","psychophysics","86","480148","0.0-7.0-3.0-0.72","5","4","5","5","3","4","4","4","4","4","4","1","0","1","0","-1","1","1","0","4","4","3","2","3","3","3","3","4","4","6","7","5","6","4","4","6","7","7","5","5","4","3","4","3","5","4","3","5","4","3","5","5","3","4","5","3","4","4","4","3","4","4","4","5","5","6","6","6","7","3","6","2","5","5","7","5","3","4","697447755366268928","罗","271","Male","[""坏我"",""好我"",""坏他"",""好他""]","[""弱我"",""强我"",""弱他"",""强他""]","","","","","","","","no","","","","","","","","","SRET","EW_formal","","key","f","16.666364485981642","640","396","朋友","无能","Negative","ability","","","","","","","","","",""
"1011","","j","psychophysics","87","482159","0.0-7.0-3.0-0.73","5","4","5","5","3","4","4","4","4","4","4","1","0","1","0","-1","1","1","0","4","4","3","2","3","3","3","3","4","4","6","7","5","6","4","4","6","7","7","5","5","4","3","4","3","5","4","3","5","4","3","5","5","3","4","5","3","4","4","4","3","4","4","4","5","5","6","6","6","7","3","6","2","5","5","7","5","3","4","697447755366268928","罗","271","Male","[""坏我"",""好我"",""坏他"",""好他""]","[""弱我"",""强我"",""弱他"",""强他""]","","","","","","","","yes","","","","","","","","","SRET","EW_formal","","key","j","16.66624166666637","640","396","自己","君子","Positive","morality","","","","","","","","","",""
"2735","","j","psychophysics","88","485895","0.0-7.0-3.0-0.74","5","4","5","5","3","4","4","4","4","4","4","1","0","1","0","-1","1","1","0","4","4","3","2","3","3","3","3","4","4","6","7","5","6","4","4","6","7","7","5","5","4","3","4","3","5","4","3","5","4","3","5","5","3","4","5","3","4","4","4","3","4","4","4","5","5","6","6","6","7","3","6","2","5","5","7","5","3","4","697447755366268928","罗","271","Male","[""坏我"",""好我"",""坏他"",""好他""]","[""弱我"",""强我"",""弱他"",""强他""]","","","","","","","","yes","","","","","","","","","SRET","EW_formal","","key","j","16.666417040358635","640","396","朋友","热心","Positive","morality","","","","","","","","","",""
"856","","f","psychophysics","89","487752","0.0-7.0-3.0-0.75","5","4","5","5","3","4","4","4","4","4","4","1","0","1","0","-1","1","1","0","4","4","3","2","3","3","3","3","4","4","6","7","5","6","4","4","6","7","7","5","5","4","3","4","3","5","4","3","5","4","3","5","5","3","4","5","3","4","4","4","3","4","4","4","5","5","6","6","6","7","3","6","2","5","5","7","5","3","4","697447755366268928","罗","271","Male","[""坏我"",""好我"",""坏他"",""好他""]","[""弱我"",""强我"",""弱他"",""强他""]","","","","","","","","no","","","","","","","","","SRET","EW_formal","","key","f","16.67191818181785","640","396","自己","伪善","Negative","morality","","","","","","","","","",""
"1077","","f","psychophysics","90","489830","0.0-7.0-3.0-0.76","5","4","5","5","3","4","4","4","4","4","4","1","0","1","0","-1","1","1","0","4","4","3","2","3","3","3","3","4","4","6","7","5","6","4","4","6","7","7","5","5","4","3","4","3","5","4","3","5","4","3","5","5","3","4","5","3","4","4","4","3","4","4","4","5","5","6","6","6","7","3","6","2","5","5","7","5","3","4","697447755366268928","罗","271","Male","[""坏我"",""好我"",""坏他"",""好他""]","[""弱我"",""强我"",""弱他"",""强他""]","","","","","","","","no","","","","","","","","","SRET","EW_formal","","key","f","16.666161290322517","640","396","朋友","失信","Negative","morality","","","","","","","","","",""
"2770","","f","psychophysics","91","493601","0.0-7.0-3.0-0.77","5","4","5","5","3","4","4","4","4","4","4","1","0","1","0","-1","1","1","0","4","4","3","2","3","3","3","3","4","4","6","7","5","6","4","4","6","7","7","5","5","4","3","4","3","5","4","3","5","4","3","5","5","3","4","5","3","4","4","4","3","4","4","4","5","5","6","6","6","7","3","6","2","5","5","7","5","3","4","697447755366268928","罗","271","Male","[""坏我"",""好我"",""坏他"",""好他""]","[""弱我"",""强我"",""弱他"",""强他""]","","","","","","","","no","","","","","","","","","SRET","EW_formal","","key","f","16.666328888888884","640","396","朋友","礼貌","Positive","morality","","","","","","","","","",""
"1087","","f","psychophysics","92","495689","0.0-7.0-3.0-0.78","5","4","5","5","3","4","4","4","4","4","4","1","0","1","0","-1","1","1","0","4","4","3","2","3","3","3","3","4","4","6","7","5","6","4","4","6","7","7","5","5","4","3","4","3","5","4","3","5","4","3","5","5","3","4","5","3","4","4","4","3","4","4","4","5","5","6","6","6","7","3","6","2","5","5","7","5","3","4","697447755366268928","罗","271","Male","[""坏我"",""好我"",""坏他"",""好他""]","[""弱我"",""强我"",""弱他"",""强他""]","","","","","","","","no","","","","","","","","","SRET","EW_formal","","key","f","16.670596774193392","640","396","自己","顶事","Positive","ability","","","","","","","","","",""
"1077","","f","psychophysics","93","497767","0.0-7.0-3.0-0.79","5","4","5","5","3","4","4","4","4","4","4","1","0","1","0","-1","1","1","0","4","4","3","2","3","3","3","3","4","4","6","7","5","6","4","4","6","7","7","5","5","4","3","4","3","5","4","3","5","4","3","5","5","3","4","5","3","4","4","4","3","4","4","4","5","5","6","6","6","7","3","6","2","5","5","7","5","3","4","697447755366268928","罗","271","Male","[""坏我"",""好我"",""坏他"",""好他""]","[""弱我"",""强我"",""弱他"",""强他""]","","","","","","","","no","","","","","","","","","SRET","EW_formal","","key","f","16.66638709677406","640","396","朋友","盲目","Negative","ability","","","","","","","","","",""
"1033","","f","psychophysics","94","499801","0.0-7.0-3.0-0.80","5","4","5","5","3","4","4","4","4","4","4","1","0","1","0","-1","1","1","0","4","4","3","2","3","3","3","3","4","4","6","7","5","6","4","4","6","7","7","5","5","4","3","4","3","5","4","3","5","4","3","5","5","3","4","5","3","4","4","4","3","4","4","4","5","5","6","6","6","7","3","6","2","5","5","7","5","3","4","697447755366268928","罗","271","Male","[""坏我"",""好我"",""坏他"",""好他""]","[""弱我"",""强我"",""弱他"",""强他""]","","","","","","","","no","","","","","","","","","SRET","EW_formal","","key","f","16.666429752066406","640","396","自己","下流","Negative","morality","","","","","","","","","",""
"1840","","j","psychophysics","95","502642","0.0-7.0-3.0-0.81","5","4","5","5","3","4","4","4","4","4","4","1","0","1","0","-1","1","1","0","4","4","3","2","3","3","3","3","4","4","6","7","5","6","4","4","6","7","7","5","5","4","3","4","3","5","4","3","5","4","3","5","5","3","4","5","3","4","4","4","3","4","4","4","5","5","6","6","6","7","3","6","2","5","5","7","5","3","4","697447755366268928","罗","271","Male","[""坏我"",""好我"",""坏他"",""好他""]","[""弱我"",""强我"",""弱他"",""强他""]","","","","","","","","yes","","","","","","","","","SRET","EW_formal","","key","j","16.666147058823846","640","396","自己","忠勇","Positive","morality","","","","","","","","","",""
"967","","f","psychophysics","96","504611","0.0-7.0-3.0-0.82","5","4","5","5","3","4","4","4","4","4","4","1","0","1","0","-1","1","1","0","4","4","3","2","3","3","3","3","4","4","6","7","5","6","4","4","6","7","7","5","5","4","3","4","3","5","4","3","5","4","3","5","5","3","4","5","3","4","4","4","3","4","4","4","5","5","6","6","6","7","3","6","2","5","5","7","5","3","4","697447755366268928","罗","271","Male","[""坏我"",""好我"",""坏他"",""好他""]","[""弱我"",""强我"",""弱他"",""强他""]","","","","","","","","no","","","","","","","","","SRET","EW_formal","","key","f","16.66617948717923","640","396","朋友","拜金","Negative","morality","","","","","","","","","",""
"1174","","f","psychophysics","97","506787","0.0-7.0-3.0-0.83","5","4","5","5","3","4","4","4","4","4","4","1","0","1","0","-1","1","1","0","4","4","3","2","3","3","3","3","4","4","6","7","5","6","4","4","6","7","7","5","5","4","3","4","3","5","4","3","5","4","3","5","5","3","4","5","3","4","4","4","3","4","4","4","5","5","6","6","6","7","3","6","2","5","5","7","5","3","4","697447755366268928","罗","271","Male","[""坏我"",""好我"",""坏他"",""好他""]","[""弱我"",""强我"",""弱他"",""强他""]","","","","","","","","no","","","","","","","","","SRET","EW_formal","","key","f","16.66650387596893","640","396","自己","庸碌","Negative","ability","","","","","","","","","",""
"834","","f","psychophysics","98","508623","0.0-7.0-3.0-0.84","5","4","5","5","3","4","4","4","4","4","4","1","0","1","0","-1","1","1","0","4","4","3","2","3","3","3","3","4","4","6","7","5","6","4","4","6","7","7","5","5","4","3","4","3","5","4","3","5","4","3","5","5","3","4","5","3","4","4","4","3","4","4","4","5","5","6","6","6","7","3","6","2","5","5","7","5","3","4","697447755366268928","罗","271","Male","[""坏我"",""好我"",""坏他"",""好他""]","[""弱我"",""强我"",""弱他"",""强他""]","","","","","","","","no","","","","","","","","","SRET","EW_formal","","key","f","16.666256880733705","640","396","自己","缓慢","Negative","ability","","","","","","","","","",""
"1873","","f","psychophysics","99","511496","0.0-7.0-3.0-0.85","5","4","5","5","3","4","4","4","4","4","4","1","0","1","0","-1","1","1","0","4","4","3","2","3","3","3","3","4","4","6","7","5","6","4","4","6","7","7","5","5","4","3","4","3","5","4","3","5","4","3","5","5","3","4","5","3","4","4","4","3","4","4","4","5","5","6","6","6","7","3","6","2","5","5","7","5","3","4","697447755366268928","罗","271","Male","[""坏我"",""好我"",""坏他"",""好他""]","[""弱我"",""强我"",""弱他"",""强他""]","","","","","","","","no","","","","","","","","","SRET","EW_formal","","key","f","16.666290697674498","640","396","朋友","素养","Positive","morality","","","","","","","","","",""
"2162","","f","psychophysics","100","514659","0.0-7.0-3.0-0.86","5","4","5","5","3","4","4","4","4","4","4","1","0","1","0","-1","1","1","0","4","4","3","2","3","3","3","3","4","4","6","7","5","6","4","4","6","7","7","5","5","4","3","4","3","5","4","3","5","4","3","5","5","3","4","5","3","4","4","4","3","4","4","4","5","5","6","6","6","7","3","6","2","5","5","7","5","3","4","697447755366268928","罗","271","Male","[""坏我"",""好我"",""坏他"",""好他""]","[""弱我"",""强我"",""弱他"",""强他""]","","","","","","","","no","","","","","","","","","SRET","EW_formal","","key","f","16.66635449735476","640","396","朋友","低俗","Negative","morality","","","","","","","","","",""
"1319","","j","psychophysics","101","516979","0.0-7.0-3.0-0.87","5","4","5","5","3","4","4","4","4","4","4","1","0","1","0","-1","1","1","0","4","4","3","2","3","3","3","3","4","4","6","7","5","6","4","4","6","7","7","5","5","4","3","4","3","5","4","3","5","4","3","5","5","3","4","5","3","4","4","4","3","4","4","4","5","5","6","6","6","7","3","6","2","5","5","7","5","3","4","697447755366268928","罗","271","Male","[""坏我"",""好我"",""坏他"",""好他""]","[""弱我"",""强我"",""弱他"",""强他""]","","","","","","","","yes","","","","","","","","","SRET","EW_formal","","key","j","16.666253623188613","640","396","自己","主见","Positive","ability","","","","","","","","","",""
"9460","
    <p><div style='color:white;font-size:35px; line-height:20px;'>计算任务</div></p><br>
    <p><div style='color:red;font-size:25px; line-height:20px;'>接下来，您将看到一些四则运算题，<b>请从键盘选择 0-9 进行反应。</b></div></p>
    <p><div style='color:red;font-size:25px; line-height:20px;'>请尽可能快地进行计算，计算的速度和正确率将影响报酬的发放。</div></p>
    <p><div class='footer' style='color:white;font-size:25px; line-height:20px;'>如果对本实验还有不清楚之处，请立即向实验员咨询。</p><p style='color:white;font-size:25px; line-height:20px;'>如果您明白了规则：</p><p style='color:white;font-size:22px; line-height:20px;'>请按 继续 进入练习</p>
    </div>
    ","0","html-button-response","102","526440","0.0-7.0-4.0","5","4","5","5","3","4","4","4","4","4","4","1","0","1","0","-1","1","1","0","4","4","3","2","3","3","3","3","4","4","6","7","5","6","4","4","6","7","7","5","5","4","3","4","3","5","4","3","5","4","3","5","5","3","4","5","3","4","4","4","3","4","4","4","5","5","6","6","6","7","3","6","2","5","5","7","5","3","4","697447755366268928","罗","271","Male","[""坏我"",""好我"",""坏他"",""好他""]","[""弱我"",""强我"",""弱他"",""强他""]","","","","","","","","","","","","","","","","","SRET_math","math_instructions","Sat Nov 25 2023 12:28:02 GMT+0800 (中国标准时间)","","","","","","","","","","","","","","","","","","",""
"2538","","2","psychophysics","103","528985","0.0-7.0-5.0-0.0","5","4","5","5","3","4","4","4","4","4","4","1","0","1","0","-1","1","1","0","4","4","3","2","3","3","3","3","4","4","6","7","5","6","4","4","6","7","7","5","5","4","3","4","3","5","4","3","5","4","3","5","5","3","4","5","3","4","4","4","3","4","4","4","5","5","6","6","6","7","3","6","2","5","5","7","5","3","4","697447755366268928","罗","271","Male","[""坏我"",""好我"",""坏他"",""好他""]","[""弱我"",""强我"",""弱他"",""强他""]","","","","","","","","2","","","","","","","","","SRET","SRET_math_calculate","","key","2","16.66654248366032","640","396","","","","","8/4= ?","2","1","","","","","","",""
"3358","","4","psychophysics","104","532344","0.0-7.0-5.0-0.1","5","4","5","5","3","4","4","4","4","4","4","1","0","1","0","-1","1","1","0","4","4","3","2","3","3","3","3","4","4","6","7","5","6","4","4","6","7","7","5","5","4","3","4","3","5","4","3","5","4","3","5","5","3","4","5","3","4","4","4","3","4","4","4","5","5","6","6","6","7","3","6","2","5","5","7","5","3","4","697447755366268928","罗","271","Male","[""坏我"",""好我"",""坏他"",""好他""]","[""弱我"",""强我"",""弱他"",""强他""]","","","","","","","","4","","","","","","","","","SRET","SRET_math_calculate","","key","4","16.666328358209103","640","396","","","","","13-9= ?","4","1","","","","","","",""
"2082","","2","psychophysics","105","534433","0.0-7.0-5.0-0.2","5","4","5","5","3","4","4","4","4","4","4","1","0","1","0","-1","1","1","0","4","4","3","2","3","3","3","3","4","4","6","7","5","6","4","4","6","7","7","5","5","4","3","4","3","5","4","3","5","4","3","5","5","3","4","5","3","4","4","4","3","4","4","4","5","5","6","6","6","7","3","6","2","5","5","7","5","3","4","697447755366268928","罗","271","Male","[""坏我"",""好我"",""坏他"",""好他""]","[""弱我"",""强我"",""弱他"",""强他""]","","","","","","","","2","","","","","","","","","SRET","SRET_math_calculate","","key","2","16.666282258064097","640","396","","","","","9-7= ?","2","1","","","","","","",""
"4389","","8","psychophysics","106","538823","0.0-7.0-5.0-0.3","5","4","5","5","3","4","4","4","4","4","4","1","0","1","0","-1","1","1","0","4","4","3","2","3","3","3","3","4","4","6","7","5","6","4","4","6","7","7","5","5","4","3","4","3","5","4","3","5","4","3","5","5","3","4","5","3","4","4","4","3","4","4","4","5","5","6","6","6","7","3","6","2","5","5","7","5","3","4","697447755366268928","罗","271","Male","[""坏我"",""好我"",""坏他"",""好他""]","[""弱我"",""强我"",""弱他"",""强他""]","","","","","","","","8","","","","","","","","","SRET","SRET_math_calculate","","key","8","16.667500000000036","640","396","","","","","11-3= ?","8","1","","","","","","",""
"2386","","7","psychophysics","107","541210","0.0-7.0-5.0-0.4","5","4","5","5","3","4","4","4","4","4","4","1","0","1","0","-1","1","1","0","4","4","3","2","3","3","3","3","4","4","6","7","5","6","4","4","6","7","7","5","5","4","3","4","3","5","4","3","5","4","3","5","5","3","4","5","3","4","4","4","3","4","4","4","5","5","6","6","6","7","3","6","2","5","5","7","5","3","4","697447755366268928","罗","271","Male","[""坏我"",""好我"",""坏他"",""好他""]","[""弱我"",""强我"",""弱他"",""强他""]","","","","","","","","7","","","","","","","","","SRET","SRET_math_calculate","","key","7","16.666244755245067","640","396","","","","","6+1= ?","7","1","","","","","","",""
"3071","","6","psychophysics","108","544282","0.0-7.0-5.0-0.5","5","4","5","5","3","4","4","4","4","4","4","1","0","1","0","-1","1","1","0","4","4","3","2","3","3","3","3","4","4","6","7","5","6","4","4","6","7","7","5","5","4","3","4","3","5","4","3","5","4","3","5","5","3","4","5","3","4","4","4","3","4","4","4","5","5","6","6","6","7","3","6","2","5","5","7","5","3","4","697447755366268928","罗","271","Male","[""坏我"",""好我"",""坏他"",""好他""]","[""弱我"",""强我"",""弱他"",""强他""]","","","","","","","","6","","","","","","","","","SRET","SRET_math_calculate","","key","6","16.666273224043476","640","396","","","","","49/7 = ?","7","0","","","","","","",""
"3724","","5","psychophysics","109","548007","0.0-7.0-5.0-0.6","5","4","5","5","3","4","4","4","4","4","4","1","0","1","0","-1","1","1","0","4","4","3","2","3","3","3","3","4","4","6","7","5","6","4","4","6","7","7","5","5","4","3","4","3","5","4","3","5","4","3","5","5","3","4","5","3","4","4","4","3","4","4","4","5","5","6","6","6","7","3","6","2","5","5","7","5","3","4","697447755366268928","罗","271","Male","[""坏我"",""好我"",""坏他"",""好他""]","[""弱我"",""强我"",""弱他"",""强他""]","","","","","","","","5","","","","","","","","","SRET","SRET_math_calculate","","key","5","16.666387387387232","640","396","","","","","3+2= ?","5","1","","","","","","",""
"2248","","7","psychophysics","110","550263","0.0-7.0-5.0-0.7","5","4","5","5","3","4","4","4","4","4","4","1","0","1","0","-1","1","1","0","4","4","3","2","3","3","3","3","4","4","6","7","5","6","4","4","6","7","7","5","5","4","3","4","3","5","4","3","5","4","3","5","5","3","4","5","3","4","4","4","3","4","4","4","5","5","6","6","6","7","3","6","2","5","5","7","5","3","4","697447755366268928","罗","271","Male","[""坏我"",""好我"",""坏他"",""好他""]","[""弱我"",""强我"",""弱他"",""强他""]","","","","","","","","7","","","","","","","","","SRET","SRET_math_calculate","","key","7","16.668614814814216","640","396","","","","","5+2= ?","7","1","","","","","","",""
"2452","","6","psychophysics","111","552716","0.0-7.0-5.0-0.8","5","4","5","5","3","4","4","4","4","4","4","1","0","1","0","-1","1","1","0","4","4","3","2","3","3","3","3","4","4","6","7","5","6","4","4","6","7","7","5","5","4","3","4","3","5","4","3","5","4","3","5","5","3","4","5","3","4","4","4","3","4","4","4","5","5","6","6","6","7","3","6","2","5","5","7","5","3","4","697447755366268928","罗","271","Male","[""坏我"",""好我"",""坏他"",""好他""]","[""弱我"",""强我"",""弱他"",""强他""]","","","","","","","","6","","","","","","","","","SRET","SRET_math_calculate","","key","6","16.66810958904106","640","396","","","","","4+2= ?","6","1","","","","","","",""
"2990","","3","psychophysics","112","555712","0.0-7.0-5.0-0.9","5","4","5","5","3","4","4","4","4","4","4","1","0","1","0","-1","1","1","0","4","4","3","2","3","3","3","3","4","4","6","7","5","6","4","4","6","7","7","5","5","4","3","4","3","5","4","3","5","4","3","5","5","3","4","5","3","4","4","4","3","4","4","4","5","5","6","6","6","7","3","6","2","5","5","7","5","3","4","697447755366268928","罗","271","Male","[""坏我"",""好我"",""坏他"",""好他""]","[""弱我"",""强我"",""弱他"",""强他""]","","","","","","","","3","","","","","","","","","SRET","SRET_math_calculate","","key","3","16.668536312848865","640","396","","","","","9-6= ?","3","1","","","","","","",""
"2232","","5","psychophysics","113","557945","0.0-7.0-5.0-0.10","5","4","5","5","3","4","4","4","4","4","4","1","0","1","0","-1","1","1","0","4","4","3","2","3","3","3","3","4","4","6","7","5","6","4","4","6","7","7","5","5","4","3","4","3","5","4","3","5","4","3","5","5","3","4","5","3","4","4","4","3","4","4","4","5","5","6","6","6","7","3","6","2","5","5","7","5","3","4","697447755366268928","罗","271","Male","[""坏我"",""好我"",""坏他"",""好他""]","[""弱我"",""强我"",""弱他"",""强他""]","","","","","","","","5","","","","","","","","","SRET","SRET_math_calculate","","key","5","16.66627819548865","640","396","","","","","10-5= ?","5","1","","","","","","",""
"2460","","8","psychophysics","114","560411","0.0-7.0-5.0-0.11","5","4","5","5","3","4","4","4","4","4","4","1","0","1","0","-1","1","1","0","4","4","3","2","3","3","3","3","4","4","6","7","5","6","4","4","6","7","7","5","5","4","3","4","3","5","4","3","5","4","3","5","5","3","4","5","3","4","4","4","3","4","4","4","5","5","6","6","6","7","3","6","2","5","5","7","5","3","4","697447755366268928","罗","271","Male","[""坏我"",""好我"",""坏他"",""好他""]","[""弱我"",""强我"",""弱他"",""强他""]","","","","","","","","8","","","","","","","","","SRET","SRET_math_calculate","","key","8","16.66633333333334","640","396","","","","","1+7= ?","8","1","","","","","","",""
"2314","","2","psychophysics","115","562731","0.0-7.0-5.0-0.12","5","4","5","5","3","4","4","4","4","4","4","1","0","1","0","-1","1","1","0","4","4","3","2","3","3","3","3","4","4","6","7","5","6","4","4","6","7","7","5","5","4","3","4","3","5","4","3","5","4","3","5","5","3","4","5","3","4","4","4","3","4","4","4","5","5","6","6","6","7","3","6","2","5","5","7","5","3","4","697447755366268928","罗","271","Male","[""坏我"",""好我"",""坏他"",""好他""]","[""弱我"",""强我"",""弱他"",""强他""]","","","","","","","","2","","","","","","","","","SRET","SRET_math_calculate","","key","2","16.666297101448595","640","396","","","","","29-27= ?","2","1","","","","","","",""
"2420","","9","psychophysics","116","565152","0.0-7.0-5.0-0.13","5","4","5","5","3","4","4","4","4","4","4","1","0","1","0","-1","1","1","0","4","4","3","2","3","3","3","3","4","4","6","7","5","6","4","4","6","7","7","5","5","4","3","4","3","5","4","3","5","4","3","5","5","3","4","5","3","4","4","4","3","4","4","4","5","5","6","6","6","7","3","6","2","5","5","7","5","3","4","697447755366268928","罗","271","Male","[""坏我"",""好我"",""坏他"",""好他""]","[""弱我"",""强我"",""弱他"",""强他""]","","","","","","","","9","","","","","","","","","SRET","SRET_math_calculate","","key","9","16.666312500000156","640","396","","","","","3+6= ?","9","1","","","","","","",""
"2070","","2","psychophysics","117","567230","0.0-7.0-5.0-0.14","5","4","5","5","3","4","4","4","4","4","4","1","0","1","0","-1","1","1","0","4","4","3","2","3","3","3","3","4","4","6","7","5","6","4","4","6","7","7","5","5","4","3","4","3","5","4","3","5","4","3","5","5","3","4","5","3","4","4","4","3","4","4","4","5","5","6","6","6","7","3","6","2","5","5","7","5","3","4","697447755366268928","罗","271","Male","[""坏我"",""好我"",""坏他"",""好他""]","[""弱我"",""强我"",""弱他"",""强他""]","","","","","","","","2","","","","","","","","","SRET","SRET_math_calculate","","key","2","16.667112903226347","640","396","","","","","11-8= ?","3","0","","","","","","",""
"2155","","9","psychophysics","118","569386","0.0-7.0-5.0-0.15","5","4","5","5","3","4","4","4","4","4","4","1","0","1","0","-1","1","1","0","4","4","3","2","3","3","3","3","4","4","6","7","5","6","4","4","6","7","7","5","5","4","3","4","3","5","4","3","5","4","3","5","5","3","4","5","3","4","4","4","3","4","4","4","5","5","6","6","6","7","3","6","2","5","5","7","5","3","4","697447755366268928","罗","271","Male","[""坏我"",""好我"",""坏他"",""好他""]","[""弱我"",""强我"",""弱他"",""强他""]","","","","","","","","9","","","","","","","","","SRET","SRET_math_calculate","","key","9","16.668234374999884","640","396","","","","","1+8= ?","9","1","","","","","","",""
"3172","","9","psychophysics","119","572559","0.0-7.0-5.0-0.16","5","4","5","5","3","4","4","4","4","4","4","1","0","1","0","-1","1","1","0","4","4","3","2","3","3","3","3","4","4","6","7","5","6","4","4","6","7","7","5","5","4","3","4","3","5","4","3","5","4","3","5","5","3","4","5","3","4","4","4","3","4","4","4","5","5","6","6","6","7","3","6","2","5","5","7","5","3","4","697447755366268928","罗","271","Male","[""坏我"",""好我"",""坏他"",""好他""]","[""弱我"",""强我"",""弱他"",""强他""]","","","","","","","","9","","","","","","","","","SRET","SRET_math_calculate","","key","9","16.666326315789853","640","396","","","","","2+7= ?","9","1","","","","","","",""
"2110","","2","psychophysics","120","574670","0.0-7.0-5.0-0.17","5","4","5","5","3","4","4","4","4","4","4","1","0","1","0","-1","1","1","0","4","4","3","2","3","3","3","3","4","4","6","7","5","6","4","4","6","7","7","5","5","4","3","4","3","5","4","3","5","4","3","5","5","3","4","5","3","4","4","4","3","4","4","4","5","5","6","6","6","7","3","6","2","5","5","7","5","3","4","697447755366268928","罗","271","Male","[""坏我"",""好我"",""坏他"",""好他""]","[""弱我"",""强我"",""弱他"",""强他""]","","","","","","","","2","","","","","","","","","SRET","SRET_math_calculate","","key","2","16.666360000000335","640","396","","","","","9-8= ?","1","0","","","","","","",""
"3116","","4","psychophysics","121","577787","0.0-7.0-5.0-0.18","5","4","5","5","3","4","4","4","4","4","4","1","0","1","0","-1","1","1","0","4","4","3","2","3","3","3","3","4","4","6","7","5","6","4","4","6","7","7","5","5","4","3","4","3","5","4","3","5","4","3","5","5","3","4","5","3","4","4","4","3","4","4","4","5","5","6","6","6","7","3","6","2","5","5","7","5","3","4","697447755366268928","罗","271","Male","[""坏我"",""好我"",""坏他"",""好他""]","[""弱我"",""强我"",""弱他"",""强他""]","","","","","","","","4","","","","","","","","","SRET","SRET_math_calculate","","key","4","16.666241935483725","640","396","","","","","20/5= ?","4","1","","","","","","",""
"2475","","8","psychophysics","122","580263","0.0-7.0-5.0-0.19","5","4","5","5","3","4","4","4","4","4","4","1","0","1","0","-1","1","1","0","4","4","3","2","3","3","3","3","4","4","6","7","5","6","4","4","6","7","7","5","5","4","3","4","3","5","4","3","5","4","3","5","5","3","4","5","3","4","4","4","3","4","4","4","5","5","6","6","6","7","3","6","2","5","5","7","5","3","4","697447755366268928","罗","271","Male","[""坏我"",""好我"",""坏他"",""好他""]","[""弱我"",""强我"",""弱他"",""强他""]","","","","","","","","8","","","","","","","","","SRET","SRET_math_calculate","","key","8","16.666391891892214","640","396","","","","","3+5= ?","8","1","","","","","","",""
"2188","","2","psychophysics","123","582452","0.0-7.0-5.0-0.20","5","4","5","5","3","4","4","4","4","4","4","1","0","1","0","-1","1","1","0","4","4","3","2","3","3","3","3","4","4","6","7","5","6","4","4","6","7","7","5","5","4","3","4","3","5","4","3","5","4","3","5","5","3","4","5","3","4","4","4","3","4","4","4","5","5","6","6","6","7","3","6","2","5","5","7","5","3","4","697447755366268928","罗","271","Male","[""坏我"",""好我"",""坏他"",""好他""]","[""弱我"",""强我"",""弱他"",""强他""]","","","","","","","","2","","","","","","","","","SRET","SRET_math_calculate","","key","2","16.66625384615394","640","396","","","","","18/9= ?","2","1","","","","","","",""
"2033","","1","psychophysics","124","584486","0.0-7.0-5.0-0.21","5","4","5","5","3","4","4","4","4","4","4","1","0","1","0","-1","1","1","0","4","4","3","2","3","3","3","3","4","4","6","7","5","6","4","4","6","7","7","5","5","4","3","4","3","5","4","3","5","4","3","5","5","3","4","5","3","4","4","4","3","4","4","4","5","5","6","6","6","7","3","6","2","5","5","7","5","3","4","697447755366268928","罗","271","Male","[""坏我"",""好我"",""坏他"",""好他""]","[""弱我"",""强我"",""弱他"",""强他""]","","","","","","","","1","","","","","","","","","SRET","SRET_math_calculate","","key","1","16.66669421487638","640","396","","","","","12/12= ?","1","1","","","","","","",""
"5043","","7","psychophysics","125","589537","0.0-7.0-5.0-0.22","5","4","5","5","3","4","4","4","4","4","4","1","0","1","0","-1","1","1","0","4","4","3","2","3","3","3","3","4","4","6","7","5","6","4","4","6","7","7","5","5","4","3","4","3","5","4","3","5","4","3","5","5","3","4","5","3","4","4","4","3","4","4","4","5","5","6","6","6","7","3","6","2","5","5","7","5","3","4","697447755366268928","罗","271","Male","[""坏我"",""好我"",""坏他"",""好他""]","[""弱我"",""强我"",""弱他"",""强他""]","","","","","","","","7","","","","","","","","","SRET","SRET_math_calculate","","key","7","16.666569536423854","640","396","","","","","11-4= ?","7","1","","","","","","",""
"2509","","4","psychophysics","126","592047","0.0-7.0-5.0-0.23","5","4","5","5","3","4","4","4","4","4","4","1","0","1","0","-1","1","1","0","4","4","3","2","3","3","3","3","4","4","6","7","5","6","4","4","6","7","7","5","5","4","3","4","3","5","4","3","5","4","3","5","5","3","4","5","3","4","4","4","3","4","4","4","5","5","6","6","6","7","3","6","2","5","5","7","5","3","4","697447755366268928","罗","271","Male","[""坏我"",""好我"",""坏他"",""好他""]","[""弱我"",""强我"",""弱他"",""强他""]","","","","","","","","4","","","","","","","","","SRET","SRET_math_calculate","","key","4","16.66625333333388","640","396","","","","","8-4= ?","4","1","","","","","","",""
"1789","","2","psychophysics","127","593837","0.0-7.0-5.0-0.24","5","4","5","5","3","4","4","4","4","4","4","1","0","1","0","-1","1","1","0","4","4","3","2","3","3","3","3","4","4","6","7","5","6","4","4","6","7","7","5","5","4","3","4","3","5","4","3","5","4","3","5","5","3","4","5","3","4","4","4","3","4","4","4","5","5","6","6","6","7","3","6","2","5","5","7","5","3","4","697447755366268928","罗","271","Male","[""坏我"",""好我"",""坏他"",""好他""]","[""弱我"",""强我"",""弱他"",""强他""]","","","","","","","","2","","","","","","","","","SRET","SRET_math_calculate","","key","2","16.66889622641446","640","396","","","","","8-6= ?","2","1","","","","","","",""
"4112","","8","psychophysics","128","597950","0.0-7.0-5.0-0.25","5","4","5","5","3","4","4","4","4","4","4","1","0","1","0","-1","1","1","0","4","4","3","2","3","3","3","3","4","4","6","7","5","6","4","4","6","7","7","5","5","4","3","4","3","5","4","3","5","4","3","5","5","3","4","5","3","4","4","4","3","4","4","4","5","5","6","6","6","7","3","6","2","5","5","7","5","3","4","697447755366268928","罗","271","Male","[""坏我"",""好我"",""坏他"",""好他""]","[""弱我"",""强我"",""弱他"",""强他""]","","","","","","","","8","","","","","","","","","SRET","SRET_math_calculate","","key","8","16.666434959349473","640","396","","","","","13-5= ?","8","1","","","","","","",""
"2596","","8","psychophysics","129","600547","0.0-7.0-5.0-0.26","5","4","5","5","3","4","4","4","4","4","4","1","0","1","0","-1","1","1","0","4","4","3","2","3","3","3","3","4","4","6","7","5","6","4","4","6","7","7","5","5","4","3","4","3","5","4","3","5","4","3","5","5","3","4","5","3","4","4","4","3","4","4","4","5","5","6","6","6","7","3","6","2","5","5","7","5","3","4","697447755366268928","罗","271","Male","[""坏我"",""好我"",""坏他"",""好他""]","[""弱我"",""强我"",""弱他"",""强他""]","","","","","","","","8","","","","","","","","","SRET","SRET_math_calculate","","key","8","16.666709677419146","640","396","","","","","9-1= ?","8","1","","","","","","",""
"2420","","0","psychophysics","130","602968","0.0-7.0-5.0-0.27","5","4","5","5","3","4","4","4","4","4","4","1","0","1","0","-1","1","1","0","4","4","3","2","3","3","3","3","4","4","6","7","5","6","4","4","6","7","7","5","5","4","3","4","3","5","4","3","5","4","3","5","5","3","4","5","3","4","4","4","3","4","4","4","5","5","6","6","6","7","3","6","2","5","5","7","5","3","4","697447755366268928","罗","271","Male","[""坏我"",""好我"",""坏他"",""好他""]","[""弱我"",""强我"",""弱他"",""强他""]","","","","","","","","0","","","","","","","","","SRET","SRET_math_calculate","","key","0","16.668326388888495","640","396","","","","","32-32= ?","0","1","","","","","","",""
"9311","","8","psychophysics","131","612287","0.0-7.0-5.0-0.28","5","4","5","5","3","4","4","4","4","4","4","1","0","1","0","-1","1","1","0","4","4","3","2","3","3","3","3","4","4","6","7","5","6","4","4","6","7","7","5","5","4","3","4","3","5","4","3","5","4","3","5","5","3","4","5","3","4","4","4","3","4","4","4","5","5","6","6","6","7","3","6","2","5","5","7","5","3","4","697447755366268928","罗","271","Male","[""坏我"",""好我"",""坏他"",""好他""]","[""弱我"",""强我"",""弱他"",""强他""]","","","","","","","","8","","","","","","","","","SRET","SRET_math_calculate","","key","8","16.666650537634478","640","396","","","","","56/7= ?","8","1","","","","","","",""
"3581","","1","psychophysics","132","615868","0.0-7.0-5.0-0.29","5","4","5","5","3","4","4","4","4","4","4","1","0","1","0","-1","1","1","0","4","4","3","2","3","3","3","3","4","4","6","7","5","6","4","4","6","7","7","5","5","4","3","4","3","5","4","3","5","4","3","5","5","3","4","5","3","4","4","4","3","4","4","4","5","5","6","6","6","7","3","6","2","5","5","7","5","3","4","697447755366268928","罗","271","Male","[""坏我"",""好我"",""坏他"",""好他""]","[""弱我"",""强我"",""弱他"",""强他""]","","","","","","","","1","","","","","","","","","SRET","SRET_math_calculate","","key","1","16.666439252336527","640","396","","","","","30-29= ?","1","1","","","","","","",""
"3139","","8","psychophysics","133","619008","0.0-7.0-5.0-0.30","5","4","5","5","3","4","4","4","4","4","4","1","0","1","0","-1","1","1","0","4","4","3","2","3","3","3","3","4","4","6","7","5","6","4","4","6","7","7","5","5","4","3","4","3","5","4","3","5","4","3","5","5","3","4","5","3","4","4","4","3","4","4","4","5","5","6","6","6","7","3","6","2","5","5","7","5","3","4","697447755366268928","罗","271","Male","[""坏我"",""好我"",""坏他"",""好他""]","[""弱我"",""强我"",""弱他"",""强他""]","","","","","","","","8","","","","","","","","","SRET","SRET_math_calculate","","key","8","16.666377659574366","640","396","","","","","1*8= ?","8","1","","","","","","",""
"2043","","9","psychophysics","134","621052","0.0-7.0-5.0-0.31","5","4","5","5","3","4","4","4","4","4","4","1","0","1","0","-1","1","1","0","4","4","3","2","3","3","3","3","4","4","6","7","5","6","4","4","6","7","7","5","5","4","3","4","3","5","4","3","5","4","3","5","5","3","4","5","3","4","4","4","3","4","4","4","5","5","6","6","6","7","3","6","2","5","5","7","5","3","4","697447755366268928","罗","271","Male","[""坏我"",""好我"",""坏他"",""好他""]","[""弱我"",""强我"",""弱他"",""强他""]","","","","","","","","9","","","","","","","","","SRET","SRET_math_calculate","","key","9","16.666198347107322","640","396","","","","","7+2= ?","9","1","","","","","","",""
"2360","","8","psychophysics","135","623419","0.0-7.0-5.0-0.32","5","4","5","5","3","4","4","4","4","4","4","1","0","1","0","-1","1","1","0","4","4","3","2","3","3","3","3","4","4","6","7","5","6","4","4","6","7","7","5","5","4","3","4","3","5","4","3","5","4","3","5","5","3","4","5","3","4","4","4","3","4","4","4","5","5","6","6","6","7","3","6","2","5","5","7","5","3","4","697447755366268928","罗","271","Male","[""坏我"",""好我"",""坏他"",""好他""]","[""弱我"",""强我"",""弱他"",""强他""]","","","","","","","","8","","","","","","","","","SRET","SRET_math_calculate","","key","8","16.66634042553128","640","396","","","","","4*2= ?","8","1","","","","","","",""
"1999","","8","psychophysics","136","625419","0.0-7.0-5.0-0.33","5","4","5","5","3","4","4","4","4","4","4","1","0","1","0","-1","1","1","0","4","4","3","2","3","3","3","3","4","4","6","7","5","6","4","4","6","7","7","5","5","4","3","4","3","5","4","3","5","4","3","5","5","3","4","5","3","4","4","4","3","4","4","4","5","5","6","6","6","7","3","6","2","5","5","7","5","3","4","697447755366268928","罗","271","Male","[""坏我"",""好我"",""坏他"",""好他""]","[""弱我"",""强我"",""弱他"",""强他""]","","","","","","","","8","","","","","","","","","SRET","SRET_math_calculate","","key","8","16.666302521008717","640","396","","","","","5+3= ?","8","1","","","","","","",""
"1845","","9","psychophysics","137","627265","0.0-7.0-5.0-0.34","5","4","5","5","3","4","4","4","4","4","4","1","0","1","0","-1","1","1","0","4","4","3","2","3","3","3","3","4","4","6","7","5","6","4","4","6","7","7","5","5","4","3","4","3","5","4","3","5","4","3","5","5","3","4","5","3","4","4","4","3","4","4","4","5","5","6","6","6","7","3","6","2","5","5","7","5","3","4","697447755366268928","罗","271","Male","[""坏我"",""好我"",""坏他"",""好他""]","[""弱我"",""强我"",""弱他"",""强他""]","","","","","","","","9","","","","","","","","","SRET","SRET_math_calculate","","key","9","16.66601818181807","640","396","","","","","8+1= ?","9","1","","","","","","",""
"2596","","3","psychophysics","138","629862","0.0-7.0-5.0-0.35","5","4","5","5","3","4","4","4","4","4","4","1","0","1","0","-1","1","1","0","4","4","3","2","3","3","3","3","4","4","6","7","5","6","4","4","6","7","7","5","5","4","3","4","3","5","4","3","5","4","3","5","5","3","4","5","3","4","4","4","3","4","4","4","5","5","6","6","6","7","3","6","2","5","5","7","5","3","4","697447755366268928","罗","271","Male","[""坏我"",""好我"",""坏他"",""好他""]","[""弱我"",""强我"",""弱他"",""强他""]","","","","","","","","3","","","","","","","","","SRET","SRET_math_calculate","","key","3","16.66634193548422","640","396","","","","","2+1= ?","3","1","","","","","","",""
"3304","","9","psychophysics","139","633167","0.0-7.0-5.0-0.36","5","4","5","5","3","4","4","4","4","4","4","1","0","1","0","-1","1","1","0","4","4","3","2","3","3","3","3","4","4","6","7","5","6","4","4","6","7","7","5","5","4","3","4","3","5","4","3","5","4","3","5","5","3","4","5","3","4","4","4","3","4","4","4","5","5","6","6","6","7","3","6","2","5","5","7","5","3","4","697447755366268928","罗","271","Male","[""坏我"",""好我"",""坏他"",""好他""]","[""弱我"",""强我"",""弱他"",""强他""]","","","","","","","","9","","","","","","","","","SRET","SRET_math_calculate","","key","9","16.666370558375753","640","396","","","","","32-23= ?","9","1","","","","","","",""
"3283","","3","psychophysics","140","636451","0.0-7.0-5.0-0.37","5","4","5","5","3","4","4","4","4","4","4","1","0","1","0","-1","1","1","0","4","4","3","2","3","3","3","3","4","4","6","7","5","6","4","4","6","7","7","5","5","4","3","4","3","5","4","3","5","4","3","5","5","3","4","5","3","4","4","4","3","4","4","4","5","5","6","6","6","7","3","6","2","5","5","7","5","3","4","697447755366268928","罗","271","Male","[""坏我"",""好我"",""坏他"",""好他""]","[""弱我"",""强我"",""弱他"",""强他""]","","","","","","","","3","","","","","","","","","SRET","SRET_math_calculate","","key","3","16.66626530612239","640","396","","","","","12/4= ?","3","1","","","","","","",""
"2541","","9","psychophysics","141","638993","0.0-7.0-5.0-0.38","5","4","5","5","3","4","4","4","4","4","4","1","0","1","0","-1","1","1","0","4","4","3","2","3","3","3","3","4","4","6","7","5","6","4","4","6","7","7","5","5","4","3","4","3","5","4","3","5","4","3","5","5","3","4","5","3","4","4","4","3","4","4","4","5","5","6","6","6","7","3","6","2","5","5","7","5","3","4","697447755366268928","罗","271","Male","[""坏我"",""好我"",""坏他"",""好他""]","[""弱我"",""强我"",""弱他"",""强他""]","","","","","","","","9","","","","","","","","","SRET","SRET_math_calculate","","key","9","16.66613815789491","640","396","","","","","18/2= ?","9","1","","","","","","",""
"2713","","3","psychophysics","142","641712","0.0-7.0-5.0-0.39","5","4","5","5","3","4","4","4","4","4","4","1","0","1","0","-1","1","1","0","4","4","3","2","3","3","3","3","4","4","6","7","5","6","4","4","6","7","7","5","5","4","3","4","3","5","4","3","5","4","3","5","5","3","4","5","3","4","4","4","3","4","4","4","5","5","6","6","6","7","3","6","2","5","5","7","5","3","4","697447755366268928","罗","271","Male","[""坏我"",""好我"",""坏他"",""好他""]","[""弱我"",""强我"",""弱他"",""强他""]","","","","","","","","3","","","","","","","","","SRET","SRET_math_calculate","","key","3","16.66629012345615","640","396","","","","","21/7=  ?","3","1","","","","","","",""
"2961","","8","psychophysics","143","644674","0.0-7.0-5.0-0.40","5","4","5","5","3","4","4","4","4","4","4","1","0","1","0","-1","1","1","0","4","4","3","2","3","3","3","3","4","4","6","7","5","6","4","4","6","7","7","5","5","4","3","4","3","5","4","3","5","4","3","5","5","3","4","5","3","4","4","4","3","4","4","4","5","5","6","6","6","7","3","6","2","5","5","7","5","3","4","697447755366268928","罗","271","Male","[""坏我"",""好我"",""坏他"",""好他""]","[""弱我"",""强我"",""弱他"",""强他""]","","","","","","","","8","","","","","","","","","SRET","SRET_math_calculate","","key","8","16.66636158192088","640","396","","","","","50-42= ?","8","1","","","","","","",""
"2520","","7","psychophysics","144","647195","0.0-7.0-5.0-0.41","5","4","5","5","3","4","4","4","4","4","4","1","0","1","0","-1","1","1","0","4","4","3","2","3","3","3","3","4","4","6","7","5","6","4","4","6","7","7","5","5","4","3","4","3","5","4","3","5","4","3","5","5","3","4","5","3","4","4","4","3","4","4","4","5","5","6","6","6","7","3","6","2","5","5","7","5","3","4","697447755366268928","罗","271","Male","[""坏我"",""好我"",""坏他"",""好他""]","[""弱我"",""强我"",""弱他"",""强他""]","","","","","","","","7","","","","","","","","","SRET","SRET_math_calculate","","key","7","16.666273333333276","640","396","","","","","2+5= ?","7","1","","","","","","",""
