"rt","stimulus","response","trial_type","trial_index","time_elapsed","internal_node_id","swb_1","swb_2","swb_3","swb_4","swb_5","LOT_1","LOT_2","LOT_3","LOT_4","LOT_5","LOT_6","IPC_1","IPC_2","IPC_3","IPC_4","IPC_5","IPC_6","IPC_7","IPC_8","MorIden_1","MorIden_2","MorIden_3","MorIden_4","MorIden_5","MorIden_6","MorIden_7","MorIden_8","MorIden_9","MorIden_10","moralSeImag_1","moralSeImag_2","moralSeImag_3","moralSeImag_4","moralSeImag_5","moralSeImag_6","moralSeImag_7","moralSeImag_8","moralSeImag_9","sde_1","sde_2","sde_3","sde_4","sde_5","sde_6","sde_7","sde_8","sde_9","sde_10","sde_11","sde_12","sde_13","sde_14","sde_15","sde_16","sde_17","sde_18","sde_19","sde_20","IM_1","IM_2","IM_3","IM_4","IM_5","IM_6","IM_7","IM_8","IM_9","IM_10","IM_11","IM_12","IM_13","IM_14","IM_15","IM_16","IM_17","IM_18","IM_19","IM_20","subj_idx","friend_name","ParticipantID","Sex","Word","Word2","value","success","timeout","failed_images","failed_audio","failed_video","user_agent","responses","item_order","radio_event_ids","radio_event_times","key_event_times","mouse_event_times","straightlining","zigzagging","honeypot","task_id","screen_id","time_stamp","response_type","key_press","avg_frame_time","center_x","center_y","person","word","valence","domain","math","correct_response","correct","status","view_history","identity","duration","Image","condition","question_order"
"14792","
   <p><div style='color:white; font-size: 25px'>您好，欢迎参加本次实验。</div></p>
   <p><div style='color:white; font-size: 25px'>为充分保障您的权利，请确保您已经知晓并同意《参与实验同意书》以及《数据公开知情同意书》。</div></p>
   <p><div style='color:white; font-size: 25px'>如果您未见过上述内容，请咨询实验员。</div></p>
   <p style='color:white; font-size: 25px'>如果您选择继续实验，则表示您已经清楚两份知情同意书的内容并同意。</p>
   <p><div style = ""color: red;font-size:30px;"">请确保您记得day0的实验编号，您将在本次实验输入该编号，若您忘记，请咨询实验员后作答。</div></p>
   <p> <div style = ""color: green""><按空格键至下页></div> </p>
   "," ","html-keyboard-response","0","14795","0.0-0.0","5","6","5","4","3","5","2","4","4","5","5","1","0","1","2","-2","1","0","1","4","5","5","5","5","4","4","3","4","5","4","6","3","6","3","2","4","4","3","5","2","2","3","6","3","3","1","5","4","1","2","5","2","2","4","4","3","6","3","2","3","3","1","2","3","2","7","3","7","3","1","4","2","3","1","3","3","1","3","732578051896119298","王","649","Female","[""好我"",""坏我"",""坏她"",""好她""]","[""强我"",""弱我"",""弱她"",""强她""]","","","","","","","","","","","","","","","","","","","","","","","","","","","","","","","","","","","","","",""
"","","","call-function","1","14796","0.0-1.0-0.0","5","6","5","4","3","5","2","4","4","5","5","1","0","1","2","-2","1","0","1","4","5","5","5","5","4","4","3","4","5","4","6","3","6","3","2","4","4","3","5","2","2","3","6","3","3","1","5","4","1","2","5","2","2","4","4","3","6","3","2","3","3","1","2","3","2","7","3","7","3","1","4","2","3","1","3","3","1","3","732578051896119298","王","649","Female","[""好我"",""坏我"",""坏她"",""好她""]","[""强我"",""弱我"",""弱她"",""强她""]","","","","","","","","","","","","","","","","","","","","","","","","","","","","","","","","","","","","","",""
"53302","","[{""name"":""Sex"",""value"":""1""},{""name"":""friend_name"",""value"":""王""},{""name"":""ParticipantID"",""value"":""649""}]","survey-html-form","2","68112","0.0-1.0-1.0","5","6","5","4","3","5","2","4","4","5","5","1","0","1","2","-2","1","0","1","4","5","5","5","5","4","4","3","4","5","4","6","3","6","3","2","4","4","3","5","2","2","3","6","3","3","1","5","4","1","2","5","2","2","4","4","3","6","3","2","3","3","1","2","3","2","7","3","7","3","1","4","2","3","1","3","3","1","3","732578051896119298","王","649","Female","[""好我"",""坏我"",""坏她"",""好她""]","[""强我"",""弱我"",""弱她"",""强她""]","","","","","","","","","","","","","","","","","","","","","","","","","","","","","","","","","","","","","",""
"","","","preload","3","68396","0.0-2.0","5","6","5","4","3","5","2","4","4","5","5","1","0","1","2","-2","1","0","1","4","5","5","5","5","4","4","3","4","5","4","6","3","6","3","2","4","4","3","5","2","2","3","6","3","3","1","5","4","1","2","5","2","2","4","4","3","6","3","2","3","3","1","2","3","2","7","3","7","3","1","4","2","3","1","3","3","1","3","732578051896119298","王","649","Female","[""好我"",""坏我"",""坏她"",""好她""]","[""强我"",""弱我"",""弱她"",""强她""]","","true","false","[]","[]","[]","","","","","","","","","","","","","","","","","","","","","","","","","","","","","","","",""
"","","","fullscreen","4","70382","0.0-3.0","5","6","5","4","3","5","2","4","4","5","5","1","0","1","2","-2","1","0","1","4","5","5","5","5","4","4","3","4","5","4","6","3","6","3","2","4","4","3","5","2","2","3","6","3","3","1","5","4","1","2","5","2","2","4","4","3","6","3","2","3","3","1","2","3","2","7","3","7","3","1","4","2","3","1","3","3","1","3","732578051896119298","王","649","Female","[""好我"",""坏我"",""坏她"",""好她""]","[""强我"",""弱我"",""弱她"",""强她""]","","true","","","","","{}","","","","","","","","","","","","","","","","","","","","","","","","","","","","","","",""
"31002.600000023842","","{""Q01"":""5"",""Q02"":""6"",""Q03"":""5"",""Q04"":""4"",""Q05"":""3""}","survey-template","5","101401","0.0-4.0","5","6","5","4","3","5","2","4","4","5","5","1","0","1","2","-2","1","0","1","4","5","5","5","5","4","4","3","4","5","4","6","3","6","3","2","4","4","3","5","2","2","3","6","3","3","1","5","4","1","2","5","2","2","4","4","3","6","3","2","3","3","1","2","3","2","7","3","7","3","1","4","2","3","1","3","3","1","3","732578051896119298","王","649","Female","[""好我"",""坏我"",""坏她"",""好她""]","[""强我"",""弱我"",""弱她"",""强她""]","","","","","","","","{""Q01"":""5"",""Q02"":""6"",""Q03"":""5"",""Q04"":""4"",""Q05"":""3""}","[0,1,2,3,4]","[""Q01"",""Q02"",""Q03"",""Q04"",""Q05""]","[7796.300000011921,8876.40000000596,9942.200000017881,27186.600000023842,30078.5]","[]","[5236.100000023842,7796.300000011921,8876.40000000596,9942.200000017881,27186.600000023842,28810,30078.5,31001.90000000596]","0.4","1","0","","","","","","","","","","","","","","","","","","","","","",""
"20882.100000023842","","{""Q01"":""5"",""Q02"":""2"",""Q03"":""4"",""Q04"":""4"",""Q05"":""5"",""Q06"":""5""}","survey-template","6","122287","0.0-5.0","5","6","5","4","3","5","2","4","4","5","5","1","0","1","2","-2","1","0","1","4","5","5","5","5","4","4","3","4","5","4","6","3","6","3","2","4","4","3","5","2","2","3","6","3","3","1","5","4","1","2","5","2","2","4","4","3","6","3","2","3","3","1","2","3","2","7","3","7","3","1","4","2","3","1","3","3","1","3","732578051896119298","王","649","Female","[""好我"",""坏我"",""坏她"",""好她""]","[""强我"",""弱我"",""弱她"",""强她""]","","","","","","","","{""Q01"":""5"",""Q02"":""2"",""Q03"":""4"",""Q04"":""4"",""Q05"":""5"",""Q06"":""5""}","[0,1,2,3,4,5]","[""Q01"",""Q01"",""Q02"",""Q03"",""Q04"",""Q05"",""Q06""]","[4589.800000011921,7185.700000017881,8695.600000023842,12167.700000017881,15493.700000017881,17257.600000023842,20221.90000000596]","[]","[4589.800000011921,5801.800000011921,7185.700000017881,8695.600000023842,12167.700000017881,15493.700000017881,17257.600000023842,19817.70000001788,20221.90000000596,20881.40000000596]","0.3333333333333333","0.6","0","","","","","","","","","","","","","","","","","","","","","",""
"26522.20000001788","","{""Q01"":""1"",""Q02"":""0"",""Q03"":""1"",""Q04"":""2"",""Q05"":""-2"",""Q06"":""1"",""Q07"":""0"",""Q08"":""1""}","survey-template","7","148813","0.0-6.0","5","6","5","4","3","5","2","4","4","5","5","1","0","1","2","-2","1","0","1","4","5","5","5","5","4","4","3","4","5","4","6","3","6","3","2","4","4","3","5","2","2","3","6","3","3","1","5","4","1","2","5","2","2","4","4","3","6","3","2","3","3","1","2","3","2","7","3","7","3","1","4","2","3","1","3","3","1","3","732578051896119298","王","649","Female","[""好我"",""坏我"",""坏她"",""好她""]","[""强我"",""弱我"",""弱她"",""强她""]","","","","","","","","{""Q01"":""1"",""Q02"":""0"",""Q03"":""1"",""Q04"":""2"",""Q05"":""-2"",""Q06"":""1"",""Q07"":""0"",""Q08"":""1""}","[0,1,2,3,4,5,6,7]","[""Q01"",""Q02"",""Q02"",""Q03"",""Q04"",""Q05"",""Q06"",""Q07"",""Q08""]","[2562.7000000178814,6242.5,7562.700000017881,10088.800000011921,14284.800000011921,15896.700000017881,19974.90000000596,22650.80000001192,25624.80000001192]","[]","[2562.7000000178814,5570.9000000059605,6242.5,7562.700000017881,10088.800000011921,13756.800000011921,14284.800000011921,15896.700000017881,19974.90000000596,22650.80000001192,25624.80000001192,26520.90000000596]","0.5","0.7142857142857143","0","","","","","","","","","","","","","","","","","","","","","",""
"33882","
    <p><div style='color:white;font-size:35px; line-height:20px;'>词汇评估任务</div></p><br>
    <p><div style='color:white;font-size:25px; line-height:20px;'>请再次回忆该亲密的朋友，你们至少2年前就认识了，并且最近2年经常见面。</div></p>
    <p><div style='color:white;font-size:25px; line-height:20px;'>在本实验中，您将会看到一些形容词。</div></p>
    <p><div style='color:yellow;font-size:25px; line-height:20px;'>您的任务是判断这些形容词是否符合对您自己或您的朋友的描述。</div></p><p style='font-size:35px'>符合按<span style=""color:lightgreen""> j 键</span>，不符合按<span style=""color:red""> f 键</span></p>","0","html-button-response","8","182711","0.0-7.0-0.0","5","6","5","4","3","5","2","4","4","5","5","1","0","1","2","-2","1","0","1","4","5","5","5","5","4","4","3","4","5","4","6","3","6","3","2","4","4","3","5","2","2","3","6","3","3","1","5","4","1","2","5","2","2","4","4","3","6","3","2","3","3","1","2","3","2","7","3","7","3","1","4","2","3","1","3","3","1","3","732578051896119298","王","649","Female","[""好我"",""坏我"",""坏她"",""好她""]","[""强我"",""弱我"",""弱她"",""强她""]","","","","","","","","","","","","","","","","","SRET_EW","EW_instructions","Sat Nov 25 2023 12:08:12 GMT+0800 (中国标准时间)","","","","","","","","","","","","","","","","","","",""
"1055","","j","psychophysics","9","184770","0.0-7.0-1.0-0.0","5","6","5","4","3","5","2","4","4","5","5","1","0","1","2","-2","1","0","1","4","5","5","5","5","4","4","3","4","5","4","6","3","6","3","2","4","4","3","5","2","2","3","6","3","3","1","5","4","1","2","5","2","2","4","4","3","6","3","2","3","3","1","2","3","2","7","3","7","3","1","4","2","3","1","3","3","1","3","732578051896119298","王","649","Female","[""好我"",""坏我"",""坏她"",""好她""]","[""强我"",""弱我"",""弱她"",""强她""]","","","","","","","","yes","","","","","","","","","SRET_EW","EW_practice","","key","j","16.66687804878059","768","428","朋友","徇私","Negative","morality","","","","","","","","","",""
"627","","f","psychophysics","10","186398","0.0-7.0-1.0-0.1","5","6","5","4","3","5","2","4","4","5","5","1","0","1","2","-2","1","0","1","4","5","5","5","5","4","4","3","4","5","4","6","3","6","3","2","4","4","3","5","2","2","3","6","3","3","1","5","4","1","2","5","2","2","4","4","3","6","3","2","3","3","1","2","3","2","7","3","7","3","1","4","2","3","1","3","3","1","3","732578051896119298","王","649","Female","[""好我"",""坏我"",""坏她"",""好她""]","[""强我"",""弱我"",""弱她"",""强她""]","","","","","","","","no","","","","","","","","","SRET_EW","EW_practice","","key","f","16.666608247422605","768","428","朋友","忠实","Positive","morality","","","","","","","","","",""
"663","","f","psychophysics","11","188063","0.0-7.0-1.0-0.2","5","6","5","4","3","5","2","4","4","5","5","1","0","1","2","-2","1","0","1","4","5","5","5","5","4","4","3","4","5","4","6","3","6","3","2","4","4","3","5","2","2","3","6","3","3","1","5","4","1","2","5","2","2","4","4","3","6","3","2","3","3","1","2","3","2","7","3","7","3","1","4","2","3","1","3","3","1","3","732578051896119298","王","649","Female","[""好我"",""坏我"",""坏她"",""好她""]","[""强我"",""弱我"",""弱她"",""强她""]","","","","","","","","no","","","","","","","","","SRET_EW","EW_practice","","key","f","16.66443434343444","768","428","自己","严谨","Positive","ability","","","","","","","","","",""
"1255","","j","psychophysics","12","190319","0.0-7.0-1.0-0.3","5","6","5","4","3","5","2","4","4","5","5","1","0","1","2","-2","1","0","1","4","5","5","5","5","4","4","3","4","5","4","6","3","6","3","2","4","4","3","5","2","2","3","6","3","3","1","5","4","1","2","5","2","2","4","4","3","6","3","2","3","3","1","2","3","2","7","3","7","3","1","4","2","3","1","3","3","1","3","732578051896119298","王","649","Female","[""好我"",""坏我"",""坏她"",""好她""]","[""强我"",""弱我"",""弱她"",""强她""]","","","","","","","","yes","","","","","","","","","SRET_EW","EW_practice","","key","j","16.666201492537372","768","428","自己","刻板","Negative","ability","","","","","","","","","",""
"2930","
    <p><div style='color:white;font-size:35px; line-height:20px;'>请您再次阅读实验要求</div></p><br>
    <p><div style='color:white;font-size:25px; line-height:20px;'>请回忆某一个亲密的朋友，你们至少2年前就认识了，并且最近2年经常见面。</div></p>
    <p><div style='color:white;font-size:25px; line-height:20px;'>在本实验中，您将会看到一些形容词。</div></p>
    <p><div style='color:yellow;font-size:25px; line-height:20px;'>您的任务是判断这些形容词是否符合对您自己或您的朋友的描述。</div></p>
    <p><div class='footer' style='font-size:25px; line-height:20px;'>如果对本实验还有不清楚之处，请立即向实验员咨询。</p><p style='font-size:25px; line-height:20px;'>如果您明白了规则：</p><p style='font-size:22px; line-height:20px;'>请按 继续 进入正式实验</p>
    </div>
    <p style='font-size:35px'>符合按<span style=""color:lightgreen""> j 键</span>，不符合按<span style=""color:red""> f 键</span></p>","0","html-button-response","13","193250","0.0-7.0-2.0","5","6","5","4","3","5","2","4","4","5","5","1","0","1","2","-2","1","0","1","4","5","5","5","5","4","4","3","4","5","4","6","3","6","3","2","4","4","3","5","2","2","3","6","3","3","1","5","4","1","2","5","2","2","4","4","3","6","3","2","3","3","1","2","3","2","7","3","7","3","1","4","2","3","1","3","3","1","3","732578051896119298","王","649","Female","[""好我"",""坏我"",""坏她"",""好她""]","[""强我"",""弱我"",""弱她"",""强她""]","","","","","","","","","","","","","","","","","SRET_EW","prac_instructions","Sat Nov 25 2023 12:08:12 GMT+0800 (中国标准时间)","","","","","","","","","","","","","","","","","","",""
"630","","f","psychophysics","14","194882","0.0-7.0-3.0-0.0","5","6","5","4","3","5","2","4","4","5","5","1","0","1","2","-2","1","0","1","4","5","5","5","5","4","4","3","4","5","4","6","3","6","3","2","4","4","3","5","2","2","3","6","3","3","1","5","4","1","2","5","2","2","4","4","3","6","3","2","3","3","1","2","3","2","7","3","7","3","1","4","2","3","1","3","3","1","3","732578051896119298","王","649","Female","[""好我"",""坏我"",""坏她"",""好她""]","[""强我"",""弱我"",""弱她"",""强她""]","","","","","","","","no","","","","","","","","","SRET","EW_formal","","key","f","16.667520408163426","768","428","朋友","务实","Positive","ability","","","","","","","","","",""
"418","","f","psychophysics","15","196302","0.0-7.0-3.0-0.1","5","6","5","4","3","5","2","4","4","5","5","1","0","1","2","-2","1","0","1","4","5","5","5","5","4","4","3","4","5","4","6","3","6","3","2","4","4","3","5","2","2","3","6","3","3","1","5","4","1","2","5","2","2","4","4","3","6","3","2","3","3","1","2","3","2","7","3","7","3","1","4","2","3","1","3","3","1","3","732578051896119298","王","649","Female","[""好我"",""坏我"",""坏她"",""好她""]","[""强我"",""弱我"",""弱她"",""强她""]","","","","","","","","no","","","","","","","","","SRET","EW_formal","","key","f","16.66655952380963","768","428","自己","坚贞","Positive","morality","","","","","","","","","",""
"700","","f","psychophysics","16","198003","0.0-7.0-3.0-0.2","5","6","5","4","3","5","2","4","4","5","5","1","0","1","2","-2","1","0","1","4","5","5","5","5","4","4","3","4","5","4","6","3","6","3","2","4","4","3","5","2","2","3","6","3","3","1","5","4","1","2","5","2","2","4","4","3","6","3","2","3","3","1","2","3","2","7","3","7","3","1","4","2","3","1","3","3","1","3","732578051896119298","王","649","Female","[""好我"",""坏我"",""坏她"",""好她""]","[""强我"",""弱我"",""弱她"",""强她""]","","","","","","","","no","","","","","","","","","SRET","EW_formal","","key","f","16.667455445544558","768","428","朋友","迷糊","Negative","ability","","","","","","","","","",""
"775","","j","psychophysics","17","199779","0.0-7.0-3.0-0.3","5","6","5","4","3","5","2","4","4","5","5","1","0","1","2","-2","1","0","1","4","5","5","5","5","4","4","3","4","5","4","6","3","6","3","2","4","4","3","5","2","2","3","6","3","3","1","5","4","1","2","5","2","2","4","4","3","6","3","2","3","3","1","2","3","2","7","3","7","3","1","4","2","3","1","3","3","1","3","732578051896119298","王","649","Female","[""好我"",""坏我"",""坏她"",""好她""]","[""强我"",""弱我"",""弱她"",""强她""]","","","","","","","","yes","","","","","","","","","SRET","EW_formal","","key","j","16.66442452830192","768","428","自己","说谎","Negative","morality","","","","","","","","","",""
"734","","f","psychophysics","18","201514","0.0-7.0-3.0-0.4","5","6","5","4","3","5","2","4","4","5","5","1","0","1","2","-2","1","0","1","4","5","5","5","5","4","4","3","4","5","4","6","3","6","3","2","4","4","3","5","2","2","3","6","3","3","1","5","4","1","2","5","2","2","4","4","3","6","3","2","3","3","1","2","3","2","7","3","7","3","1","4","2","3","1","3","3","1","3","732578051896119298","王","649","Female","[""好我"",""坏我"",""坏她"",""好她""]","[""强我"",""弱我"",""弱她"",""强她""]","","","","","","","","no","","","","","","","","","SRET","EW_formal","","key","f","16.665291262135867","768","428","朋友","新手","Negative","ability","","","","","","","","","",""
"539","","f","psychophysics","19","203054","0.0-7.0-3.0-0.5","5","6","5","4","3","5","2","4","4","5","5","1","0","1","2","-2","1","0","1","4","5","5","5","5","4","4","3","4","5","4","6","3","6","3","2","4","4","3","5","2","2","3","6","3","3","1","5","4","1","2","5","2","2","4","4","3","6","3","2","3","3","1","2","3","2","7","3","7","3","1","4","2","3","1","3","3","1","3","732578051896119298","王","649","Female","[""好我"",""坏我"",""坏她"",""好她""]","[""强我"",""弱我"",""弱她"",""强她""]","","","","","","","","no","","","","","","","","","SRET","EW_formal","","key","f","16.666252747252916","768","428","自己","廉正","Positive","morality","","","","","","","","","",""
"910","","f","psychophysics","20","204965","0.0-7.0-3.0-0.6","5","6","5","4","3","5","2","4","4","5","5","1","0","1","2","-2","1","0","1","4","5","5","5","5","4","4","3","4","5","4","6","3","6","3","2","4","4","3","5","2","2","3","6","3","3","1","5","4","1","2","5","2","2","4","4","3","6","3","2","3","3","1","2","3","2","7","3","7","3","1","4","2","3","1","3","3","1","3","732578051896119298","王","649","Female","[""好我"",""坏我"",""坏她"",""好她""]","[""强我"",""弱我"",""弱她"",""强她""]","","","","","","","","no","","","","","","","","","SRET","EW_formal","","key","f","16.66567543859664","768","428","朋友","犹豫","Negative","ability","","","","","","","","","",""
"712","","j","psychophysics","21","206678","0.0-7.0-3.0-0.7","5","6","5","4","3","5","2","4","4","5","5","1","0","1","2","-2","1","0","1","4","5","5","5","5","4","4","3","4","5","4","6","3","6","3","2","4","4","3","5","2","2","3","6","3","3","1","5","4","1","2","5","2","2","4","4","3","6","3","2","3","3","1","2","3","2","7","3","7","3","1","4","2","3","1","3","3","1","3","732578051896119298","王","649","Female","[""好我"",""坏我"",""坏她"",""好她""]","[""强我"",""弱我"",""弱她"",""强她""]","","","","","","","","yes","","","","","","","","","SRET","EW_formal","","key","j","16.666254901960627","768","428","自己","低劣","Negative","morality","","","","","","","","","",""
"777","","j","psychophysics","22","208458","0.0-7.0-3.0-0.8","5","6","5","4","3","5","2","4","4","5","5","1","0","1","2","-2","1","0","1","4","5","5","5","5","4","4","3","4","5","4","6","3","6","3","2","4","4","3","5","2","2","3","6","3","3","1","5","4","1","2","5","2","2","4","4","3","6","3","2","3","3","1","2","3","2","7","3","7","3","1","4","2","3","1","3","3","1","3","732578051896119298","王","649","Female","[""好我"",""坏我"",""坏她"",""好她""]","[""强我"",""弱我"",""弱她"",""强她""]","","","","","","","","yes","","","","","","","","","SRET","EW_formal","","key","j","16.665886792452856","768","428","自己","黑心","Negative","morality","","","","","","","","","",""
"618","","f","psychophysics","23","210078","0.0-7.0-3.0-0.9","5","6","5","4","3","5","2","4","4","5","5","1","0","1","2","-2","1","0","1","4","5","5","5","5","4","4","3","4","5","4","6","3","6","3","2","4","4","3","5","2","2","3","6","3","3","1","5","4","1","2","5","2","2","4","4","3","6","3","2","3","3","1","2","3","2","7","3","7","3","1","4","2","3","1","3","3","1","3","732578051896119298","王","649","Female","[""好我"",""坏我"",""坏她"",""好她""]","[""强我"",""弱我"",""弱她"",""强她""]","","","","","","","","no","","","","","","","","","SRET","EW_formal","","key","f","16.665916666666515","768","428","朋友","善心","Positive","morality","","","","","","","","","",""
"896","","j","psychophysics","24","211974","0.0-7.0-3.0-0.10","5","6","5","4","3","5","2","4","4","5","5","1","0","1","2","-2","1","0","1","4","5","5","5","5","4","4","3","4","5","4","6","3","6","3","2","4","4","3","5","2","2","3","6","3","3","1","5","4","1","2","5","2","2","4","4","3","6","3","2","3","3","1","2","3","2","7","3","7","3","1","4","2","3","1","3","3","1","3","732578051896119298","王","649","Female","[""好我"",""坏我"",""坏她"",""好她""]","[""强我"",""弱我"",""弱她"",""强她""]","","","","","","","","yes","","","","","","","","","SRET","EW_formal","","key","j","16.665628318584204","768","428","朋友","无耻","Negative","morality","","","","","","","","","",""
"708","","f","psychophysics","25","213683","0.0-7.0-3.0-0.11","5","6","5","4","3","5","2","4","4","5","5","1","0","1","2","-2","1","0","1","4","5","5","5","5","4","4","3","4","5","4","6","3","6","3","2","4","4","3","5","2","2","3","6","3","3","1","5","4","1","2","5","2","2","4","4","3","6","3","2","3","3","1","2","3","2","7","3","7","3","1","4","2","3","1","3","3","1","3","732578051896119298","王","649","Female","[""好我"",""坏我"",""坏她"",""好她""]","[""强我"",""弱我"",""弱她"",""强她""]","","","","","","","","no","","","","","","","","","SRET","EW_formal","","key","f","16.665801980198157","768","428","自己","守时","Positive","morality","","","","","","","","","",""
"759","","f","psychophysics","26","215443","0.0-7.0-3.0-0.12","5","6","5","4","3","5","2","4","4","5","5","1","0","1","2","-2","1","0","1","4","5","5","5","5","4","4","3","4","5","4","6","3","6","3","2","4","4","3","5","2","2","3","6","3","3","1","5","4","1","2","5","2","2","4","4","3","6","3","2","3","3","1","2","3","2","7","3","7","3","1","4","2","3","1","3","3","1","3","732578051896119298","王","649","Female","[""好我"",""坏我"",""坏她"",""好她""]","[""强我"",""弱我"",""弱她"",""强她""]","","","","","","","","no","","","","","","","","","SRET","EW_formal","","key","f","16.665628571428602","768","428","自己","扎实","Positive","ability","","","","","","","","","",""
"559","","f","psychophysics","27","217003","0.0-7.0-3.0-0.13","5","6","5","4","3","5","2","4","4","5","5","1","0","1","2","-2","1","0","1","4","5","5","5","5","4","4","3","4","5","4","6","3","6","3","2","4","4","3","5","2","2","3","6","3","3","1","5","4","1","2","5","2","2","4","4","3","6","3","2","3","3","1","2","3","2","7","3","7","3","1","4","2","3","1","3","3","1","3","732578051896119298","王","649","Female","[""好我"",""坏我"",""坏她"",""好她""]","[""强我"",""弱我"",""弱她"",""强她""]","","","","","","","","no","","","","","","","","","SRET","EW_formal","","key","f","16.666880434782637","768","428","朋友","忠良","Positive","morality","","","","","","","","","",""
"626","","f","psychophysics","28","218630","0.0-7.0-3.0-0.14","5","6","5","4","3","5","2","4","4","5","5","1","0","1","2","-2","1","0","1","4","5","5","5","5","4","4","3","4","5","4","6","3","6","3","2","4","4","3","5","2","2","3","6","3","3","1","5","4","1","2","5","2","2","4","4","3","6","3","2","3","3","1","2","3","2","7","3","7","3","1","4","2","3","1","3","3","1","3","732578051896119298","王","649","Female","[""好我"",""坏我"",""坏她"",""好她""]","[""强我"",""弱我"",""弱她"",""强她""]","","","","","","","","no","","","","","","","","","SRET","EW_formal","","key","f","16.66601030927838","768","428","朋友","守信","Positive","morality","","","","","","","","","",""
"641","","j","psychophysics","29","220272","0.0-7.0-3.0-0.15","5","6","5","4","3","5","2","4","4","5","5","1","0","1","2","-2","1","0","1","4","5","5","5","5","4","4","3","4","5","4","6","3","6","3","2","4","4","3","5","2","2","3","6","3","3","1","5","4","1","2","5","2","2","4","4","3","6","3","2","3","3","1","2","3","2","7","3","7","3","1","4","2","3","1","3","3","1","3","732578051896119298","王","649","Female","[""好我"",""坏我"",""坏她"",""好她""]","[""强我"",""弱我"",""弱她"",""强她""]","","","","","","","","yes","","","","","","","","","SRET","EW_formal","","key","j","16.666244897959047","768","428","朋友","不端","Negative","morality","","","","","","","","","",""
"769","","f","psychophysics","30","222043","0.0-7.0-3.0-0.16","5","6","5","4","3","5","2","4","4","5","5","1","0","1","2","-2","1","0","1","4","5","5","5","5","4","4","3","4","5","4","6","3","6","3","2","4","4","3","5","2","2","3","6","3","3","1","5","4","1","2","5","2","2","4","4","3","6","3","2","3","3","1","2","3","2","7","3","7","3","1","4","2","3","1","3","3","1","3","732578051896119298","王","649","Female","[""好我"",""坏我"",""坏她"",""好她""]","[""强我"",""弱我"",""弱她"",""强她""]","","","","","","","","no","","","","","","","","","SRET","EW_formal","","key","f","16.665276190476114","768","428","自己","骁勇","Positive","ability","","","","","","","","","",""
"1324","","f","psychophysics","31","224368","0.0-7.0-3.0-0.17","5","6","5","4","3","5","2","4","4","5","5","1","0","1","2","-2","1","0","1","4","5","5","5","5","4","4","3","4","5","4","6","3","6","3","2","4","4","3","5","2","2","3","6","3","3","1","5","4","1","2","5","2","2","4","4","3","6","3","2","3","3","1","2","3","2","7","3","7","3","1","4","2","3","1","3","3","1","3","732578051896119298","王","649","Female","[""好我"",""坏我"",""坏她"",""好她""]","[""强我"",""弱我"",""弱她"",""强她""]","","","","","","","","no","","","","","","","","","SRET","EW_formal","","key","f","16.667318840579686","768","428","朋友","粗心","Negative","ability","","","","","","","","","",""
"546","","f","psychophysics","32","225915","0.0-7.0-3.0-0.18","5","6","5","4","3","5","2","4","4","5","5","1","0","1","2","-2","1","0","1","4","5","5","5","5","4","4","3","4","5","4","6","3","6","3","2","4","4","3","5","2","2","3","6","3","3","1","5","4","1","2","5","2","2","4","4","3","6","3","2","3","3","1","2","3","2","7","3","7","3","1","4","2","3","1","3","3","1","3","732578051896119298","王","649","Female","[""好我"",""坏我"",""坏她"",""好她""]","[""强我"",""弱我"",""弱她"",""强她""]","","","","","","","","no","","","","","","","","","SRET","EW_formal","","key","f","16.665065217391163","768","428","自己","义气","Positive","morality","","","","","","","","","",""
"1683","","j","psychophysics","33","228599","0.0-7.0-3.0-0.19","5","6","5","4","3","5","2","4","4","5","5","1","0","1","2","-2","1","0","1","4","5","5","5","5","4","4","3","4","5","4","6","3","6","3","2","4","4","3","5","2","2","3","6","3","3","1","5","4","1","2","5","2","2","4","4","3","6","3","2","3","3","1","2","3","2","7","3","7","3","1","4","2","3","1","3","3","1","3","732578051896119298","王","649","Female","[""好我"",""坏我"",""坏她"",""好她""]","[""强我"",""弱我"",""弱她"",""强她""]","","","","","","","","yes","","","","","","","","","SRET","EW_formal","","key","j","16.66670625000006","768","428","朋友","庸碌","Negative","ability","","","","","","","","","",""
"915","","f","psychophysics","34","230524","0.0-7.0-3.0-0.20","5","6","5","4","3","5","2","4","4","5","5","1","0","1","2","-2","1","0","1","4","5","5","5","5","4","4","3","4","5","4","6","3","6","3","2","4","4","3","5","2","2","3","6","3","3","1","5","4","1","2","5","2","2","4","4","3","6","3","2","3","3","1","2","3","2","7","3","7","3","1","4","2","3","1","3","3","1","3","732578051896119298","王","649","Female","[""好我"",""坏我"",""坏她"",""好她""]","[""强我"",""弱我"",""弱她"",""强她""]","","","","","","","","no","","","","","","","","","SRET","EW_formal","","key","f","16.66549122807","768","428","自己","中用","Positive","ability","","","","","","","","","",""
"1305","","f","psychophysics","35","232830","0.0-7.0-3.0-0.21","5","6","5","4","3","5","2","4","4","5","5","1","0","1","2","-2","1","0","1","4","5","5","5","5","4","4","3","4","5","4","6","3","6","3","2","4","4","3","5","2","2","3","6","3","3","1","5","4","1","2","5","2","2","4","4","3","6","3","2","3","3","1","2","3","2","7","3","7","3","1","4","2","3","1","3","3","1","3","732578051896119298","王","649","Female","[""好我"",""坏我"",""坏她"",""好她""]","[""强我"",""弱我"",""弱她"",""强她""]","","","","","","","","no","","","","","","","","","SRET","EW_formal","","key","f","16.6662536231884","768","428","自己","驽钝","Negative","ability","","","","","","","","","",""
"960","","j","psychophysics","36","234791","0.0-7.0-3.0-0.22","5","6","5","4","3","5","2","4","4","5","5","1","0","1","2","-2","1","0","1","4","5","5","5","5","4","4","3","4","5","4","6","3","6","3","2","4","4","3","5","2","2","3","6","3","3","1","5","4","1","2","5","2","2","4","4","3","6","3","2","3","3","1","2","3","2","7","3","7","3","1","4","2","3","1","3","3","1","3","732578051896119298","王","649","Female","[""好我"",""坏我"",""坏她"",""好她""]","[""强我"",""弱我"",""弱她"",""强她""]","","","","","","","","yes","","","","","","","","","SRET","EW_formal","","key","j","16.666206896551714","768","428","自己","昏庸","Negative","ability","","","","","","","","","",""
"667","","f","psychophysics","37","236460","0.0-7.0-3.0-0.23","5","6","5","4","3","5","2","4","4","5","5","1","0","1","2","-2","1","0","1","4","5","5","5","5","4","4","3","4","5","4","6","3","6","3","2","4","4","3","5","2","2","3","6","3","3","1","5","4","1","2","5","2","2","4","4","3","6","3","2","3","3","1","2","3","2","7","3","7","3","1","4","2","3","1","3","3","1","3","732578051896119298","王","649","Female","[""好我"",""坏我"",""坏她"",""好她""]","[""强我"",""弱我"",""弱她"",""强她""]","","","","","","","","no","","","","","","","","","SRET","EW_formal","","key","f","16.663808080808124","768","428","朋友","浅薄","Negative","ability","","","","","","","","","",""
"743","","j","psychophysics","38","238203","0.0-7.0-3.0-0.24","5","6","5","4","3","5","2","4","4","5","5","1","0","1","2","-2","1","0","1","4","5","5","5","5","4","4","3","4","5","4","6","3","6","3","2","4","4","3","5","2","2","3","6","3","3","1","5","4","1","2","5","2","2","4","4","3","6","3","2","3","3","1","2","3","2","7","3","7","3","1","4","2","3","1","3","3","1","3","732578051896119298","王","649","Female","[""好我"",""坏我"",""坏她"",""好她""]","[""强我"",""弱我"",""弱她"",""强她""]","","","","","","","","yes","","","","","","","","","SRET","EW_formal","","key","j","16.665076923076974","768","428","朋友","小人","Negative","morality","","","","","","","","","",""
"907","","j","psychophysics","39","240112","0.0-7.0-3.0-0.25","5","6","5","4","3","5","2","4","4","5","5","1","0","1","2","-2","1","0","1","4","5","5","5","5","4","4","3","4","5","4","6","3","6","3","2","4","4","3","5","2","2","3","6","3","3","1","5","4","1","2","5","2","2","4","4","3","6","3","2","3","3","1","2","3","2","7","3","7","3","1","4","2","3","1","3","3","1","3","732578051896119298","王","649","Female","[""好我"",""坏我"",""坏她"",""好她""]","[""强我"",""弱我"",""弱她"",""强她""]","","","","","","","","yes","","","","","","","","","SRET","EW_formal","","key","j","16.665876106194744","768","428","朋友","龌龊","Negative","morality","","","","","","","","","",""
"778","","j","psychophysics","40","241891","0.0-7.0-3.0-0.26","5","6","5","4","3","5","2","4","4","5","5","1","0","1","2","-2","1","0","1","4","5","5","5","5","4","4","3","4","5","4","6","3","6","3","2","4","4","3","5","2","2","3","6","3","3","1","5","4","1","2","5","2","2","4","4","3","6","3","2","3","3","1","2","3","2","7","3","7","3","1","4","2","3","1","3","3","1","3","732578051896119298","王","649","Female","[""好我"",""坏我"",""坏她"",""好她""]","[""强我"",""弱我"",""弱她"",""强她""]","","","","","","","","yes","","","","","","","","","SRET","EW_formal","","key","j","16.667999999999907","768","428","自己","失信","Negative","morality","","","","","","","","","",""
"539","","f","psychophysics","41","243432","0.0-7.0-3.0-0.27","5","6","5","4","3","5","2","4","4","5","5","1","0","1","2","-2","1","0","1","4","5","5","5","5","4","4","3","4","5","4","6","3","6","3","2","4","4","3","5","2","2","3","6","3","3","1","5","4","1","2","5","2","2","4","4","3","6","3","2","3","3","1","2","3","2","7","3","7","3","1","4","2","3","1","3","3","1","3","732578051896119298","王","649","Female","[""好我"",""坏我"",""坏她"",""好她""]","[""强我"",""弱我"",""弱她"",""强她""]","","","","","","","","no","","","","","","","","","SRET","EW_formal","","key","f","16.665739130434698","768","428","朋友","厚道","Positive","morality","","","","","","","","","",""
"583","","f","psychophysics","42","245016","0.0-7.0-3.0-0.28","5","6","5","4","3","5","2","4","4","5","5","1","0","1","2","-2","1","0","1","4","5","5","5","5","4","4","3","4","5","4","6","3","6","3","2","4","4","3","5","2","2","3","6","3","3","1","5","4","1","2","5","2","2","4","4","3","6","3","2","3","3","1","2","3","2","7","3","7","3","1","4","2","3","1","3","3","1","3","732578051896119298","王","649","Female","[""好我"",""坏我"",""坏她"",""好她""]","[""强我"",""弱我"",""弱她"",""强她""]","","","","","","","","no","","","","","","","","","SRET","EW_formal","","key","f","16.665255319148777","768","428","自己","慷慨","Positive","morality","","","","","","","","","",""
"1215","","j","psychophysics","43","247231","0.0-7.0-3.0-0.29","5","6","5","4","3","5","2","4","4","5","5","1","0","1","2","-2","1","0","1","4","5","5","5","5","4","4","3","4","5","4","6","3","6","3","2","4","4","3","5","2","2","3","6","3","3","1","5","4","1","2","5","2","2","4","4","3","6","3","2","3","3","1","2","3","2","7","3","7","3","1","4","2","3","1","3","3","1","3","732578051896119298","王","649","Female","[""好我"",""坏我"",""坏她"",""好她""]","[""强我"",""弱我"",""弱她"",""强她""]","","","","","","","","yes","","","","","","","","","SRET","EW_formal","","key","j","16.66599242424259","768","428","朋友","拜金","Negative","morality","","","","","","","","","",""
"628","","f","psychophysics","44","248861","0.0-7.0-3.0-0.30","5","6","5","4","3","5","2","4","4","5","5","1","0","1","2","-2","1","0","1","4","5","5","5","5","4","4","3","4","5","4","6","3","6","3","2","4","4","3","5","2","2","3","6","3","3","1","5","4","1","2","5","2","2","4","4","3","6","3","2","3","3","1","2","3","2","7","3","7","3","1","4","2","3","1","3","3","1","3","732578051896119298","王","649","Female","[""好我"",""坏我"",""坏她"",""好她""]","[""强我"",""弱我"",""弱她"",""强她""]","","","","","","","","no","","","","","","","","","SRET","EW_formal","","key","f","16.667812499999854","768","428","朋友","勤奋","Positive","ability","","","","","","","","","",""
"745","","j","psychophysics","45","250608","0.0-7.0-3.0-0.31","5","6","5","4","3","5","2","4","4","5","5","1","0","1","2","-2","1","0","1","4","5","5","5","5","4","4","3","4","5","4","6","3","6","3","2","4","4","3","5","2","2","3","6","3","3","1","5","4","1","2","5","2","2","4","4","3","6","3","2","3","3","1","2","3","2","7","3","7","3","1","4","2","3","1","3","3","1","3","732578051896119298","王","649","Female","[""好我"",""坏我"",""坏她"",""好她""]","[""强我"",""弱我"",""弱她"",""强她""]","","","","","","","","yes","","","","","","","","","SRET","EW_formal","","key","j","16.66604807692308","768","428","朋友","诡诈","Negative","morality","","","","","","","","","",""
"603","","f","psychophysics","46","252212","0.0-7.0-3.0-0.32","5","6","5","4","3","5","2","4","4","5","5","1","0","1","2","-2","1","0","1","4","5","5","5","5","4","4","3","4","5","4","6","3","6","3","2","4","4","3","5","2","2","3","6","3","3","1","5","4","1","2","5","2","2","4","4","3","6","3","2","3","3","1","2","3","2","7","3","7","3","1","4","2","3","1","3","3","1","3","732578051896119298","王","649","Female","[""好我"",""坏我"",""坏她"",""好她""]","[""强我"",""弱我"",""弱她"",""强她""]","","","","","","","","no","","","","","","","","","SRET","EW_formal","","key","f","16.664385416666846","768","428","朋友","慈悲","Positive","morality","","","","","","","","","",""
"454","","f","psychophysics","47","253667","0.0-7.0-3.0-0.33","5","6","5","4","3","5","2","4","4","5","5","1","0","1","2","-2","1","0","1","4","5","5","5","5","4","4","3","4","5","4","6","3","6","3","2","4","4","3","5","2","2","3","6","3","3","1","5","4","1","2","5","2","2","4","4","3","6","3","2","3","3","1","2","3","2","7","3","7","3","1","4","2","3","1","3","3","1","3","732578051896119298","王","649","Female","[""好我"",""坏我"",""坏她"",""好她""]","[""强我"",""弱我"",""弱她"",""强她""]","","","","","","","","no","","","","","","","","","SRET","EW_formal","","key","f","16.667209302325297","768","428","朋友","忠诚","Positive","morality","","","","","","","","","",""
"460","","f","psychophysics","48","255129","0.0-7.0-3.0-0.34","5","6","5","4","3","5","2","4","4","5","5","1","0","1","2","-2","1","0","1","4","5","5","5","5","4","4","3","4","5","4","6","3","6","3","2","4","4","3","5","2","2","3","6","3","3","1","5","4","1","2","5","2","2","4","4","3","6","3","2","3","3","1","2","3","2","7","3","7","3","1","4","2","3","1","3","3","1","3","732578051896119298","王","649","Female","[""好我"",""坏我"",""坏她"",""好她""]","[""强我"",""弱我"",""弱她"",""强她""]","","","","","","","","no","","","","","","","","","SRET","EW_formal","","key","f","16.666068965517287","768","428","朋友","勤恳","Positive","morality","","","","","","","","","",""
"805","","j","psychophysics","49","256937","0.0-7.0-3.0-0.35","5","6","5","4","3","5","2","4","4","5","5","1","0","1","2","-2","1","0","1","4","5","5","5","5","4","4","3","4","5","4","6","3","6","3","2","4","4","3","5","2","2","3","6","3","3","1","5","4","1","2","5","2","2","4","4","3","6","3","2","3","3","1","2","3","2","7","3","7","3","1","4","2","3","1","3","3","1","3","732578051896119298","王","649","Female","[""好我"",""坏我"",""坏她"",""好她""]","[""强我"",""弱我"",""弱她"",""强她""]","","","","","","","","yes","","","","","","","","","SRET","EW_formal","","key","j","16.664682242990512","768","428","自己","奸险","Negative","morality","","","","","","","","","",""
"709","","f","psychophysics","50","258648","0.0-7.0-3.0-0.36","5","6","5","4","3","5","2","4","4","5","5","1","0","1","2","-2","1","0","1","4","5","5","5","5","4","4","3","4","5","4","6","3","6","3","2","4","4","3","5","2","2","3","6","3","3","1","5","4","1","2","5","2","2","4","4","3","6","3","2","3","3","1","2","3","2","7","3","7","3","1","4","2","3","1","3","3","1","3","732578051896119298","王","649","Female","[""好我"",""坏我"",""坏她"",""好她""]","[""强我"",""弱我"",""弱她"",""强她""]","","","","","","","","no","","","","","","","","","SRET","EW_formal","","key","f","16.667441176470568","768","428","自己","侠义","Positive","morality","","","","","","","","","",""
"579","","f","psychophysics","51","260228","0.0-7.0-3.0-0.37","5","6","5","4","3","5","2","4","4","5","5","1","0","1","2","-2","1","0","1","4","5","5","5","5","4","4","3","4","5","4","6","3","6","3","2","4","4","3","5","2","2","3","6","3","3","1","5","4","1","2","5","2","2","4","4","3","6","3","2","3","3","1","2","3","2","7","3","7","3","1","4","2","3","1","3","3","1","3","732578051896119298","王","649","Female","[""好我"",""坏我"",""坏她"",""好她""]","[""强我"",""弱我"",""弱她"",""强她""]","","","","","","","","no","","","","","","","","","SRET","EW_formal","","key","f","16.66552688172043","768","428","自己","无私","Positive","morality","","","","","","","","","",""
"439","","f","psychophysics","52","261668","0.0-7.0-3.0-0.38","5","6","5","4","3","5","2","4","4","5","5","1","0","1","2","-2","1","0","1","4","5","5","5","5","4","4","3","4","5","4","6","3","6","3","2","4","4","3","5","2","2","3","6","3","3","1","5","4","1","2","5","2","2","4","4","3","6","3","2","3","3","1","2","3","2","7","3","7","3","1","4","2","3","1","3","3","1","3","732578051896119298","王","649","Female","[""好我"",""坏我"",""坏她"",""好她""]","[""强我"",""弱我"",""弱她"",""强她""]","","","","","","","","no","","","","","","","","","SRET","EW_formal","","key","f","16.666906976744432","768","428","朋友","敏捷","Positive","ability","","","","","","","","","",""
"838","","j","psychophysics","53","263507","0.0-7.0-3.0-0.39","5","6","5","4","3","5","2","4","4","5","5","1","0","1","2","-2","1","0","1","4","5","5","5","5","4","4","3","4","5","4","6","3","6","3","2","4","4","3","5","2","2","3","6","3","3","1","5","4","1","2","5","2","2","4","4","3","6","3","2","3","3","1","2","3","2","7","3","7","3","1","4","2","3","1","3","3","1","3","732578051896119298","王","649","Female","[""好我"",""坏我"",""坏她"",""好她""]","[""强我"",""弱我"",""弱她"",""强她""]","","","","","","","","yes","","","","","","","","","SRET","EW_formal","","key","j","16.665788990825654","768","428","朋友","短视","Negative","ability","","","","","","","","","",""
"1507","","j","psychophysics","54","266015","0.0-7.0-3.0-0.40","5","6","5","4","3","5","2","4","4","5","5","1","0","1","2","-2","1","0","1","4","5","5","5","5","4","4","3","4","5","4","6","3","6","3","2","4","4","3","5","2","2","3","6","3","3","1","5","4","1","2","5","2","2","4","4","3","6","3","2","3","3","1","2","3","2","7","3","7","3","1","4","2","3","1","3","3","1","3","732578051896119298","王","649","Female","[""好我"",""坏我"",""坏她"",""好她""]","[""强我"",""弱我"",""弱她"",""强她""]","","","","","","","","yes","","","","","","","","","SRET","EW_formal","","key","j","16.664526666666692","768","428","朋友","怠惰","Negative","ability","","","","","","","","","",""
"683","","f","psychophysics","55","267700","0.0-7.0-3.0-0.41","5","6","5","4","3","5","2","4","4","5","5","1","0","1","2","-2","1","0","1","4","5","5","5","5","4","4","3","4","5","4","6","3","6","3","2","4","4","3","5","2","2","3","6","3","3","1","5","4","1","2","5","2","2","4","4","3","6","3","2","3","3","1","2","3","2","7","3","7","3","1","4","2","3","1","3","3","1","3","732578051896119298","王","649","Female","[""好我"",""坏我"",""坏她"",""好她""]","[""强我"",""弱我"",""弱她"",""强她""]","","","","","","","","no","","","","","","","","","SRET","EW_formal","","key","f","16.667580000000306","768","428","自己","热心","Positive","morality","","","","","","","","","",""
"911","","f","psychophysics","56","269612","0.0-7.0-3.0-0.42","5","6","5","4","3","5","2","4","4","5","5","1","0","1","2","-2","1","0","1","4","5","5","5","5","4","4","3","4","5","4","6","3","6","3","2","4","4","3","5","2","2","3","6","3","3","1","5","4","1","2","5","2","2","4","4","3","6","3","2","3","3","1","2","3","2","7","3","7","3","1","4","2","3","1","3","3","1","3","732578051896119298","王","649","Female","[""好我"",""坏我"",""坏她"",""好她""]","[""强我"",""弱我"",""弱她"",""强她""]","","","","","","","","no","","","","","","","","","SRET","EW_formal","","key","f","16.66598245614053","768","428","自己","周到","Positive","ability","","","","","","","","","",""
"531","","f","psychophysics","57","271145","0.0-7.0-3.0-0.43","5","6","5","4","3","5","2","4","4","5","5","1","0","1","2","-2","1","0","1","4","5","5","5","5","4","4","3","4","5","4","6","3","6","3","2","4","4","3","5","2","2","3","6","3","3","1","5","4","1","2","5","2","2","4","4","3","6","3","2","3","3","1","2","3","2","7","3","7","3","1","4","2","3","1","3","3","1","3","732578051896119298","王","649","Female","[""好我"",""坏我"",""坏她"",""好她""]","[""强我"",""弱我"",""弱她"",""强她""]","","","","","","","","no","","","","","","","","","SRET","EW_formal","","key","f","16.664945054945157","768","428","朋友","宽容","Positive","morality","","","","","","","","","",""
"646","","f","psychophysics","58","272793","0.0-7.0-3.0-0.44","5","6","5","4","3","5","2","4","4","5","5","1","0","1","2","-2","1","0","1","4","5","5","5","5","4","4","3","4","5","4","6","3","6","3","2","4","4","3","5","2","2","3","6","3","3","1","5","4","1","2","5","2","2","4","4","3","6","3","2","3","3","1","2","3","2","7","3","7","3","1","4","2","3","1","3","3","1","3","732578051896119298","王","649","Female","[""好我"",""坏我"",""坏她"",""好她""]","[""强我"",""弱我"",""弱她"",""强她""]","","","","","","","","no","","","","","","","","","SRET","EW_formal","","key","f","16.667381443298716","768","428","自己","无知","Negative","ability","","","","","","","","","",""
"830","","j","psychophysics","59","274624","0.0-7.0-3.0-0.45","5","6","5","4","3","5","2","4","4","5","5","1","0","1","2","-2","1","0","1","4","5","5","5","5","4","4","3","4","5","4","6","3","6","3","2","4","4","3","5","2","2","3","6","3","3","1","5","4","1","2","5","2","2","4","4","3","6","3","2","3","3","1","2","3","2","7","3","7","3","1","4","2","3","1","3","3","1","3","732578051896119298","王","649","Female","[""好我"",""坏我"",""坏她"",""好她""]","[""强我"",""弱我"",""弱她"",""强她""]","","","","","","","","yes","","","","","","","","","SRET","EW_formal","","key","j","16.66555045871598","768","428","自己","偏私","Negative","morality","","","","","","","","","",""
"598","","f","psychophysics","60","276224","0.0-7.0-3.0-0.46","5","6","5","4","3","5","2","4","4","5","5","1","0","1","2","-2","1","0","1","4","5","5","5","5","4","4","3","4","5","4","6","3","6","3","2","4","4","3","5","2","2","3","6","3","3","1","5","4","1","2","5","2","2","4","4","3","6","3","2","3","3","1","2","3","2","7","3","7","3","1","4","2","3","1","3","3","1","3","732578051896119298","王","649","Female","[""好我"",""坏我"",""坏她"",""好她""]","[""强我"",""弱我"",""弱她"",""强她""]","","","","","","","","no","","","","","","","","","SRET","EW_formal","","key","f","16.66716842105318","768","428","朋友","顶事","Positive","ability","","","","","","","","","",""
"775","","j","psychophysics","61","278000","0.0-7.0-3.0-0.47","5","6","5","4","3","5","2","4","4","5","5","1","0","1","2","-2","1","0","1","4","5","5","5","5","4","4","3","4","5","4","6","3","6","3","2","4","4","3","5","2","2","3","6","3","3","1","5","4","1","2","5","2","2","4","4","3","6","3","2","3","3","1","2","3","2","7","3","7","3","1","4","2","3","1","3","3","1","3","732578051896119298","王","649","Female","[""好我"",""坏我"",""坏她"",""好她""]","[""强我"",""弱我"",""弱她"",""强她""]","","","","","","","","yes","","","","","","","","","SRET","EW_formal","","key","j","16.666216981132134","768","428","朋友","无赖","Negative","morality","","","","","","","","","",""
"454","","f","psychophysics","62","279457","0.0-7.0-3.0-0.48","5","6","5","4","3","5","2","4","4","5","5","1","0","1","2","-2","1","0","1","4","5","5","5","5","4","4","3","4","5","4","6","3","6","3","2","4","4","3","5","2","2","3","6","3","3","1","5","4","1","2","5","2","2","4","4","3","6","3","2","3","3","1","2","3","2","7","3","7","3","1","4","2","3","1","3","3","1","3","732578051896119298","王","649","Female","[""好我"",""坏我"",""坏她"",""好她""]","[""强我"",""弱我"",""弱她"",""强她""]","","","","","","","","no","","","","","","","","","SRET","EW_formal","","key","f","16.667267441859895","768","428","自己","刚正","Positive","morality","","","","","","","","","",""
"666","","f","psychophysics","63","281124","0.0-7.0-3.0-0.49","5","6","5","4","3","5","2","4","4","5","5","1","0","1","2","-2","1","0","1","4","5","5","5","5","4","4","3","4","5","4","6","3","6","3","2","4","4","3","5","2","2","3","6","3","3","1","5","4","1","2","5","2","2","4","4","3","6","3","2","3","3","1","2","3","2","7","3","7","3","1","4","2","3","1","3","3","1","3","732578051896119298","王","649","Female","[""好我"",""坏我"",""坏她"",""好她""]","[""强我"",""弱我"",""弱她"",""强她""]","","","","","","","","no","","","","","","","","","SRET","EW_formal","","key","f","16.66482828282857","768","428","朋友","利落","Positive","ability","","","","","","","","","",""
"844","","f","psychophysics","64","282968","0.0-7.0-3.0-0.50","5","6","5","4","3","5","2","4","4","5","5","1","0","1","2","-2","1","0","1","4","5","5","5","5","4","4","3","4","5","4","6","3","6","3","2","4","4","3","5","2","2","3","6","3","3","1","5","4","1","2","5","2","2","4","4","3","6","3","2","3","3","1","2","3","2","7","3","7","3","1","4","2","3","1","3","3","1","3","732578051896119298","王","649","Female","[""好我"",""坏我"",""坏她"",""好她""]","[""强我"",""弱我"",""弱她"",""强她""]","","","","","","","","no","","","","","","","","","SRET","EW_formal","","key","f","16.667263636363415","768","428","自己","拖拉","Negative","ability","","","","","","","","","",""
"710","","f","psychophysics","65","284680","0.0-7.0-3.0-0.51","5","6","5","4","3","5","2","4","4","5","5","1","0","1","2","-2","1","0","1","4","5","5","5","5","4","4","3","4","5","4","6","3","6","3","2","4","4","3","5","2","2","3","6","3","3","1","5","4","1","2","5","2","2","4","4","3","6","3","2","3","3","1","2","3","2","7","3","7","3","1","4","2","3","1","3","3","1","3","732578051896119298","王","649","Female","[""好我"",""坏我"",""坏她"",""好她""]","[""强我"",""弱我"",""弱她"",""强她""]","","","","","","","","no","","","","","","","","","SRET","EW_formal","","key","f","16.665745098038816","768","428","朋友","盲目","Negative","ability","","","","","","","","","",""
"582","","f","psychophysics","66","286263","0.0-7.0-3.0-0.52","5","6","5","4","3","5","2","4","4","5","5","1","0","1","2","-2","1","0","1","4","5","5","5","5","4","4","3","4","5","4","6","3","6","3","2","4","4","3","5","2","2","3","6","3","3","1","5","4","1","2","5","2","2","4","4","3","6","3","2","3","3","1","2","3","2","7","3","7","3","1","4","2","3","1","3","3","1","3","732578051896119298","王","649","Female","[""好我"",""坏我"",""坏她"",""好她""]","[""强我"",""弱我"",""弱她"",""强她""]","","","","","","","","no","","","","","","","","","SRET","EW_formal","","key","f","16.665010638297858","768","428","朋友","好心","Positive","morality","","","","","","","","","",""
"554","","f","psychophysics","67","287819","0.0-7.0-3.0-0.53","5","6","5","4","3","5","2","4","4","5","5","1","0","1","2","-2","1","0","1","4","5","5","5","5","4","4","3","4","5","4","6","3","6","3","2","4","4","3","5","2","2","3","6","3","3","1","5","4","1","2","5","2","2","4","4","3","6","3","2","3","3","1","2","3","2","7","3","7","3","1","4","2","3","1","3","3","1","3","732578051896119298","王","649","Female","[""好我"",""坏我"",""坏她"",""好她""]","[""强我"",""弱我"",""弱她"",""强她""]","","","","","","","","no","","","","","","","","","SRET","EW_formal","","key","f","16.66616304347838","768","428","朋友","智慧","Positive","ability","","","","","","","","","",""
"711","","j","psychophysics","68","289540","0.0-7.0-3.0-0.54","5","6","5","4","3","5","2","4","4","5","5","1","0","1","2","-2","1","0","1","4","5","5","5","5","4","4","3","4","5","4","6","3","6","3","2","4","4","3","5","2","2","3","6","3","3","1","5","4","1","2","5","2","2","4","4","3","6","3","2","3","3","1","2","3","2","7","3","7","3","1","4","2","3","1","3","3","1","3","732578051896119298","王","649","Female","[""好我"",""坏我"",""坏她"",""好她""]","[""强我"",""弱我"",""弱她"",""强她""]","","","","","","","","yes","","","","","","","","","SRET","EW_formal","","key","j","16.666274509804126","768","428","朋友","贪腐","Negative","morality","","","","","","","","","",""
"661","","f","psychophysics","69","291202","0.0-7.0-3.0-0.55","5","6","5","4","3","5","2","4","4","5","5","1","0","1","2","-2","1","0","1","4","5","5","5","5","4","4","3","4","5","4","6","3","6","3","2","4","4","3","5","2","2","3","6","3","3","1","5","4","1","2","5","2","2","4","4","3","6","3","2","3","3","1","2","3","2","7","3","7","3","1","4","2","3","1","3","3","1","3","732578051896119298","王","649","Female","[""好我"",""坏我"",""坏她"",""好她""]","[""强我"",""弱我"",""弱她"",""强她""]","","","","","","","","no","","","","","","","","","SRET","EW_formal","","key","f","16.665316326530622","768","428","自己","娴熟","Positive","ability","","","","","","","","","",""
"586","","j","psychophysics","70","292792","0.0-7.0-3.0-0.56","5","6","5","4","3","5","2","4","4","5","5","1","0","1","2","-2","1","0","1","4","5","5","5","5","4","4","3","4","5","4","6","3","6","3","2","4","4","3","5","2","2","3","6","3","3","1","5","4","1","2","5","2","2","4","4","3","6","3","2","3","3","1","2","3","2","7","3","7","3","1","4","2","3","1","3","3","1","3","732578051896119298","王","649","Female","[""好我"",""坏我"",""坏她"",""好她""]","[""强我"",""弱我"",""弱她"",""强她""]","","","","","","","","yes","","","","","","","","","SRET","EW_formal","","key","j","16.667778947367946","768","428","朋友","卑鄙","Negative","morality","","","","","","","","","",""
"634","","j","psychophysics","71","294428","0.0-7.0-3.0-0.57","5","6","5","4","3","5","2","4","4","5","5","1","0","1","2","-2","1","0","1","4","5","5","5","5","4","4","3","4","5","4","6","3","6","3","2","4","4","3","5","2","2","3","6","3","3","1","5","4","1","2","5","2","2","4","4","3","6","3","2","3","3","1","2","3","2","7","3","7","3","1","4","2","3","1","3","3","1","3","732578051896119298","王","649","Female","[""好我"",""坏我"",""坏她"",""好她""]","[""强我"",""弱我"",""弱她"",""强她""]","","","","","","","","yes","","","","","","","","","SRET","EW_formal","","key","j","16.6641649484536","768","428","自己","窝囊","Negative","ability","","","","","","","","","",""
"643","","j","psychophysics","72","296072","0.0-7.0-3.0-0.58","5","6","5","4","3","5","2","4","4","5","5","1","0","1","2","-2","1","0","1","4","5","5","5","5","4","4","3","4","5","4","6","3","6","3","2","4","4","3","5","2","2","3","6","3","3","1","5","4","1","2","5","2","2","4","4","3","6","3","2","3","3","1","2","3","2","7","3","7","3","1","4","2","3","1","3","3","1","3","732578051896119298","王","649","Female","[""好我"",""坏我"",""坏她"",""好她""]","[""强我"",""弱我"",""弱她"",""强她""]","","","","","","","","yes","","","","","","","","","SRET","EW_formal","","key","j","16.666418367347024","768","428","自己","狡狯","Negative","morality","","","","","","","","","",""
"687","","j","psychophysics","73","297760","0.0-7.0-3.0-0.59","5","6","5","4","3","5","2","4","4","5","5","1","0","1","2","-2","1","0","1","4","5","5","5","5","4","4","3","4","5","4","6","3","6","3","2","4","4","3","5","2","2","3","6","3","3","1","5","4","1","2","5","2","2","4","4","3","6","3","2","3","3","1","2","3","2","7","3","7","3","1","4","2","3","1","3","3","1","3","732578051896119298","王","649","Female","[""好我"",""坏我"",""坏她"",""好她""]","[""强我"",""弱我"",""弱她"",""强她""]","","","","","","","","yes","","","","","","","","","SRET","EW_formal","","key","j","16.66573000000033","768","428","自己","腐败","Negative","morality","","","","","","","","","",""
"536","","f","psychophysics","74","299296","0.0-7.0-3.0-0.60","5","6","5","4","3","5","2","4","4","5","5","1","0","1","2","-2","1","0","1","4","5","5","5","5","4","4","3","4","5","4","6","3","6","3","2","4","4","3","5","2","2","3","6","3","3","1","5","4","1","2","5","2","2","4","4","3","6","3","2","3","3","1","2","3","2","7","3","7","3","1","4","2","3","1","3","3","1","3","732578051896119298","王","649","Female","[""好我"",""坏我"",""坏她"",""好她""]","[""强我"",""弱我"",""弱她"",""强她""]","","","","","","","","no","","","","","","","","","SRET","EW_formal","","key","f","16.66681318681311","768","428","朋友","忠勇","Positive","morality","","","","","","","","","",""
"555","","j","psychophysics","75","300853","0.0-7.0-3.0-0.61","5","6","5","4","3","5","2","4","4","5","5","1","0","1","2","-2","1","0","1","4","5","5","5","5","4","4","3","4","5","4","6","3","6","3","2","4","4","3","5","2","2","3","6","3","3","1","5","4","1","2","5","2","2","4","4","3","6","3","2","3","3","1","2","3","2","7","3","7","3","1","4","2","3","1","3","3","1","3","732578051896119298","王","649","Female","[""好我"",""坏我"",""坏她"",""好她""]","[""强我"",""弱我"",""弱她"",""强她""]","","","","","","","","yes","","","","","","","","","SRET","EW_formal","","key","j","16.665967741935457","768","428","自己","不仁","Negative","morality","","","","","","","","","",""
"618","","f","psychophysics","76","302472","0.0-7.0-3.0-0.62","5","6","5","4","3","5","2","4","4","5","5","1","0","1","2","-2","1","0","1","4","5","5","5","5","4","4","3","4","5","4","6","3","6","3","2","4","4","3","5","2","2","3","6","3","3","1","5","4","1","2","5","2","2","4","4","3","6","3","2","3","3","1","2","3","2","7","3","7","3","1","4","2","3","1","3","3","1","3","732578051896119298","王","649","Female","[""好我"",""坏我"",""坏她"",""好她""]","[""强我"",""弱我"",""弱她"",""强她""]","","","","","","","","no","","","","","","","","","SRET","EW_formal","","key","f","16.665697916666733","768","428","朋友","博学","Positive","ability","","","","","","","","","",""
"335","","f","psychophysics","77","303808","0.0-7.0-3.0-0.63","5","6","5","4","3","5","2","4","4","5","5","1","0","1","2","-2","1","0","1","4","5","5","5","5","4","4","3","4","5","4","6","3","6","3","2","4","4","3","5","2","2","3","6","3","3","1","5","4","1","2","5","2","2","4","4","3","6","3","2","3","3","1","2","3","2","7","3","7","3","1","4","2","3","1","3","3","1","3","732578051896119298","王","649","Female","[""好我"",""坏我"",""坏她"",""好她""]","[""强我"",""弱我"",""弱她"",""强她""]","","","","","","","","no","","","","","","","","","SRET","EW_formal","","key","f","16.66718987341826","768","428","朋友","高明","Positive","ability","","","","","","","","","",""
"499","","f","psychophysics","78","305308","0.0-7.0-3.0-0.64","5","6","5","4","3","5","2","4","4","5","5","1","0","1","2","-2","1","0","1","4","5","5","5","5","4","4","3","4","5","4","6","3","6","3","2","4","4","3","5","2","2","3","6","3","3","1","5","4","1","2","5","2","2","4","4","3","6","3","2","3","3","1","2","3","2","7","3","7","3","1","4","2","3","1","3","3","1","3","732578051896119298","王","649","Female","[""好我"",""坏我"",""坏她"",""好她""]","[""强我"",""弱我"",""弱她"",""强她""]","","","","","","","","no","","","","","","","","","SRET","EW_formal","","key","f","16.66642696629187","768","428","自己","才尽","Negative","ability","","","","","","","","","",""
"636","","f","psychophysics","79","306946","0.0-7.0-3.0-0.65","5","6","5","4","3","5","2","4","4","5","5","1","0","1","2","-2","1","0","1","4","5","5","5","5","4","4","3","4","5","4","6","3","6","3","2","4","4","3","5","2","2","3","6","3","3","1","5","4","1","2","5","2","2","4","4","3","6","3","2","3","3","1","2","3","2","7","3","7","3","1","4","2","3","1","3","3","1","3","732578051896119298","王","649","Female","[""好我"",""坏我"",""坏她"",""好她""]","[""强我"",""弱我"",""弱她"",""强她""]","","","","","","","","no","","","","","","","","","SRET","EW_formal","","key","f","16.663865979381637","768","428","朋友","远见","Positive","ability","","","","","","","","","",""
"506","","f","psychophysics","80","308453","0.0-7.0-3.0-0.66","5","6","5","4","3","5","2","4","4","5","5","1","0","1","2","-2","1","0","1","4","5","5","5","5","4","4","3","4","5","4","6","3","6","3","2","4","4","3","5","2","2","3","6","3","3","1","5","4","1","2","5","2","2","4","4","3","6","3","2","3","3","1","2","3","2","7","3","7","3","1","4","2","3","1","3","3","1","3","732578051896119298","王","649","Female","[""好我"",""坏我"",""坏她"",""好她""]","[""强我"",""弱我"",""弱她"",""强她""]","","","","","","","","no","","","","","","","","","SRET","EW_formal","","key","f","16.665555555555166","768","428","自己","高尚","Positive","morality","","","","","","","","","",""
"440","","f","psychophysics","81","309894","0.0-7.0-3.0-0.67","5","6","5","4","3","5","2","4","4","5","5","1","0","1","2","-2","1","0","1","4","5","5","5","5","4","4","3","4","5","4","6","3","6","3","2","4","4","3","5","2","2","3","6","3","3","1","5","4","1","2","5","2","2","4","4","3","6","3","2","3","3","1","2","3","2","7","3","7","3","1","4","2","3","1","3","3","1","3","732578051896119298","王","649","Female","[""好我"",""坏我"",""坏她"",""好她""]","[""强我"",""弱我"",""弱她"",""强她""]","","","","","","","","no","","","","","","","","","SRET","EW_formal","","key","f","16.66589411764666","768","428","朋友","聪明","Positive","ability","","","","","","","","","",""
"942","","f","psychophysics","82","311837","0.0-7.0-3.0-0.68","5","6","5","4","3","5","2","4","4","5","5","1","0","1","2","-2","1","0","1","4","5","5","5","5","4","4","3","4","5","4","6","3","6","3","2","4","4","3","5","2","2","3","6","3","3","1","5","4","1","2","5","2","2","4","4","3","6","3","2","3","3","1","2","3","2","7","3","7","3","1","4","2","3","1","3","3","1","3","732578051896119298","王","649","Female","[""好我"",""坏我"",""坏她"",""好她""]","[""强我"",""弱我"",""弱她"",""强她""]","","","","","","","","no","","","","","","","","","SRET","EW_formal","","key","f","16.66522413793076","768","428","自己","短浅","Negative","ability","","","","","","","","","",""
"459","","f","psychophysics","83","313296","0.0-7.0-3.0-0.69","5","6","5","4","3","5","2","4","4","5","5","1","0","1","2","-2","1","0","1","4","5","5","5","5","4","4","3","4","5","4","6","3","6","3","2","4","4","3","5","2","2","3","6","3","3","1","5","4","1","2","5","2","2","4","4","3","6","3","2","3","3","1","2","3","2","7","3","7","3","1","4","2","3","1","3","3","1","3","732578051896119298","王","649","Female","[""好我"",""坏我"",""坏她"",""好她""]","[""强我"",""弱我"",""弱她"",""强她""]","","","","","","","","no","","","","","","","","","SRET","EW_formal","","key","f","16.665209302325398","768","428","自己","稳健","Positive","ability","","","","","","","","","",""
"1676","","j","psychophysics","84","315973","0.0-7.0-3.0-0.70","5","6","5","4","3","5","2","4","4","5","5","1","0","1","2","-2","1","0","1","4","5","5","5","5","4","4","3","4","5","4","6","3","6","3","2","4","4","3","5","2","2","3","6","3","3","1","5","4","1","2","5","2","2","4","4","3","6","3","2","3","3","1","2","3","2","7","3","7","3","1","4","2","3","1","3","3","1","3","732578051896119298","王","649","Female","[""好我"",""坏我"",""坏她"",""好她""]","[""强我"",""弱我"",""弱她"",""强她""]","","","","","","","","yes","","","","","","","","","SRET","EW_formal","","key","j","16.66570000000029","768","428","朋友","阴毒","Negative","morality","","","","","","","","","",""
"917","","f","psychophysics","85","317893","0.0-7.0-3.0-0.71","5","6","5","4","3","5","2","4","4","5","5","1","0","1","2","-2","1","0","1","4","5","5","5","5","4","4","3","4","5","4","6","3","6","3","2","4","4","3","5","2","2","3","6","3","3","1","5","4","1","2","5","2","2","4","4","3","6","3","2","3","3","1","2","3","2","7","3","7","3","1","4","2","3","1","3","3","1","3","732578051896119298","王","649","Female","[""好我"",""坏我"",""坏她"",""好她""]","[""强我"",""弱我"",""弱她"",""强她""]","","","","","","","","no","","","","","","","","","SRET","EW_formal","","key","f","16.665526315789432","768","428","自己","外行","Negative","ability","","","","","","","","","",""
"739","","f","psychophysics","86","319633","0.0-7.0-3.0-0.72","5","6","5","4","3","5","2","4","4","5","5","1","0","1","2","-2","1","0","1","4","5","5","5","5","4","4","3","4","5","4","6","3","6","3","2","4","4","3","5","2","2","3","6","3","3","1","5","4","1","2","5","2","2","4","4","3","6","3","2","3","3","1","2","3","2","7","3","7","3","1","4","2","3","1","3","3","1","3","732578051896119298","王","649","Female","[""好我"",""坏我"",""坏她"",""好她""]","[""强我"",""弱我"",""弱她"",""强她""]","","","","","","","","no","","","","","","","","","SRET","EW_formal","","key","f","16.66532038834943","768","428","自己","马虎","Negative","ability","","","","","","","","","",""
"815","","j","psychophysics","87","321448","0.0-7.0-3.0-0.73","5","6","5","4","3","5","2","4","4","5","5","1","0","1","2","-2","1","0","1","4","5","5","5","5","4","4","3","4","5","4","6","3","6","3","2","4","4","3","5","2","2","3","6","3","3","1","5","4","1","2","5","2","2","4","4","3","6","3","2","3","3","1","2","3","2","7","3","7","3","1","4","2","3","1","3","3","1","3","732578051896119298","王","649","Female","[""好我"",""坏我"",""坏她"",""好她""]","[""强我"",""弱我"",""弱她"",""强她""]","","","","","","","","yes","","","","","","","","","SRET","EW_formal","","key","j","16.666814814814845","768","428","朋友","废物","Negative","ability","","","","","","","","","",""
"791","","f","psychophysics","88","323241","0.0-7.0-3.0-0.74","5","6","5","4","3","5","2","4","4","5","5","1","0","1","2","-2","1","0","1","4","5","5","5","5","4","4","3","4","5","4","6","3","6","3","2","4","4","3","5","2","2","3","6","3","3","1","5","4","1","2","5","2","2","4","4","3","6","3","2","3","3","1","2","3","2","7","3","7","3","1","4","2","3","1","3","3","1","3","732578051896119298","王","649","Female","[""好我"",""坏我"",""坏她"",""好她""]","[""强我"",""弱我"",""弱她"",""强她""]","","","","","","","","no","","","","","","","","","SRET","EW_formal","","key","f","16.665981308410757","768","428","朋友","毛糙","Negative","ability","","","","","","","","","",""
"462","","f","psychophysics","89","324705","0.0-7.0-3.0-0.75","5","6","5","4","3","5","2","4","4","5","5","1","0","1","2","-2","1","0","1","4","5","5","5","5","4","4","3","4","5","4","6","3","6","3","2","4","4","3","5","2","2","3","6","3","3","1","5","4","1","2","5","2","2","4","4","3","6","3","2","3","3","1","2","3","2","7","3","7","3","1","4","2","3","1","3","3","1","3","732578051896119298","王","649","Female","[""好我"",""坏我"",""坏她"",""好她""]","[""强我"",""弱我"",""弱她"",""强她""]","","","","","","","","no","","","","","","","","","SRET","EW_formal","","key","f","16.664873563218862","768","428","自己","无敌","Positive","ability","","","","","","","","","",""
"504","","f","psychophysics","90","326209","0.0-7.0-3.0-0.76","5","6","5","4","3","5","2","4","4","5","5","1","0","1","2","-2","1","0","1","4","5","5","5","5","4","4","3","4","5","4","6","3","6","3","2","4","4","3","5","2","2","3","6","3","3","1","5","4","1","2","5","2","2","4","4","3","6","3","2","3","3","1","2","3","2","7","3","7","3","1","4","2","3","1","3","3","1","3","732578051896119298","王","649","Female","[""好我"",""坏我"",""坏她"",""好她""]","[""强我"",""弱我"",""弱她"",""强她""]","","","","","","","","no","","","","","","","","","SRET","EW_formal","","key","f","16.666101123595457","768","428","自己","奉献","Positive","morality","","","","","","","","","",""
"586","","f","psychophysics","91","327796","0.0-7.0-3.0-0.77","5","6","5","4","3","5","2","4","4","5","5","1","0","1","2","-2","1","0","1","4","5","5","5","5","4","4","3","4","5","4","6","3","6","3","2","4","4","3","5","2","2","3","6","3","3","1","5","4","1","2","5","2","2","4","4","3","6","3","2","3","3","1","2","3","2","7","3","7","3","1","4","2","3","1","3","3","1","3","732578051896119298","王","649","Female","[""好我"",""坏我"",""坏她"",""好她""]","[""强我"",""弱我"",""弱她"",""强她""]","","","","","","","","no","","","","","","","","","SRET","EW_formal","","key","f","16.665702127659586","768","428","自己","思辨","Positive","ability","","","","","","","","","",""
"520","","f","psychophysics","92","329318","0.0-7.0-3.0-0.78","5","6","5","4","3","5","2","4","4","5","5","1","0","1","2","-2","1","0","1","4","5","5","5","5","4","4","3","4","5","4","6","3","6","3","2","4","4","3","5","2","2","3","6","3","3","1","5","4","1","2","5","2","2","4","4","3","6","3","2","3","3","1","2","3","2","7","3","7","3","1","4","2","3","1","3","3","1","3","732578051896119298","王","649","Female","[""好我"",""坏我"",""坏她"",""好她""]","[""强我"",""弱我"",""弱她"",""强她""]","","","","","","","","no","","","","","","","","","SRET","EW_formal","","key","f","16.665285714285368","768","428","自己","依靠","Negative","ability","","","","","","","","","",""
"614","","f","psychophysics","93","330933","0.0-7.0-3.0-0.79","5","6","5","4","3","5","2","4","4","5","5","1","0","1","2","-2","1","0","1","4","5","5","5","5","4","4","3","4","5","4","6","3","6","3","2","4","4","3","5","2","2","3","6","3","3","1","5","4","1","2","5","2","2","4","4","3","6","3","2","3","3","1","2","3","2","7","3","7","3","1","4","2","3","1","3","3","1","3","732578051896119298","王","649","Female","[""好我"",""坏我"",""坏她"",""好她""]","[""强我"",""弱我"",""弱她"",""强她""]","","","","","","","","no","","","","","","","","","SRET","EW_formal","","key","f","16.665863157895174","768","428","朋友","努力","Positive","ability","","","","","","","","","",""
"662","","f","psychophysics","94","332596","0.0-7.0-3.0-0.80","5","6","5","4","3","5","2","4","4","5","5","1","0","1","2","-2","1","0","1","4","5","5","5","5","4","4","3","4","5","4","6","3","6","3","2","4","4","3","5","2","2","3","6","3","3","1","5","4","1","2","5","2","2","4","4","3","6","3","2","3","3","1","2","3","2","7","3","7","3","1","4","2","3","1","3","3","1","3","732578051896119298","王","649","Female","[""好我"",""坏我"",""坏她"",""好她""]","[""强我"",""弱我"",""弱她"",""强她""]","","","","","","","","no","","","","","","","","","SRET","EW_formal","","key","f","16.667747474747657","768","428","自己","变通","Positive","ability","","","","","","","","","",""
"643","","j","psychophysics","95","334241","0.0-7.0-3.0-0.81","5","6","5","4","3","5","2","4","4","5","5","1","0","1","2","-2","1","0","1","4","5","5","5","5","4","4","3","4","5","4","6","3","6","3","2","4","4","3","5","2","2","3","6","3","3","1","5","4","1","2","5","2","2","4","4","3","6","3","2","3","3","1","2","3","2","7","3","7","3","1","4","2","3","1","3","3","1","3","732578051896119298","王","649","Female","[""好我"",""坏我"",""坏她"",""好她""]","[""强我"",""弱我"",""弱她"",""强她""]","","","","","","","","yes","","","","","","","","","SRET","EW_formal","","key","j","16.664530612245006","768","428","自己","罪恶","Negative","morality","","","","","","","","","",""
"550","","f","psychophysics","96","335792","0.0-7.0-3.0-0.82","5","6","5","4","3","5","2","4","4","5","5","1","0","1","2","-2","1","0","1","4","5","5","5","5","4","4","3","4","5","4","6","3","6","3","2","4","4","3","5","2","2","3","6","3","3","1","5","4","1","2","5","2","2","4","4","3","6","3","2","3","3","1","2","3","2","7","3","7","3","1","4","2","3","1","3","3","1","3","732578051896119298","王","649","Female","[""好我"",""坏我"",""坏她"",""好她""]","[""强我"",""弱我"",""弱她"",""强她""]","","","","","","","","no","","","","","","","","","SRET","EW_formal","","key","f","16.665956521738934","768","428","自己","细心","Positive","ability","","","","","","","","","",""
"583","","j","psychophysics","97","337377","0.0-7.0-3.0-0.83","5","6","5","4","3","5","2","4","4","5","5","1","0","1","2","-2","1","0","1","4","5","5","5","5","4","4","3","4","5","4","6","3","6","3","2","4","4","3","5","2","2","3","6","3","3","1","5","4","1","2","5","2","2","4","4","3","6","3","2","3","3","1","2","3","2","7","3","7","3","1","4","2","3","1","3","3","1","3","732578051896119298","王","649","Female","[""好我"",""坏我"",""坏她"",""好她""]","[""强我"",""弱我"",""弱她"",""强她""]","","","","","","","","yes","","","","","","","","","SRET","EW_formal","","key","j","16.665436170212526","768","428","自己","虚伪","Negative","morality","","","","","","","","","",""
"698","","f","psychophysics","98","339076","0.0-7.0-3.0-0.84","5","6","5","4","3","5","2","4","4","5","5","1","0","1","2","-2","1","0","1","4","5","5","5","5","4","4","3","4","5","4","6","3","6","3","2","4","4","3","5","2","2","3","6","3","3","1","5","4","1","2","5","2","2","4","4","3","6","3","2","3","3","1","2","3","2","7","3","7","3","1","4","2","3","1","3","3","1","3","732578051896119298","王","649","Female","[""好我"",""坏我"",""坏她"",""好她""]","[""强我"",""弱我"",""弱她"",""强她""]","","","","","","","","no","","","","","","","","","SRET","EW_formal","","key","f","16.666465346534313","768","428","自己","主见","Positive","ability","","","","","","","","","",""
"1543","","f","psychophysics","99","341621","0.0-7.0-3.0-0.85","5","6","5","4","3","5","2","4","4","5","5","1","0","1","2","-2","1","0","1","4","5","5","5","5","4","4","3","4","5","4","6","3","6","3","2","4","4","3","5","2","2","3","6","3","3","1","5","4","1","2","5","2","2","4","4","3","6","3","2","3","3","1","2","3","2","7","3","7","3","1","4","2","3","1","3","3","1","3","732578051896119298","王","649","Female","[""好我"",""坏我"",""坏她"",""好她""]","[""强我"",""弱我"",""弱她"",""强她""]","","","","","","","","no","","","","","","","","","SRET","EW_formal","","key","f","16.665230263157834","768","428","自己","缓慢","Negative","ability","","","","","","","","","",""
"574","","f","psychophysics","100","343197","0.0-7.0-3.0-0.86","5","6","5","4","3","5","2","4","4","5","5","1","0","1","2","-2","1","0","1","4","5","5","5","5","4","4","3","4","5","4","6","3","6","3","2","4","4","3","5","2","2","3","6","3","3","1","5","4","1","2","5","2","2","4","4","3","6","3","2","3","3","1","2","3","2","7","3","7","3","1","4","2","3","1","3","3","1","3","732578051896119298","王","649","Female","[""好我"",""坏我"",""坏她"",""好她""]","[""强我"",""弱我"",""弱她"",""强她""]","","","","","","","","no","","","","","","","","","SRET","EW_formal","","key","f","16.664473118279904","768","428","朋友","素养","Positive","morality","","","","","","","","","",""
"1163","","j","psychophysics","101","345361","0.0-7.0-3.0-0.87","5","6","5","4","3","5","2","4","4","5","5","1","0","1","2","-2","1","0","1","4","5","5","5","5","4","4","3","4","5","4","6","3","6","3","2","4","4","3","5","2","2","3","6","3","3","1","5","4","1","2","5","2","2","4","4","3","6","3","2","3","3","1","2","3","2","7","3","7","3","1","4","2","3","1","3","3","1","3","732578051896119298","王","649","Female","[""好我"",""坏我"",""坏她"",""好她""]","[""强我"",""弱我"",""弱她"",""强她""]","","","","","","","","yes","","","","","","","","","SRET","EW_formal","","key","j","16.665875968992143","768","428","朋友","低俗","Negative","morality","","","","","","","","","",""
"10492","
    <p><div style='color:white;font-size:35px; line-height:20px;'>计算任务</div></p><br>
    <p><div style='color:red;font-size:25px; line-height:20px;'>接下来，您将看到一些四则运算题，<b>请从键盘选择 0-9 进行反应。</b></div></p>
    <p><div style='color:red;font-size:25px; line-height:20px;'>请尽可能快地进行计算，计算的速度和正确率将影响报酬的发放。</div></p>
    <p><div class='footer' style='color:white;font-size:25px; line-height:20px;'>如果对本实验还有不清楚之处，请立即向实验员咨询。</p><p style='color:white;font-size:25px; line-height:20px;'>如果您明白了规则：</p><p style='color:white;font-size:22px; line-height:20px;'>请按 继续 进入练习</p>
    </div>
    ","0","html-button-response","102","355864","0.0-7.0-4.0","5","6","5","4","3","5","2","4","4","5","5","1","0","1","2","-2","1","0","1","4","5","5","5","5","4","4","3","4","5","4","6","3","6","3","2","4","4","3","5","2","2","3","6","3","3","1","5","4","1","2","5","2","2","4","4","3","6","3","2","3","3","1","2","3","2","7","3","7","3","1","4","2","3","1","3","3","1","3","732578051896119298","王","649","Female","[""好我"",""坏我"",""坏她"",""好她""]","[""强我"",""弱我"",""弱她"",""强她""]","","","","","","","","","","","","","","","","","SRET_math","math_instructions","Sat Nov 25 2023 12:08:12 GMT+0800 (中国标准时间)","","","","","","","","","","","","","","","","","","",""
"2342","","2","psychophysics","103","358211","0.0-7.0-5.0-0.0","5","6","5","4","3","5","2","4","4","5","5","1","0","1","2","-2","1","0","1","4","5","5","5","5","4","4","3","4","5","4","6","3","6","3","2","4","4","3","5","2","2","3","6","3","3","1","5","4","1","2","5","2","2","4","4","3","6","3","2","3","3","1","2","3","2","7","3","7","3","1","4","2","3","1","3","3","1","3","732578051896119298","王","649","Female","[""好我"",""坏我"",""坏她"",""好她""]","[""强我"",""弱我"",""弱她"",""强她""]","","","","","","","","2","","","","","","","","","SRET","SRET_math_calculate","","key","2","16.66691489361684","768","428","","","","","22/11= ?","2","1","","","","","","",""
"2550","","8","psychophysics","104","360763","0.0-7.0-5.0-0.1","5","6","5","4","3","5","2","4","4","5","5","1","0","1","2","-2","1","0","1","4","5","5","5","5","4","4","3","4","5","4","6","3","6","3","2","4","4","3","5","2","2","3","6","3","3","1","5","4","1","2","5","2","2","4","4","3","6","3","2","3","3","1","2","3","2","7","3","7","3","1","4","2","3","1","3","3","1","3","732578051896119298","王","649","Female","[""好我"",""坏我"",""坏她"",""好她""]","[""强我"",""弱我"",""弱她"",""强她""]","","","","","","","","8","","","","","","","","","SRET","SRET_math_calculate","","key","8","16.666059210526186","768","428","","","","","7+1= ?","8","1","","","","","","",""
"2148","","6","psychophysics","105","362918","0.0-7.0-5.0-0.2","5","6","5","4","3","5","2","4","4","5","5","1","0","1","2","-2","1","0","1","4","5","5","5","5","4","4","3","4","5","4","6","3","6","3","2","4","4","3","5","2","2","3","6","3","3","1","5","4","1","2","5","2","2","4","4","3","6","3","2","3","3","1","2","3","2","7","3","7","3","1","4","2","3","1","3","3","1","3","732578051896119298","王","649","Female","[""好我"",""坏我"",""坏她"",""好她""]","[""强我"",""弱我"",""弱她"",""强她""]","","","","","","","","6","","","","","","","","","SRET","SRET_math_calculate","","key","6","16.66515625000011","768","428","","","","","2+4= ?","6","1","","","","","","",""
"1942","","7","psychophysics","106","364862","0.0-7.0-5.0-0.3","5","6","5","4","3","5","2","4","4","5","5","1","0","1","2","-2","1","0","1","4","5","5","5","5","4","4","3","4","5","4","6","3","6","3","2","4","4","3","5","2","2","3","6","3","3","1","5","4","1","2","5","2","2","4","4","3","6","3","2","3","3","1","2","3","2","7","3","7","3","1","4","2","3","1","3","3","1","3","732578051896119298","王","649","Female","[""好我"",""坏我"",""坏她"",""好她""]","[""强我"",""弱我"",""弱她"",""强她""]","","","","","","","","7","","","","","","","","","SRET","SRET_math_calculate","","key","7","16.666077586207017","768","428","","","","","3+4= ?","7","1","","","","","","",""
"2857","","5","psychophysics","107","367722","0.0-7.0-5.0-0.4","5","6","5","4","3","5","2","4","4","5","5","1","0","1","2","-2","1","0","1","4","5","5","5","5","4","4","3","4","5","4","6","3","6","3","2","4","4","3","5","2","2","3","6","3","3","1","5","4","1","2","5","2","2","4","4","3","6","3","2","3","3","1","2","3","2","7","3","7","3","1","4","2","3","1","3","3","1","3","732578051896119298","王","649","Female","[""好我"",""坏我"",""坏她"",""好她""]","[""强我"",""弱我"",""弱她"",""强她""]","","","","","","","","5","","","","","","","","","SRET","SRET_math_calculate","","key","5","16.665411764705855","768","428","","","","","12-7= ?","5","1","","","","","","",""
"2782","","3","psychophysics","108","370506","0.0-7.0-5.0-0.5","5","6","5","4","3","5","2","4","4","5","5","1","0","1","2","-2","1","0","1","4","5","5","5","5","4","4","3","4","5","4","6","3","6","3","2","4","4","3","5","2","2","3","6","3","3","1","5","4","1","2","5","2","2","4","4","3","6","3","2","3","3","1","2","3","2","7","3","7","3","1","4","2","3","1","3","3","1","3","732578051896119298","王","649","Female","[""好我"",""坏我"",""坏她"",""好她""]","[""强我"",""弱我"",""弱她"",""强她""]","","","","","","","","3","","","","","","","","","SRET","SRET_math_calculate","","key","3","16.66581927710851","768","428","","","","","11-8= ?","3","1","","","","","","",""
"2185","","2","psychophysics","109","372694","0.0-7.0-5.0-0.6","5","6","5","4","3","5","2","4","4","5","5","1","0","1","2","-2","1","0","1","4","5","5","5","5","4","4","3","4","5","4","6","3","6","3","2","4","4","3","5","2","2","3","6","3","3","1","5","4","1","2","5","2","2","4","4","3","6","3","2","3","3","1","2","3","2","7","3","7","3","1","4","2","3","1","3","3","1","3","732578051896119298","王","649","Female","[""好我"",""坏我"",""坏她"",""好她""]","[""强我"",""弱我"",""弱她"",""强她""]","","","","","","","","2","","","","","","","","","SRET","SRET_math_calculate","","key","2","16.666000000000327","768","428","","","","","19-17= ?","2","1","","","","","","",""
"2057","","3","psychophysics","110","374754","0.0-7.0-5.0-0.7","5","6","5","4","3","5","2","4","4","5","5","1","0","1","2","-2","1","0","1","4","5","5","5","5","4","4","3","4","5","4","6","3","6","3","2","4","4","3","5","2","2","3","6","3","3","1","5","4","1","2","5","2","2","4","4","3","6","3","2","3","3","1","2","3","2","7","3","7","3","1","4","2","3","1","3","3","1","3","732578051896119298","王","649","Female","[""好我"",""坏我"",""坏她"",""好她""]","[""强我"",""弱我"",""弱她"",""强她""]","","","","","","","","3","","","","","","","","","SRET","SRET_math_calculate","","key","3","16.6655737704919","768","428","","","","","12/4= ?","3","1","","","","","","",""
"2043","","5","psychophysics","111","376798","0.0-7.0-5.0-0.8","5","6","5","4","3","5","2","4","4","5","5","1","0","1","2","-2","1","0","1","4","5","5","5","5","4","4","3","4","5","4","6","3","6","3","2","4","4","3","5","2","2","3","6","3","3","1","5","4","1","2","5","2","2","4","4","3","6","3","2","3","3","1","2","3","2","7","3","7","3","1","4","2","3","1","3","3","1","3","732578051896119298","王","649","Female","[""好我"",""坏我"",""坏她"",""好她""]","[""强我"",""弱我"",""弱她"",""强她""]","","","","","","","","5","","","","","","","","","SRET","SRET_math_calculate","","key","5","16.665540983606526","768","428","","","","","9-4= ?","5","1","","","","","","",""
"2090","","2","psychophysics","112","378894","0.0-7.0-5.0-0.9","5","6","5","4","3","5","2","4","4","5","5","1","0","1","2","-2","1","0","1","4","5","5","5","5","4","4","3","4","5","4","6","3","6","3","2","4","4","3","5","2","2","3","6","3","3","1","5","4","1","2","5","2","2","4","4","3","6","3","2","3","3","1","2","3","2","7","3","7","3","1","4","2","3","1","3","3","1","3","732578051896119298","王","649","Female","[""好我"",""坏我"",""坏她"",""好她""]","[""强我"",""弱我"",""弱她"",""强她""]","","","","","","","","2","","","","","","","","","SRET","SRET_math_calculate","","key","2","16.666560000000057","768","428","","","","","1+1= ?","2","1","","","","","","",""
"5722","","6","psychophysics","113","384618","0.0-7.0-5.0-0.10","5","6","5","4","3","5","2","4","4","5","5","1","0","1","2","-2","1","0","1","4","5","5","5","5","4","4","3","4","5","4","6","3","6","3","2","4","4","3","5","2","2","3","6","3","3","1","5","4","1","2","5","2","2","4","4","3","6","3","2","3","3","1","2","3","2","7","3","7","3","1","4","2","3","1","3","3","1","3","732578051896119298","王","649","Female","[""好我"",""坏我"",""坏她"",""好她""]","[""强我"",""弱我"",""弱她"",""强她""]","","","","","","","","6","","","","","","","","","SRET","SRET_math_calculate","","key","6","16.66614619883037","768","428","","","","","11-5= ?","6","1","","","","","","",""
"3045","","9","psychophysics","114","387666","0.0-7.0-5.0-0.11","5","6","5","4","3","5","2","4","4","5","5","1","0","1","2","-2","1","0","1","4","5","5","5","5","4","4","3","4","5","4","6","3","6","3","2","4","4","3","5","2","2","3","6","3","3","1","5","4","1","2","5","2","2","4","4","3","6","3","2","3","3","1","2","3","2","7","3","7","3","1","4","2","3","1","3","3","1","3","732578051896119298","王","649","Female","[""好我"",""坏我"",""坏她"",""好她""]","[""强我"",""弱我"",""弱她"",""强她""]","","","","","","","","9","","","","","","","","","SRET","SRET_math_calculate","","key","9","16.666252747252596","768","428","","","","","81/9= ?","9","1","","","","","","",""
"2562","","8","psychophysics","115","390230","0.0-7.0-5.0-0.12","5","6","5","4","3","5","2","4","4","5","5","1","0","1","2","-2","1","0","1","4","5","5","5","5","4","4","3","4","5","4","6","3","6","3","2","4","4","3","5","2","2","3","6","3","3","1","5","4","1","2","5","2","2","4","4","3","6","3","2","3","3","1","2","3","2","7","3","7","3","1","4","2","3","1","3","3","1","3","732578051896119298","王","649","Female","[""好我"",""坏我"",""坏她"",""好她""]","[""强我"",""弱我"",""弱她"",""强她""]","","","","","","","","8","","","","","","","","","SRET","SRET_math_calculate","","key","8","16.665457516339885","768","428","","","","","2*4= ?","8","1","","","","","","",""
"1947","","5","psychophysics","116","392178","0.0-7.0-5.0-0.13","5","6","5","4","3","5","2","4","4","5","5","1","0","1","2","-2","1","0","1","4","5","5","5","5","4","4","3","4","5","4","6","3","6","3","2","4","4","3","5","2","2","3","6","3","3","1","5","4","1","2","5","2","2","4","4","3","6","3","2","3","3","1","2","3","2","7","3","7","3","1","4","2","3","1","3","3","1","3","732578051896119298","王","649","Female","[""好我"",""坏我"",""坏她"",""好她""]","[""强我"",""弱我"",""弱她"",""强她""]","","","","","","","","5","","","","","","","","","SRET","SRET_math_calculate","","key","5","16.66649137931055","768","428","","","","","4+1= ?","5","1","","","","","","",""
"2412","","0","psychophysics","117","394594","0.0-7.0-5.0-0.14","5","6","5","4","3","5","2","4","4","5","5","1","0","1","2","-2","1","0","1","4","5","5","5","5","4","4","3","4","5","4","6","3","6","3","2","4","4","3","5","2","2","3","6","3","3","1","5","4","1","2","5","2","2","4","4","3","6","3","2","3","3","1","2","3","2","7","3","7","3","1","4","2","3","1","3","3","1","3","732578051896119298","王","649","Female","[""好我"",""坏我"",""坏她"",""好她""]","[""强我"",""弱我"",""弱她"",""强她""]","","","","","","","","0","","","","","","","","","SRET","SRET_math_calculate","","key","0","16.66560416666673","768","428","","","","","22-22= ?","0","1","","","","","","",""
"2430","","4","psychophysics","118","397027","0.0-7.0-5.0-0.15","5","6","5","4","3","5","2","4","4","5","5","1","0","1","2","-2","1","0","1","4","5","5","5","5","4","4","3","4","5","4","6","3","6","3","2","4","4","3","5","2","2","3","6","3","3","1","5","4","1","2","5","2","2","4","4","3","6","3","2","3","3","1","2","3","2","7","3","7","3","1","4","2","3","1","3","3","1","3","732578051896119298","王","649","Female","[""好我"",""坏我"",""坏她"",""好她""]","[""强我"",""弱我"",""弱她"",""强她""]","","","","","","","","4","","","","","","","","","SRET","SRET_math_calculate","","key","4","16.666144827586308","768","428","","","","","4*1= ?","4","1","","","","","","",""
"2145","","8","psychophysics","119","399174","0.0-7.0-5.0-0.16","5","6","5","4","3","5","2","4","4","5","5","1","0","1","2","-2","1","0","1","4","5","5","5","5","4","4","3","4","5","4","6","3","6","3","2","4","4","3","5","2","2","3","6","3","3","1","5","4","1","2","5","2","2","4","4","3","6","3","2","3","3","1","2","3","2","7","3","7","3","1","4","2","3","1","3","3","1","3","732578051896119298","王","649","Female","[""好我"",""坏我"",""坏她"",""好她""]","[""强我"",""弱我"",""弱她"",""强她""]","","","","","","","","8","","","","","","","","","SRET","SRET_math_calculate","","key","8","16.66546093750003","768","428","","","","","1*8= ?","8","1","","","","","","",""
"2046","","0","psychophysics","120","401222","0.0-7.0-5.0-0.17","5","6","5","4","3","5","2","4","4","5","5","1","0","1","2","-2","1","0","1","4","5","5","5","5","4","4","3","4","5","4","6","3","6","3","2","4","4","3","5","2","2","3","6","3","3","1","5","4","1","2","5","2","2","4","4","3","6","3","2","3","3","1","2","3","2","7","3","7","3","1","4","2","3","1","3","3","1","3","732578051896119298","王","649","Female","[""好我"",""坏我"",""坏她"",""好她""]","[""强我"",""弱我"",""弱她"",""强她""]","","","","","","","","0","","","","","","","","","SRET","SRET_math_calculate","","key","0","16.66597520661144","768","428","","","","","9-9= ?","0","1","","","","","","",""
"1987","","9","psychophysics","121","403213","0.0-7.0-5.0-0.18","5","6","5","4","3","5","2","4","4","5","5","1","0","1","2","-2","1","0","1","4","5","5","5","5","4","4","3","4","5","4","6","3","6","3","2","4","4","3","5","2","2","3","6","3","3","1","5","4","1","2","5","2","2","4","4","3","6","3","2","3","3","1","2","3","2","7","3","7","3","1","4","2","3","1","3","3","1","3","732578051896119298","王","649","Female","[""好我"",""坏我"",""坏她"",""好她""]","[""强我"",""弱我"",""弱她"",""强她""]","","","","","","","","9","","","","","","","","","SRET","SRET_math_calculate","","key","9","16.667285714285768","768","428","","","","","8+1= ?","9","1","","","","","","",""
"2151","","3","psychophysics","122","405371","0.0-7.0-5.0-0.19","5","6","5","4","3","5","2","4","4","5","5","1","0","1","2","-2","1","0","1","4","5","5","5","5","4","4","3","4","5","4","6","3","6","3","2","4","4","3","5","2","2","3","6","3","3","1","5","4","1","2","5","2","2","4","4","3","6","3","2","3","3","1","2","3","2","7","3","7","3","1","4","2","3","1","3","3","1","3","732578051896119298","王","649","Female","[""好我"",""坏我"",""坏她"",""好她""]","[""强我"",""弱我"",""弱她"",""强她""]","","","","","","","","3","","","","","","","","","SRET","SRET_math_calculate","","key","3","16.665562500000306","768","428","","","","","3+0= ?","3","1","","","","","","",""
"2206","","8","psychophysics","123","407578","0.0-7.0-5.0-0.20","5","6","5","4","3","5","2","4","4","5","5","1","0","1","2","-2","1","0","1","4","5","5","5","5","4","4","3","4","5","4","6","3","6","3","2","4","4","3","5","2","2","3","6","3","3","1","5","4","1","2","5","2","2","4","4","3","6","3","2","3","3","1","2","3","2","7","3","7","3","1","4","2","3","1","3","3","1","3","732578051896119298","王","649","Female","[""好我"",""坏我"",""坏她"",""好她""]","[""强我"",""弱我"",""弱她"",""强她""]","","","","","","","","8","","","","","","","","","SRET","SRET_math_calculate","","key","8","16.66536363636348","768","428","","","","","5+3= ?","8","1","","","","","","",""
"2111","","3","psychophysics","124","409693","0.0-7.0-5.0-0.21","5","6","5","4","3","5","2","4","4","5","5","1","0","1","2","-2","1","0","1","4","5","5","5","5","4","4","3","4","5","4","6","3","6","3","2","4","4","3","5","2","2","3","6","3","3","1","5","4","1","2","5","2","2","4","4","3","6","3","2","3","3","1","2","3","2","7","3","7","3","1","4","2","3","1","3","3","1","3","732578051896119298","王","649","Female","[""好我"",""坏我"",""坏她"",""好她""]","[""强我"",""弱我"",""弱她"",""强她""]","","","","","","","","3","","","","","","","","","SRET","SRET_math_calculate","","key","3","16.66588095238059","768","428","","","","","3*1= ?","3","1","","","","","","",""
"2410","","1","psychophysics","125","412119","0.0-7.0-5.0-0.22","5","6","5","4","3","5","2","4","4","5","5","1","0","1","2","-2","1","0","1","4","5","5","5","5","4","4","3","4","5","4","6","3","6","3","2","4","4","3","5","2","2","3","6","3","3","1","5","4","1","2","5","2","2","4","4","3","6","3","2","3","3","1","2","3","2","7","3","7","3","1","4","2","3","1","3","3","1","3","732578051896119298","王","649","Female","[""好我"",""坏我"",""坏她"",""好她""]","[""强我"",""弱我"",""弱她"",""强她""]","","","","","","","","1","","","","","","","","","SRET","SRET_math_calculate","","key","1","16.665756944444485","768","428","","","","","12/12= ?","1","1","","","","","","",""
"2475","","7","psychophysics","126","414595","0.0-7.0-5.0-0.23","5","6","5","4","3","5","2","4","4","5","5","1","0","1","2","-2","1","0","1","4","5","5","5","5","4","4","3","4","5","4","6","3","6","3","2","4","4","3","5","2","2","3","6","3","3","1","5","4","1","2","5","2","2","4","4","3","6","3","2","3","3","1","2","3","2","7","3","7","3","1","4","2","3","1","3","3","1","3","732578051896119298","王","649","Female","[""好我"",""坏我"",""坏她"",""好她""]","[""强我"",""弱我"",""弱她"",""强她""]","","","","","","","","7","","","","","","","","","SRET","SRET_math_calculate","","key","7","16.665585034013706","768","428","","","","","12-5= ?","7","1","","","","","","",""
"2120","","5","psychophysics","127","416718","0.0-7.0-5.0-0.24","5","6","5","4","3","5","2","4","4","5","5","1","0","1","2","-2","1","0","1","4","5","5","5","5","4","4","3","4","5","4","6","3","6","3","2","4","4","3","5","2","2","3","6","3","3","1","5","4","1","2","5","2","2","4","4","3","6","3","2","3","3","1","2","3","2","7","3","7","3","1","4","2","3","1","3","3","1","3","732578051896119298","王","649","Female","[""好我"",""坏我"",""坏她"",""好她""]","[""强我"",""弱我"",""弱她"",""强她""]","","","","","","","","5","","","","","","","","","SRET","SRET_math_calculate","","key","5","16.665850393700975","768","428","","","","","15-10= ?","5","1","","","","","","",""
"2530","","2","psychophysics","128","419254","0.0-7.0-5.0-0.25","5","6","5","4","3","5","2","4","4","5","5","1","0","1","2","-2","1","0","1","4","5","5","5","5","4","4","3","4","5","4","6","3","6","3","2","4","4","3","5","2","2","3","6","3","3","1","5","4","1","2","5","2","2","4","4","3","6","3","2","3","3","1","2","3","2","7","3","7","3","1","4","2","3","1","3","3","1","3","732578051896119298","王","649","Female","[""好我"",""坏我"",""坏她"",""好她""]","[""强我"",""弱我"",""弱她"",""强她""]","","","","","","","","2","","","","","","","","","SRET","SRET_math_calculate","","key","2","16.665622516556038","768","428","","","","","29-27= ?","2","1","","","","","","",""
"2154","","1","psychophysics","129","421410","0.0-7.0-5.0-0.26","5","6","5","4","3","5","2","4","4","5","5","1","0","1","2","-2","1","0","1","4","5","5","5","5","4","4","3","4","5","4","6","3","6","3","2","4","4","3","5","2","2","3","6","3","3","1","5","4","1","2","5","2","2","4","4","3","6","3","2","3","3","1","2","3","2","7","3","7","3","1","4","2","3","1","3","3","1","3","732578051896119298","王","649","Female","[""好我"",""坏我"",""坏她"",""好她""]","[""强我"",""弱我"",""弱她"",""强她""]","","","","","","","","1","","","","","","","","","SRET","SRET_math_calculate","","key","1","16.66607031249987","768","428","","","","","4/4= ?","1","1","","","","","","",""
"2986","","8","psychophysics","130","424399","0.0-7.0-5.0-0.27","5","6","5","4","3","5","2","4","4","5","5","1","0","1","2","-2","1","0","1","4","5","5","5","5","4","4","3","4","5","4","6","3","6","3","2","4","4","3","5","2","2","3","6","3","3","1","5","4","1","2","5","2","2","4","4","3","6","3","2","3","3","1","2","3","2","7","3","7","3","1","4","2","3","1","3","3","1","3","732578051896119298","王","649","Female","[""好我"",""坏我"",""坏她"",""好她""]","[""强我"",""弱我"",""弱她"",""强她""]","","","","","","","","8","","","","","","","","","SRET","SRET_math_calculate","","key","8","16.66529608938541","768","428","","","","","2+6= ?","8","1","","","","","","",""
"2449","","6","psychophysics","131","426850","0.0-7.0-5.0-0.28","5","6","5","4","3","5","2","4","4","5","5","1","0","1","2","-2","1","0","1","4","5","5","5","5","4","4","3","4","5","4","6","3","6","3","2","4","4","3","5","2","2","3","6","3","3","1","5","4","1","2","5","2","2","4","4","3","6","3","2","3","3","1","2","3","2","7","3","7","3","1","4","2","3","1","3","3","1","3","732578051896119298","王","649","Female","[""好我"",""坏我"",""坏她"",""好她""]","[""强我"",""弱我"",""弱她"",""强她""]","","","","","","","","6","","","","","","","","","SRET","SRET_math_calculate","","key","6","16.666972602739506","768","428","","","","","2*3= ?","6","1","","","","","","",""
"2290","","8","psychophysics","132","429142","0.0-7.0-5.0-0.29","5","6","5","4","3","5","2","4","4","5","5","1","0","1","2","-2","1","0","1","4","5","5","5","5","4","4","3","4","5","4","6","3","6","3","2","4","4","3","5","2","2","3","6","3","3","1","5","4","1","2","5","2","2","4","4","3","6","3","2","3","3","1","2","3","2","7","3","7","3","1","4","2","3","1","3","3","1","3","732578051896119298","王","649","Female","[""好我"",""坏我"",""坏她"",""好她""]","[""强我"",""弱我"",""弱她"",""强她""]","","","","","","","","8","","","","","","","","","SRET","SRET_math_calculate","","key","8","16.665514705882423","768","428","","","","","3+5= ?","8","1","","","","","","",""
"1962","","6","psychophysics","133","431107","0.0-7.0-5.0-0.30","5","6","5","4","3","5","2","4","4","5","5","1","0","1","2","-2","1","0","1","4","5","5","5","5","4","4","3","4","5","4","6","3","6","3","2","4","4","3","5","2","2","3","6","3","3","1","5","4","1","2","5","2","2","4","4","3","6","3","2","3","3","1","2","3","2","7","3","7","3","1","4","2","3","1","3","3","1","3","732578051896119298","王","649","Female","[""好我"",""坏我"",""坏她"",""好她""]","[""强我"",""弱我"",""弱她"",""强她""]","","","","","","","","6","","","","","","","","","SRET","SRET_math_calculate","","key","6","16.666017094017086","768","428","","","","","3+3= ?","6","1","","","","","","",""
"2123","","9","psychophysics","134","433232","0.0-7.0-5.0-0.31","5","6","5","4","3","5","2","4","4","5","5","1","0","1","2","-2","1","0","1","4","5","5","5","5","4","4","3","4","5","4","6","3","6","3","2","4","4","3","5","2","2","3","6","3","3","1","5","4","1","2","5","2","2","4","4","3","6","3","2","3","3","1","2","3","2","7","3","7","3","1","4","2","3","1","3","3","1","3","732578051896119298","王","649","Female","[""好我"",""坏我"",""坏她"",""好她""]","[""强我"",""弱我"",""弱她"",""强她""]","","","","","","","","9","","","","","","","","","SRET","SRET_math_calculate","","key","9","16.666055118110062","768","428","","","","","6+3= ?","9","1","","","","","","",""
"2381","","4","psychophysics","135","435615","0.0-7.0-5.0-0.32","5","6","5","4","3","5","2","4","4","5","5","1","0","1","2","-2","1","0","1","4","5","5","5","5","4","4","3","4","5","4","6","3","6","3","2","4","4","3","5","2","2","3","6","3","3","1","5","4","1","2","5","2","2","4","4","3","6","3","2","3","3","1","2","3","2","7","3","7","3","1","4","2","3","1","3","3","1","3","732578051896119298","王","649","Female","[""好我"",""坏我"",""坏她"",""好她""]","[""强我"",""弱我"",""弱她"",""强她""]","","","","","","","","4","","","","","","","","","SRET","SRET_math_calculate","","key","4","16.665063380281783","768","428","","","","","8-4= ?","4","1","","","","","","",""
"2037","","4","psychophysics","136","437654","0.0-7.0-5.0-0.33","5","6","5","4","3","5","2","4","4","5","5","1","0","1","2","-2","1","0","1","4","5","5","5","5","4","4","3","4","5","4","6","3","6","3","2","4","4","3","5","2","2","3","6","3","3","1","5","4","1","2","5","2","2","4","4","3","6","3","2","3","3","1","2","3","2","7","3","7","3","1","4","2","3","1","3","3","1","3","732578051896119298","王","649","Female","[""好我"",""坏我"",""坏她"",""好她""]","[""强我"",""弱我"",""弱她"",""强她""]","","","","","","","","4","","","","","","","","","SRET","SRET_math_calculate","","key","4","16.66685123966953","768","428","","","","","3+1= ?","4","1","","","","","","",""
"2025","","8","psychophysics","137","439682","0.0-7.0-5.0-0.34","5","6","5","4","3","5","2","4","4","5","5","1","0","1","2","-2","1","0","1","4","5","5","5","5","4","4","3","4","5","4","6","3","6","3","2","4","4","3","5","2","2","3","6","3","3","1","5","4","1","2","5","2","2","4","4","3","6","3","2","3","3","1","2","3","2","7","3","7","3","1","4","2","3","1","3","3","1","3","732578051896119298","王","649","Female","[""好我"",""坏我"",""坏她"",""好她""]","[""强我"",""弱我"",""弱她"",""强她""]","","","","","","","","8","","","","","","","","","SRET","SRET_math_calculate","","key","8","16.665752066115555","768","428","","","","","1+7= ?","8","1","","","","","","",""
"2082","","9","psychophysics","138","441767","0.0-7.0-5.0-0.35","5","6","5","4","3","5","2","4","4","5","5","1","0","1","2","-2","1","0","1","4","5","5","5","5","4","4","3","4","5","4","6","3","6","3","2","4","4","3","5","2","2","3","6","3","3","1","5","4","1","2","5","2","2","4","4","3","6","3","2","3","3","1","2","3","2","7","3","7","3","1","4","2","3","1","3","3","1","3","732578051896119298","王","649","Female","[""好我"",""坏我"",""坏她"",""好她""]","[""强我"",""弱我"",""弱她"",""强她""]","","","","","","","","9","","","","","","","","","SRET","SRET_math_calculate","","key","9","16.664959677419485","768","428","","","","","3*3= ?","9","1","","","","","","",""
"3010","","7","psychophysics","139","444779","0.0-7.0-5.0-0.36","5","6","5","4","3","5","2","4","4","5","5","1","0","1","2","-2","1","0","1","4","5","5","5","5","4","4","3","4","5","4","6","3","6","3","2","4","4","3","5","2","2","3","6","3","3","1","5","4","1","2","5","2","2","4","4","3","6","3","2","3","3","1","2","3","2","7","3","7","3","1","4","2","3","1","3","3","1","3","732578051896119298","王","649","Female","[""好我"",""坏我"",""坏她"",""好她""]","[""强我"",""弱我"",""弱她"",""强她""]","","","","","","","","7","","","","","","","","","SRET","SRET_math_calculate","","key","7","16.6659553072626","768","428","","","","","13-6= ?","7","1","","","","","","",""
"2566","","2","psychophysics","140","447347","0.0-7.0-5.0-0.37","5","6","5","4","3","5","2","4","4","5","5","1","0","1","2","-2","1","0","1","4","5","5","5","5","4","4","3","4","5","4","6","3","6","3","2","4","4","3","5","2","2","3","6","3","3","1","5","4","1","2","5","2","2","4","4","3","6","3","2","3","3","1","2","3","2","7","3","7","3","1","4","2","3","1","3","3","1","3","732578051896119298","王","649","Female","[""好我"",""坏我"",""坏她"",""好她""]","[""强我"",""弱我"",""弱她"",""强她""]","","","","","","","","2","","","","","","","","","SRET","SRET_math_calculate","","key","2","16.666435064935026","768","428","","","","","90/45= ?","2","1","","","","","","",""
"2456","","9","psychophysics","141","449806","0.0-7.0-5.0-0.38","5","6","5","4","3","5","2","4","4","5","5","1","0","1","2","-2","1","0","1","4","5","5","5","5","4","4","3","4","5","4","6","3","6","3","2","4","4","3","5","2","2","3","6","3","3","1","5","4","1","2","5","2","2","4","4","3","6","3","2","3","3","1","2","3","2","7","3","7","3","1","4","2","3","1","3","3","1","3","732578051896119298","王","649","Female","[""好我"",""坏我"",""坏她"",""好她""]","[""强我"",""弱我"",""弱她"",""强她""]","","","","","","","","9","","","","","","","","","SRET","SRET_math_calculate","","key","9","16.666636986301157","768","428","","","","","2+7= ?","9","1","","","","","","",""
"2126","","4","psychophysics","142","451934","0.0-7.0-5.0-0.39","5","6","5","4","3","5","2","4","4","5","5","1","0","1","2","-2","1","0","1","4","5","5","5","5","4","4","3","4","5","4","6","3","6","3","2","4","4","3","5","2","2","3","6","3","3","1","5","4","1","2","5","2","2","4","4","3","6","3","2","3","3","1","2","3","2","7","3","7","3","1","4","2","3","1","3","3","1","3","732578051896119298","王","649","Female","[""好我"",""坏我"",""坏她"",""好她""]","[""强我"",""弱我"",""弱她"",""强她""]","","","","","","","","4","","","","","","","","","SRET","SRET_math_calculate","","key","4","16.665685039369745","768","428","","","","","9-5= ?","4","1","","","","","","",""
"2610","","9","psychophysics","143","454547","0.0-7.0-5.0-0.40","5","6","5","4","3","5","2","4","4","5","5","1","0","1","2","-2","1","0","1","4","5","5","5","5","4","4","3","4","5","4","6","3","6","3","2","4","4","3","5","2","2","3","6","3","3","1","5","4","1","2","5","2","2","4","4","3","6","3","2","3","3","1","2","3","2","7","3","7","3","1","4","2","3","1","3","3","1","3","732578051896119298","王","649","Female","[""好我"",""坏我"",""坏她"",""好她""]","[""强我"",""弱我"",""弱她"",""强她""]","","","","","","","","9","","","","","","","","","SRET","SRET_math_calculate","","key","9","16.66630128205109","768","428","","","","","43-34= ?","9","1","","","","","","",""
