"rt","stimulus","response","trial_type","trial_index","time_elapsed","internal_node_id","swb_1","swb_2","swb_3","swb_4","swb_5","LOT_1","LOT_2","LOT_3","LOT_4","LOT_5","LOT_6","IPC_1","IPC_2","IPC_3","IPC_4","IPC_5","IPC_6","IPC_7","IPC_8","MorIden_1","MorIden_2","MorIden_3","MorIden_4","MorIden_5","MorIden_6","MorIden_7","MorIden_8","MorIden_9","MorIden_10","moralSeImag_1","moralSeImag_2","moralSeImag_3","moralSeImag_4","moralSeImag_5","moralSeImag_6","moralSeImag_7","moralSeImag_8","moralSeImag_9","sde_1","sde_2","sde_3","sde_4","sde_5","sde_6","sde_7","sde_8","sde_9","sde_10","sde_11","sde_12","sde_13","sde_14","sde_15","sde_16","sde_17","sde_18","sde_19","sde_20","IM_1","IM_2","IM_3","IM_4","IM_5","IM_6","IM_7","IM_8","IM_9","IM_10","IM_11","IM_12","IM_13","IM_14","IM_15","IM_16","IM_17","IM_18","IM_19","IM_20","subj_idx","friend_name","ParticipantID","Sex","Word","Word2","value","success","timeout","failed_images","failed_audio","failed_video","user_agent","responses","item_order","radio_event_ids","radio_event_times","key_event_times","mouse_event_times","straightlining","zigzagging","honeypot","view_history","response_type","key_press","avg_frame_time","center_x","center_y","correct_response","correct","identity","Image","word","condition","task_id","screen_id","time_stamp","person","valence","domain","math","status","duration","question_order"
"3658","
   <p><div style='color:white; font-size: 25px'>您好，欢迎参加本次实验。</div></p>
   <p><div style='color:white; font-size: 25px'>为充分保障您的权利，请确保您已经知晓并同意《参与实验同意书》以及《数据公开知情同意书》。</div></p>
   <p><div style='color:white; font-size: 25px'>如果您未见过上述内容，请咨询实验员。</div></p>
   <p style='color:white; font-size: 25px'>如果您选择继续实验，则表示您已经清楚两份知情同意书的内容并同意。</p>
   <p><div style = ""color: red;font-size:30px;"">请确保您记得day0的实验编号，您将在本次实验输入该编号，若您忘记，请咨询实验员后作答。</div></p>
   <p> <div style = ""color: green""><按空格键至下页></div> </p>
   "," ","html-keyboard-response","0","3664","0.0-0.0","5","4","4","4","4","4","3","4","4","4","4","-1","0","1","-2","-2","0","0","0","4","4","5","4","3","3","3","3","4","4","4","6","6","7","8","5","7","8","7","5","4","2","6","4","3","3","3","4","2","2","3","4","3","2","4","4","3","2","2","2","2","2","3","3","5","2","4","2","5","2","4","4","3","3","2","3","3","3","2","767710612724912129","任","666","Female","[""坏她"",""好我"",""坏我"",""好她""]","[""弱她"",""强我"",""弱我"",""强她""]","","","","","","","","","","","","","","","","","","","","","","","","","","","","","","","","","","","","","",""
"","","","call-function","1","3666","0.0-1.0-0.0","5","4","4","4","4","4","3","4","4","4","4","-1","0","1","-2","-2","0","0","0","4","4","5","4","3","3","3","3","4","4","4","6","6","7","8","5","7","8","7","5","4","2","6","4","3","3","3","4","2","2","3","4","3","2","4","4","3","2","2","2","2","2","3","3","5","2","4","2","5","2","4","4","3","3","2","3","3","3","2","767710612724912129","任","666","Female","[""坏她"",""好我"",""坏我"",""好她""]","[""弱她"",""强我"",""弱我"",""强她""]","","","","","","","","","","","","","","","","","","","","","","","","","","","","","","","","","","","","","",""
"21700","","[{""name"":""Sex"",""value"":""1""},{""name"":""friend_name"",""value"":""任""},{""name"":""ParticipantID"",""value"":""666""}]","survey-html-form","2","25367","0.0-1.0-1.0","5","4","4","4","4","4","3","4","4","4","4","-1","0","1","-2","-2","0","0","0","4","4","5","4","3","3","3","3","4","4","4","6","6","7","8","5","7","8","7","5","4","2","6","4","3","3","3","4","2","2","3","4","3","2","4","4","3","2","2","2","2","2","3","3","5","2","4","2","5","2","4","4","3","3","2","3","3","3","2","767710612724912129","任","666","Female","[""坏她"",""好我"",""坏我"",""好她""]","[""弱她"",""强我"",""弱我"",""强她""]","","","","","","","","","","","","","","","","","","","","","","","","","","","","","","","","","","","","","",""
"","","","preload","3","25872","0.0-2.0","5","4","4","4","4","4","3","4","4","4","4","-1","0","1","-2","-2","0","0","0","4","4","5","4","3","3","3","3","4","4","4","6","6","7","8","5","7","8","7","5","4","2","6","4","3","3","3","4","2","2","3","4","3","2","4","4","3","2","2","2","2","2","3","3","5","2","4","2","5","2","4","4","3","3","2","3","3","3","2","767710612724912129","任","666","Female","[""坏她"",""好我"",""坏我"",""好她""]","[""弱她"",""强我"",""弱我"",""强她""]","","true","false","[]","[]","[]","","","","","","","","","","","","","","","","","","","","","","","","","","","","","","","",""
"","","","fullscreen","4","28119","0.0-3.0","5","4","4","4","4","4","3","4","4","4","4","-1","0","1","-2","-2","0","0","0","4","4","5","4","3","3","3","3","4","4","4","6","6","7","8","5","7","8","7","5","4","2","6","4","3","3","3","4","2","2","3","4","3","2","4","4","3","2","2","2","2","2","3","3","5","2","4","2","5","2","4","4","3","3","2","3","3","3","2","767710612724912129","任","666","Female","[""坏她"",""好我"",""坏我"",""好她""]","[""弱她"",""强我"",""弱我"",""强她""]","","true","","","","","","","","","","","","","","","","","","","","","","","","","","","","","","","","","","","",""
"14052.999999999996","","{""Q01"":""5"",""Q02"":""4"",""Q03"":""4"",""Q04"":""4"",""Q05"":""4""}","survey-template","5","42174","0.0-4.0","5","4","4","4","4","4","3","4","4","4","4","-1","0","1","-2","-2","0","0","0","4","4","5","4","3","3","3","3","4","4","4","6","6","7","8","5","7","8","7","5","4","2","6","4","3","3","3","4","2","2","3","4","3","2","4","4","3","2","2","2","2","2","3","3","5","2","4","2","5","2","4","4","3","3","2","3","3","3","2","767710612724912129","任","666","Female","[""坏她"",""好我"",""坏我"",""好她""]","[""弱她"",""强我"",""弱我"",""强她""]","","","","","","","","{""Q01"":""5"",""Q02"":""4"",""Q03"":""4"",""Q04"":""4"",""Q05"":""4""}","[0,1,2,3,4]","[""Q01"",""Q02"",""Q03"",""Q04"",""Q05""]","[4246.999999999996,7013.999999999996,8686.999999999996,10795.000000000004,12685.000000000004]","[]","[4246.999999999996,7013.999999999996,8686.999999999996,10795.000000000004,12685.000000000004,14042.000000000004]","0.8","0.25","0","","","","","","","","","","","","","","","","","","","","","",""
"17547","","{""Q01"":""4"",""Q02"":""3"",""Q03"":""4"",""Q04"":""4"",""Q05"":""4"",""Q06"":""4""}","survey-template","6","59723","0.0-5.0","5","4","4","4","4","4","3","4","4","4","4","-1","0","1","-2","-2","0","0","0","4","4","5","4","3","3","3","3","4","4","4","6","6","7","8","5","7","8","7","5","4","2","6","4","3","3","3","4","2","2","3","4","3","2","4","4","3","2","2","2","2","2","3","3","5","2","4","2","5","2","4","4","3","3","2","3","3","3","2","767710612724912129","任","666","Female","[""坏她"",""好我"",""坏我"",""好她""]","[""弱她"",""强我"",""弱我"",""强她""]","","","","","","","","{""Q01"":""4"",""Q02"":""3"",""Q03"":""4"",""Q04"":""4"",""Q05"":""4"",""Q06"":""4""}","[0,1,2,3,4,5]","[""Q01"",""Q02"",""Q03"",""Q04"",""Q05"",""Q06""]","[4577,6609,8439,12174,13455,16194]","[]","[4577,6609,8439,12174,13455,16194,17537]","0.5","0.4","0","","","","","","","","","","","","","","","","","","","","","",""
"18191.999999999993","","{""Q01"":""-1"",""Q02"":""0"",""Q03"":""1"",""Q04"":""-2"",""Q05"":""-2"",""Q06"":""0"",""Q07"":""0"",""Q08"":""0""}","survey-template","7","77917","0.0-6.0","5","4","4","4","4","4","3","4","4","4","4","-1","0","1","-2","-2","0","0","0","4","4","5","4","3","3","3","3","4","4","4","6","6","7","8","5","7","8","7","5","4","2","6","4","3","3","3","4","2","2","3","4","3","2","4","4","3","2","2","2","2","2","3","3","5","2","4","2","5","2","4","4","3","3","2","3","3","3","2","767710612724912129","任","666","Female","[""坏她"",""好我"",""坏我"",""好她""]","[""弱她"",""强我"",""弱我"",""强她""]","","","","","","","","{""Q01"":""-1"",""Q02"":""0"",""Q03"":""1"",""Q04"":""-2"",""Q05"":""-2"",""Q06"":""0"",""Q07"":""0"",""Q08"":""0""}","[0,1,2,3,4,5,6,7]","[""Q01"",""Q02"",""Q03"",""Q04"",""Q05"",""Q06"",""Q07"",""Q08""]","[3480.9999999999927,6390.999999999993,8341.999999999993,10321.999999999993,11790.999999999993,13523.999999999993,15278.999999999993,16861.000000000007]","[]","[3480.9999999999927,6390.999999999993,8341.999999999993,10321.999999999993,11790.999999999993,13523.999999999993,15278.999999999993,16861.000000000007,18181.999999999993]","0.5","0.2857142857142857","0","","","","","","","","","","","","","","","","","","","","","",""
"13542","","","instructions","8","91460","0.0-7.0","5","4","4","4","4","4","3","4","4","4","4","-1","0","1","-2","-2","0","0","0","4","4","5","4","3","3","3","3","4","4","4","6","6","7","8","5","7","8","7","5","4","2","6","4","3","3","3","4","2","2","3","4","3","2","4","4","3","2","2","2","2","2","3","3","5","2","4","2","5","2","4","4","3","3","2","3","3","3","2","767710612724912129","任","666","Female","[""坏她"",""好我"",""坏我"",""好她""]","[""弱她"",""强我"",""弱我"",""强她""]","","","","","","","","","","","","","","","","","[{""page_index"":0,""viewing_time"":13541}]","","","","","","","","","","","","","","","","","","","","",""
"52048","","","instructions","9","143509","0.0-8.0-0.0-0.0","5","4","4","4","4","4","3","4","4","4","4","-1","0","1","-2","-2","0","0","0","4","4","5","4","3","3","3","3","4","4","4","6","6","7","8","5","7","8","7","5","4","2","6","4","3","3","3","4","2","2","3","4","3","2","4","4","3","2","2","2","2","2","3","3","5","2","4","2","5","2","4","4","3","3","2","3","3","3","2","767710612724912129","任","666","Female","[""坏她"",""好我"",""坏我"",""好她""]","[""弱她"",""强我"",""弱我"",""强她""]","","","","","","","","","","","","","","","","","[{""page_index"":0,""viewing_time"":9769},{""page_index"":1,""viewing_time"":37261},{""page_index"":2,""viewing_time"":2753},{""page_index"":3,""viewing_time"":2265}]","","","","","","","","","","","","","","","","","","","","",""
"704","","j","psychophysics","10","145223","0.0-8.0-0.0-1.0-0.0-0.0","5","4","4","4","4","4","3","4","4","4","4","-1","0","1","-2","-2","0","0","0","4","4","5","4","3","3","3","3","4","4","4","6","6","7","8","5","7","8","7","5","4","2","6","4","3","3","3","4","2","2","3","4","3","2","4","4","3","2","2","2","2","2","3","3","5","2","4","2","5","2","4","4","3","3","2","3","3","3","2","767710612724912129","任","666","Female","[""坏她"",""好我"",""坏我"",""好她""]","[""弱她"",""强我"",""弱我"",""强她""]","","","","","","","","nonmatch","","","","","","","","","","key","j","16.558823529411764","840","521","f","false","match","img/hexagon.png","坏我","坏我","prac_ALT2_moral","practice_moral","","","","","","","",""
"null","<span style='color:red; font-size: 70px;'>错误! </span>","null","html-keyboard-response","11","145727","0.0-8.0-0.0-1.0-0.0-1.0","5","4","4","4","4","4","3","4","4","4","4","-1","0","1","-2","-2","0","0","0","4","4","5","4","3","3","3","3","4","4","4","6","6","7","8","5","7","8","7","5","4","2","6","4","3","3","3","4","2","2","3","4","3","2","4","4","3","2","2","2","2","2","3","3","5","2","4","2","5","2","4","4","3","3","2","3","3","3","2","767710612724912129","任","666","Female","[""坏她"",""好我"",""坏我"",""好她""]","[""弱她"",""强我"",""弱我"",""强她""]","","","","","","","","","","","","","","","","","","","","","","","","","","","","","","feedback_test","","","","","","","",""
"563","","f","psychophysics","12","147295","0.0-8.0-0.0-1.0-0.0-0.1","5","4","4","4","4","4","3","4","4","4","4","-1","0","1","-2","-2","0","0","0","4","4","5","4","3","3","3","3","4","4","4","6","6","7","8","5","7","8","7","5","4","2","6","4","3","3","3","4","2","2","3","4","3","2","4","4","3","2","2","2","2","2","3","3","5","2","4","2","5","2","4","4","3","3","2","3","3","3","2","767710612724912129","任","666","Female","[""坏她"",""好我"",""坏我"",""好她""]","[""弱她"",""强我"",""弱我"",""强她""]","","","","","","","","match","","","","","","","","","","key","f","16.677419354838708","840","521","f","true","match","img/square.png","坏她","坏她","prac_ALT2_moral","practice_moral","","","","","","","",""
"null","<span style='color:GreenYellow; font-size: 70px;'>正确! </span>","null","html-keyboard-response","13","147798","0.0-8.0-0.0-1.0-0.0-1.1","5","4","4","4","4","4","3","4","4","4","4","-1","0","1","-2","-2","0","0","0","4","4","5","4","3","3","3","3","4","4","4","6","6","7","8","5","7","8","7","5","4","2","6","4","3","3","3","4","2","2","3","4","3","2","4","4","3","2","2","2","2","2","3","3","5","2","4","2","5","2","4","4","3","3","2","3","3","3","2","767710612724912129","任","666","Female","[""坏她"",""好我"",""坏我"",""好她""]","[""弱她"",""强我"",""弱我"",""强她""]","","","","","","","","","","","","","","","","","","","","","","","","","","","","","","feedback_test","","","","","","","",""
"506","","f","psychophysics","14","149310","0.0-8.0-0.0-1.0-0.0-0.2","5","4","4","4","4","4","3","4","4","4","4","-1","0","1","-2","-2","0","0","0","4","4","5","4","3","3","3","3","4","4","4","6","6","7","8","5","7","8","7","5","4","2","6","4","3","3","3","4","2","2","3","4","3","2","4","4","3","2","2","2","2","2","3","3","5","2","4","2","5","2","4","4","3","3","2","3","3","3","2","767710612724912129","任","666","Female","[""坏她"",""好我"",""坏我"",""好她""]","[""弱她"",""强我"",""弱我"",""强她""]","","","","","","","","match","","","","","","","","","","key","f","16.655555555555555","840","521","f","true","match","img/square.png","坏她","坏她","prac_ALT2_moral","practice_moral","","","","","","","",""
"null","<span style='color:GreenYellow; font-size: 70px;'>正确! </span>","null","html-keyboard-response","15","149812","0.0-8.0-0.0-1.0-0.0-1.2","5","4","4","4","4","4","3","4","4","4","4","-1","0","1","-2","-2","0","0","0","4","4","5","4","3","3","3","3","4","4","4","6","6","7","8","5","7","8","7","5","4","2","6","4","3","3","3","4","2","2","3","4","3","2","4","4","3","2","2","2","2","2","3","3","5","2","4","2","5","2","4","4","3","3","2","3","3","3","2","767710612724912129","任","666","Female","[""坏她"",""好我"",""坏我"",""好她""]","[""弱她"",""强我"",""弱我"",""强她""]","","","","","","","","","","","","","","","","","","","","","","","","","","","","","","feedback_test","","","","","","","",""
"549","","j","psychophysics","16","151365","0.0-8.0-0.0-1.0-0.0-0.3","5","4","4","4","4","4","3","4","4","4","4","-1","0","1","-2","-2","0","0","0","4","4","5","4","3","3","3","3","4","4","4","6","6","7","8","5","7","8","7","5","4","2","6","4","3","3","3","4","2","2","3","4","3","2","4","4","3","2","2","2","2","2","3","3","5","2","4","2","5","2","4","4","3","3","2","3","3","3","2","767710612724912129","任","666","Female","[""坏她"",""好我"",""坏我"",""好她""]","[""弱她"",""强我"",""弱我"",""强她""]","","","","","","","","nonmatch","","","","","","","","","","key","j","16.66304347826087","840","521","f","false","match","img/circle.png","好我","好我","prac_ALT2_moral","practice_moral","","","","","","","",""
"null","<span style='color:red; font-size: 70px;'>错误! </span>","null","html-keyboard-response","17","151869","0.0-8.0-0.0-1.0-0.0-1.3","5","4","4","4","4","4","3","4","4","4","4","-1","0","1","-2","-2","0","0","0","4","4","5","4","3","3","3","3","4","4","4","6","6","7","8","5","7","8","7","5","4","2","6","4","3","3","3","4","2","2","3","4","3","2","4","4","3","2","2","2","2","2","3","3","5","2","4","2","5","2","4","4","3","3","2","3","3","3","2","767710612724912129","任","666","Female","[""坏她"",""好我"",""坏我"",""好她""]","[""弱她"",""强我"",""弱我"",""强她""]","","","","","","","","","","","","","","","","","","","","","","","","","","","","","","feedback_test","","","","","","","",""
"917","","j","psychophysics","18","153790","0.0-8.0-0.0-1.0-0.0-0.4","5","4","4","4","4","4","3","4","4","4","4","-1","0","1","-2","-2","0","0","0","4","4","5","4","3","3","3","3","4","4","4","6","6","7","8","5","7","8","7","5","4","2","6","4","3","3","3","4","2","2","3","4","3","2","4","4","3","2","2","2","2","2","3","3","5","2","4","2","5","2","4","4","3","3","2","3","3","3","2","767710612724912129","任","666","Female","[""坏她"",""好我"",""坏我"",""好她""]","[""弱她"",""强我"",""弱我"",""强她""]","","","","","","","","nonmatch","","","","","","","","","","key","j","16.654867256637168","840","521","f","false","match","img/square.png","坏她","坏她","prac_ALT2_moral","practice_moral","","","","","","","",""
"null","<span style='color:red; font-size: 70px;'>错误! </span>","null","html-keyboard-response","19","154294","0.0-8.0-0.0-1.0-0.0-1.4","5","4","4","4","4","4","3","4","4","4","4","-1","0","1","-2","-2","0","0","0","4","4","5","4","3","3","3","3","4","4","4","6","6","7","8","5","7","8","7","5","4","2","6","4","3","3","3","4","2","2","3","4","3","2","4","4","3","2","2","2","2","2","3","3","5","2","4","2","5","2","4","4","3","3","2","3","3","3","2","767710612724912129","任","666","Female","[""坏她"",""好我"",""坏我"",""好她""]","[""弱她"",""强我"",""弱我"",""强她""]","","","","","","","","","","","","","","","","","","","","","","","","","","","","","","feedback_test","","","","","","","",""
"724","","j","psychophysics","20","156021","0.0-8.0-0.0-1.0-0.0-0.5","5","4","4","4","4","4","3","4","4","4","4","-1","0","1","-2","-2","0","0","0","4","4","5","4","3","3","3","3","4","4","4","6","6","7","8","5","7","8","7","5","4","2","6","4","3","3","3","4","2","2","3","4","3","2","4","4","3","2","2","2","2","2","3","3","5","2","4","2","5","2","4","4","3","3","2","3","3","3","2","767710612724912129","任","666","Female","[""坏她"",""好我"",""坏我"",""好她""]","[""弱她"",""强我"",""弱我"",""强她""]","","","","","","","","nonmatch","","","","","","","","","","key","j","16.666666666666668","840","521","f","false","match","img/hexagon.png","坏我","坏我","prac_ALT2_moral","practice_moral","","","","","","","",""
"null","<span style='color:red; font-size: 70px;'>错误! </span>","null","html-keyboard-response","21","156524","0.0-8.0-0.0-1.0-0.0-1.5","5","4","4","4","4","4","3","4","4","4","4","-1","0","1","-2","-2","0","0","0","4","4","5","4","3","3","3","3","4","4","4","6","6","7","8","5","7","8","7","5","4","2","6","4","3","3","3","4","2","2","3","4","3","2","4","4","3","2","2","2","2","2","3","3","5","2","4","2","5","2","4","4","3","3","2","3","3","3","2","767710612724912129","任","666","Female","[""坏她"",""好我"",""坏我"",""好她""]","[""弱她"",""强我"",""弱我"",""强她""]","","","","","","","","","","","","","","","","","","","","","","","","","","","","","","feedback_test","","","","","","","",""
"901","","j","psychophysics","22","158428","0.0-8.0-0.0-1.0-0.0-0.6","5","4","4","4","4","4","3","4","4","4","4","-1","0","1","-2","-2","0","0","0","4","4","5","4","3","3","3","3","4","4","4","6","6","7","8","5","7","8","7","5","4","2","6","4","3","3","3","4","2","2","3","4","3","2","4","4","3","2","2","2","2","2","3","3","5","2","4","2","5","2","4","4","3","3","2","3","3","3","2","767710612724912129","任","666","Female","[""坏她"",""好我"",""坏我"",""好她""]","[""弱她"",""强我"",""弱我"",""强她""]","","","","","","","","nonmatch","","","","","","","","","","key","j","16.663716814159294","840","521","j","true","nonmatch","img/trapezoid.png","坏她","好她","prac_ALT2_moral","practice_moral","","","","","","","",""
"null","<span style='color:GreenYellow; font-size: 70px;'>正确! </span>","null","html-keyboard-response","23","158930","0.0-8.0-0.0-1.0-0.0-1.6","5","4","4","4","4","4","3","4","4","4","4","-1","0","1","-2","-2","0","0","0","4","4","5","4","3","3","3","3","4","4","4","6","6","7","8","5","7","8","7","5","4","2","6","4","3","3","3","4","2","2","3","4","3","2","4","4","3","2","2","2","2","2","3","3","5","2","4","2","5","2","4","4","3","3","2","3","3","3","2","767710612724912129","任","666","Female","[""坏她"",""好我"",""坏我"",""好她""]","[""弱她"",""强我"",""弱我"",""强她""]","","","","","","","","","","","","","","","","","","","","","","","","","","","","","","feedback_test","","","","","","","",""
"765","","j","psychophysics","24","160698","0.0-8.0-0.0-1.0-0.0-0.7","5","4","4","4","4","4","3","4","4","4","4","-1","0","1","-2","-2","0","0","0","4","4","5","4","3","3","3","3","4","4","4","6","6","7","8","5","7","8","7","5","4","2","6","4","3","3","3","4","2","2","3","4","3","2","4","4","3","2","2","2","2","2","3","3","5","2","4","2","5","2","4","4","3","3","2","3","3","3","2","767710612724912129","任","666","Female","[""坏她"",""好我"",""坏我"",""好她""]","[""弱她"",""强我"",""弱我"",""强她""]","","","","","","","","nonmatch","","","","","","","","","","key","j","16.666666666666668","840","521","j","true","nonmatch","img/circle.png","好她","好我","prac_ALT2_moral","practice_moral","","","","","","","",""
"null","<span style='color:GreenYellow; font-size: 70px;'>正确! </span>","null","html-keyboard-response","25","161202","0.0-8.0-0.0-1.0-0.0-1.7","5","4","4","4","4","4","3","4","4","4","4","-1","0","1","-2","-2","0","0","0","4","4","5","4","3","3","3","3","4","4","4","6","6","7","8","5","7","8","7","5","4","2","6","4","3","3","3","4","2","2","3","4","3","2","4","4","3","2","2","2","2","2","3","3","5","2","4","2","5","2","4","4","3","3","2","3","3","3","2","767710612724912129","任","666","Female","[""坏她"",""好我"",""坏我"",""好她""]","[""弱她"",""强我"",""弱我"",""强她""]","","","","","","","","","","","","","","","","","","","","","","","","","","","","","","feedback_test","","","","","","","",""
"796","","j","psychophysics","26","163003","0.0-8.0-0.0-1.0-0.0-0.8","5","4","4","4","4","4","3","4","4","4","4","-1","0","1","-2","-2","0","0","0","4","4","5","4","3","3","3","3","4","4","4","6","6","7","8","5","7","8","7","5","4","2","6","4","3","3","3","4","2","2","3","4","3","2","4","4","3","2","2","2","2","2","3","3","5","2","4","2","5","2","4","4","3","3","2","3","3","3","2","767710612724912129","任","666","Female","[""坏她"",""好我"",""坏我"",""好她""]","[""弱她"",""强我"",""弱我"",""强她""]","","","","","","","","nonmatch","","","","","","","","","","key","j","16.669811320754718","840","521","j","true","nonmatch","img/square.png","好她","坏她","prac_ALT2_moral","practice_moral","","","","","","","",""
"null","<span style='color:GreenYellow; font-size: 70px;'>正确! </span>","null","html-keyboard-response","27","163507","0.0-8.0-0.0-1.0-0.0-1.8","5","4","4","4","4","4","3","4","4","4","4","-1","0","1","-2","-2","0","0","0","4","4","5","4","3","3","3","3","4","4","4","6","6","7","8","5","7","8","7","5","4","2","6","4","3","3","3","4","2","2","3","4","3","2","4","4","3","2","2","2","2","2","3","3","5","2","4","2","5","2","4","4","3","3","2","3","3","3","2","767710612724912129","任","666","Female","[""坏她"",""好我"",""坏我"",""好她""]","[""弱她"",""强我"",""弱我"",""强她""]","","","","","","","","","","","","","","","","","","","","","","","","","","","","","","feedback_test","","","","","","","",""
"652","","f","psychophysics","28","165163","0.0-8.0-0.0-1.0-0.0-0.9","5","4","4","4","4","4","3","4","4","4","4","-1","0","1","-2","-2","0","0","0","4","4","5","4","3","3","3","3","4","4","4","6","6","7","8","5","7","8","7","5","4","2","6","4","3","3","3","4","2","2","3","4","3","2","4","4","3","2","2","2","2","2","3","3","5","2","4","2","5","2","4","4","3","3","2","3","3","3","2","767710612724912129","任","666","Female","[""坏她"",""好我"",""坏我"",""好她""]","[""弱她"",""强我"",""弱我"",""强她""]","","","","","","","","match","","","","","","","","","","key","f","16.653061224489797","840","521","j","false","nonmatch","img/square.png","坏我","坏她","prac_ALT2_moral","practice_moral","","","","","","","",""
"null","<span style='color:red; font-size: 70px;'>错误! </span>","null","html-keyboard-response","29","165666","0.0-8.0-0.0-1.0-0.0-1.9","5","4","4","4","4","4","3","4","4","4","4","-1","0","1","-2","-2","0","0","0","4","4","5","4","3","3","3","3","4","4","4","6","6","7","8","5","7","8","7","5","4","2","6","4","3","3","3","4","2","2","3","4","3","2","4","4","3","2","2","2","2","2","3","3","5","2","4","2","5","2","4","4","3","3","2","3","3","3","2","767710612724912129","任","666","Female","[""坏她"",""好我"",""坏我"",""好她""]","[""弱她"",""强我"",""弱我"",""强她""]","","","","","","","","","","","","","","","","","","","","","","","","","","","","","","feedback_test","","","","","","","",""
"842","","j","psychophysics","30","167512","0.0-8.0-0.0-1.0-0.0-0.10","5","4","4","4","4","4","3","4","4","4","4","-1","0","1","-2","-2","0","0","0","4","4","5","4","3","3","3","3","4","4","4","6","6","7","8","5","7","8","7","5","4","2","6","4","3","3","3","4","2","2","3","4","3","2","4","4","3","2","2","2","2","2","3","3","5","2","4","2","5","2","4","4","3","3","2","3","3","3","2","767710612724912129","任","666","Female","[""坏她"",""好我"",""坏我"",""好她""]","[""弱她"",""强我"",""弱我"",""强她""]","","","","","","","","nonmatch","","","","","","","","","","key","j","16.6697247706422","840","521","f","false","match","img/trapezoid.png","好她","好她","prac_ALT2_moral","practice_moral","","","","","","","",""
"null","<span style='color:red; font-size: 70px;'>错误! </span>","null","html-keyboard-response","31","168015","0.0-8.0-0.0-1.0-0.0-1.10","5","4","4","4","4","4","3","4","4","4","4","-1","0","1","-2","-2","0","0","0","4","4","5","4","3","3","3","3","4","4","4","6","6","7","8","5","7","8","7","5","4","2","6","4","3","3","3","4","2","2","3","4","3","2","4","4","3","2","2","2","2","2","3","3","5","2","4","2","5","2","4","4","3","3","2","3","3","3","2","767710612724912129","任","666","Female","[""坏她"",""好我"",""坏我"",""好她""]","[""弱她"",""强我"",""弱我"",""强她""]","","","","","","","","","","","","","","","","","","","","","","","","","","","","","","feedback_test","","","","","","","",""
"752","","j","psychophysics","32","169770","0.0-8.0-0.0-1.0-0.0-0.11","5","4","4","4","4","4","3","4","4","4","4","-1","0","1","-2","-2","0","0","0","4","4","5","4","3","3","3","3","4","4","4","6","6","7","8","5","7","8","7","5","4","2","6","4","3","3","3","4","2","2","3","4","3","2","4","4","3","2","2","2","2","2","3","3","5","2","4","2","5","2","4","4","3","3","2","3","3","3","2","767710612724912129","任","666","Female","[""坏她"",""好我"",""坏我"",""好她""]","[""弱她"",""强我"",""弱我"",""强她""]","","","","","","","","nonmatch","","","","","","","","","","key","j","16.66990291262136","840","521","j","true","nonmatch","img/hexagon.png","好我","坏我","prac_ALT2_moral","practice_moral","","","","","","","",""
"null","<span style='color:GreenYellow; font-size: 70px;'>正确! </span>","null","html-keyboard-response","33","170273","0.0-8.0-0.0-1.0-0.0-1.11","5","4","4","4","4","4","3","4","4","4","4","-1","0","1","-2","-2","0","0","0","4","4","5","4","3","3","3","3","4","4","4","6","6","7","8","5","7","8","7","5","4","2","6","4","3","3","3","4","2","2","3","4","3","2","4","4","3","2","2","2","2","2","3","3","5","2","4","2","5","2","4","4","3","3","2","3","3","3","2","767710612724912129","任","666","Female","[""坏她"",""好我"",""坏我"",""好她""]","[""弱她"",""强我"",""弱我"",""强她""]","","","","","","","","","","","","","","","","","","","","","","","","","","","","","","feedback_test","","","","","","","",""
"556","","f","psychophysics","34","171833","0.0-8.0-0.0-1.0-0.0-0.12","5","4","4","4","4","4","3","4","4","4","4","-1","0","1","-2","-2","0","0","0","4","4","5","4","3","3","3","3","4","4","4","6","6","7","8","5","7","8","7","5","4","2","6","4","3","3","3","4","2","2","3","4","3","2","4","4","3","2","2","2","2","2","3","3","5","2","4","2","5","2","4","4","3","3","2","3","3","3","2","767710612724912129","任","666","Female","[""坏她"",""好我"",""坏我"",""好她""]","[""弱她"",""强我"",""弱我"",""强她""]","","","","","","","","match","","","","","","","","","","key","f","16.67391304347826","840","521","f","true","match","img/trapezoid.png","好她","好她","prac_ALT2_moral","practice_moral","","","","","","","",""
"null","<span style='color:GreenYellow; font-size: 70px;'>正确! </span>","null","html-keyboard-response","35","172337","0.0-8.0-0.0-1.0-0.0-1.12","5","4","4","4","4","4","3","4","4","4","4","-1","0","1","-2","-2","0","0","0","4","4","5","4","3","3","3","3","4","4","4","6","6","7","8","5","7","8","7","5","4","2","6","4","3","3","3","4","2","2","3","4","3","2","4","4","3","2","2","2","2","2","3","3","5","2","4","2","5","2","4","4","3","3","2","3","3","3","2","767710612724912129","任","666","Female","[""坏她"",""好我"",""坏我"",""好她""]","[""弱她"",""强我"",""弱我"",""强她""]","","","","","","","","","","","","","","","","","","","","","","","","","","","","","","feedback_test","","","","","","","",""
"712","","f","psychophysics","36","174052","0.0-8.0-0.0-1.0-0.0-0.13","5","4","4","4","4","4","3","4","4","4","4","-1","0","1","-2","-2","0","0","0","4","4","5","4","3","3","3","3","4","4","4","6","6","7","8","5","7","8","7","5","4","2","6","4","3","3","3","4","2","2","3","4","3","2","4","4","3","2","2","2","2","2","3","3","5","2","4","2","5","2","4","4","3","3","2","3","3","3","2","767710612724912129","任","666","Female","[""坏她"",""好我"",""坏我"",""好她""]","[""弱她"",""强我"",""弱我"",""强她""]","","","","","","","","match","","","","","","","","","","key","f","16.653465346534652","840","521","f","true","match","img/circle.png","好我","好我","prac_ALT2_moral","practice_moral","","","","","","","",""
"null","<span style='color:GreenYellow; font-size: 70px;'>正确! </span>","null","html-keyboard-response","37","174555","0.0-8.0-0.0-1.0-0.0-1.13","5","4","4","4","4","4","3","4","4","4","4","-1","0","1","-2","-2","0","0","0","4","4","5","4","3","3","3","3","4","4","4","6","6","7","8","5","7","8","7","5","4","2","6","4","3","3","3","4","2","2","3","4","3","2","4","4","3","2","2","2","2","2","3","3","5","2","4","2","5","2","4","4","3","3","2","3","3","3","2","767710612724912129","任","666","Female","[""坏她"",""好我"",""坏我"",""好她""]","[""弱她"",""强我"",""弱我"",""强她""]","","","","","","","","","","","","","","","","","","","","","","","","","","","","","","feedback_test","","","","","","","",""
"684","","f","psychophysics","38","176244","0.0-8.0-0.0-1.0-0.0-0.14","5","4","4","4","4","4","3","4","4","4","4","-1","0","1","-2","-2","0","0","0","4","4","5","4","3","3","3","3","4","4","4","6","6","7","8","5","7","8","7","5","4","2","6","4","3","3","3","4","2","2","3","4","3","2","4","4","3","2","2","2","2","2","3","3","5","2","4","2","5","2","4","4","3","3","2","3","3","3","2","767710612724912129","任","666","Female","[""坏她"",""好我"",""坏我"",""好她""]","[""弱她"",""强我"",""弱我"",""强她""]","","","","","","","","match","","","","","","","","","","key","f","16.66","840","521","j","false","nonmatch","img/hexagon.png","坏她","坏我","prac_ALT2_moral","practice_moral","","","","","","","",""
"null","<span style='color:red; font-size: 70px;'>错误! </span>","null","html-keyboard-response","39","176747","0.0-8.0-0.0-1.0-0.0-1.14","5","4","4","4","4","4","3","4","4","4","4","-1","0","1","-2","-2","0","0","0","4","4","5","4","3","3","3","3","4","4","4","6","6","7","8","5","7","8","7","5","4","2","6","4","3","3","3","4","2","2","3","4","3","2","4","4","3","2","2","2","2","2","3","3","5","2","4","2","5","2","4","4","3","3","2","3","3","3","2","767710612724912129","任","666","Female","[""坏她"",""好我"",""坏我"",""好她""]","[""弱她"",""强我"",""弱我"",""强她""]","","","","","","","","","","","","","","","","","","","","","","","","","","","","","","feedback_test","","","","","","","",""
"639","","f","psychophysics","40","178390","0.0-8.0-0.0-1.0-0.0-0.15","5","4","4","4","4","4","3","4","4","4","4","-1","0","1","-2","-2","0","0","0","4","4","5","4","3","3","3","3","4","4","4","6","6","7","8","5","7","8","7","5","4","2","6","4","3","3","3","4","2","2","3","4","3","2","4","4","3","2","2","2","2","2","3","3","5","2","4","2","5","2","4","4","3","3","2","3","3","3","2","767710612724912129","任","666","Female","[""坏她"",""好我"",""坏我"",""好她""]","[""弱她"",""强我"",""弱我"",""强她""]","","","","","","","","match","","","","","","","","","","key","f","16.670103092783506","840","521","f","true","match","img/circle.png","好我","好我","prac_ALT2_moral","practice_moral","","","","","","","",""
"null","<span style='color:GreenYellow; font-size: 70px;'>正确! </span>","null","html-keyboard-response","41","178894","0.0-8.0-0.0-1.0-0.0-1.15","5","4","4","4","4","4","3","4","4","4","4","-1","0","1","-2","-2","0","0","0","4","4","5","4","3","3","3","3","4","4","4","6","6","7","8","5","7","8","7","5","4","2","6","4","3","3","3","4","2","2","3","4","3","2","4","4","3","2","2","2","2","2","3","3","5","2","4","2","5","2","4","4","3","3","2","3","3","3","2","767710612724912129","任","666","Female","[""坏她"",""好我"",""坏我"",""好她""]","[""弱她"",""强我"",""弱我"",""强她""]","","","","","","","","","","","","","","","","","","","","","","","","","","","","","","feedback_test","","","","","","","",""
"701","","j","psychophysics","42","180599","0.0-8.0-0.0-1.0-0.0-0.16","5","4","4","4","4","4","3","4","4","4","4","-1","0","1","-2","-2","0","0","0","4","4","5","4","3","3","3","3","4","4","4","6","6","7","8","5","7","8","7","5","4","2","6","4","3","3","3","4","2","2","3","4","3","2","4","4","3","2","2","2","2","2","3","3","5","2","4","2","5","2","4","4","3","3","2","3","3","3","2","767710612724912129","任","666","Female","[""坏她"",""好我"",""坏我"",""好她""]","[""弱她"",""强我"",""弱我"",""强她""]","","","","","","","","nonmatch","","","","","","","","","","key","j","16.673267326732674","840","521","j","true","nonmatch","img/trapezoid.png","好我","好她","prac_ALT2_moral","practice_moral","","","","","","","",""
"null","<span style='color:GreenYellow; font-size: 70px;'>正确! </span>","null","html-keyboard-response","43","181102","0.0-8.0-0.0-1.0-0.0-1.16","5","4","4","4","4","4","3","4","4","4","4","-1","0","1","-2","-2","0","0","0","4","4","5","4","3","3","3","3","4","4","4","6","6","7","8","5","7","8","7","5","4","2","6","4","3","3","3","4","2","2","3","4","3","2","4","4","3","2","2","2","2","2","3","3","5","2","4","2","5","2","4","4","3","3","2","3","3","3","2","767710612724912129","任","666","Female","[""坏她"",""好我"",""坏我"",""好她""]","[""弱她"",""强我"",""弱我"",""强她""]","","","","","","","","","","","","","","","","","","","","","","","","","","","","","","feedback_test","","","","","","","",""
"821","","j","psychophysics","44","182927","0.0-8.0-0.0-1.0-0.0-0.17","5","4","4","4","4","4","3","4","4","4","4","-1","0","1","-2","-2","0","0","0","4","4","5","4","3","3","3","3","4","4","4","6","6","7","8","5","7","8","7","5","4","2","6","4","3","3","3","4","2","2","3","4","3","2","4","4","3","2","2","2","2","2","3","3","5","2","4","2","5","2","4","4","3","3","2","3","3","3","2","767710612724912129","任","666","Female","[""坏她"",""好我"",""坏我"",""好她""]","[""弱她"",""强我"",""弱我"",""强她""]","","","","","","","","nonmatch","","","","","","","","","","key","j","16.666666666666668","840","521","j","true","nonmatch","img/square.png","好我","坏她","prac_ALT2_moral","practice_moral","","","","","","","",""
"null","<span style='color:GreenYellow; font-size: 70px;'>正确! </span>","null","html-keyboard-response","45","183430","0.0-8.0-0.0-1.0-0.0-1.17","5","4","4","4","4","4","3","4","4","4","4","-1","0","1","-2","-2","0","0","0","4","4","5","4","3","3","3","3","4","4","4","6","6","7","8","5","7","8","7","5","4","2","6","4","3","3","3","4","2","2","3","4","3","2","4","4","3","2","2","2","2","2","3","3","5","2","4","2","5","2","4","4","3","3","2","3","3","3","2","767710612724912129","任","666","Female","[""坏她"",""好我"",""坏我"",""好她""]","[""弱她"",""强我"",""弱我"",""强她""]","","","","","","","","","","","","","","","","","","","","","","","","","","","","","","feedback_test","","","","","","","",""
"764","","j","psychophysics","46","185201","0.0-8.0-0.0-1.0-0.0-0.18","5","4","4","4","4","4","3","4","4","4","4","-1","0","1","-2","-2","0","0","0","4","4","5","4","3","3","3","3","4","4","4","6","6","7","8","5","7","8","7","5","4","2","6","4","3","3","3","4","2","2","3","4","3","2","4","4","3","2","2","2","2","2","3","3","5","2","4","2","5","2","4","4","3","3","2","3","3","3","2","767710612724912129","任","666","Female","[""坏她"",""好我"",""坏我"",""好她""]","[""弱她"",""强我"",""弱我"",""强她""]","","","","","","","","nonmatch","","","","","","","","","","key","j","16.666666666666668","840","521","j","true","nonmatch","img/trapezoid.png","坏我","好她","prac_ALT2_moral","practice_moral","","","","","","","",""
"null","<span style='color:GreenYellow; font-size: 70px;'>正确! </span>","null","html-keyboard-response","47","185704","0.0-8.0-0.0-1.0-0.0-1.18","5","4","4","4","4","4","3","4","4","4","4","-1","0","1","-2","-2","0","0","0","4","4","5","4","3","3","3","3","4","4","4","6","6","7","8","5","7","8","7","5","4","2","6","4","3","3","3","4","2","2","3","4","3","2","4","4","3","2","2","2","2","2","3","3","5","2","4","2","5","2","4","4","3","3","2","3","3","3","2","767710612724912129","任","666","Female","[""坏她"",""好我"",""坏我"",""好她""]","[""弱她"",""强我"",""弱我"",""强她""]","","","","","","","","","","","","","","","","","","","","","","","","","","","","","","feedback_test","","","","","","","",""
"704","","j","psychophysics","48","187412","0.0-8.0-0.0-1.0-0.0-0.19","5","4","4","4","4","4","3","4","4","4","4","-1","0","1","-2","-2","0","0","0","4","4","5","4","3","3","3","3","4","4","4","6","6","7","8","5","7","8","7","5","4","2","6","4","3","3","3","4","2","2","3","4","3","2","4","4","3","2","2","2","2","2","3","3","5","2","4","2","5","2","4","4","3","3","2","3","3","3","2","767710612724912129","任","666","Female","[""坏她"",""好我"",""坏我"",""好她""]","[""弱她"",""强我"",""弱我"",""强她""]","","","","","","","","nonmatch","","","","","","","","","","key","j","16.663366336633665","840","521","j","true","nonmatch","img/circle.png","坏我","好我","prac_ALT2_moral","practice_moral","","","","","","","",""
"null","<span style='color:GreenYellow; font-size: 70px;'>正确! </span>","null","html-keyboard-response","49","187914","0.0-8.0-0.0-1.0-0.0-1.19","5","4","4","4","4","4","3","4","4","4","4","-1","0","1","-2","-2","0","0","0","4","4","5","4","3","3","3","3","4","4","4","6","6","7","8","5","7","8","7","5","4","2","6","4","3","3","3","4","2","2","3","4","3","2","4","4","3","2","2","2","2","2","3","3","5","2","4","2","5","2","4","4","3","3","2","3","3","3","2","767710612724912129","任","666","Female","[""坏她"",""好我"",""坏我"",""好她""]","[""弱她"",""强我"",""弱我"",""强她""]","","","","","","","","","","","","","","","","","","","","","","","","","","","","","","feedback_test","","","","","","","",""
"624","","j","psychophysics","50","189542","0.0-8.0-0.0-1.0-0.0-0.20","5","4","4","4","4","4","3","4","4","4","4","-1","0","1","-2","-2","0","0","0","4","4","5","4","3","3","3","3","4","4","4","6","6","7","8","5","7","8","7","5","4","2","6","4","3","3","3","4","2","2","3","4","3","2","4","4","3","2","2","2","2","2","3","3","5","2","4","2","5","2","4","4","3","3","2","3","3","3","2","767710612724912129","任","666","Female","[""坏她"",""好我"",""坏我"",""好她""]","[""弱她"",""强我"",""弱我"",""强她""]","","","","","","","","nonmatch","","","","","","","","","","key","j","16.65625","840","521","j","true","nonmatch","img/circle.png","坏她","好我","prac_ALT2_moral","practice_moral","","","","","","","",""
"null","<span style='color:GreenYellow; font-size: 70px;'>正确! </span>","null","html-keyboard-response","51","190047","0.0-8.0-0.0-1.0-0.0-1.20","5","4","4","4","4","4","3","4","4","4","4","-1","0","1","-2","-2","0","0","0","4","4","5","4","3","3","3","3","4","4","4","6","6","7","8","5","7","8","7","5","4","2","6","4","3","3","3","4","2","2","3","4","3","2","4","4","3","2","2","2","2","2","3","3","5","2","4","2","5","2","4","4","3","3","2","3","3","3","2","767710612724912129","任","666","Female","[""坏她"",""好我"",""坏我"",""好她""]","[""弱她"",""强我"",""弱我"",""强她""]","","","","","","","","","","","","","","","","","","","","","","","","","","","","","","feedback_test","","","","","","","",""
"780","","j","psychophysics","52","191831","0.0-8.0-0.0-1.0-0.0-0.21","5","4","4","4","4","4","3","4","4","4","4","-1","0","1","-2","-2","0","0","0","4","4","5","4","3","3","3","3","4","4","4","6","6","7","8","5","7","8","7","5","4","2","6","4","3","3","3","4","2","2","3","4","3","2","4","4","3","2","2","2","2","2","3","3","5","2","4","2","5","2","4","4","3","3","2","3","3","3","2","767710612724912129","任","666","Female","[""坏她"",""好我"",""坏我"",""好她""]","[""弱她"",""强我"",""弱我"",""强她""]","","","","","","","","nonmatch","","","","","","","","","","key","j","16.660377358490567","840","521","j","true","nonmatch","img/hexagon.png","好她","坏我","prac_ALT2_moral","practice_moral","","","","","","","",""
"null","<span style='color:GreenYellow; font-size: 70px;'>正确! </span>","null","html-keyboard-response","53","192334","0.0-8.0-0.0-1.0-0.0-1.21","5","4","4","4","4","4","3","4","4","4","4","-1","0","1","-2","-2","0","0","0","4","4","5","4","3","3","3","3","4","4","4","6","6","7","8","5","7","8","7","5","4","2","6","4","3","3","3","4","2","2","3","4","3","2","4","4","3","2","2","2","2","2","3","3","5","2","4","2","5","2","4","4","3","3","2","3","3","3","2","767710612724912129","任","666","Female","[""坏她"",""好我"",""坏我"",""好她""]","[""弱她"",""强我"",""弱我"",""强她""]","","","","","","","","","","","","","","","","","","","","","","","","","","","","","","feedback_test","","","","","","","",""
"665","","j","psychophysics","54","194003","0.0-8.0-0.0-1.0-0.0-0.22","5","4","4","4","4","4","3","4","4","4","4","-1","0","1","-2","-2","0","0","0","4","4","5","4","3","3","3","3","4","4","4","6","6","7","8","5","7","8","7","5","4","2","6","4","3","3","3","4","2","2","3","4","3","2","4","4","3","2","2","2","2","2","3","3","5","2","4","2","5","2","4","4","3","3","2","3","3","3","2","767710612724912129","任","666","Female","[""坏她"",""好我"",""坏我"",""好她""]","[""弱她"",""强我"",""弱我"",""强她""]","","","","","","","","nonmatch","","","","","","","","","","key","j","16.663265306122447","840","521","f","false","match","img/hexagon.png","坏我","坏我","prac_ALT2_moral","practice_moral","","","","","","","",""
"null","<span style='color:red; font-size: 70px;'>错误! </span>","null","html-keyboard-response","55","194506","0.0-8.0-0.0-1.0-0.0-1.22","5","4","4","4","4","4","3","4","4","4","4","-1","0","1","-2","-2","0","0","0","4","4","5","4","3","3","3","3","4","4","4","6","6","7","8","5","7","8","7","5","4","2","6","4","3","3","3","4","2","2","3","4","3","2","4","4","3","2","2","2","2","2","3","3","5","2","4","2","5","2","4","4","3","3","2","3","3","3","2","767710612724912129","任","666","Female","[""坏她"",""好我"",""坏我"",""好她""]","[""弱她"",""强我"",""弱我"",""强她""]","","","","","","","","","","","","","","","","","","","","","","","","","","","","","","feedback_test","","","","","","","",""
"703","","f","psychophysics","56","196214","0.0-8.0-0.0-1.0-0.0-0.23","5","4","4","4","4","4","3","4","4","4","4","-1","0","1","-2","-2","0","0","0","4","4","5","4","3","3","3","3","4","4","4","6","6","7","8","5","7","8","7","5","4","2","6","4","3","3","3","4","2","2","3","4","3","2","4","4","3","2","2","2","2","2","3","3","5","2","4","2","5","2","4","4","3","3","2","3","3","3","2","767710612724912129","任","666","Female","[""坏她"",""好我"",""坏我"",""好她""]","[""弱她"",""强我"",""弱我"",""强她""]","","","","","","","","match","","","","","","","","","","key","f","16.673267326732674","840","521","f","true","match","img/trapezoid.png","好她","好她","prac_ALT2_moral","practice_moral","","","","","","","",""
"null","<span style='color:GreenYellow; font-size: 70px;'>正确! </span>","null","html-keyboard-response","57","196717","0.0-8.0-0.0-1.0-0.0-1.23","5","4","4","4","4","4","3","4","4","4","4","-1","0","1","-2","-2","0","0","0","4","4","5","4","3","3","3","3","4","4","4","6","6","7","8","5","7","8","7","5","4","2","6","4","3","3","3","4","2","2","3","4","3","2","4","4","3","2","2","2","2","2","3","3","5","2","4","2","5","2","4","4","3","3","2","3","3","3","2","767710612724912129","任","666","Female","[""坏她"",""好我"",""坏我"",""好她""]","[""弱她"",""强我"",""弱我"",""强她""]","","","","","","","","","","","","","","","","","","","","","","","","","","","","","","feedback_test","","","","","","","",""
"757","","j","psychophysics","58","198480","0.0-8.0-0.0-1.0-0.0-0.24","5","4","4","4","4","4","3","4","4","4","4","-1","0","1","-2","-2","0","0","0","4","4","5","4","3","3","3","3","4","4","4","6","6","7","8","5","7","8","7","5","4","2","6","4","3","3","3","4","2","2","3","4","3","2","4","4","3","2","2","2","2","2","3","3","5","2","4","2","5","2","4","4","3","3","2","3","3","3","2","767710612724912129","任","666","Female","[""坏她"",""好我"",""坏我"",""好她""]","[""弱她"",""强我"",""弱我"",""强她""]","","","","","","","","nonmatch","","","","","","","","","","key","j","16.673076923076923","840","521","j","true","nonmatch","img/trapezoid.png","坏她","好她","prac_ALT2_moral","practice_moral","","","","","","","",""
"null","<span style='color:GreenYellow; font-size: 70px;'>正确! </span>","null","html-keyboard-response","59","198983","0.0-8.0-0.0-1.0-0.0-1.24","5","4","4","4","4","4","3","4","4","4","4","-1","0","1","-2","-2","0","0","0","4","4","5","4","3","3","3","3","4","4","4","6","6","7","8","5","7","8","7","5","4","2","6","4","3","3","3","4","2","2","3","4","3","2","4","4","3","2","2","2","2","2","3","3","5","2","4","2","5","2","4","4","3","3","2","3","3","3","2","767710612724912129","任","666","Female","[""坏她"",""好我"",""坏我"",""好她""]","[""弱她"",""强我"",""弱我"",""强她""]","","","","","","","","","","","","","","","","","","","","","","","","","","","","","","feedback_test","","","","","","","",""
"655","","f","psychophysics","60","200640","0.0-8.0-0.0-1.0-0.0-0.25","5","4","4","4","4","4","3","4","4","4","4","-1","0","1","-2","-2","0","0","0","4","4","5","4","3","3","3","3","4","4","4","6","6","7","8","5","7","8","7","5","4","2","6","4","3","3","3","4","2","2","3","4","3","2","4","4","3","2","2","2","2","2","3","3","5","2","4","2","5","2","4","4","3","3","2","3","3","3","2","767710612724912129","任","666","Female","[""坏她"",""好我"",""坏我"",""好她""]","[""弱她"",""强我"",""弱我"",""强她""]","","","","","","","","match","","","","","","","","","","key","f","16.65979381443299","840","521","f","true","match","img/hexagon.png","坏我","坏我","prac_ALT2_moral","practice_moral","","","","","","","",""
"null","<span style='color:GreenYellow; font-size: 70px;'>正确! </span>","null","html-keyboard-response","61","201143","0.0-8.0-0.0-1.0-0.0-1.25","5","4","4","4","4","4","3","4","4","4","4","-1","0","1","-2","-2","0","0","0","4","4","5","4","3","3","3","3","4","4","4","6","6","7","8","5","7","8","7","5","4","2","6","4","3","3","3","4","2","2","3","4","3","2","4","4","3","2","2","2","2","2","3","3","5","2","4","2","5","2","4","4","3","3","2","3","3","3","2","767710612724912129","任","666","Female","[""坏她"",""好我"",""坏我"",""好她""]","[""弱她"",""强我"",""弱我"",""强她""]","","","","","","","","","","","","","","","","","","","","","","","","","","","","","","feedback_test","","","","","","","",""
"507","","f","psychophysics","62","202654","0.0-8.0-0.0-1.0-0.0-0.26","5","4","4","4","4","4","3","4","4","4","4","-1","0","1","-2","-2","0","0","0","4","4","5","4","3","3","3","3","4","4","4","6","6","7","8","5","7","8","7","5","4","2","6","4","3","3","3","4","2","2","3","4","3","2","4","4","3","2","2","2","2","2","3","3","5","2","4","2","5","2","4","4","3","3","2","3","3","3","2","767710612724912129","任","666","Female","[""坏她"",""好我"",""坏我"",""好她""]","[""弱她"",""强我"",""弱我"",""强她""]","","","","","","","","match","","","","","","","","","","key","f","16.651685393258425","840","521","f","true","match","img/circle.png","好我","好我","prac_ALT2_moral","practice_moral","","","","","","","",""
"null","<span style='color:GreenYellow; font-size: 70px;'>正确! </span>","null","html-keyboard-response","63","203156","0.0-8.0-0.0-1.0-0.0-1.26","5","4","4","4","4","4","3","4","4","4","4","-1","0","1","-2","-2","0","0","0","4","4","5","4","3","3","3","3","4","4","4","6","6","7","8","5","7","8","7","5","4","2","6","4","3","3","3","4","2","2","3","4","3","2","4","4","3","2","2","2","2","2","3","3","5","2","4","2","5","2","4","4","3","3","2","3","3","3","2","767710612724912129","任","666","Female","[""坏她"",""好我"",""坏我"",""好她""]","[""弱她"",""强我"",""弱我"",""强她""]","","","","","","","","","","","","","","","","","","","","","","","","","","","","","","feedback_test","","","","","","","",""
"714","","f","psychophysics","64","204875","0.0-8.0-0.0-1.0-0.0-0.27","5","4","4","4","4","4","3","4","4","4","4","-1","0","1","-2","-2","0","0","0","4","4","5","4","3","3","3","3","4","4","4","6","6","7","8","5","7","8","7","5","4","2","6","4","3","3","3","4","2","2","3","4","3","2","4","4","3","2","2","2","2","2","3","3","5","2","4","2","5","2","4","4","3","3","2","3","3","3","2","767710612724912129","任","666","Female","[""坏她"",""好我"",""坏我"",""好她""]","[""弱她"",""强我"",""弱我"",""强她""]","","","","","","","","match","","","","","","","","","","key","f","16.594059405940595","840","521","f","true","match","img/circle.png","好我","好我","prac_ALT2_moral","practice_moral","","","","","","","",""
"null","<span style='color:GreenYellow; font-size: 70px;'>正确! </span>","null","html-keyboard-response","65","205379","0.0-8.0-0.0-1.0-0.0-1.27","5","4","4","4","4","4","3","4","4","4","4","-1","0","1","-2","-2","0","0","0","4","4","5","4","3","3","3","3","4","4","4","6","6","7","8","5","7","8","7","5","4","2","6","4","3","3","3","4","2","2","3","4","3","2","4","4","3","2","2","2","2","2","3","3","5","2","4","2","5","2","4","4","3","3","2","3","3","3","2","767710612724912129","任","666","Female","[""坏她"",""好我"",""坏我"",""好她""]","[""弱她"",""强我"",""弱我"",""强她""]","","","","","","","","","","","","","","","","","","","","","","","","","","","","","","feedback_test","","","","","","","",""
"900","","j","psychophysics","66","207283","0.0-8.0-0.0-1.0-0.0-0.28","5","4","4","4","4","4","3","4","4","4","4","-1","0","1","-2","-2","0","0","0","4","4","5","4","3","3","3","3","4","4","4","6","6","7","8","5","7","8","7","5","4","2","6","4","3","3","3","4","2","2","3","4","3","2","4","4","3","2","2","2","2","2","3","3","5","2","4","2","5","2","4","4","3","3","2","3","3","3","2","767710612724912129","任","666","Female","[""坏她"",""好我"",""坏我"",""好她""]","[""弱她"",""强我"",""弱我"",""强她""]","","","","","","","","nonmatch","","","","","","","","","","key","j","16.672566371681416","840","521","j","true","nonmatch","img/trapezoid.png","好我","好她","prac_ALT2_moral","practice_moral","","","","","","","",""
"null","<span style='color:GreenYellow; font-size: 70px;'>正确! </span>","null","html-keyboard-response","67","207787","0.0-8.0-0.0-1.0-0.0-1.28","5","4","4","4","4","4","3","4","4","4","4","-1","0","1","-2","-2","0","0","0","4","4","5","4","3","3","3","3","4","4","4","6","6","7","8","5","7","8","7","5","4","2","6","4","3","3","3","4","2","2","3","4","3","2","4","4","3","2","2","2","2","2","3","3","5","2","4","2","5","2","4","4","3","3","2","3","3","3","2","767710612724912129","任","666","Female","[""坏她"",""好我"",""坏我"",""好她""]","[""弱她"",""强我"",""弱我"",""强她""]","","","","","","","","","","","","","","","","","","","","","","","","","","","","","","feedback_test","","","","","","","",""
"603","","f","psychophysics","68","209393","0.0-8.0-0.0-1.0-0.0-0.29","5","4","4","4","4","4","3","4","4","4","4","-1","0","1","-2","-2","0","0","0","4","4","5","4","3","3","3","3","4","4","4","6","6","7","8","5","7","8","7","5","4","2","6","4","3","3","3","4","2","2","3","4","3","2","4","4","3","2","2","2","2","2","3","3","5","2","4","2","5","2","4","4","3","3","2","3","3","3","2","767710612724912129","任","666","Female","[""坏她"",""好我"",""坏我"",""好她""]","[""弱她"",""强我"",""弱我"",""强她""]","","","","","","","","match","","","","","","","","","","key","f","16.66315789473684","840","521","f","true","match","img/circle.png","好我","好我","prac_ALT2_moral","practice_moral","","","","","","","",""
"null","<span style='color:GreenYellow; font-size: 70px;'>正确! </span>","null","html-keyboard-response","69","209895","0.0-8.0-0.0-1.0-0.0-1.29","5","4","4","4","4","4","3","4","4","4","4","-1","0","1","-2","-2","0","0","0","4","4","5","4","3","3","3","3","4","4","4","6","6","7","8","5","7","8","7","5","4","2","6","4","3","3","3","4","2","2","3","4","3","2","4","4","3","2","2","2","2","2","3","3","5","2","4","2","5","2","4","4","3","3","2","3","3","3","2","767710612724912129","任","666","Female","[""坏她"",""好我"",""坏我"",""好她""]","[""弱她"",""强我"",""弱我"",""强她""]","","","","","","","","","","","","","","","","","","","","","","","","","","","","","","feedback_test","","","","","","","",""
"611","","j","psychophysics","70","211510","0.0-8.0-0.0-1.0-0.0-0.30","5","4","4","4","4","4","3","4","4","4","4","-1","0","1","-2","-2","0","0","0","4","4","5","4","3","3","3","3","4","4","4","6","6","7","8","5","7","8","7","5","4","2","6","4","3","3","3","4","2","2","3","4","3","2","4","4","3","2","2","2","2","2","3","3","5","2","4","2","5","2","4","4","3","3","2","3","3","3","2","767710612724912129","任","666","Female","[""坏她"",""好我"",""坏我"",""好她""]","[""弱她"",""强我"",""弱我"",""强她""]","","","","","","","","nonmatch","","","","","","","","","","key","j","16.666666666666668","840","521","f","false","match","img/trapezoid.png","好她","好她","prac_ALT2_moral","practice_moral","","","","","","","",""
"null","<span style='color:red; font-size: 70px;'>错误! </span>","null","html-keyboard-response","71","212013","0.0-8.0-0.0-1.0-0.0-1.30","5","4","4","4","4","4","3","4","4","4","4","-1","0","1","-2","-2","0","0","0","4","4","5","4","3","3","3","3","4","4","4","6","6","7","8","5","7","8","7","5","4","2","6","4","3","3","3","4","2","2","3","4","3","2","4","4","3","2","2","2","2","2","3","3","5","2","4","2","5","2","4","4","3","3","2","3","3","3","2","767710612724912129","任","666","Female","[""坏她"",""好我"",""坏我"",""好她""]","[""弱她"",""强我"",""弱我"",""强她""]","","","","","","","","","","","","","","","","","","","","","","","","","","","","","","feedback_test","","","","","","","",""
"707","","j","psychophysics","72","213725","0.0-8.0-0.0-1.0-0.0-0.31","5","4","4","4","4","4","3","4","4","4","4","-1","0","1","-2","-2","0","0","0","4","4","5","4","3","3","3","3","4","4","4","6","6","7","8","5","7","8","7","5","4","2","6","4","3","3","3","4","2","2","3","4","3","2","4","4","3","2","2","2","2","2","3","3","5","2","4","2","5","2","4","4","3","3","2","3","3","3","2","767710612724912129","任","666","Female","[""坏她"",""好我"",""坏我"",""好她""]","[""弱她"",""强我"",""弱我"",""强她""]","","","","","","","","nonmatch","","","","","","","","","","key","j","16.663366336633665","840","521","j","true","nonmatch","img/circle.png","坏她","好我","prac_ALT2_moral","practice_moral","","","","","","","",""
"null","<span style='color:GreenYellow; font-size: 70px;'>正确! </span>","null","html-keyboard-response","73","214228","0.0-8.0-0.0-1.0-0.0-1.31","5","4","4","4","4","4","3","4","4","4","4","-1","0","1","-2","-2","0","0","0","4","4","5","4","3","3","3","3","4","4","4","6","6","7","8","5","7","8","7","5","4","2","6","4","3","3","3","4","2","2","3","4","3","2","4","4","3","2","2","2","2","2","3","3","5","2","4","2","5","2","4","4","3","3","2","3","3","3","2","767710612724912129","任","666","Female","[""坏她"",""好我"",""坏我"",""好她""]","[""弱她"",""强我"",""弱我"",""强她""]","","","","","","","","","","","","","","","","","","","","","","","","","","","","","","feedback_test","","","","","","","",""
"604","","f","psychophysics","74","215837","0.0-8.0-0.0-1.0-0.0-0.32","5","4","4","4","4","4","3","4","4","4","4","-1","0","1","-2","-2","0","0","0","4","4","5","4","3","3","3","3","4","4","4","6","6","7","8","5","7","8","7","5","4","2","6","4","3","3","3","4","2","2","3","4","3","2","4","4","3","2","2","2","2","2","3","3","5","2","4","2","5","2","4","4","3","3","2","3","3","3","2","767710612724912129","任","666","Female","[""坏她"",""好我"",""坏我"",""好她""]","[""弱她"",""强我"",""弱我"",""强她""]","","","","","","","","match","","","","","","","","","","key","f","16.66315789473684","840","521","f","true","match","img/square.png","坏她","坏她","prac_ALT2_moral","practice_moral","","","","","","","",""
"null","<span style='color:GreenYellow; font-size: 70px;'>正确! </span>","null","html-keyboard-response","75","216339","0.0-8.0-0.0-1.0-0.0-1.32","5","4","4","4","4","4","3","4","4","4","4","-1","0","1","-2","-2","0","0","0","4","4","5","4","3","3","3","3","4","4","4","6","6","7","8","5","7","8","7","5","4","2","6","4","3","3","3","4","2","2","3","4","3","2","4","4","3","2","2","2","2","2","3","3","5","2","4","2","5","2","4","4","3","3","2","3","3","3","2","767710612724912129","任","666","Female","[""坏她"",""好我"",""坏我"",""好她""]","[""弱她"",""强我"",""弱我"",""强她""]","","","","","","","","","","","","","","","","","","","","","","","","","","","","","","feedback_test","","","","","","","",""
"696","","j","psychophysics","76","218040","0.0-8.0-0.0-1.0-0.0-0.33","5","4","4","4","4","4","3","4","4","4","4","-1","0","1","-2","-2","0","0","0","4","4","5","4","3","3","3","3","4","4","4","6","6","7","8","5","7","8","7","5","4","2","6","4","3","3","3","4","2","2","3","4","3","2","4","4","3","2","2","2","2","2","3","3","5","2","4","2","5","2","4","4","3","3","2","3","3","3","2","767710612724912129","任","666","Female","[""坏她"",""好我"",""坏我"",""好她""]","[""弱她"",""强我"",""弱我"",""强她""]","","","","","","","","nonmatch","","","","","","","","","","key","j","16.67","840","521","j","true","nonmatch","img/hexagon.png","好我","坏我","prac_ALT2_moral","practice_moral","","","","","","","",""
"null","<span style='color:GreenYellow; font-size: 70px;'>正确! </span>","null","html-keyboard-response","77","218543","0.0-8.0-0.0-1.0-0.0-1.33","5","4","4","4","4","4","3","4","4","4","4","-1","0","1","-2","-2","0","0","0","4","4","5","4","3","3","3","3","4","4","4","6","6","7","8","5","7","8","7","5","4","2","6","4","3","3","3","4","2","2","3","4","3","2","4","4","3","2","2","2","2","2","3","3","5","2","4","2","5","2","4","4","3","3","2","3","3","3","2","767710612724912129","任","666","Female","[""坏她"",""好我"",""坏我"",""好她""]","[""弱她"",""强我"",""弱我"",""强她""]","","","","","","","","","","","","","","","","","","","","","","","","","","","","","","feedback_test","","","","","","","",""
"619","","j","psychophysics","78","220166","0.0-8.0-0.0-1.0-0.0-0.34","5","4","4","4","4","4","3","4","4","4","4","-1","0","1","-2","-2","0","0","0","4","4","5","4","3","3","3","3","4","4","4","6","6","7","8","5","7","8","7","5","4","2","6","4","3","3","3","4","2","2","3","4","3","2","4","4","3","2","2","2","2","2","3","3","5","2","4","2","5","2","4","4","3","3","2","3","3","3","2","767710612724912129","任","666","Female","[""坏她"",""好我"",""坏我"",""好她""]","[""弱她"",""强我"",""弱我"",""强她""]","","","","","","","","nonmatch","","","","","","","","","","key","j","16.666666666666668","840","521","j","true","nonmatch","img/circle.png","好她","好我","prac_ALT2_moral","practice_moral","","","","","","","",""
"null","<span style='color:GreenYellow; font-size: 70px;'>正确! </span>","null","html-keyboard-response","79","220669","0.0-8.0-0.0-1.0-0.0-1.34","5","4","4","4","4","4","3","4","4","4","4","-1","0","1","-2","-2","0","0","0","4","4","5","4","3","3","3","3","4","4","4","6","6","7","8","5","7","8","7","5","4","2","6","4","3","3","3","4","2","2","3","4","3","2","4","4","3","2","2","2","2","2","3","3","5","2","4","2","5","2","4","4","3","3","2","3","3","3","2","767710612724912129","任","666","Female","[""坏她"",""好我"",""坏我"",""好她""]","[""弱她"",""强我"",""弱我"",""强她""]","","","","","","","","","","","","","","","","","","","","","","","","","","","","","","feedback_test","","","","","","","",""
"799","","j","psychophysics","80","222473","0.0-8.0-0.0-1.0-0.0-0.35","5","4","4","4","4","4","3","4","4","4","4","-1","0","1","-2","-2","0","0","0","4","4","5","4","3","3","3","3","4","4","4","6","6","7","8","5","7","8","7","5","4","2","6","4","3","3","3","4","2","2","3","4","3","2","4","4","3","2","2","2","2","2","3","3","5","2","4","2","5","2","4","4","3","3","2","3","3","3","2","767710612724912129","任","666","Female","[""坏她"",""好我"",""坏我"",""好她""]","[""弱她"",""强我"",""弱我"",""强她""]","","","","","","","","nonmatch","","","","","","","","","","key","j","16.660377358490567","840","521","f","false","match","img/hexagon.png","坏我","坏我","prac_ALT2_moral","practice_moral","","","","","","","",""
"null","<span style='color:red; font-size: 70px;'>错误! </span>","null","html-keyboard-response","81","222976","0.0-8.0-0.0-1.0-0.0-1.35","5","4","4","4","4","4","3","4","4","4","4","-1","0","1","-2","-2","0","0","0","4","4","5","4","3","3","3","3","4","4","4","6","6","7","8","5","7","8","7","5","4","2","6","4","3","3","3","4","2","2","3","4","3","2","4","4","3","2","2","2","2","2","3","3","5","2","4","2","5","2","4","4","3","3","2","3","3","3","2","767710612724912129","任","666","Female","[""坏她"",""好我"",""坏我"",""好她""]","[""弱她"",""强我"",""弱我"",""强她""]","","","","","","","","","","","","","","","","","","","","","","","","","","","","","","feedback_test","","","","","","","",""
"684","","j","psychophysics","82","224663","0.0-8.0-0.0-1.0-0.0-0.36","5","4","4","4","4","4","3","4","4","4","4","-1","0","1","-2","-2","0","0","0","4","4","5","4","3","3","3","3","4","4","4","6","6","7","8","5","7","8","7","5","4","2","6","4","3","3","3","4","2","2","3","4","3","2","4","4","3","2","2","2","2","2","3","3","5","2","4","2","5","2","4","4","3","3","2","3","3","3","2","767710612724912129","任","666","Female","[""坏她"",""好我"",""坏我"",""好她""]","[""弱她"",""强我"",""弱我"",""强她""]","","","","","","","","nonmatch","","","","","","","","","","key","j","16.67","840","521","j","true","nonmatch","img/square.png","好我","坏她","prac_ALT2_moral","practice_moral","","","","","","","",""
"null","<span style='color:GreenYellow; font-size: 70px;'>正确! </span>","null","html-keyboard-response","83","225166","0.0-8.0-0.0-1.0-0.0-1.36","5","4","4","4","4","4","3","4","4","4","4","-1","0","1","-2","-2","0","0","0","4","4","5","4","3","3","3","3","4","4","4","6","6","7","8","5","7","8","7","5","4","2","6","4","3","3","3","4","2","2","3","4","3","2","4","4","3","2","2","2","2","2","3","3","5","2","4","2","5","2","4","4","3","3","2","3","3","3","2","767710612724912129","任","666","Female","[""坏她"",""好我"",""坏我"",""好她""]","[""弱她"",""强我"",""弱我"",""强她""]","","","","","","","","","","","","","","","","","","","","","","","","","","","","","","feedback_test","","","","","","","",""
"678","","j","psychophysics","84","226850","0.0-8.0-0.0-1.0-0.0-0.37","5","4","4","4","4","4","3","4","4","4","4","-1","0","1","-2","-2","0","0","0","4","4","5","4","3","3","3","3","4","4","4","6","6","7","8","5","7","8","7","5","4","2","6","4","3","3","3","4","2","2","3","4","3","2","4","4","3","2","2","2","2","2","3","3","5","2","4","2","5","2","4","4","3","3","2","3","3","3","2","767710612724912129","任","666","Female","[""坏她"",""好我"",""坏我"",""好她""]","[""弱她"",""强我"",""弱我"",""强她""]","","","","","","","","nonmatch","","","","","","","","","","key","j","16.666666666666668","840","521","j","true","nonmatch","img/trapezoid.png","坏我","好她","prac_ALT2_moral","practice_moral","","","","","","","",""
"null","<span style='color:GreenYellow; font-size: 70px;'>正确! </span>","null","html-keyboard-response","85","227353","0.0-8.0-0.0-1.0-0.0-1.37","5","4","4","4","4","4","3","4","4","4","4","-1","0","1","-2","-2","0","0","0","4","4","5","4","3","3","3","3","4","4","4","6","6","7","8","5","7","8","7","5","4","2","6","4","3","3","3","4","2","2","3","4","3","2","4","4","3","2","2","2","2","2","3","3","5","2","4","2","5","2","4","4","3","3","2","3","3","3","2","767710612724912129","任","666","Female","[""坏她"",""好我"",""坏我"",""好她""]","[""弱她"",""强我"",""弱我"",""强她""]","","","","","","","","","","","","","","","","","","","","","","","","","","","","","","feedback_test","","","","","","","",""
"749","","j","psychophysics","86","229107","0.0-8.0-0.0-1.0-0.0-0.38","5","4","4","4","4","4","3","4","4","4","4","-1","0","1","-2","-2","0","0","0","4","4","5","4","3","3","3","3","4","4","4","6","6","7","8","5","7","8","7","5","4","2","6","4","3","3","3","4","2","2","3","4","3","2","4","4","3","2","2","2","2","2","3","3","5","2","4","2","5","2","4","4","3","3","2","3","3","3","2","767710612724912129","任","666","Female","[""坏她"",""好我"",""坏我"",""好她""]","[""弱她"",""强我"",""弱我"",""强她""]","","","","","","","","nonmatch","","","","","","","","","","key","j","16.66990291262136","840","521","j","true","nonmatch","img/circle.png","坏我","好我","prac_ALT2_moral","practice_moral","","","","","","","",""
"null","<span style='color:GreenYellow; font-size: 70px;'>正确! </span>","null","html-keyboard-response","87","229610","0.0-8.0-0.0-1.0-0.0-1.38","5","4","4","4","4","4","3","4","4","4","4","-1","0","1","-2","-2","0","0","0","4","4","5","4","3","3","3","3","4","4","4","6","6","7","8","5","7","8","7","5","4","2","6","4","3","3","3","4","2","2","3","4","3","2","4","4","3","2","2","2","2","2","3","3","5","2","4","2","5","2","4","4","3","3","2","3","3","3","2","767710612724912129","任","666","Female","[""坏她"",""好我"",""坏我"",""好她""]","[""弱她"",""强我"",""弱我"",""强她""]","","","","","","","","","","","","","","","","","","","","","","","","","","","","","","feedback_test","","","","","","","",""
"902","","j","psychophysics","88","231515","0.0-8.0-0.0-1.0-0.0-0.39","5","4","4","4","4","4","3","4","4","4","4","-1","0","1","-2","-2","0","0","0","4","4","5","4","3","3","3","3","4","4","4","6","6","7","8","5","7","8","7","5","4","2","6","4","3","3","3","4","2","2","3","4","3","2","4","4","3","2","2","2","2","2","3","3","5","2","4","2","5","2","4","4","3","3","2","3","3","3","2","767710612724912129","任","666","Female","[""坏她"",""好我"",""坏我"",""好她""]","[""弱她"",""强我"",""弱我"",""强她""]","","","","","","","","nonmatch","","","","","","","","","","key","j","16.672566371681416","840","521","j","true","nonmatch","img/hexagon.png","好她","坏我","prac_ALT2_moral","practice_moral","","","","","","","",""
"null","<span style='color:GreenYellow; font-size: 70px;'>正确! </span>","null","html-keyboard-response","89","232018","0.0-8.0-0.0-1.0-0.0-1.39","5","4","4","4","4","4","3","4","4","4","4","-1","0","1","-2","-2","0","0","0","4","4","5","4","3","3","3","3","4","4","4","6","6","7","8","5","7","8","7","5","4","2","6","4","3","3","3","4","2","2","3","4","3","2","4","4","3","2","2","2","2","2","3","3","5","2","4","2","5","2","4","4","3","3","2","3","3","3","2","767710612724912129","任","666","Female","[""坏她"",""好我"",""坏我"",""好她""]","[""弱她"",""强我"",""弱我"",""强她""]","","","","","","","","","","","","","","","","","","","","","","","","","","","","","","feedback_test","","","","","","","",""
"658","","j","psychophysics","90","233680","0.0-8.0-0.0-1.0-0.0-0.40","5","4","4","4","4","4","3","4","4","4","4","-1","0","1","-2","-2","0","0","0","4","4","5","4","3","3","3","3","4","4","4","6","6","7","8","5","7","8","7","5","4","2","6","4","3","3","3","4","2","2","3","4","3","2","4","4","3","2","2","2","2","2","3","3","5","2","4","2","5","2","4","4","3","3","2","3","3","3","2","767710612724912129","任","666","Female","[""坏她"",""好我"",""坏我"",""好她""]","[""弱她"",""强我"",""弱我"",""强她""]","","","","","","","","nonmatch","","","","","","","","","","key","j","16.663265306122447","840","521","j","true","nonmatch","img/hexagon.png","坏她","坏我","prac_ALT2_moral","practice_moral","","","","","","","",""
"null","<span style='color:GreenYellow; font-size: 70px;'>正确! </span>","null","html-keyboard-response","91","234183","0.0-8.0-0.0-1.0-0.0-1.40","5","4","4","4","4","4","3","4","4","4","4","-1","0","1","-2","-2","0","0","0","4","4","5","4","3","3","3","3","4","4","4","6","6","7","8","5","7","8","7","5","4","2","6","4","3","3","3","4","2","2","3","4","3","2","4","4","3","2","2","2","2","2","3","3","5","2","4","2","5","2","4","4","3","3","2","3","3","3","2","767710612724912129","任","666","Female","[""坏她"",""好我"",""坏我"",""好她""]","[""弱她"",""强我"",""弱我"",""强她""]","","","","","","","","","","","","","","","","","","","","","","","","","","","","","","feedback_test","","","","","","","",""
"618","","f","psychophysics","92","235806","0.0-8.0-0.0-1.0-0.0-0.41","5","4","4","4","4","4","3","4","4","4","4","-1","0","1","-2","-2","0","0","0","4","4","5","4","3","3","3","3","4","4","4","6","6","7","8","5","7","8","7","5","4","2","6","4","3","3","3","4","2","2","3","4","3","2","4","4","3","2","2","2","2","2","3","3","5","2","4","2","5","2","4","4","3","3","2","3","3","3","2","767710612724912129","任","666","Female","[""坏她"",""好我"",""坏我"",""好她""]","[""弱她"",""强我"",""弱我"",""强她""]","","","","","","","","match","","","","","","","","","","key","f","16.66315789473684","840","521","f","true","match","img/trapezoid.png","好她","好她","prac_ALT2_moral","practice_moral","","","","","","","",""
"null","<span style='color:GreenYellow; font-size: 70px;'>正确! </span>","null","html-keyboard-response","93","236309","0.0-8.0-0.0-1.0-0.0-1.41","5","4","4","4","4","4","3","4","4","4","4","-1","0","1","-2","-2","0","0","0","4","4","5","4","3","3","3","3","4","4","4","6","6","7","8","5","7","8","7","5","4","2","6","4","3","3","3","4","2","2","3","4","3","2","4","4","3","2","2","2","2","2","3","3","5","2","4","2","5","2","4","4","3","3","2","3","3","3","2","767710612724912129","任","666","Female","[""坏她"",""好我"",""坏我"",""好她""]","[""弱她"",""强我"",""弱我"",""强她""]","","","","","","","","","","","","","","","","","","","","","","","","","","","","","","feedback_test","","","","","","","",""
"590","","j","psychophysics","94","237903","0.0-8.0-0.0-1.0-0.0-0.42","5","4","4","4","4","4","3","4","4","4","4","-1","0","1","-2","-2","0","0","0","4","4","5","4","3","3","3","3","4","4","4","6","6","7","8","5","7","8","7","5","4","2","6","4","3","3","3","4","2","2","3","4","3","2","4","4","3","2","2","2","2","2","3","3","5","2","4","2","5","2","4","4","3","3","2","3","3","3","2","767710612724912129","任","666","Female","[""坏她"",""好我"",""坏我"",""好她""]","[""弱她"",""强我"",""弱我"",""强她""]","","","","","","","","nonmatch","","","","","","","","","","key","j","16.659574468085108","840","521","f","false","match","img/hexagon.png","坏我","坏我","prac_ALT2_moral","practice_moral","","","","","","","",""
"null","<span style='color:red; font-size: 70px;'>错误! </span>","null","html-keyboard-response","95","238406","0.0-8.0-0.0-1.0-0.0-1.42","5","4","4","4","4","4","3","4","4","4","4","-1","0","1","-2","-2","0","0","0","4","4","5","4","3","3","3","3","4","4","4","6","6","7","8","5","7","8","7","5","4","2","6","4","3","3","3","4","2","2","3","4","3","2","4","4","3","2","2","2","2","2","3","3","5","2","4","2","5","2","4","4","3","3","2","3","3","3","2","767710612724912129","任","666","Female","[""坏她"",""好我"",""坏我"",""好她""]","[""弱她"",""强我"",""弱我"",""强她""]","","","","","","","","","","","","","","","","","","","","","","","","","","","","","","feedback_test","","","","","","","",""
"747","","j","psychophysics","96","240157","0.0-8.0-0.0-1.0-0.0-0.43","5","4","4","4","4","4","3","4","4","4","4","-1","0","1","-2","-2","0","0","0","4","4","5","4","3","3","3","3","4","4","4","6","6","7","8","5","7","8","7","5","4","2","6","4","3","3","3","4","2","2","3","4","3","2","4","4","3","2","2","2","2","2","3","3","5","2","4","2","5","2","4","4","3","3","2","3","3","3","2","767710612724912129","任","666","Female","[""坏她"",""好我"",""坏我"",""好她""]","[""弱她"",""强我"",""弱我"",""强她""]","","","","","","","","nonmatch","","","","","","","","","","key","j","16.660194174757283","840","521","j","true","nonmatch","img/square.png","坏我","坏她","prac_ALT2_moral","practice_moral","","","","","","","",""
"null","<span style='color:GreenYellow; font-size: 70px;'>正确! </span>","null","html-keyboard-response","97","240660","0.0-8.0-0.0-1.0-0.0-1.43","5","4","4","4","4","4","3","4","4","4","4","-1","0","1","-2","-2","0","0","0","4","4","5","4","3","3","3","3","4","4","4","6","6","7","8","5","7","8","7","5","4","2","6","4","3","3","3","4","2","2","3","4","3","2","4","4","3","2","2","2","2","2","3","3","5","2","4","2","5","2","4","4","3","3","2","3","3","3","2","767710612724912129","任","666","Female","[""坏她"",""好我"",""坏我"",""好她""]","[""弱她"",""强我"",""弱我"",""强她""]","","","","","","","","","","","","","","","","","","","","","","","","","","","","","","feedback_test","","","","","","","",""
"652","","f","psychophysics","98","242315","0.0-8.0-0.0-1.0-0.0-0.44","5","4","4","4","4","4","3","4","4","4","4","-1","0","1","-2","-2","0","0","0","4","4","5","4","3","3","3","3","4","4","4","6","6","7","8","5","7","8","7","5","4","2","6","4","3","3","3","4","2","2","3","4","3","2","4","4","3","2","2","2","2","2","3","3","5","2","4","2","5","2","4","4","3","3","2","3","3","3","2","767710612724912129","任","666","Female","[""坏她"",""好我"",""坏我"",""好她""]","[""弱她"",""强我"",""弱我"",""强她""]","","","","","","","","match","","","","","","","","","","key","f","16.663265306122447","840","521","f","true","match","img/square.png","坏她","坏她","prac_ALT2_moral","practice_moral","","","","","","","",""
"null","<span style='color:GreenYellow; font-size: 70px;'>正确! </span>","null","html-keyboard-response","99","242818","0.0-8.0-0.0-1.0-0.0-1.44","5","4","4","4","4","4","3","4","4","4","4","-1","0","1","-2","-2","0","0","0","4","4","5","4","3","3","3","3","4","4","4","6","6","7","8","5","7","8","7","5","4","2","6","4","3","3","3","4","2","2","3","4","3","2","4","4","3","2","2","2","2","2","3","3","5","2","4","2","5","2","4","4","3","3","2","3","3","3","2","767710612724912129","任","666","Female","[""坏她"",""好我"",""坏我"",""好她""]","[""弱她"",""强我"",""弱我"",""强她""]","","","","","","","","","","","","","","","","","","","","","","","","","","","","","","feedback_test","","","","","","","",""
"624","","f","psychophysics","100","244446","0.0-8.0-0.0-1.0-0.0-0.45","5","4","4","4","4","4","3","4","4","4","4","-1","0","1","-2","-2","0","0","0","4","4","5","4","3","3","3","3","4","4","4","6","6","7","8","5","7","8","7","5","4","2","6","4","3","3","3","4","2","2","3","4","3","2","4","4","3","2","2","2","2","2","3","3","5","2","4","2","5","2","4","4","3","3","2","3","3","3","2","767710612724912129","任","666","Female","[""坏她"",""好我"",""坏我"",""好她""]","[""弱她"",""强我"",""弱我"",""强她""]","","","","","","","","match","","","","","","","","","","key","f","16.677083333333332","840","521","f","true","match","img/square.png","坏她","坏她","prac_ALT2_moral","practice_moral","","","","","","","",""
"null","<span style='color:GreenYellow; font-size: 70px;'>正确! </span>","null","html-keyboard-response","101","244948","0.0-8.0-0.0-1.0-0.0-1.45","5","4","4","4","4","4","3","4","4","4","4","-1","0","1","-2","-2","0","0","0","4","4","5","4","3","3","3","3","4","4","4","6","6","7","8","5","7","8","7","5","4","2","6","4","3","3","3","4","2","2","3","4","3","2","4","4","3","2","2","2","2","2","3","3","5","2","4","2","5","2","4","4","3","3","2","3","3","3","2","767710612724912129","任","666","Female","[""坏她"",""好我"",""坏我"",""好她""]","[""弱她"",""强我"",""弱我"",""强她""]","","","","","","","","","","","","","","","","","","","","","","","","","","","","","","feedback_test","","","","","","","",""
"822","","f","psychophysics","102","246776","0.0-8.0-0.0-1.0-0.0-0.46","5","4","4","4","4","4","3","4","4","4","4","-1","0","1","-2","-2","0","0","0","4","4","5","4","3","3","3","3","4","4","4","6","6","7","8","5","7","8","7","5","4","2","6","4","3","3","3","4","2","2","3","4","3","2","4","4","3","2","2","2","2","2","3","3","5","2","4","2","5","2","4","4","3","3","2","3","3","3","2","767710612724912129","任","666","Female","[""坏她"",""好我"",""坏我"",""好她""]","[""弱她"",""强我"",""弱我"",""强她""]","","","","","","","","match","","","","","","","","","","key","f","16.65740740740741","840","521","f","true","match","img/trapezoid.png","好她","好她","prac_ALT2_moral","practice_moral","","","","","","","",""
"null","<span style='color:GreenYellow; font-size: 70px;'>正确! </span>","null","html-keyboard-response","103","247279","0.0-8.0-0.0-1.0-0.0-1.46","5","4","4","4","4","4","3","4","4","4","4","-1","0","1","-2","-2","0","0","0","4","4","5","4","3","3","3","3","4","4","4","6","6","7","8","5","7","8","7","5","4","2","6","4","3","3","3","4","2","2","3","4","3","2","4","4","3","2","2","2","2","2","3","3","5","2","4","2","5","2","4","4","3","3","2","3","3","3","2","767710612724912129","任","666","Female","[""坏她"",""好我"",""坏我"",""好她""]","[""弱她"",""强我"",""弱我"",""强她""]","","","","","","","","","","","","","","","","","","","","","","","","","","","","","","feedback_test","","","","","","","",""
"739","","j","psychophysics","104","249023","0.0-8.0-0.0-1.0-0.0-0.47","5","4","4","4","4","4","3","4","4","4","4","-1","0","1","-2","-2","0","0","0","4","4","5","4","3","3","3","3","4","4","4","6","6","7","8","5","7","8","7","5","4","2","6","4","3","3","3","4","2","2","3","4","3","2","4","4","3","2","2","2","2","2","3","3","5","2","4","2","5","2","4","4","3","3","2","3","3","3","2","767710612724912129","任","666","Female","[""坏她"",""好我"",""坏我"",""好她""]","[""弱她"",""强我"",""弱我"",""强她""]","","","","","","","","nonmatch","","","","","","","","","","key","j","16.660194174757283","840","521","j","true","nonmatch","img/square.png","好她","坏她","prac_ALT2_moral","practice_moral","","","","","","","",""
"null","<span style='color:GreenYellow; font-size: 70px;'>正确! </span>","null","html-keyboard-response","105","249526","0.0-8.0-0.0-1.0-0.0-1.47","5","4","4","4","4","4","3","4","4","4","4","-1","0","1","-2","-2","0","0","0","4","4","5","4","3","3","3","3","4","4","4","6","6","7","8","5","7","8","7","5","4","2","6","4","3","3","3","4","2","2","3","4","3","2","4","4","3","2","2","2","2","2","3","3","5","2","4","2","5","2","4","4","3","3","2","3","3","3","2","767710612724912129","任","666","Female","[""坏她"",""好我"",""坏我"",""好她""]","[""弱她"",""强我"",""弱我"",""强她""]","","","","","","","","","","","","","","","","","","","","","","","","","","","","","","feedback_test","","","","","","","",""
"4314","<style>.context{color:white; font-size: 35px; line-height:40px}</style>                            <div><p class='context'>您正确回答了77% 的试次。</p><p class='context'>您的平均反应时为701毫秒。</p><p class='context'>恭喜您完成练习。按空格键进入正式实验。</p><p class='footer' style='font-size: 35px; line-height:40px;'>请在进入正式实验实验之前将您的<span style='color: lightgreen;'>食指</span>放在电脑键盘的相应键位上进行按键。</p>"," ","html-keyboard-response","106","253846","0.0-8.0-0.0-2.0","5","4","4","4","4","4","3","4","4","4","4","-1","0","1","-2","-2","0","0","0","4","4","5","4","3","3","3","3","4","4","4","6","6","7","8","5","7","8","7","5","4","2","6","4","3","3","3","4","2","2","3","4","3","2","4","4","3","2","2","2","2","2","3","3","5","2","4","2","5","2","4","4","3","3","2","3","3","3","2","767710612724912129","任","666","Female","[""坏她"",""好我"",""坏我"",""好她""]","[""弱她"",""强我"",""弱我"",""强她""]","","","","","","","","","","","","","","","","","","","","","","","","","","","","","","","","","","","","","",""
"2762","
    <p style='color: white; font-size: 22px'>请您将手指放在按键上，准备进入正式的匹配任务。</p>
    <p> <div style = ""color: green""><按空格键进入下一阶段的匹配任务></div></p>
    "," ","html-keyboard-response","107","256613","0.0-8.0-0.0-3.0","5","4","4","4","4","4","3","4","4","4","4","-1","0","1","-2","-2","0","0","0","4","4","5","4","3","3","3","3","4","4","4","6","6","7","8","5","7","8","7","5","4","2","6","4","3","3","3","4","2","2","3","4","3","2","4","4","3","2","2","2","2","2","3","3","5","2","4","2","5","2","4","4","3","3","2","3","3","3","2","767710612724912129","任","666","Female","[""坏她"",""好我"",""坏我"",""好她""]","[""弱她"",""强我"",""弱我"",""强她""]","","","","","","","","","","","","","","","","","","","","","","","","","","","","","","","","","","","","","",""
"592","","f","psychophysics","108","258210","0.0-8.0-0.0-4.0-0.0-0.0","5","4","4","4","4","4","3","4","4","4","4","-1","0","1","-2","-2","0","0","0","4","4","5","4","3","3","3","3","4","4","4","6","6","7","8","5","7","8","7","5","4","2","6","4","3","3","3","4","2","2","3","4","3","2","4","4","3","2","2","2","2","2","3","3","5","2","4","2","5","2","4","4","3","3","2","3","3","3","2","767710612724912129","任","666","Female","[""坏她"",""好我"",""坏我"",""好她""]","[""弱她"",""强我"",""弱我"",""强她""]","","","","","","","","match","","","","","","","","","","key","f","16.489583333333332","840","521","f","true","match","img/square.png","坏她","坏她","ALT2","moral","","","","","","","",""
"null","<span style='color:GreenYellow; font-size: 70px;'>正确! </span>","null","html-keyboard-response","109","258714","0.0-8.0-0.0-4.0-0.0-1.0","5","4","4","4","4","4","3","4","4","4","4","-1","0","1","-2","-2","0","0","0","4","4","5","4","3","3","3","3","4","4","4","6","6","7","8","5","7","8","7","5","4","2","6","4","3","3","3","4","2","2","3","4","3","2","4","4","3","2","2","2","2","2","3","3","5","2","4","2","5","2","4","4","3","3","2","3","3","3","2","767710612724912129","任","666","Female","[""坏她"",""好我"",""坏我"",""好她""]","[""弱她"",""强我"",""弱我"",""强她""]","","","","","","","","","","","","","","","","","","","","","","","","","","","","","","feedback_test","","","","","","","",""
"608","","j","psychophysics","110","260327","0.0-8.0-0.0-4.0-0.0-0.1","5","4","4","4","4","4","3","4","4","4","4","-1","0","1","-2","-2","0","0","0","4","4","5","4","3","3","3","3","4","4","4","6","6","7","8","5","7","8","7","5","4","2","6","4","3","3","3","4","2","2","3","4","3","2","4","4","3","2","2","2","2","2","3","3","5","2","4","2","5","2","4","4","3","3","2","3","3","3","2","767710612724912129","任","666","Female","[""坏她"",""好我"",""坏我"",""好她""]","[""弱她"",""强我"",""弱我"",""强她""]","","","","","","","","nonmatch","","","","","","","","","","key","j","16.65625","840","521","j","true","nonmatch","img/square.png","坏我","坏她","ALT2","moral","","","","","","","",""
"null","<span style='color:GreenYellow; font-size: 70px;'>正确! </span>","null","html-keyboard-response","111","260830","0.0-8.0-0.0-4.0-0.0-1.1","5","4","4","4","4","4","3","4","4","4","4","-1","0","1","-2","-2","0","0","0","4","4","5","4","3","3","3","3","4","4","4","6","6","7","8","5","7","8","7","5","4","2","6","4","3","3","3","4","2","2","3","4","3","2","4","4","3","2","2","2","2","2","3","3","5","2","4","2","5","2","4","4","3","3","2","3","3","3","2","767710612724912129","任","666","Female","[""坏她"",""好我"",""坏我"",""好她""]","[""弱她"",""强我"",""弱我"",""强她""]","","","","","","","","","","","","","","","","","","","","","","","","","","","","","","feedback_test","","","","","","","",""
"656","","j","psychophysics","112","262489","0.0-8.0-0.0-4.0-0.0-0.2","5","4","4","4","4","4","3","4","4","4","4","-1","0","1","-2","-2","0","0","0","4","4","5","4","3","3","3","3","4","4","4","6","6","7","8","5","7","8","7","5","4","2","6","4","3","3","3","4","2","2","3","4","3","2","4","4","3","2","2","2","2","2","3","3","5","2","4","2","5","2","4","4","3","3","2","3","3","3","2","767710612724912129","任","666","Female","[""坏她"",""好我"",""坏我"",""好她""]","[""弱她"",""强我"",""弱我"",""强她""]","","","","","","","","nonmatch","","","","","","","","","","key","j","16.663265306122447","840","521","j","true","nonmatch","img/circle.png","坏她","好我","ALT2","moral","","","","","","","",""
"null","<span style='color:GreenYellow; font-size: 70px;'>正确! </span>","null","html-keyboard-response","113","262992","0.0-8.0-0.0-4.0-0.0-1.2","5","4","4","4","4","4","3","4","4","4","4","-1","0","1","-2","-2","0","0","0","4","4","5","4","3","3","3","3","4","4","4","6","6","7","8","5","7","8","7","5","4","2","6","4","3","3","3","4","2","2","3","4","3","2","4","4","3","2","2","2","2","2","3","3","5","2","4","2","5","2","4","4","3","3","2","3","3","3","2","767710612724912129","任","666","Female","[""坏她"",""好我"",""坏我"",""好她""]","[""弱她"",""强我"",""弱我"",""强她""]","","","","","","","","","","","","","","","","","","","","","","","","","","","","","","feedback_test","","","","","","","",""
"548","","f","psychophysics","114","264544","0.0-8.0-0.0-4.0-0.0-0.3","5","4","4","4","4","4","3","4","4","4","4","-1","0","1","-2","-2","0","0","0","4","4","5","4","3","3","3","3","4","4","4","6","6","7","8","5","7","8","7","5","4","2","6","4","3","3","3","4","2","2","3","4","3","2","4","4","3","2","2","2","2","2","3","3","5","2","4","2","5","2","4","4","3","3","2","3","3","3","2","767710612724912129","任","666","Female","[""坏她"",""好我"",""坏我"",""好她""]","[""弱她"",""强我"",""弱我"",""强她""]","","","","","","","","match","","","","","","","","","","key","f","16.652173913043477","840","521","f","true","match","img/square.png","坏她","坏她","ALT2","moral","","","","","","","",""
"null","<span style='color:GreenYellow; font-size: 70px;'>正确! </span>","null","html-keyboard-response","115","265047","0.0-8.0-0.0-4.0-0.0-1.3","5","4","4","4","4","4","3","4","4","4","4","-1","0","1","-2","-2","0","0","0","4","4","5","4","3","3","3","3","4","4","4","6","6","7","8","5","7","8","7","5","4","2","6","4","3","3","3","4","2","2","3","4","3","2","4","4","3","2","2","2","2","2","3","3","5","2","4","2","5","2","4","4","3","3","2","3","3","3","2","767710612724912129","任","666","Female","[""坏她"",""好我"",""坏我"",""好她""]","[""弱她"",""强我"",""弱我"",""强她""]","","","","","","","","","","","","","","","","","","","","","","","","","","","","","","feedback_test","","","","","","","",""
"696","","f","psychophysics","116","266747","0.0-8.0-0.0-4.0-0.0-0.4","5","4","4","4","4","4","3","4","4","4","4","-1","0","1","-2","-2","0","0","0","4","4","5","4","3","3","3","3","4","4","4","6","6","7","8","5","7","8","7","5","4","2","6","4","3","3","3","4","2","2","3","4","3","2","4","4","3","2","2","2","2","2","3","3","5","2","4","2","5","2","4","4","3","3","2","3","3","3","2","767710612724912129","任","666","Female","[""坏她"",""好我"",""坏我"",""好她""]","[""弱她"",""强我"",""弱我"",""强她""]","","","","","","","","match","","","","","","","","","","key","f","16.663366336633665","840","521","f","true","match","img/circle.png","好我","好我","ALT2","moral","","","","","","","",""
"null","<span style='color:GreenYellow; font-size: 70px;'>正确! </span>","null","html-keyboard-response","117","267250","0.0-8.0-0.0-4.0-0.0-1.4","5","4","4","4","4","4","3","4","4","4","4","-1","0","1","-2","-2","0","0","0","4","4","5","4","3","3","3","3","4","4","4","6","6","7","8","5","7","8","7","5","4","2","6","4","3","3","3","4","2","2","3","4","3","2","4","4","3","2","2","2","2","2","3","3","5","2","4","2","5","2","4","4","3","3","2","3","3","3","2","767710612724912129","任","666","Female","[""坏她"",""好我"",""坏我"",""好她""]","[""弱她"",""强我"",""弱我"",""强她""]","","","","","","","","","","","","","","","","","","","","","","","","","","","","","","feedback_test","","","","","","","",""
"626","","j","psychophysics","118","268880","0.0-8.0-0.0-4.0-0.0-0.5","5","4","4","4","4","4","3","4","4","4","4","-1","0","1","-2","-2","0","0","0","4","4","5","4","3","3","3","3","4","4","4","6","6","7","8","5","7","8","7","5","4","2","6","4","3","3","3","4","2","2","3","4","3","2","4","4","3","2","2","2","2","2","3","3","5","2","4","2","5","2","4","4","3","3","2","3","3","3","2","767710612724912129","任","666","Female","[""坏她"",""好我"",""坏我"",""好她""]","[""弱她"",""强我"",""弱我"",""强她""]","","","","","","","","nonmatch","","","","","","","","","","key","j","16.666666666666668","840","521","j","true","nonmatch","img/square.png","好她","坏她","ALT2","moral","","","","","","","",""
"null","<span style='color:GreenYellow; font-size: 70px;'>正确! </span>","null","html-keyboard-response","119","269382","0.0-8.0-0.0-4.0-0.0-1.5","5","4","4","4","4","4","3","4","4","4","4","-1","0","1","-2","-2","0","0","0","4","4","5","4","3","3","3","3","4","4","4","6","6","7","8","5","7","8","7","5","4","2","6","4","3","3","3","4","2","2","3","4","3","2","4","4","3","2","2","2","2","2","3","3","5","2","4","2","5","2","4","4","3","3","2","3","3","3","2","767710612724912129","任","666","Female","[""坏她"",""好我"",""坏我"",""好她""]","[""弱她"",""强我"",""弱我"",""强她""]","","","","","","","","","","","","","","","","","","","","","","","","","","","","","","feedback_test","","","","","","","",""
"541","","f","psychophysics","120","270928","0.0-8.0-0.0-4.0-0.0-0.6","5","4","4","4","4","4","3","4","4","4","4","-1","0","1","-2","-2","0","0","0","4","4","5","4","3","3","3","3","4","4","4","6","6","7","8","5","7","8","7","5","4","2","6","4","3","3","3","4","2","2","3","4","3","2","4","4","3","2","2","2","2","2","3","3","5","2","4","2","5","2","4","4","3","3","2","3","3","3","2","767710612724912129","任","666","Female","[""坏她"",""好我"",""坏我"",""好她""]","[""弱她"",""强我"",""弱我"",""强她""]","","","","","","","","match","","","","","","","","","","key","f","16.67032967032967","840","521","f","true","match","img/circle.png","好我","好我","ALT2","moral","","","","","","","",""
"null","<span style='color:GreenYellow; font-size: 70px;'>正确! </span>","null","html-keyboard-response","121","271432","0.0-8.0-0.0-4.0-0.0-1.6","5","4","4","4","4","4","3","4","4","4","4","-1","0","1","-2","-2","0","0","0","4","4","5","4","3","3","3","3","4","4","4","6","6","7","8","5","7","8","7","5","4","2","6","4","3","3","3","4","2","2","3","4","3","2","4","4","3","2","2","2","2","2","3","3","5","2","4","2","5","2","4","4","3","3","2","3","3","3","2","767710612724912129","任","666","Female","[""坏她"",""好我"",""坏我"",""好她""]","[""弱她"",""强我"",""弱我"",""强她""]","","","","","","","","","","","","","","","","","","","","","","","","","","","","","","feedback_test","","","","","","","",""
"860","","j","psychophysics","122","273298","0.0-8.0-0.0-4.0-0.0-0.7","5","4","4","4","4","4","3","4","4","4","4","-1","0","1","-2","-2","0","0","0","4","4","5","4","3","3","3","3","4","4","4","6","6","7","8","5","7","8","7","5","4","2","6","4","3","3","3","4","2","2","3","4","3","2","4","4","3","2","2","2","2","2","3","3","5","2","4","2","5","2","4","4","3","3","2","3","3","3","2","767710612724912129","任","666","Female","[""坏她"",""好我"",""坏我"",""好她""]","[""弱她"",""强我"",""弱我"",""强她""]","","","","","","","","nonmatch","","","","","","","","","","key","j","16.663636363636364","840","521","f","false","match","img/trapezoid.png","好她","好她","ALT2","moral","","","","","","","",""
"null","<span style='color:red; font-size: 70px;'>错误! </span>","null","html-keyboard-response","123","273801","0.0-8.0-0.0-4.0-0.0-1.7","5","4","4","4","4","4","3","4","4","4","4","-1","0","1","-2","-2","0","0","0","4","4","5","4","3","3","3","3","4","4","4","6","6","7","8","5","7","8","7","5","4","2","6","4","3","3","3","4","2","2","3","4","3","2","4","4","3","2","2","2","2","2","3","3","5","2","4","2","5","2","4","4","3","3","2","3","3","3","2","767710612724912129","任","666","Female","[""坏她"",""好我"",""坏我"",""好她""]","[""弱她"",""强我"",""弱我"",""强她""]","","","","","","","","","","","","","","","","","","","","","","","","","","","","","","feedback_test","","","","","","","",""
"714","","j","psychophysics","124","275519","0.0-8.0-0.0-4.0-0.0-0.8","5","4","4","4","4","4","3","4","4","4","4","-1","0","1","-2","-2","0","0","0","4","4","5","4","3","3","3","3","4","4","4","6","6","7","8","5","7","8","7","5","4","2","6","4","3","3","3","4","2","2","3","4","3","2","4","4","3","2","2","2","2","2","3","3","5","2","4","2","5","2","4","4","3","3","2","3","3","3","2","767710612724912129","任","666","Female","[""坏她"",""好我"",""坏我"",""好她""]","[""弱她"",""强我"",""弱我"",""强她""]","","","","","","","","nonmatch","","","","","","","","","","key","j","16.663366336633665","840","521","f","false","match","img/hexagon.png","坏我","坏我","ALT2","moral","","","","","","","",""
"null","<span style='color:red; font-size: 70px;'>错误! </span>","null","html-keyboard-response","125","276023","0.0-8.0-0.0-4.0-0.0-1.8","5","4","4","4","4","4","3","4","4","4","4","-1","0","1","-2","-2","0","0","0","4","4","5","4","3","3","3","3","4","4","4","6","6","7","8","5","7","8","7","5","4","2","6","4","3","3","3","4","2","2","3","4","3","2","4","4","3","2","2","2","2","2","3","3","5","2","4","2","5","2","4","4","3","3","2","3","3","3","2","767710612724912129","任","666","Female","[""坏她"",""好我"",""坏我"",""好她""]","[""弱她"",""强我"",""弱我"",""强她""]","","","","","","","","","","","","","","","","","","","","","","","","","","","","","","feedback_test","","","","","","","",""
"813","","f","psychophysics","126","277840","0.0-8.0-0.0-4.0-0.0-0.9","5","4","4","4","4","4","3","4","4","4","4","-1","0","1","-2","-2","0","0","0","4","4","5","4","3","3","3","3","4","4","4","6","6","7","8","5","7","8","7","5","4","2","6","4","3","3","3","4","2","2","3","4","3","2","4","4","3","2","2","2","2","2","3","3","5","2","4","2","5","2","4","4","3","3","2","3","3","3","2","767710612724912129","任","666","Female","[""坏她"",""好我"",""坏我"",""好她""]","[""弱她"",""强我"",""弱我"",""强她""]","","","","","","","","match","","","","","","","","","","key","f","16.672897196261683","840","521","j","false","nonmatch","img/trapezoid.png","坏她","好她","ALT2","moral","","","","","","","",""
"null","<span style='color:red; font-size: 70px;'>错误! </span>","null","html-keyboard-response","127","278344","0.0-8.0-0.0-4.0-0.0-1.9","5","4","4","4","4","4","3","4","4","4","4","-1","0","1","-2","-2","0","0","0","4","4","5","4","3","3","3","3","4","4","4","6","6","7","8","5","7","8","7","5","4","2","6","4","3","3","3","4","2","2","3","4","3","2","4","4","3","2","2","2","2","2","3","3","5","2","4","2","5","2","4","4","3","3","2","3","3","3","2","767710612724912129","任","666","Female","[""坏她"",""好我"",""坏我"",""好她""]","[""弱她"",""强我"",""弱我"",""强她""]","","","","","","","","","","","","","","","","","","","","","","","","","","","","","","feedback_test","","","","","","","",""
"708","","j","psychophysics","128","280056","0.0-8.0-0.0-4.0-0.0-0.10","5","4","4","4","4","4","3","4","4","4","4","-1","0","1","-2","-2","0","0","0","4","4","5","4","3","3","3","3","4","4","4","6","6","7","8","5","7","8","7","5","4","2","6","4","3","3","3","4","2","2","3","4","3","2","4","4","3","2","2","2","2","2","3","3","5","2","4","2","5","2","4","4","3","3","2","3","3","3","2","767710612724912129","任","666","Female","[""坏她"",""好我"",""坏我"",""好她""]","[""弱她"",""强我"",""弱我"",""强她""]","","","","","","","","nonmatch","","","","","","","","","","key","j","16.673267326732674","840","521","j","true","nonmatch","img/circle.png","好她","好我","ALT2","moral","","","","","","","",""
"null","<span style='color:GreenYellow; font-size: 70px;'>正确! </span>","null","html-keyboard-response","129","280560","0.0-8.0-0.0-4.0-0.0-1.10","5","4","4","4","4","4","3","4","4","4","4","-1","0","1","-2","-2","0","0","0","4","4","5","4","3","3","3","3","4","4","4","6","6","7","8","5","7","8","7","5","4","2","6","4","3","3","3","4","2","2","3","4","3","2","4","4","3","2","2","2","2","2","3","3","5","2","4","2","5","2","4","4","3","3","2","3","3","3","2","767710612724912129","任","666","Female","[""坏她"",""好我"",""坏我"",""好她""]","[""弱她"",""强我"",""弱我"",""强她""]","","","","","","","","","","","","","","","","","","","","","","","","","","","","","","feedback_test","","","","","","","",""
"706","","j","psychophysics","130","282269","0.0-8.0-0.0-4.0-0.0-0.11","5","4","4","4","4","4","3","4","4","4","4","-1","0","1","-2","-2","0","0","0","4","4","5","4","3","3","3","3","4","4","4","6","6","7","8","5","7","8","7","5","4","2","6","4","3","3","3","4","2","2","3","4","3","2","4","4","3","2","2","2","2","2","3","3","5","2","4","2","5","2","4","4","3","3","2","3","3","3","2","767710612724912129","任","666","Female","[""坏她"",""好我"",""坏我"",""好她""]","[""弱她"",""强我"",""弱我"",""强她""]","","","","","","","","nonmatch","","","","","","","","","","key","j","16.663366336633665","840","521","j","true","nonmatch","img/trapezoid.png","好我","好她","ALT2","moral","","","","","","","",""
"null","<span style='color:GreenYellow; font-size: 70px;'>正确! </span>","null","html-keyboard-response","131","282772","0.0-8.0-0.0-4.0-0.0-1.11","5","4","4","4","4","4","3","4","4","4","4","-1","0","1","-2","-2","0","0","0","4","4","5","4","3","3","3","3","4","4","4","6","6","7","8","5","7","8","7","5","4","2","6","4","3","3","3","4","2","2","3","4","3","2","4","4","3","2","2","2","2","2","3","3","5","2","4","2","5","2","4","4","3","3","2","3","3","3","2","767710612724912129","任","666","Female","[""坏她"",""好我"",""坏我"",""好她""]","[""弱她"",""强我"",""弱我"",""强她""]","","","","","","","","","","","","","","","","","","","","","","","","","","","","","","feedback_test","","","","","","","",""
"793","","j","psychophysics","132","284569","0.0-8.0-0.0-4.0-0.0-0.12","5","4","4","4","4","4","3","4","4","4","4","-1","0","1","-2","-2","0","0","0","4","4","5","4","3","3","3","3","4","4","4","6","6","7","8","5","7","8","7","5","4","2","6","4","3","3","3","4","2","2","3","4","3","2","4","4","3","2","2","2","2","2","3","3","5","2","4","2","5","2","4","4","3","3","2","3","3","3","2","767710612724912129","任","666","Female","[""坏她"",""好我"",""坏我"",""好她""]","[""弱她"",""强我"",""弱我"",""强她""]","","","","","","","","nonmatch","","","","","","","","","","key","j","16.660377358490567","840","521","f","false","match","img/hexagon.png","坏我","坏我","ALT2","moral","","","","","","","",""
"null","<span style='color:red; font-size: 70px;'>错误! </span>","null","html-keyboard-response","133","285073","0.0-8.0-0.0-4.0-0.0-1.12","5","4","4","4","4","4","3","4","4","4","4","-1","0","1","-2","-2","0","0","0","4","4","5","4","3","3","3","3","4","4","4","6","6","7","8","5","7","8","7","5","4","2","6","4","3","3","3","4","2","2","3","4","3","2","4","4","3","2","2","2","2","2","3","3","5","2","4","2","5","2","4","4","3","3","2","3","3","3","2","767710612724912129","任","666","Female","[""坏她"",""好我"",""坏我"",""好她""]","[""弱她"",""强我"",""弱我"",""强她""]","","","","","","","","","","","","","","","","","","","","","","","","","","","","","","feedback_test","","","","","","","",""
"618","","j","psychophysics","134","286694","0.0-8.0-0.0-4.0-0.0-0.13","5","4","4","4","4","4","3","4","4","4","4","-1","0","1","-2","-2","0","0","0","4","4","5","4","3","3","3","3","4","4","4","6","6","7","8","5","7","8","7","5","4","2","6","4","3","3","3","4","2","2","3","4","3","2","4","4","3","2","2","2","2","2","3","3","5","2","4","2","5","2","4","4","3","3","2","3","3","3","2","767710612724912129","任","666","Female","[""坏她"",""好我"",""坏我"",""好她""]","[""弱她"",""强我"",""弱我"",""强她""]","","","","","","","","nonmatch","","","","","","","","","","key","j","16.666666666666668","840","521","j","true","nonmatch","img/circle.png","坏我","好我","ALT2","moral","","","","","","","",""
"null","<span style='color:GreenYellow; font-size: 70px;'>正确! </span>","null","html-keyboard-response","135","287197","0.0-8.0-0.0-4.0-0.0-1.13","5","4","4","4","4","4","3","4","4","4","4","-1","0","1","-2","-2","0","0","0","4","4","5","4","3","3","3","3","4","4","4","6","6","7","8","5","7","8","7","5","4","2","6","4","3","3","3","4","2","2","3","4","3","2","4","4","3","2","2","2","2","2","3","3","5","2","4","2","5","2","4","4","3","3","2","3","3","3","2","767710612724912129","任","666","Female","[""坏她"",""好我"",""坏我"",""好她""]","[""弱她"",""强我"",""弱我"",""强她""]","","","","","","","","","","","","","","","","","","","","","","","","","","","","","","feedback_test","","","","","","","",""
"659","","f","psychophysics","136","288861","0.0-8.0-0.0-4.0-0.0-0.14","5","4","4","4","4","4","3","4","4","4","4","-1","0","1","-2","-2","0","0","0","4","4","5","4","3","3","3","3","4","4","4","6","6","7","8","5","7","8","7","5","4","2","6","4","3","3","3","4","2","2","3","4","3","2","4","4","3","2","2","2","2","2","3","3","5","2","4","2","5","2","4","4","3","3","2","3","3","3","2","767710612724912129","任","666","Female","[""坏她"",""好我"",""坏我"",""好她""]","[""弱她"",""强我"",""弱我"",""强她""]","","","","","","","","match","","","","","","","","","","key","f","16.663265306122447","840","521","f","true","match","img/hexagon.png","坏我","坏我","ALT2","moral","","","","","","","",""
"null","<span style='color:GreenYellow; font-size: 70px;'>正确! </span>","null","html-keyboard-response","137","289364","0.0-8.0-0.0-4.0-0.0-1.14","5","4","4","4","4","4","3","4","4","4","4","-1","0","1","-2","-2","0","0","0","4","4","5","4","3","3","3","3","4","4","4","6","6","7","8","5","7","8","7","5","4","2","6","4","3","3","3","4","2","2","3","4","3","2","4","4","3","2","2","2","2","2","3","3","5","2","4","2","5","2","4","4","3","3","2","3","3","3","2","767710612724912129","任","666","Female","[""坏她"",""好我"",""坏我"",""好她""]","[""弱她"",""强我"",""弱我"",""强她""]","","","","","","","","","","","","","","","","","","","","","","","","","","","","","","feedback_test","","","","","","","",""
"564","","f","psychophysics","138","290932","0.0-8.0-0.0-4.0-0.0-0.15","5","4","4","4","4","4","3","4","4","4","4","-1","0","1","-2","-2","0","0","0","4","4","5","4","3","3","3","3","4","4","4","6","6","7","8","5","7","8","7","5","4","2","6","4","3","3","3","4","2","2","3","4","3","2","4","4","3","2","2","2","2","2","3","3","5","2","4","2","5","2","4","4","3","3","2","3","3","3","2","767710612724912129","任","666","Female","[""坏她"",""好我"",""坏我"",""好她""]","[""弱她"",""强我"",""弱我"",""强她""]","","","","","","","","match","","","","","","","","","","key","f","16.66304347826087","840","521","f","true","match","img/circle.png","好我","好我","ALT2","moral","","","","","","","",""
"null","<span style='color:GreenYellow; font-size: 70px;'>正确! </span>","null","html-keyboard-response","139","291436","0.0-8.0-0.0-4.0-0.0-1.15","5","4","4","4","4","4","3","4","4","4","4","-1","0","1","-2","-2","0","0","0","4","4","5","4","3","3","3","3","4","4","4","6","6","7","8","5","7","8","7","5","4","2","6","4","3","3","3","4","2","2","3","4","3","2","4","4","3","2","2","2","2","2","3","3","5","2","4","2","5","2","4","4","3","3","2","3","3","3","2","767710612724912129","任","666","Female","[""坏她"",""好我"",""坏我"",""好她""]","[""弱她"",""强我"",""弱我"",""强她""]","","","","","","","","","","","","","","","","","","","","","","","","","","","","","","feedback_test","","","","","","","",""
