"rt","stimulus","response","trial_type","trial_index","time_elapsed","internal_node_id","swb_1","swb_2","swb_3","swb_4","swb_5","LOT_1","LOT_2","LOT_3","LOT_4","LOT_5","LOT_6","IPC_1","IPC_2","IPC_3","IPC_4","IPC_5","IPC_6","IPC_7","IPC_8","MorIden_1","MorIden_2","MorIden_3","MorIden_4","MorIden_5","MorIden_6","MorIden_7","MorIden_8","MorIden_9","MorIden_10","moralSeImag_1","moralSeImag_2","moralSeImag_3","moralSeImag_4","moralSeImag_5","moralSeImag_6","moralSeImag_7","moralSeImag_8","moralSeImag_9","sde_1","sde_2","sde_3","sde_4","sde_5","sde_6","sde_7","sde_8","sde_9","sde_10","trap2","sde_11","sde_12","sde_13","sde_14","sde_15","sde_16","sde_17","sde_18","sde_19","sde_20","IM_1","IM_2","IM_3","IM_4","IM_5","IM_6","IM_7","IM_8","IM_9","IM_10","IM_11","IM_12","IM_13","IM_14","IM_15","IM_16","IM_17","IM_18","IM_19","IM_20","subj_idx","friend_name","ParticipantID","Sex","Word","Word2","value","success","timeout","failed_images","failed_audio","failed_video","user_agent","responses","item_order","radio_event_ids","radio_event_times","key_event_times","mouse_event_times","straightlining","zigzagging","honeypot","task_id","screen_id","time_stamp","response_type","key_press","avg_frame_time","center_x","center_y","person","word","valence","domain","math","correct_response","correct","status","view_history","identity","duration","Image","condition","question_order","trap2_item"
"54640","
   <p><div style='color:white; font-size: 25px'>您好，欢迎参加本次实验。</div></p>
   <p><div style='color:white; font-size: 25px'>为充分保障您的权利，请确保您已经知晓并同意《参与实验同意书》以及《数据公开知情同意书》。</div></p>
   <p><div style='color:white; font-size: 25px'>如果您未见过上述内容，请咨询实验员。</div></p>
   <p style='color:white; font-size: 25px'>如果您选择继续实验，则表示您已经清楚两份知情同意书的内容并同意。</p>
   <p><div style = ""color: pink;font-size:30px;"">请确保您记得day0的实验编号，您将在本次实验输入该编号，若您忘记，请咨询实验员后作答。</div></p>
   <p><div style = ""color:lightblue;font-size:25px;"">请您尽可能认真地作答，我们将依据您在各问卷和按键任务中的作答质量发放报酬。</div></p>
   <p> <div style = ""color: green""><按空格键至下页></div> </p>
   "," ","html-keyboard-response","0","54641","0.0-0.0","4","5","5","3","2","4","2","3","4","4","4","-1","1","0","-2","-3","0","1","1","4","3","5","4","3","3","3","2","4","3","6","6","4","5","4","4","6","7","6","4","5","5","3","3","3","4","1","3","2","1","2","3","4","3","2","4","2","6","4","2","2","3","3","3","3","4","3","5","3","7","6","3","6","3","4","4","5","5","1","3","796359969116135425","李","654","Male","[""坏我"",""好我"",""好他"",""坏他""]","[""弱我"",""强我"",""强他"",""弱他""]","","","","","","","","","","","","","","","","","","","","","","","","","","","","","","","","","","","","","","",""
"","","","call-function","1","54643","0.0-1.0-0.0","4","5","5","3","2","4","2","3","4","4","4","-1","1","0","-2","-3","0","1","1","4","3","5","4","3","3","3","2","4","3","6","6","4","5","4","4","6","7","6","4","5","5","3","3","3","4","1","3","2","1","2","3","4","3","2","4","2","6","4","2","2","3","3","3","3","4","3","5","3","7","6","3","6","3","4","4","5","5","1","3","796359969116135425","李","654","Male","[""坏我"",""好我"",""好他"",""坏他""]","[""弱我"",""强我"",""强他"",""弱他""]","","","","","","","","","","","","","","","","","","","","","","","","","","","","","","","","","","","","","","",""
"25721","","[{""name"":""Sex"",""value"":""0""},{""name"":""friend_name"",""value"":""李""},{""name"":""ParticipantID"",""value"":""654""}]","survey-html-form","2","80364","0.0-1.0-1.0","4","5","5","3","2","4","2","3","4","4","4","-1","1","0","-2","-3","0","1","1","4","3","5","4","3","3","3","2","4","3","6","6","4","5","4","4","6","7","6","4","5","5","3","3","3","4","1","3","2","1","2","3","4","3","2","4","2","6","4","2","2","3","3","3","3","4","3","5","3","7","6","3","6","3","4","4","5","5","1","3","796359969116135425","李","654","Male","[""坏我"",""好我"",""好他"",""坏他""]","[""弱我"",""强我"",""强他"",""弱他""]","","","","","","","","","","","","","","","","","","","","","","","","","","","","","","","","","","","","","","",""
"","","","preload","3","80760","0.0-2.0","4","5","5","3","2","4","2","3","4","4","4","-1","1","0","-2","-3","0","1","1","4","3","5","4","3","3","3","2","4","3","6","6","4","5","4","4","6","7","6","4","5","5","3","3","3","4","1","3","2","1","2","3","4","3","2","4","2","6","4","2","2","3","3","3","3","4","3","5","3","7","6","3","6","3","4","4","5","5","1","3","796359969116135425","李","654","Male","[""坏我"",""好我"",""好他"",""坏他""]","[""弱我"",""强我"",""强他"",""弱他""]","","true","false","[]","[]","[]","","","","","","","","","","","","","","","","","","","","","","","","","","","","","","","","",""
"","","","fullscreen","4","95129","0.0-3.0","4","5","5","3","2","4","2","3","4","4","4","-1","1","0","-2","-3","0","1","1","4","3","5","4","3","3","3","2","4","3","6","6","4","5","4","4","6","7","6","4","5","5","3","3","3","4","1","3","2","1","2","3","4","3","2","4","2","6","4","2","2","3","3","3","3","4","3","5","3","7","6","3","6","3","4","4","5","5","1","3","796359969116135425","李","654","Male","[""坏我"",""好我"",""好他"",""坏他""]","[""弱我"",""强我"",""强他"",""弱他""]","","true","","","","","{}","","","","","","","","","","","","","","","","","","","","","","","","","","","","","","","",""
"42831.89999997616","","{""Q01"":""4"",""Q02"":""5"",""Q03"":""5"",""Q04"":""3"",""Q05"":""2""}","survey-template","5","137964","0.0-4.0","4","5","5","3","2","4","2","3","4","4","4","-1","1","0","-2","-3","0","1","1","4","3","5","4","3","3","3","2","4","3","6","6","4","5","4","4","6","7","6","4","5","5","3","3","3","4","1","3","2","1","2","3","4","3","2","4","2","6","4","2","2","3","3","3","3","4","3","5","3","7","6","3","6","3","4","4","5","5","1","3","796359969116135425","李","654","Male","[""坏我"",""好我"",""好他"",""坏他""]","[""弱我"",""强我"",""强他"",""弱他""]","","","","","","","","{""Q01"":""4"",""Q02"":""5"",""Q03"":""5"",""Q04"":""3"",""Q05"":""2""}","[0,1,2,3,4]","[""Q01"",""Q02"",""Q05"",""Q04"",""Q03"",""Q02"",""Q04"",""Q05""]","[4618.5,5579.299999952316,14298.299999952316,15593.199999928474,17712.199999928474,22173.199999928474,30372.299999952316,33740.199999928474]","[]","[4618.5,5579.299999952316,14298.299999952316,15593.199999928474,17712.199999928474,22173.199999928474,30372.299999952316,33740.199999928474,42831.39999997616]","0.4","0.5","0","","","","","","","","","","","","","","","","","","","","","","",""
"39259.700000047684","","{""Q01"":""4"",""Q02"":""2"",""Q03"":""3"",""Q04"":""4"",""Q05"":""4"",""Q06"":""4""}","survey-template","6","177225","0.0-5.0","4","5","5","3","2","4","2","3","4","4","4","-1","1","0","-2","-3","0","1","1","4","3","5","4","3","3","3","2","4","3","6","6","4","5","4","4","6","7","6","4","5","5","3","3","3","4","1","3","2","1","2","3","4","3","2","4","2","6","4","2","2","3","3","3","3","4","3","5","3","7","6","3","6","3","4","4","5","5","1","3","796359969116135425","李","654","Male","[""坏我"",""好我"",""好他"",""坏他""]","[""弱我"",""强我"",""强他"",""弱他""]","","","","","","","","{""Q01"":""4"",""Q02"":""2"",""Q03"":""3"",""Q04"":""4"",""Q05"":""4"",""Q06"":""4""}","[0,1,2,3,4,5]","[""Q01"",""Q02"",""Q03"",""Q04"",""Q05"",""Q06""]","[8725.600000023842,24185.700000047684,26724.600000023842,31053.5,32994.5,36090.5]","[]","[2359.100000023842,8725.600000023842,24185.700000047684,26724.600000023842,31053.5,32994.5,36090.5,39259.39999997616]","0.5","0.4","0","","","","","","","","","","","","","","","","","","","","","","",""
"59198.299999952316","","{""Q01"":""-1"",""Q02"":""1"",""Q03"":""0"",""Q04"":""-2"",""Q05"":""-3"",""Q06"":""0"",""Q07"":""1"",""Q08"":""1""}","survey-template","7","236427","0.0-6.0","4","5","5","3","2","4","2","3","4","4","4","-1","1","0","-2","-3","0","1","1","4","3","5","4","3","3","3","2","4","3","6","6","4","5","4","4","6","7","6","4","5","5","3","3","3","4","1","3","2","1","2","3","4","3","2","4","2","6","4","2","2","3","3","3","3","4","3","5","3","7","6","3","6","3","4","4","5","5","1","3","796359969116135425","李","654","Male","[""坏我"",""好我"",""好他"",""坏他""]","[""弱我"",""强我"",""强他"",""弱他""]","","","","","","","","{""Q01"":""-1"",""Q02"":""1"",""Q03"":""0"",""Q04"":""-2"",""Q05"":""-3"",""Q06"":""0"",""Q07"":""1"",""Q08"":""1""}","[0,1,2,3,4,5,6,7]","[""Q01"",""Q02"",""Q03"",""Q04"",""Q05"",""Q06"",""Q07"",""Q08"",""Q07"",""Q02""]","[3317.2999999523163,6962.299999952316,13520.5,25483.299999952316,37130.10000002384,40091.299999952316,44976.5,49066.199999928474,53189.39999997616,57543.39999997616]","[]","[3317.2999999523163,6226.399999976158,6962.299999952316,12798.600000023842,13520.5,25483.299999952316,35836.5,37130.10000002384,40091.299999952316,44976.5,49066.199999928474,53189.39999997616,57543.39999997616,59197.60000002384]","0.375","0.42857142857142855","0","","","","","","","","","","","","","","","","","","","","","","",""
"18389","
    <p><div style='color:white;font-size:35px; line-height:20px;'>词汇评估任务</div></p><br>
    <p><div style='color:white;font-size:25px; line-height:20px;'>请再次回忆该亲密的朋友，你们至少2年前就认识了，并且最近2年经常见面。</div></p>
    <p><div style='color:white;font-size:25px; line-height:20px;'>在本实验中，您将会看到一些形容词。</div></p>
    <p><div style='color:yellow;font-size:25px; line-height:20px;'>您的任务是判断这些形容词是否符合对您自己或您的朋友的描述。</div></p><p style='font-size:35px'>符合按<span style=""color:lightgreen""> f 键</span>，不符合按<span style=""color:red""> j 键</span></p>","0","html-button-response","8","254819","0.0-7.0-0.0","4","5","5","3","2","4","2","3","4","4","4","-1","1","0","-2","-3","0","1","1","4","3","5","4","3","3","3","2","4","3","6","6","4","5","4","4","6","7","6","4","5","5","3","3","3","4","1","3","2","1","2","3","4","3","2","4","2","6","4","2","2","3","3","3","3","4","3","5","3","7","6","3","6","3","4","4","5","5","1","3","796359969116135425","李","654","Male","[""坏我"",""好我"",""好他"",""坏他""]","[""弱我"",""强我"",""强他"",""弱他""]","","","","","","","","","","","","","","","","","SRET_EW","EW_instructions","Thu Feb 01 2024 11:20:44 GMT+0800 (中国标准时间)","","","","","","","","","","","","","","","","","","","",""
"1847","","f","psychophysics","9","257668","0.0-7.0-1.0-0.0","4","5","5","3","2","4","2","3","4","4","4","-1","1","0","-2","-3","0","1","1","4","3","5","4","3","3","3","2","4","3","6","6","4","5","4","4","6","7","6","4","5","5","3","3","3","4","1","3","2","1","2","3","4","3","2","4","2","6","4","2","2","3","3","3","3","4","3","5","3","7","6","3","6","3","4","4","5","5","1","3","796359969116135425","李","654","Male","[""坏我"",""好我"",""好他"",""坏他""]","[""弱我"",""强我"",""强他"",""弱他""]","","","","","","","","yes","","","","","","","","","SRET_EW","EW_practice","","key","f","8.333333333333334","853.3333333333334","529.3333333333334","自己","刻板","Negative","ability","","","","","","","","","","",""
"866","","f","psychophysics","10","259535","0.0-7.0-1.0-0.1","4","5","5","3","2","4","2","3","4","4","4","-1","1","0","-2","-3","0","1","1","4","3","5","4","3","3","3","2","4","3","6","6","4","5","4","4","6","7","6","4","5","5","3","3","3","4","1","3","2","1","2","3","4","3","2","4","2","6","4","2","2","3","3","3","3","4","3","5","3","7","6","3","6","3","4","4","5","5","1","3","796359969116135425","李","654","Male","[""坏我"",""好我"",""好他"",""坏他""]","[""弱我"",""强我"",""强他"",""弱他""]","","","","","","","","yes","","","","","","","","","SRET_EW","EW_practice","","key","f","8.33363228699549","853.3333333333334","529.3333333333334","朋友","忠实","Positive","morality","","","","","","","","","","",""
"1075","","j","psychophysics","11","261611","0.0-7.0-1.0-0.2","4","5","5","3","2","4","2","3","4","4","4","-1","1","0","-2","-3","0","1","1","4","3","5","4","3","3","3","2","4","3","6","6","4","5","4","4","6","7","6","4","5","5","3","3","3","4","1","3","2","1","2","3","4","3","2","4","2","6","4","2","2","3","3","3","3","4","3","5","3","7","6","3","6","3","4","4","5","5","1","3","796359969116135425","李","654","Male","[""坏我"",""好我"",""好他"",""坏他""]","[""弱我"",""强我"",""强他"",""弱他""]","","","","","","","","no","","","","","","","","","SRET_EW","EW_practice","","key","j","8.333064516129056","853.3333333333334","529.3333333333334","朋友","徇私","Negative","morality","","","","","","","","","","",""
"1045","","f","psychophysics","12","263657","0.0-7.0-1.0-0.3","4","5","5","3","2","4","2","3","4","4","4","-1","1","0","-2","-3","0","1","1","4","3","5","4","3","3","3","2","4","3","6","6","4","5","4","4","6","7","6","4","5","5","3","3","3","4","1","3","2","1","2","3","4","3","2","4","2","6","4","2","2","3","3","3","3","4","3","5","3","7","6","3","6","3","4","4","5","5","1","3","796359969116135425","李","654","Male","[""坏我"",""好我"",""好他"",""坏他""]","[""弱我"",""强我"",""强他"",""弱他""]","","","","","","","","yes","","","","","","","","","SRET_EW","EW_practice","","key","f","8.33346938775515","853.3333333333334","529.3333333333334","自己","严谨","Positive","ability","","","","","","","","","","",""
"11499","
    <p><div style='color:white;font-size:35px; line-height:20px;'>请您再次阅读实验要求</div></p><br>
    <p><div style='color:white;font-size:25px; line-height:20px;'>请回忆某一个亲密的朋友，你们至少2年前就认识了，并且最近2年经常见面。</div></p>
    <p><div style='color:white;font-size:25px; line-height:20px;'>在本实验中，您将会看到一些形容词。</div></p>
    <p><div style='color:yellow;font-size:25px; line-height:20px;'>您的任务是判断这些形容词是否符合对您自己或您的朋友的描述。</div></p>
    <p><div class='footer' style='font-size:25px; line-height:20px;'>如果对本实验还有不清楚之处，请立即向实验员咨询。</p><p style='font-size:25px; line-height:20px;'>如果您明白了规则：</p><p style='font-size:22px; line-height:20px;'>请按 继续 进入正式实验</p>
    </div>
    <p style='font-size:35px'>符合按<span style=""color:lightgreen""> f 键</span>，不符合按<span style=""color:red""> j 键</span></p>","0","html-button-response","13","275157","0.0-7.0-2.0","4","5","5","3","2","4","2","3","4","4","4","-1","1","0","-2","-3","0","1","1","4","3","5","4","3","3","3","2","4","3","6","6","4","5","4","4","6","7","6","4","5","5","3","3","3","4","1","3","2","1","2","3","4","3","2","4","2","6","4","2","2","3","3","3","3","4","3","5","3","7","6","3","6","3","4","4","5","5","1","3","796359969116135425","李","654","Male","[""坏我"",""好我"",""好他"",""坏他""]","[""弱我"",""强我"",""强他"",""弱他""]","","","","","","","","","","","","","","","","","SRET_EW","prac_instructions","Thu Feb 01 2024 11:20:44 GMT+0800 (中国标准时间)","","","","","","","","","","","","","","","","","","","",""
"983","","j","psychophysics","14","277142","0.0-7.0-3.0-0.0","4","5","5","3","2","4","2","3","4","4","4","-1","1","0","-2","-3","0","1","1","4","3","5","4","3","3","3","2","4","3","6","6","4","5","4","4","6","7","6","4","5","5","3","3","3","4","1","3","2","1","2","3","4","3","2","4","2","6","4","2","2","3","3","3","3","4","3","5","3","7","6","3","6","3","4","4","5","5","1","3","796359969116135425","李","654","Male","[""坏我"",""好我"",""好他"",""坏他""]","[""弱我"",""强我"",""强他"",""弱他""]","","","","","","","","no","","","","","","","","","SRET","EW_formal","","key","j","8.332529411764675","853.3333333333334","529.3333333333334","自己","说谎","Negative","morality","","","","","","","","","","",""
"760","","f","psychophysics","15","278903","0.0-7.0-3.0-0.1","4","5","5","3","2","4","2","3","4","4","4","-1","1","0","-2","-3","0","1","1","4","3","5","4","3","3","3","2","4","3","6","6","4","5","4","4","6","7","6","4","5","5","3","3","3","4","1","3","2","1","2","3","4","3","2","4","2","6","4","2","2","3","3","3","3","4","3","5","3","7","6","3","6","3","4","4","5","5","1","3","796359969116135425","李","654","Male","[""坏我"",""好我"",""好他"",""坏他""]","[""弱我"",""强我"",""强他"",""弱他""]","","","","","","","","yes","","","","","","","","","SRET","EW_formal","","key","f","8.332857142856977","853.3333333333334","529.3333333333334","朋友","务实","Positive","ability","","","","","","","","","","",""
"743","","f","psychophysics","16","280647","0.0-7.0-3.0-0.2","4","5","5","3","2","4","2","3","4","4","4","-1","1","0","-2","-3","0","1","1","4","3","5","4","3","3","3","2","4","3","6","6","4","5","4","4","6","7","6","4","5","5","3","3","3","4","1","3","2","1","2","3","4","3","2","4","2","6","4","2","2","3","3","3","3","4","3","5","3","7","6","3","6","3","4","4","5","5","1","3","796359969116135425","李","654","Male","[""坏我"",""好我"",""好他"",""坏他""]","[""弱我"",""强我"",""强他"",""弱他""]","","","","","","","","yes","","","","","","","","","SRET","EW_formal","","key","f","8.333173076923021","853.3333333333334","529.3333333333334","自己","坚贞","Positive","morality","","","","","","","","","","",""
"1218","","f","psychophysics","17","282866","0.0-7.0-3.0-0.3","4","5","5","3","2","4","2","3","4","4","4","-1","1","0","-2","-3","0","1","1","4","3","5","4","3","3","3","2","4","3","6","6","4","5","4","4","6","7","6","4","5","5","3","3","3","4","1","3","2","1","2","3","4","3","2","4","2","6","4","2","2","3","3","3","3","4","3","5","3","7","6","3","6","3","4","4","5","5","1","3","796359969116135425","李","654","Male","[""坏我"",""好我"",""好他"",""坏他""]","[""弱我"",""强我"",""强他"",""弱他""]","","","","","","","","yes","","","","","","","","","SRET","EW_formal","","key","f","8.33308270676705","853.3333333333334","529.3333333333334","朋友","迷糊","Negative","ability","","","","","","","","","","",""
"967","","j","psychophysics","18","284834","0.0-7.0-3.0-0.4","4","5","5","3","2","4","2","3","4","4","4","-1","1","0","-2","-3","0","1","1","4","3","5","4","3","3","3","2","4","3","6","6","4","5","4","4","6","7","6","4","5","5","3","3","3","4","1","3","2","1","2","3","4","3","2","4","2","6","4","2","2","3","3","3","3","4","3","5","3","7","6","3","6","3","4","4","5","5","1","3","796359969116135425","李","654","Male","[""坏我"",""好我"",""好他"",""坏他""]","[""弱我"",""强我"",""强他"",""弱他""]","","","","","","","","no","","","","","","","","","SRET","EW_formal","","key","j","8.332340425532063","853.3333333333334","529.3333333333334","朋友","逞强","Negative","ability","","","","","","","","","","",""
"775","","f","psychophysics","19","286610","0.0-7.0-3.0-0.5","4","5","5","3","2","4","2","3","4","4","4","-1","1","0","-2","-3","0","1","1","4","3","5","4","3","3","3","2","4","3","6","6","4","5","4","4","6","7","6","4","5","5","3","3","3","4","1","3","2","1","2","3","4","3","2","4","2","6","4","2","2","3","3","3","3","4","3","5","3","7","6","3","6","3","4","4","5","5","1","3","796359969116135425","李","654","Male","[""坏我"",""好我"",""好他"",""坏他""]","[""弱我"",""强我"",""强他"",""弱他""]","","","","","","","","yes","","","","","","","","","SRET","EW_formal","","key","f","8.33254716981132","853.3333333333334","529.3333333333334","自己","善良","Positive","morality","","","","","","","","","","",""
"867","","f","psychophysics","20","288478","0.0-7.0-3.0-0.6","4","5","5","3","2","4","2","3","4","4","4","-1","1","0","-2","-3","0","1","1","4","3","5","4","3","3","3","2","4","3","6","6","4","5","4","4","6","7","6","4","5","5","3","3","3","4","1","3","2","1","2","3","4","3","2","4","2","6","4","2","2","3","3","3","3","4","3","5","3","7","6","3","6","3","4","4","5","5","1","3","796359969116135425","李","654","Male","[""坏我"",""好我"",""好他"",""坏他""]","[""弱我"",""强我"",""强他"",""弱他""]","","","","","","","","yes","","","","","","","","","SRET","EW_formal","","key","f","8.332735426009021","853.3333333333334","529.3333333333334","朋友","热心","Positive","morality","","","","","","","","","","",""
"791","","f","psychophysics","21","290269","0.0-7.0-3.0-0.7","4","5","5","3","2","4","2","3","4","4","4","-1","1","0","-2","-3","0","1","1","4","3","5","4","3","3","3","2","4","3","6","6","4","5","4","4","6","7","6","4","5","5","3","3","3","4","1","3","2","1","2","3","4","3","2","4","2","6","4","2","2","3","3","3","3","4","3","5","3","7","6","3","6","3","4","4","5","5","1","3","796359969116135425","李","654","Male","[""坏我"",""好我"",""好他"",""坏他""]","[""弱我"",""强我"",""强他"",""弱他""]","","","","","","","","yes","","","","","","","","","SRET","EW_formal","","key","f","8.332710280373886","853.3333333333334","529.3333333333334","自己","敬业","Positive","morality","","","","","","","","","","",""
"655","","j","psychophysics","22","291926","0.0-7.0-3.0-0.8","4","5","5","3","2","4","2","3","4","4","4","-1","1","0","-2","-3","0","1","1","4","3","5","4","3","3","3","2","4","3","6","6","4","5","4","4","6","7","6","4","5","5","3","3","3","4","1","3","2","1","2","3","4","3","2","4","2","6","4","2","2","3","3","3","3","4","3","5","3","7","6","3","6","3","4","4","5","5","1","3","796359969116135425","李","654","Male","[""坏我"",""好我"",""好他"",""坏他""]","[""弱我"",""强我"",""强他"",""弱他""]","","","","","","","","no","","","","","","","","","SRET","EW_formal","","key","j","8.333333333333334","853.3333333333334","529.3333333333334","自己","下流","Negative","morality","","","","","","","","","","",""
"708","","f","psychophysics","23","293635","0.0-7.0-3.0-0.9","4","5","5","3","2","4","2","3","4","4","4","-1","1","0","-2","-3","0","1","1","4","3","5","4","3","3","3","2","4","3","6","6","4","5","4","4","6","7","6","4","5","5","3","3","3","4","1","3","2","1","2","3","4","3","2","4","2","6","4","2","2","3","3","3","3","4","3","5","3","7","6","3","6","3","4","4","5","5","1","3","796359969116135425","李","654","Male","[""坏我"",""好我"",""好他"",""坏他""]","[""弱我"",""强我"",""强他"",""弱他""]","","","","","","","","yes","","","","","","","","","SRET","EW_formal","","key","f","8.333333333333334","853.3333333333334","529.3333333333334","朋友","廉明","Positive","morality","","","","","","","","","","",""
"877","","f","psychophysics","24","295513","0.0-7.0-3.0-0.10","4","5","5","3","2","4","2","3","4","4","4","-1","1","0","-2","-3","0","1","1","4","3","5","4","3","3","3","2","4","3","6","6","4","5","4","4","6","7","6","4","5","5","3","3","3","4","1","3","2","1","2","3","4","3","2","4","2","6","4","2","2","3","3","3","3","4","3","5","3","7","6","3","6","3","4","4","5","5","1","3","796359969116135425","李","654","Male","[""坏我"",""好我"",""好他"",""坏他""]","[""弱我"",""强我"",""强他"",""弱他""]","","","","","","","","yes","","","","","","","","","SRET","EW_formal","","key","f","8.333482142857195","853.3333333333334","529.3333333333334","朋友","势利","Negative","morality","","","","","","","","","","",""
"948","","f","psychophysics","25","297461","0.0-7.0-3.0-0.11","4","5","5","3","2","4","2","3","4","4","4","-1","1","0","-2","-3","0","1","1","4","3","5","4","3","3","3","2","4","3","6","6","4","5","4","4","6","7","6","4","5","5","3","3","3","4","1","3","2","1","2","3","4","3","2","4","2","6","4","2","2","3","3","3","3","4","3","5","3","7","6","3","6","3","4","4","5","5","1","3","796359969116135425","李","654","Male","[""坏我"",""好我"",""好他"",""坏他""]","[""弱我"",""强我"",""强他"",""弱他""]","","","","","","","","yes","","","","","","","","","SRET","EW_formal","","key","f","8.333047210300329","853.3333333333334","529.3333333333334","朋友","守时","Positive","morality","","","","","","","","","","",""
"685","","f","psychophysics","26","299147","0.0-7.0-3.0-0.12","4","5","5","3","2","4","2","3","4","4","4","-1","1","0","-2","-3","0","1","1","4","3","5","4","3","3","3","2","4","3","6","6","4","5","4","4","6","7","6","4","5","5","3","3","3","4","1","3","2","1","2","3","4","3","2","4","2","6","4","2","2","3","3","3","3","4","3","5","3","7","6","3","6","3","4","4","5","5","1","3","796359969116135425","李","654","Male","[""坏我"",""好我"",""好他"",""坏他""]","[""弱我"",""强我"",""强他"",""弱他""]","","","","","","","","yes","","","","","","","","","SRET","EW_formal","","key","f","8.333830845771029","853.3333333333334","529.3333333333334","朋友","精干","Positive","ability","","","","","","","","","","",""
"801","","f","psychophysics","27","300950","0.0-7.0-3.0-0.13","4","5","5","3","2","4","2","3","4","4","4","-1","1","0","-2","-3","0","1","1","4","3","5","4","3","3","3","2","4","3","6","6","4","5","4","4","6","7","6","4","5","5","3","3","3","4","1","3","2","1","2","3","4","3","2","4","2","6","4","2","2","3","3","3","3","4","3","5","3","7","6","3","6","3","4","4","5","5","1","3","796359969116135425","李","654","Male","[""坏我"",""好我"",""好他"",""坏他""]","[""弱我"",""强我"",""强他"",""弱他""]","","","","","","","","yes","","","","","","","","","SRET","EW_formal","","key","f","8.333796296296189","853.3333333333334","529.3333333333334","朋友","诚信","Positive","morality","","","","","","","","","","",""
"855","","f","psychophysics","28","302806","0.0-7.0-3.0-0.14","4","5","5","3","2","4","2","3","4","4","4","-1","1","0","-2","-3","0","1","1","4","3","5","4","3","3","3","2","4","3","6","6","4","5","4","4","6","7","6","4","5","5","3","3","3","4","1","3","2","1","2","3","4","3","2","4","2","6","4","2","2","3","3","3","3","4","3","5","3","7","6","3","6","3","4","4","5","5","1","3","796359969116135425","李","654","Male","[""坏我"",""好我"",""好他"",""坏他""]","[""弱我"",""强我"",""强他"",""弱他""]","","","","","","","","yes","","","","","","","","","SRET","EW_formal","","key","f","8.333484162895717","853.3333333333334","529.3333333333334","朋友","独立","Positive","ability","","","","","","","","","","",""
"803","","j","psychophysics","29","304612","0.0-7.0-3.0-0.15","4","5","5","3","2","4","2","3","4","4","4","-1","1","0","-2","-3","0","1","1","4","3","5","4","3","3","3","2","4","3","6","6","4","5","4","4","6","7","6","4","5","5","3","3","3","4","1","3","2","1","2","3","4","3","2","4","2","6","4","2","2","3","3","3","3","4","3","5","3","7","6","3","6","3","4","4","5","5","1","3","796359969116135425","李","654","Male","[""坏我"",""好我"",""好他"",""坏他""]","[""弱我"",""强我"",""强他"",""弱他""]","","","","","","","","no","","","","","","","","","SRET","EW_formal","","key","j","8.333796296296457","853.3333333333334","529.3333333333334","自己","顶事","Positive","ability","","","","","","","","","","",""
"1280","","j","psychophysics","30","306893","0.0-7.0-3.0-0.16","4","5","5","3","2","4","2","3","4","4","4","-1","1","0","-2","-3","0","1","1","4","3","5","4","3","3","3","2","4","3","6","6","4","5","4","4","6","7","6","4","5","5","3","3","3","4","1","3","2","1","2","3","4","3","2","4","2","6","4","2","2","3","3","3","3","4","3","5","3","7","6","3","6","3","4","4","5","5","1","3","796359969116135425","李","654","Male","[""坏我"",""好我"",""好他"",""坏他""]","[""弱我"",""强我"",""强他"",""弱他""]","","","","","","","","no","","","","","","","","","SRET","EW_formal","","key","j","8.333333333333334","853.3333333333334","529.3333333333334","朋友","愚蠢","Negative","ability","","","","","","","","","","",""
"878","","j","psychophysics","31","308772","0.0-7.0-3.0-0.17","4","5","5","3","2","4","2","3","4","4","4","-1","1","0","-2","-3","0","1","1","4","3","5","4","3","3","3","2","4","3","6","6","4","5","4","4","6","7","6","4","5","5","3","3","3","4","1","3","2","1","2","3","4","3","2","4","2","6","4","2","2","3","3","3","3","4","3","5","3","7","6","3","6","3","4","4","5","5","1","3","796359969116135425","李","654","Male","[""坏我"",""好我"",""好他"",""坏他""]","[""弱我"",""强我"",""强他"",""弱他""]","","","","","","","","no","","","","","","","","","SRET","EW_formal","","key","j","8.33303571428587","853.3333333333334","529.3333333333334","自己","盲目","Negative","ability","","","","","","","","","","",""
"1178","","j","psychophysics","32","310951","0.0-7.0-3.0-0.18","4","5","5","3","2","4","2","3","4","4","4","-1","1","0","-2","-3","0","1","1","4","3","5","4","3","3","3","2","4","3","6","6","4","5","4","4","6","7","6","4","5","5","3","3","3","4","1","3","2","1","2","3","4","3","2","4","2","6","4","2","2","3","3","3","3","4","3","5","3","7","6","3","6","3","4","4","5","5","1","3","796359969116135425","李","654","Male","[""坏我"",""好我"",""好他"",""坏他""]","[""弱我"",""强我"",""强他"",""弱他""]","","","","","","","","no","","","","","","","","","SRET","EW_formal","","key","j","8.332950191570971","853.3333333333334","529.3333333333334","朋友","高明","Positive","ability","","","","","","","","","","",""
"946","","j","psychophysics","33","312898","0.0-7.0-3.0-0.19","4","5","5","3","2","4","2","3","4","4","4","-1","1","0","-2","-3","0","1","1","4","3","5","4","3","3","3","2","4","3","6","6","4","5","4","4","6","7","6","4","5","5","3","3","3","4","1","3","2","1","2","3","4","3","2","4","2","6","4","2","2","3","3","3","3","4","3","5","3","7","6","3","6","3","4","4","5","5","1","3","796359969116135425","李","654","Male","[""坏我"",""好我"",""好他"",""坏他""]","[""弱我"",""强我"",""强他"",""弱他""]","","","","","","","","no","","","","","","","","","SRET","EW_formal","","key","j","8.332327586206796","853.3333333333334","529.3333333333334","朋友","失信","Negative","morality","","","","","","","","","","",""
"996","","j","psychophysics","34","314896","0.0-7.0-3.0-0.20","4","5","5","3","2","4","2","3","4","4","4","-1","1","0","-2","-3","0","1","1","4","3","5","4","3","3","3","2","4","3","6","6","4","5","4","4","6","7","6","4","5","5","3","3","3","4","1","3","2","1","2","3","4","3","2","4","2","6","4","2","2","3","3","3","3","4","3","5","3","7","6","3","6","3","4","4","5","5","1","3","796359969116135425","李","654","Male","[""坏我"",""好我"",""好他"",""坏他""]","[""弱我"",""强我"",""强他"",""弱他""]","","","","","","","","no","","","","","","","","","SRET","EW_formal","","key","j","8.333472803347329","853.3333333333334","529.3333333333334","自己","贪腐","Negative","morality","","","","","","","","","","",""
"1477","","f","psychophysics","35","317374","0.0-7.0-3.0-0.21","4","5","5","3","2","4","2","3","4","4","4","-1","1","0","-2","-3","0","1","1","4","3","5","4","3","3","3","2","4","3","6","6","4","5","4","4","6","7","6","4","5","5","3","3","3","4","1","3","2","1","2","3","4","3","2","4","2","6","4","2","2","3","3","3","3","4","3","5","3","7","6","3","6","3","4","4","5","5","1","3","796359969116135425","李","654","Male","[""坏我"",""好我"",""好他"",""坏他""]","[""弱我"",""强我"",""强他"",""弱他""]","","","","","","","","yes","","","","","","","","","SRET","EW_formal","","key","f","8.333333333333334","853.3333333333334","529.3333333333334","朋友","拖拉","Negative","ability","","","","","","","","","","",""
"736","","j","psychophysics","36","319111","0.0-7.0-3.0-0.22","4","5","5","3","2","4","2","3","4","4","4","-1","1","0","-2","-3","0","1","1","4","3","5","4","3","3","3","2","4","3","6","6","4","5","4","4","6","7","6","4","5","5","3","3","3","4","1","3","2","1","2","3","4","3","2","4","2","6","4","2","2","3","3","3","3","4","3","5","3","7","6","3","6","3","4","4","5","5","1","3","796359969116135425","李","654","Male","[""坏我"",""好我"",""好他"",""坏他""]","[""弱我"",""强我"",""强他"",""弱他""]","","","","","","","","no","","","","","","","","","SRET","EW_formal","","key","j","8.332850241545724","853.3333333333334","529.3333333333334","朋友","小人","Negative","morality","","","","","","","","","","",""
"723","","j","psychophysics","37","320835","0.0-7.0-3.0-0.23","4","5","5","3","2","4","2","3","4","4","4","-1","1","0","-2","-3","0","1","1","4","3","5","4","3","3","3","2","4","3","6","6","4","5","4","4","6","7","6","4","5","5","3","3","3","4","1","3","2","1","2","3","4","3","2","4","2","6","4","2","2","3","3","3","3","4","3","5","3","7","6","3","6","3","4","4","5","5","1","3","796359969116135425","李","654","Male","[""坏我"",""好我"",""好他"",""坏他""]","[""弱我"",""强我"",""强他"",""弱他""]","","","","","","","","no","","","","","","","","","SRET","EW_formal","","key","j","8.333009708737752","853.3333333333334","529.3333333333334","自己","逞能","Negative","ability","","","","","","","","","","",""
"843","","j","psychophysics","38","322680","0.0-7.0-3.0-0.24","4","5","5","3","2","4","2","3","4","4","4","-1","1","0","-2","-3","0","1","1","4","3","5","4","3","3","3","2","4","3","6","6","4","5","4","4","6","7","6","4","5","5","3","3","3","4","1","3","2","1","2","3","4","3","2","4","2","6","4","2","2","3","3","3","3","4","3","5","3","7","6","3","6","3","4","4","5","5","1","3","796359969116135425","李","654","Male","[""坏我"",""好我"",""好他"",""坏他""]","[""弱我"",""强我"",""强他"",""弱他""]","","","","","","","","no","","","","","","","","","SRET","EW_formal","","key","j","8.333181818181766","853.3333333333334","529.3333333333334","自己","独断","Negative","ability","","","","","","","","","","",""
"966","","j","psychophysics","39","324647","0.0-7.0-3.0-0.25","4","5","5","3","2","4","2","3","4","4","4","-1","1","0","-2","-3","0","1","1","4","3","5","4","3","3","3","2","4","3","6","6","4","5","4","4","6","7","6","4","5","5","3","3","3","4","1","3","2","1","2","3","4","3","2","4","2","6","4","2","2","3","3","3","3","4","3","5","3","7","6","3","6","3","4","4","5","5","1","3","796359969116135425","李","654","Male","[""坏我"",""好我"",""好他"",""坏他""]","[""弱我"",""强我"",""强他"",""弱他""]","","","","","","","","no","","","","","","","","","SRET","EW_formal","","key","j","8.333191489361653","853.3333333333334","529.3333333333334","朋友","庸碌","Negative","ability","","","","","","","","","","",""
"804","","j","psychophysics","40","326452","0.0-7.0-3.0-0.26","4","5","5","3","2","4","2","3","4","4","4","-1","1","0","-2","-3","0","1","1","4","3","5","4","3","3","3","2","4","3","6","6","4","5","4","4","6","7","6","4","5","5","3","3","3","4","1","3","2","1","2","3","4","3","2","4","2","6","4","2","2","3","3","3","3","4","3","5","3","7","6","3","6","3","4","4","5","5","1","3","796359969116135425","李","654","Male","[""坏我"",""好我"",""好他"",""坏他""]","[""弱我"",""强我"",""强他"",""弱他""]","","","","","","","","no","","","","","","","","","SRET","EW_formal","","key","j","8.333333333333334","853.3333333333334","529.3333333333334","自己","无助","Negative","ability","","","","","","","","","","",""
"836","","j","psychophysics","41","328290","0.0-7.0-3.0-0.27","4","5","5","3","2","4","2","3","4","4","4","-1","1","0","-2","-3","0","1","1","4","3","5","4","3","3","3","2","4","3","6","6","4","5","4","4","6","7","6","4","5","5","3","3","3","4","1","3","2","1","2","3","4","3","2","4","2","6","4","2","2","3","3","3","3","4","3","5","3","7","6","3","6","3","4","4","5","5","1","3","796359969116135425","李","654","Male","[""坏我"",""好我"",""好他"",""坏他""]","[""弱我"",""强我"",""强他"",""弱他""]","","","","","","","","no","","","","","","","","","SRET","EW_formal","","key","j","8.332876712328607","853.3333333333334","529.3333333333334","朋友","黑心","Negative","morality","","","","","","","","","","",""
"805","","f","psychophysics","42","330097","0.0-7.0-3.0-0.28","4","5","5","3","2","4","2","3","4","4","4","-1","1","0","-2","-3","0","1","1","4","3","5","4","3","3","3","2","4","3","6","6","4","5","4","4","6","7","6","4","5","5","3","3","3","4","1","3","2","1","2","3","4","3","2","4","2","6","4","2","2","3","3","3","3","4","3","5","3","7","6","3","6","3","4","4","5","5","1","3","796359969116135425","李","654","Male","[""坏我"",""好我"",""好他"",""坏他""]","[""弱我"",""强我"",""强他"",""弱他""]","","","","","","","","yes","","","","","","","","","SRET","EW_formal","","key","f","8.333333333333334","853.3333333333334","529.3333333333334","自己","谦逊","Positive","morality","","","","","","","","","","",""
"990","","f","psychophysics","43","332087","0.0-7.0-3.0-0.29","4","5","5","3","2","4","2","3","4","4","4","-1","1","0","-2","-3","0","1","1","4","3","5","4","3","3","3","2","4","3","6","6","4","5","4","4","6","7","6","4","5","5","3","3","3","4","1","3","2","1","2","3","4","3","2","4","2","6","4","2","2","3","3","3","3","4","3","5","3","7","6","3","6","3","4","4","5","5","1","3","796359969116135425","李","654","Male","[""坏我"",""好我"",""好他"",""坏他""]","[""弱我"",""强我"",""强他"",""弱他""]","","","","","","","","yes","","","","","","","","","SRET","EW_formal","","key","f","8.332773109243746","853.3333333333334","529.3333333333334","朋友","畏难","Negative","ability","","","","","","","","","","",""
"699","","j","psychophysics","44","333787","0.0-7.0-3.0-0.30","4","5","5","3","2","4","2","3","4","4","4","-1","1","0","-2","-3","0","1","1","4","3","5","4","3","3","3","2","4","3","6","6","4","5","4","4","6","7","6","4","5","5","3","3","3","4","1","3","2","1","2","3","4","3","2","4","2","6","4","2","2","3","3","3","3","4","3","5","3","7","6","3","6","3","4","4","5","5","1","3","796359969116135425","李","654","Male","[""坏我"",""好我"",""好他"",""坏他""]","[""弱我"",""强我"",""强他"",""弱他""]","","","","","","","","no","","","","","","","","","SRET","EW_formal","","key","j","8.33349753694587","853.3333333333334","529.3333333333334","自己","虚假","Negative","morality","","","","","","","","","","",""
"783","","f","psychophysics","45","335572","0.0-7.0-3.0-0.31","4","5","5","3","2","4","2","3","4","4","4","-1","1","0","-2","-3","0","1","1","4","3","5","4","3","3","3","2","4","3","6","6","4","5","4","4","6","7","6","4","5","5","3","3","3","4","1","3","2","1","2","3","4","3","2","4","2","6","4","2","2","3","3","3","3","4","3","5","3","7","6","3","6","3","4","4","5","5","1","3","796359969116135425","李","654","Male","[""坏我"",""好我"",""好他"",""坏他""]","[""弱我"",""强我"",""强他"",""弱他""]","","","","","","","","yes","","","","","","","","","SRET","EW_formal","","key","f","8.332863849765094","853.3333333333334","529.3333333333334","朋友","君子","Positive","morality","","","","","","","","","","",""
"1158","","j","psychophysics","46","337731","0.0-7.0-3.0-0.32","4","5","5","3","2","4","2","3","4","4","4","-1","1","0","-2","-3","0","1","1","4","3","5","4","3","3","3","2","4","3","6","6","4","5","4","4","6","7","6","4","5","5","3","3","3","4","1","3","2","1","2","3","4","3","2","4","2","6","4","2","2","3","3","3","3","4","3","5","3","7","6","3","6","3","4","4","5","5","1","3","796359969116135425","李","654","Male","[""坏我"",""好我"",""好他"",""坏他""]","[""弱我"",""强我"",""强他"",""弱他""]","","","","","","","","no","","","","","","","","","SRET","EW_formal","","key","j","8.3329457364342","853.3333333333334","529.3333333333334","朋友","新手","Negative","ability","","","","","","","","","","",""
"1069","","j","psychophysics","47","339802","0.0-7.0-3.0-0.33","4","5","5","3","2","4","2","3","4","4","4","-1","1","0","-2","-3","0","1","1","4","3","5","4","3","3","3","2","4","3","6","6","4","5","4","4","6","7","6","4","5","5","3","3","3","4","1","3","2","1","2","3","4","3","2","4","2","6","4","2","2","3","3","3","3","4","3","5","3","7","6","3","6","3","4","4","5","5","1","3","796359969116135425","李","654","Male","[""坏我"",""好我"",""好他"",""坏他""]","[""弱我"",""强我"",""强他"",""弱他""]","","","","","","","","no","","","","","","","","","SRET","EW_formal","","key","j","8.333064516129173","853.3333333333334","529.3333333333334","自己","无私","Positive","morality","","","","","","","","","","",""
"1103","","j","psychophysics","48","341906","0.0-7.0-3.0-0.34","4","5","5","3","2","4","2","3","4","4","4","-1","1","0","-2","-3","0","1","1","4","3","5","4","3","3","3","2","4","3","6","6","4","5","4","4","6","7","6","4","5","5","3","3","3","4","1","3","2","1","2","3","4","3","2","4","2","6","4","2","2","3","3","3","3","4","3","5","3","7","6","3","6","3","4","4","5","5","1","3","796359969116135425","李","654","Male","[""坏我"",""好我"",""好他"",""坏他""]","[""弱我"",""强我"",""强他"",""弱他""]","","","","","","","","no","","","","","","","","","SRET","EW_formal","","key","j","8.333067729083805","853.3333333333334","529.3333333333334","朋友","笨蛋","Negative","ability","","","","","","","","","","",""
"1054","","j","psychophysics","49","343962","0.0-7.0-3.0-0.35","4","5","5","3","2","4","2","3","4","4","4","-1","1","0","-2","-3","0","1","1","4","3","5","4","3","3","3","2","4","3","6","6","4","5","4","4","6","7","6","4","5","5","3","3","3","4","1","3","2","1","2","3","4","3","2","4","2","6","4","2","2","3","3","3","3","4","3","5","3","7","6","3","6","3","4","4","5","5","1","3","796359969116135425","李","654","Male","[""坏我"",""好我"",""好他"",""坏他""]","[""弱我"",""强我"",""强他"",""弱他""]","","","","","","","","no","","","","","","","","","SRET","EW_formal","","key","j","8.333333333333334","853.3333333333334","529.3333333333334","自己","差生","Negative","ability","","","","","","","","","","",""
"1138","","f","psychophysics","50","346100","0.0-7.0-3.0-0.36","4","5","5","3","2","4","2","3","4","4","4","-1","1","0","-2","-3","0","1","1","4","3","5","4","3","3","3","2","4","3","6","6","4","5","4","4","6","7","6","4","5","5","3","3","3","4","1","3","2","1","2","3","4","3","2","4","2","6","4","2","2","3","3","3","3","4","3","5","3","7","6","3","6","3","4","4","5","5","1","3","796359969116135425","李","654","Male","[""坏我"",""好我"",""好他"",""坏他""]","[""弱我"",""强我"",""强他"",""弱他""]","","","","","","","","yes","","","","","","","","","SRET","EW_formal","","key","f","8.332812500000045","853.3333333333334","529.3333333333334","自己","廉正","Positive","morality","","","","","","","","","","",""
"1630","","j","psychophysics","51","348732","0.0-7.0-3.0-0.37","4","5","5","3","2","4","2","3","4","4","4","-1","1","0","-2","-3","0","1","1","4","3","5","4","3","3","3","2","4","3","6","6","4","5","4","4","6","7","6","4","5","5","3","3","3","4","1","3","2","1","2","3","4","3","2","4","2","6","4","2","2","3","3","3","3","4","3","5","3","7","6","3","6","3","4","4","5","5","1","3","796359969116135425","李","654","Male","[""坏我"",""好我"",""好他"",""坏他""]","[""弱我"",""强我"",""强他"",""弱他""]","","","","","","","","no","","","","","","","","","SRET","EW_formal","","key","j","8.333333333333334","853.3333333333334","529.3333333333334","自己","迂拙","Negative","ability","","","","","","","","","","",""
"841","","f","psychophysics","52","350574","0.0-7.0-3.0-0.38","4","5","5","3","2","4","2","3","4","4","4","-1","1","0","-2","-3","0","1","1","4","3","5","4","3","3","3","2","4","3","6","6","4","5","4","4","6","7","6","4","5","5","3","3","3","4","1","3","2","1","2","3","4","3","2","4","2","6","4","2","2","3","3","3","3","4","3","5","3","7","6","3","6","3","4","4","5","5","1","3","796359969116135425","李","654","Male","[""坏我"",""好我"",""好他"",""坏他""]","[""弱我"",""强我"",""强他"",""弱他""]","","","","","","","","yes","","","","","","","","","SRET","EW_formal","","key","f","8.33318181818203","853.3333333333334","529.3333333333334","自己","草率","Negative","ability","","","","","","","","","","",""
"1199","","f","psychophysics","53","352775","0.0-7.0-3.0-0.39","4","5","5","3","2","4","2","3","4","4","4","-1","1","0","-2","-3","0","1","1","4","3","5","4","3","3","3","2","4","3","6","6","4","5","4","4","6","7","6","4","5","5","3","3","3","4","1","3","2","1","2","3","4","3","2","4","2","6","4","2","2","3","3","3","3","4","3","5","3","7","6","3","6","3","4","4","5","5","1","3","796359969116135425","李","654","Male","[""坏我"",""好我"",""好他"",""坏他""]","[""弱我"",""强我"",""强他"",""弱他""]","","","","","","","","yes","","","","","","","","","SRET","EW_formal","","key","f","8.332699619771864","853.3333333333334","529.3333333333334","朋友","怠惰","Negative","ability","","","","","","","","","","",""
"736","","j","psychophysics","54","354513","0.0-7.0-3.0-0.40","4","5","5","3","2","4","2","3","4","4","4","-1","1","0","-2","-3","0","1","1","4","3","5","4","3","3","3","2","4","3","6","6","4","5","4","4","6","7","6","4","5","5","3","3","3","4","1","3","2","1","2","3","4","3","2","4","2","6","4","2","2","3","3","3","3","4","3","5","3","7","6","3","6","3","4","4","5","5","1","3","796359969116135425","李","654","Male","[""坏我"",""好我"",""好他"",""坏他""]","[""弱我"",""强我"",""强他"",""弱他""]","","","","","","","","no","","","","","","","","","SRET","EW_formal","","key","j","8.332850241546007","853.3333333333334","529.3333333333334","朋友","歹毒","Negative","morality","","","","","","","","","","",""
"767","","j","psychophysics","55","356282","0.0-7.0-3.0-0.41","4","5","5","3","2","4","2","3","4","4","4","-1","1","0","-2","-3","0","1","1","4","3","5","4","3","3","3","2","4","3","6","6","4","5","4","4","6","7","6","4","5","5","3","3","3","4","1","3","2","1","2","3","4","3","2","4","2","6","4","2","2","3","3","3","3","4","3","5","3","7","6","3","6","3","4","4","5","5","1","3","796359969116135425","李","654","Male","[""坏我"",""好我"",""好他"",""坏他""]","[""弱我"",""强我"",""强他"",""弱他""]","","","","","","","","no","","","","","","","","","SRET","EW_formal","","key","j","8.333018867924693","853.3333333333334","529.3333333333334","自己","废物","Negative","ability","","","","","","","","","","",""
"510","","j","psychophysics","56","357794","0.0-7.0-3.0-0.42","4","5","5","3","2","4","2","3","4","4","4","-1","1","0","-2","-3","0","1","1","4","3","5","4","3","3","3","2","4","3","6","6","4","5","4","4","6","7","6","4","5","5","3","3","3","4","1","3","2","1","2","3","4","3","2","4","2","6","4","2","2","3","3","3","3","4","3","5","3","7","6","3","6","3","4","4","5","5","1","3","796359969116135425","李","654","Male","[""坏我"",""好我"",""好他"",""坏他""]","[""弱我"",""强我"",""强他"",""弱他""]","","","","","","","","no","","","","","","","","","SRET","EW_formal","","key","j","8.332777777777908","853.3333333333334","529.3333333333334","朋友","愚痴","Negative","ability","","","","","","","","","","",""
"682","","j","psychophysics","57","359477","0.0-7.0-3.0-0.43","4","5","5","3","2","4","2","3","4","4","4","-1","1","0","-2","-3","0","1","1","4","3","5","4","3","3","3","2","4","3","6","6","4","5","4","4","6","7","6","4","5","5","3","3","3","4","1","3","2","1","2","3","4","3","2","4","2","6","4","2","2","3","3","3","3","4","3","5","3","7","6","3","6","3","4","4","5","5","1","3","796359969116135425","李","654","Male","[""坏我"",""好我"",""好他"",""坏他""]","[""弱我"",""强我"",""强他"",""弱他""]","","","","","","","","no","","","","","","","","","SRET","EW_formal","","key","j","8.333333333333334","853.3333333333334","529.3333333333334","自己","刻薄","Negative","morality","","","","","","","","","","",""
"594","","f","psychophysics","58","361072","0.0-7.0-3.0-0.44","4","5","5","3","2","4","2","3","4","4","4","-1","1","0","-2","-3","0","1","1","4","3","5","4","3","3","3","2","4","3","6","6","4","5","4","4","6","7","6","4","5","5","3","3","3","4","1","3","2","1","2","3","4","3","2","4","2","6","4","2","2","3","3","3","3","4","3","5","3","7","6","3","6","3","4","4","5","5","1","3","796359969116135425","李","654","Male","[""坏我"",""好我"",""好他"",""坏他""]","[""弱我"",""强我"",""强他"",""弱他""]","","","","","","","","yes","","","","","","","","","SRET","EW_formal","","key","f","8.33263157894743","853.3333333333334","529.3333333333334","朋友","好心","Positive","morality","","","","","","","","","","",""
"623","","f","psychophysics","59","362696","0.0-7.0-3.0-0.45","4","5","5","3","2","4","2","3","4","4","4","-1","1","0","-2","-3","0","1","1","4","3","5","4","3","3","3","2","4","3","6","6","4","5","4","4","6","7","6","4","5","5","3","3","3","4","1","3","2","1","2","3","4","3","2","4","2","6","4","2","2","3","3","3","3","4","3","5","3","7","6","3","6","3","4","4","5","5","1","3","796359969116135425","李","654","Male","[""坏我"",""好我"",""好他"",""坏他""]","[""弱我"",""强我"",""强他"",""弱他""]","","","","","","","","yes","","","","","","","","","SRET","EW_formal","","key","f","8.333505154638935","853.3333333333334","529.3333333333334","朋友","文明","Positive","morality","","","","","","","","","","",""
"989","","j","psychophysics","60","364686","0.0-7.0-3.0-0.46","4","5","5","3","2","4","2","3","4","4","4","-1","1","0","-2","-3","0","1","1","4","3","5","4","3","3","3","2","4","3","6","6","4","5","4","4","6","7","6","4","5","5","3","3","3","4","1","3","2","1","2","3","4","3","2","4","2","6","4","2","2","3","3","3","3","4","3","5","3","7","6","3","6","3","4","4","5","5","1","3","796359969116135425","李","654","Male","[""坏我"",""好我"",""好他"",""坏他""]","[""弱我"",""强我"",""强他"",""弱他""]","","","","","","","","no","","","","","","","","","SRET","EW_formal","","key","j","8.333193277310876","853.3333333333334","529.3333333333334","朋友","无耻","Negative","morality","","","","","","","","","","",""
"789","","f","psychophysics","61","366475","0.0-7.0-3.0-0.47","4","5","5","3","2","4","2","3","4","4","4","-1","1","0","-2","-3","0","1","1","4","3","5","4","3","3","3","2","4","3","6","6","4","5","4","4","6","7","6","4","5","5","3","3","3","4","1","3","2","1","2","3","4","3","2","4","2","6","4","2","2","3","3","3","3","4","3","5","3","7","6","3","6","3","4","4","5","5","1","3","796359969116135425","李","654","Male","[""坏我"",""好我"",""好他"",""坏他""]","[""弱我"",""强我"",""强他"",""弱他""]","","","","","","","","yes","","","","","","","","","SRET","EW_formal","","key","f","8.332710280373886","853.3333333333334","529.3333333333334","朋友","坦荡","Positive","morality","","","","","","","","","","",""
"634","","f","psychophysics","62","368110","0.0-7.0-3.0-0.48","4","5","5","3","2","4","2","3","4","4","4","-1","1","0","-2","-3","0","1","1","4","3","5","4","3","3","3","2","4","3","6","6","4","5","4","4","6","7","6","4","5","5","3","3","3","4","1","3","2","1","2","3","4","3","2","4","2","6","4","2","2","3","3","3","3","4","3","5","3","7","6","3","6","3","4","4","5","5","1","3","796359969116135425","李","654","Male","[""坏我"",""好我"",""好他"",""坏他""]","[""弱我"",""强我"",""强他"",""弱他""]","","","","","","","","yes","","","","","","","","","SRET","EW_formal","","key","f","8.333333333333334","853.3333333333334","529.3333333333334","朋友","全才","Positive","ability","","","","","","","","","","",""
"802","","f","psychophysics","63","369913","0.0-7.0-3.0-0.49","4","5","5","3","2","4","2","3","4","4","4","-1","1","0","-2","-3","0","1","1","4","3","5","4","3","3","3","2","4","3","6","6","4","5","4","4","6","7","6","4","5","5","3","3","3","4","1","3","2","1","2","3","4","3","2","4","2","6","4","2","2","3","3","3","3","4","3","5","3","7","6","3","6","3","4","4","5","5","1","3","796359969116135425","李","654","Male","[""坏我"",""好我"",""好他"",""坏他""]","[""弱我"",""强我"",""强他"",""弱他""]","","","","","","","","yes","","","","","","","","","SRET","EW_formal","","key","f","8.333023255814116","853.3333333333334","529.3333333333334","自己","沉着","Positive","ability","","","","","","","","","","",""
"571","","j","psychophysics","64","371486","0.0-7.0-3.0-0.50","4","5","5","3","2","4","2","3","4","4","4","-1","1","0","-2","-3","0","1","1","4","3","5","4","3","3","3","2","4","3","6","6","4","5","4","4","6","7","6","4","5","5","3","3","3","4","1","3","2","1","2","3","4","3","2","4","2","6","4","2","2","3","3","3","3","4","3","5","3","7","6","3","6","3","4","4","5","5","1","3","796359969116135425","李","654","Male","[""坏我"",""好我"",""好他"",""坏他""]","[""弱我"",""强我"",""强他"",""弱他""]","","","","","","","","no","","","","","","","","","SRET","EW_formal","","key","j","8.333510638297934","853.3333333333334","529.3333333333334","自己","卑鄙","Negative","morality","","","","","","","","","","",""
"781","","j","psychophysics","65","373268","0.0-7.0-3.0-0.51","4","5","5","3","2","4","2","3","4","4","4","-1","1","0","-2","-3","0","1","1","4","3","5","4","3","3","3","2","4","3","6","6","4","5","4","4","6","7","6","4","5","5","3","3","3","4","1","3","2","1","2","3","4","3","2","4","2","6","4","2","2","3","3","3","3","4","3","5","3","7","6","3","6","3","4","4","5","5","1","3","796359969116135425","李","654","Male","[""坏我"",""好我"",""好他"",""坏他""]","[""弱我"",""强我"",""强他"",""弱他""]","","","","","","","","no","","","","","","","","","SRET","EW_formal","","key","j","8.332863849765367","853.3333333333334","529.3333333333334","朋友","果断","Positive","ability","","","","","","","","","","",""
"1509","","f","psychophysics","66","375778","0.0-7.0-3.0-0.52","4","5","5","3","2","4","2","3","4","4","4","-1","1","0","-2","-3","0","1","1","4","3","5","4","3","3","3","2","4","3","6","6","4","5","4","4","6","7","6","4","5","5","3","3","3","4","1","3","2","1","2","3","4","3","2","4","2","6","4","2","2","3","3","3","3","4","3","5","3","7","6","3","6","3","4","4","5","5","1","3","796359969116135425","李","654","Male","[""坏我"",""好我"",""好他"",""坏他""]","[""弱我"",""强我"",""强他"",""弱他""]","","","","","","","","yes","","","","","","","","","SRET","EW_formal","","key","f","8.333333333333334","853.3333333333334","529.3333333333334","自己","慷慨","Positive","morality","","","","","","","","","","",""
"1124","","j","psychophysics","67","377903","0.0-7.0-3.0-0.53","4","5","5","3","2","4","2","3","4","4","4","-1","1","0","-2","-3","0","1","1","4","3","5","4","3","3","3","2","4","3","6","6","4","5","4","4","6","7","6","4","5","5","3","3","3","4","1","3","2","1","2","3","4","3","2","4","2","6","4","2","2","3","3","3","3","4","3","5","3","7","6","3","6","3","4","4","5","5","1","3","796359969116135425","李","654","Male","[""坏我"",""好我"",""好他"",""坏他""]","[""弱我"",""强我"",""强他"",""弱他""]","","","","","","","","no","","","","","","","","","SRET","EW_formal","","key","j","8.33307086614187","853.3333333333334","529.3333333333334","朋友","懂行","Positive","ability","","","","","","","","","","",""
"790","","j","psychophysics","68","379694","0.0-7.0-3.0-0.54","4","5","5","3","2","4","2","3","4","4","4","-1","1","0","-2","-3","0","1","1","4","3","5","4","3","3","3","2","4","3","6","6","4","5","4","4","6","7","6","4","5","5","3","3","3","4","1","3","2","1","2","3","4","3","2","4","2","6","4","2","2","3","3","3","3","4","3","5","3","7","6","3","6","3","4","4","5","5","1","3","796359969116135425","李","654","Male","[""坏我"",""好我"",""好他"",""坏他""]","[""弱我"",""强我"",""强他"",""弱他""]","","","","","","","","no","","","","","","","","","SRET","EW_formal","","key","j","8.333177570093403","853.3333333333334","529.3333333333334","自己","业余","Negative","ability","","","","","","","","","","",""
"1324","","f","psychophysics","69","382019","0.0-7.0-3.0-0.55","4","5","5","3","2","4","2","3","4","4","4","-1","1","0","-2","-3","0","1","1","4","3","5","4","3","3","3","2","4","3","6","6","4","5","4","4","6","7","6","4","5","5","3","3","3","4","1","3","2","1","2","3","4","3","2","4","2","6","4","2","2","3","3","3","3","4","3","5","3","7","6","3","6","3","4","4","5","5","1","3","796359969116135425","李","654","Male","[""坏我"",""好我"",""好他"",""坏他""]","[""弱我"",""强我"",""强他"",""弱他""]","","","","","","","","yes","","","","","","","","","SRET","EW_formal","","key","f","8.333093525179772","853.3333333333334","529.3333333333334","自己","狡狯","Negative","morality","","","","","","","","","","",""
"723","","j","psychophysics","70","383742","0.0-7.0-3.0-0.56","4","5","5","3","2","4","2","3","4","4","4","-1","1","0","-2","-3","0","1","1","4","3","5","4","3","3","3","2","4","3","6","6","4","5","4","4","6","7","6","4","5","5","3","3","3","4","1","3","2","1","2","3","4","3","2","4","2","6","4","2","2","3","3","3","3","4","3","5","3","7","6","3","6","3","4","4","5","5","1","3","796359969116135425","李","654","Male","[""坏我"",""好我"",""好他"",""坏他""]","[""弱我"",""强我"",""强他"",""弱他""]","","","","","","","","no","","","","","","","","","SRET","EW_formal","","key","j","8.333009708737752","853.3333333333334","529.3333333333334","朋友","腐败","Negative","morality","","","","","","","","","","",""
"787","","j","psychophysics","71","385530","0.0-7.0-3.0-0.57","4","5","5","3","2","4","2","3","4","4","4","-1","1","0","-2","-3","0","1","1","4","3","5","4","3","3","3","2","4","3","6","6","4","5","4","4","6","7","6","4","5","5","3","3","3","4","1","3","2","1","2","3","4","3","2","4","2","6","4","2","2","3","3","3","3","4","3","5","3","7","6","3","6","3","4","4","5","5","1","3","796359969116135425","李","654","Male","[""坏我"",""好我"",""好他"",""坏他""]","[""弱我"",""强我"",""强他"",""弱他""]","","","","","","","","no","","","","","","","","","SRET","EW_formal","","key","j","8.332863849765094","853.3333333333334","529.3333333333334","自己","无赖","Negative","morality","","","","","","","","","","",""
"612","","f","psychophysics","72","387143","0.0-7.0-3.0-0.58","4","5","5","3","2","4","2","3","4","4","4","-1","1","0","-2","-3","0","1","1","4","3","5","4","3","3","3","2","4","3","6","6","4","5","4","4","6","7","6","4","5","5","3","3","3","4","1","3","2","1","2","3","4","3","2","4","2","6","4","2","2","3","3","3","3","4","3","5","3","7","6","3","6","3","4","4","5","5","1","3","796359969116135425","李","654","Male","[""坏我"",""好我"",""好他"",""坏他""]","[""弱我"",""强我"",""强他"",""弱他""]","","","","","","","","yes","","","","","","","","","SRET","EW_formal","","key","f","8.333160621761598","853.3333333333334","529.3333333333334","自己","博学","Positive","ability","","","","","","","","","","",""
"767","","f","psychophysics","73","388913","0.0-7.0-3.0-0.59","4","5","5","3","2","4","2","3","4","4","4","-1","1","0","-2","-3","0","1","1","4","3","5","4","3","3","3","2","4","3","6","6","4","5","4","4","6","7","6","4","5","5","3","3","3","4","1","3","2","1","2","3","4","3","2","4","2","6","4","2","2","3","3","3","3","4","3","5","3","7","6","3","6","3","4","4","5","5","1","3","796359969116135425","李","654","Male","[""坏我"",""好我"",""好他"",""坏他""]","[""弱我"",""强我"",""强他"",""弱他""]","","","","","","","","yes","","","","","","","","","SRET","EW_formal","","key","f","8.333175355450182","853.3333333333334","529.3333333333334","朋友","中用","Positive","ability","","","","","","","","","","",""
"700","","f","psychophysics","74","390614","0.0-7.0-3.0-0.60","4","5","5","3","2","4","2","3","4","4","4","-1","1","0","-2","-3","0","1","1","4","3","5","4","3","3","3","2","4","3","6","6","4","5","4","4","6","7","6","4","5","5","3","3","3","4","1","3","2","1","2","3","4","3","2","4","2","6","4","2","2","3","3","3","3","4","3","5","3","7","6","3","6","3","4","4","5","5","1","3","796359969116135425","李","654","Male","[""坏我"",""好我"",""好他"",""坏他""]","[""弱我"",""强我"",""强他"",""弱他""]","","","","","","","","yes","","","","","","","","","SRET","EW_formal","","key","f","8.33349753694587","853.3333333333334","529.3333333333334","自己","博识","Positive","ability","","","","","","","","","","",""
"943","","f","psychophysics","75","392558","0.0-7.0-3.0-0.61","4","5","5","3","2","4","2","3","4","4","4","-1","1","0","-2","-3","0","1","1","4","3","5","4","3","3","3","2","4","3","6","6","4","5","4","4","6","7","6","4","5","5","3","3","3","4","1","3","2","1","2","3","4","3","2","4","2","6","4","2","2","3","3","3","3","4","3","5","3","7","6","3","6","3","4","4","5","5","1","3","796359969116135425","李","654","Male","[""坏我"",""好我"",""好他"",""坏他""]","[""弱我"",""强我"",""强他"",""弱他""]","","","","","","","","yes","","","","","","","","","SRET","EW_formal","","key","f","8.333047210300329","853.3333333333334","529.3333333333334","朋友","高效","Positive","ability","","","","","","","","","","",""
"778","","f","psychophysics","76","394338","0.0-7.0-3.0-0.62","4","5","5","3","2","4","2","3","4","4","4","-1","1","0","-2","-3","0","1","1","4","3","5","4","3","3","3","2","4","3","6","6","4","5","4","4","6","7","6","4","5","5","3","3","3","4","1","3","2","1","2","3","4","3","2","4","2","6","4","2","2","3","3","3","3","4","3","5","3","7","6","3","6","3","4","4","5","5","1","3","796359969116135425","李","654","Male","[""坏我"",""好我"",""好他"",""坏他""]","[""弱我"",""强我"",""强他"",""弱他""]","","","","","","","","yes","","","","","","","","","SRET","EW_formal","","key","f","8.333018867924418","853.3333333333334","529.3333333333334","自己","毅力","Positive","ability","","","","","","","","","","",""
"1138","","j","psychophysics","77","396477","0.0-7.0-3.0-0.63","4","5","5","3","2","4","2","3","4","4","4","-1","1","0","-2","-3","0","1","1","4","3","5","4","3","3","3","2","4","3","6","6","4","5","4","4","6","7","6","4","5","5","3","3","3","4","1","3","2","1","2","3","4","3","2","4","2","6","4","2","2","3","3","3","3","4","3","5","3","7","6","3","6","3","4","4","5","5","1","3","796359969116135425","李","654","Male","[""坏我"",""好我"",""好他"",""坏他""]","[""弱我"",""强我"",""强他"",""弱他""]","","","","","","","","no","","","","","","","","","SRET","EW_formal","","key","j","8.333203124999955","853.3333333333334","529.3333333333334","自己","果决","Positive","ability","","","","","","","","","","",""
"699","","f","psychophysics","78","398177","0.0-7.0-3.0-0.64","4","5","5","3","2","4","2","3","4","4","4","-1","1","0","-2","-3","0","1","1","4","3","5","4","3","3","3","2","4","3","6","6","4","5","4","4","6","7","6","4","5","5","3","3","3","4","1","3","2","1","2","3","4","3","2","4","2","6","4","2","2","3","3","3","3","4","3","5","3","7","6","3","6","3","4","4","5","5","1","3","796359969116135425","李","654","Male","[""坏我"",""好我"",""好他"",""坏他""]","[""弱我"",""强我"",""强他"",""弱他""]","","","","","","","","yes","","","","","","","","","SRET","EW_formal","","key","f","8.33300492610826","853.3333333333334","529.3333333333334","朋友","贪污","Negative","morality","","","","","","","","","","",""
"1791","","f","psychophysics","79","400969","0.0-7.0-3.0-0.65","4","5","5","3","2","4","2","3","4","4","4","-1","1","0","-2","-3","0","1","1","4","3","5","4","3","3","3","2","4","3","6","6","4","5","4","4","6","7","6","4","5","5","3","3","3","4","1","3","2","1","2","3","4","3","2","4","2","6","4","2","2","3","3","3","3","4","3","5","3","7","6","3","6","3","4","4","5","5","1","3","796359969116135425","李","654","Male","[""坏我"",""好我"",""好他"",""坏他""]","[""弱我"",""强我"",""强他"",""弱他""]","","","","","","","","yes","","","","","","","","","SRET","EW_formal","","key","f","8.333233532934097","853.3333333333334","529.3333333333334","自己","厚道","Positive","morality","","","","","","","","","","",""
"691","","j","psychophysics","80","402661","0.0-7.0-3.0-0.66","4","5","5","3","2","4","2","3","4","4","4","-1","1","0","-2","-3","0","1","1","4","3","5","4","3","3","3","2","4","3","6","6","4","5","4","4","6","7","6","4","5","5","3","3","3","4","1","3","2","1","2","3","4","3","2","4","2","6","4","2","2","3","3","3","3","4","3","5","3","7","6","3","6","3","4","4","5","5","1","3","796359969116135425","李","654","Male","[""坏我"",""好我"",""好他"",""坏他""]","[""弱我"",""强我"",""强他"",""弱他""]","","","","","","","","no","","","","","","","","","SRET","EW_formal","","key","j","8.333168316831626","853.3333333333334","529.3333333333334","自己","窝囊","Negative","ability","","","","","","","","","","",""
"1117","","f","psychophysics","81","404779","0.0-7.0-3.0-0.67","4","5","5","3","2","4","2","3","4","4","4","-1","1","0","-2","-3","0","1","1","4","3","5","4","3","3","3","2","4","3","6","6","4","5","4","4","6","7","6","4","5","5","3","3","3","4","1","3","2","1","2","3","4","3","2","4","2","6","4","2","2","3","3","3","3","4","3","5","3","7","6","3","6","3","4","4","5","5","1","3","796359969116135425","李","654","Male","[""坏我"",""好我"",""好他"",""坏他""]","[""弱我"",""强我"",""强他"",""弱他""]","","","","","","","","yes","","","","","","","","","SRET","EW_formal","","key","f","8.332806324110718","853.3333333333334","529.3333333333334","自己","思辨","Positive","ability","","","","","","","","","","",""
"598","","f","psychophysics","82","406378","0.0-7.0-3.0-0.68","4","5","5","3","2","4","2","3","4","4","4","-1","1","0","-2","-3","0","1","1","4","3","5","4","3","3","3","2","4","3","6","6","4","5","4","4","6","7","6","4","5","5","3","3","3","4","1","3","2","1","2","3","4","3","2","4","2","6","4","2","2","3","3","3","3","4","3","5","3","7","6","3","6","3","4","4","5","5","1","3","796359969116135425","李","654","Male","[""坏我"",""好我"",""好他"",""坏他""]","[""弱我"",""强我"",""强他"",""弱他""]","","","","","","","","yes","","","","","","","","","SRET","EW_formal","","key","f","8.3329842931939","853.3333333333334","529.3333333333334","朋友","上进","Positive","ability","","","","","","","","","","",""
"689","","f","psychophysics","83","408068","0.0-7.0-3.0-0.69","4","5","5","3","2","4","2","3","4","4","4","-1","1","0","-2","-3","0","1","1","4","3","5","4","3","3","3","2","4","3","6","6","4","5","4","4","6","7","6","4","5","5","3","3","3","4","1","3","2","1","2","3","4","3","2","4","2","6","4","2","2","3","3","3","3","4","3","5","3","7","6","3","6","3","4","4","5","5","1","3","796359969116135425","李","654","Male","[""坏我"",""好我"",""好他"",""坏他""]","[""弱我"",""强我"",""强他"",""弱他""]","","","","","","","","yes","","","","","","","","","SRET","EW_formal","","key","f","8.333168316831914","853.3333333333334","529.3333333333334","朋友","专注","Positive","ability","","","","","","","","","","",""
"801","","f","psychophysics","84","409869","0.0-7.0-3.0-0.70","4","5","5","3","2","4","2","3","4","4","4","-1","1","0","-2","-3","0","1","1","4","3","5","4","3","3","3","2","4","3","6","6","4","5","4","4","6","7","6","4","5","5","3","3","3","4","1","3","2","1","2","3","4","3","2","4","2","6","4","2","2","3","3","3","3","4","3","5","3","7","6","3","6","3","4","4","5","5","1","3","796359969116135425","李","654","Male","[""坏我"",""好我"",""好他"",""坏他""]","[""弱我"",""强我"",""强他"",""弱他""]","","","","","","","","yes","","","","","","","","","SRET","EW_formal","","key","f","8.333023255814116","853.3333333333334","529.3333333333334","自己","仗义","Positive","morality","","","","","","","","","","",""
"897","","f","psychophysics","85","411767","0.0-7.0-3.0-0.71","4","5","5","3","2","4","2","3","4","4","4","-1","1","0","-2","-3","0","1","1","4","3","5","4","3","3","3","2","4","3","6","6","4","5","4","4","6","7","6","4","5","5","3","3","3","4","1","3","2","1","2","3","4","3","2","4","2","6","4","2","2","3","3","3","3","4","3","5","3","7","6","3","6","3","4","4","5","5","1","3","796359969116135425","李","654","Male","[""坏我"",""好我"",""好他"",""坏他""]","[""弱我"",""强我"",""强他"",""弱他""]","","","","","","","","yes","","","","","","","","","SRET","EW_formal","","key","f","8.332599118942731","853.3333333333334","529.3333333333334","朋友","马虎","Negative","ability","","","","","","","","","","",""
"652","","j","psychophysics","86","413420","0.0-7.0-3.0-0.72","4","5","5","3","2","4","2","3","4","4","4","-1","1","0","-2","-3","0","1","1","4","3","5","4","3","3","3","2","4","3","6","6","4","5","4","4","6","7","6","4","5","5","3","3","3","4","1","3","2","1","2","3","4","3","2","4","2","6","4","2","2","3","3","3","3","4","3","5","3","7","6","3","6","3","4","4","5","5","1","3","796359969116135425","李","654","Male","[""坏我"",""好我"",""好他"",""坏他""]","[""弱我"",""强我"",""强他"",""弱他""]","","","","","","","","no","","","","","","","","","SRET","EW_formal","","key","j","8.332994923858045","853.3333333333334","529.3333333333334","朋友","奸险","Negative","morality","","","","","","","","","","",""
"960","","j","psychophysics","87","415381","0.0-7.0-3.0-0.73","4","5","5","3","2","4","2","3","4","4","4","-1","1","0","-2","-3","0","1","1","4","3","5","4","3","3","3","2","4","3","6","6","4","5","4","4","6","7","6","4","5","5","3","3","3","4","1","3","2","1","2","3","4","3","2","4","2","6","4","2","2","3","3","3","3","4","3","5","3","7","6","3","6","3","4","4","5","5","1","3","796359969116135425","李","654","Male","[""坏我"",""好我"",""好他"",""坏他""]","[""弱我"",""强我"",""强他"",""弱他""]","","","","","","","","no","","","","","","","","","SRET","EW_formal","","key","j","8.333333333333334","853.3333333333334","529.3333333333334","自己","无敌","Positive","ability","","","","","","","","","","",""
"557","","j","psychophysics","88","416939","0.0-7.0-3.0-0.74","4","5","5","3","2","4","2","3","4","4","4","-1","1","0","-2","-3","0","1","1","4","3","5","4","3","3","3","2","4","3","6","6","4","5","4","4","6","7","6","4","5","5","3","3","3","4","1","3","2","1","2","3","4","3","2","4","2","6","4","2","2","3","3","3","3","4","3","5","3","7","6","3","6","3","4","4","5","5","1","3","796359969116135425","李","654","Male","[""坏我"",""好我"",""好他"",""坏他""]","[""弱我"",""强我"",""强他"",""弱他""]","","","","","","","","no","","","","","","","","","SRET","EW_formal","","key","j","8.332795698924857","853.3333333333334","529.3333333333334","朋友","混账","Negative","morality","","","","","","","","","","",""
"578","","f","psychophysics","89","418520","0.0-7.0-3.0-0.75","4","5","5","3","2","4","2","3","4","4","4","-1","1","0","-2","-3","0","1","1","4","3","5","4","3","3","3","2","4","3","6","6","4","5","4","4","6","7","6","4","5","5","3","3","3","4","1","3","2","1","2","3","4","3","2","4","2","6","4","2","2","3","3","3","3","4","3","5","3","7","6","3","6","3","4","4","5","5","1","3","796359969116135425","李","654","Male","[""坏我"",""好我"",""好他"",""坏他""]","[""弱我"",""强我"",""强他"",""弱他""]","","","","","","","","yes","","","","","","","","","SRET","EW_formal","","key","f","8.333333333333334","853.3333333333334","529.3333333333334","自己","刻苦","Positive","ability","","","","","","","","","","",""
"464","","j","psychophysics","90","419985","0.0-7.0-3.0-0.76","4","5","5","3","2","4","2","3","4","4","4","-1","1","0","-2","-3","0","1","1","4","3","5","4","3","3","3","2","4","3","6","6","4","5","4","4","6","7","6","4","5","5","3","3","3","4","1","3","2","1","2","3","4","3","2","4","2","6","4","2","2","3","3","3","3","4","3","5","3","7","6","3","6","3","4","4","5","5","1","3","796359969116135425","李","654","Male","[""坏我"",""好我"",""好他"",""坏他""]","[""弱我"",""强我"",""强他"",""弱他""]","","","","","","","","no","","","","","","","","","SRET","EW_formal","","key","j","8.333714285714086","853.3333333333334","529.3333333333334","自己","淫乱","Negative","morality","","","","","","","","","","",""
"607","","f","psychophysics","91","421592","0.0-7.0-3.0-0.77","4","5","5","3","2","4","2","3","4","4","4","-1","1","0","-2","-3","0","1","1","4","3","5","4","3","3","3","2","4","3","6","6","4","5","4","4","6","7","6","4","5","5","3","3","3","4","1","3","2","1","2","3","4","3","2","4","2","6","4","2","2","3","3","3","3","4","3","5","3","7","6","3","6","3","4","4","5","5","1","3","796359969116135425","李","654","Male","[""坏我"",""好我"",""好他"",""坏他""]","[""弱我"",""强我"",""强他"",""弱他""]","","","","","","","","yes","","","","","","","","","SRET","EW_formal","","key","f","8.332812500000122","853.3333333333334","529.3333333333334","朋友","正气","Positive","morality","","","","","","","","","","",""
"807","","f","psychophysics","92","423401","0.0-7.0-3.0-0.78","4","5","5","3","2","4","2","3","4","4","4","-1","1","0","-2","-3","0","1","1","4","3","5","4","3","3","3","2","4","3","6","6","4","5","4","4","6","7","6","4","5","5","3","3","3","4","1","3","2","1","2","3","4","3","2","4","2","6","4","2","2","3","3","3","3","4","3","5","3","7","6","3","6","3","4","4","5","5","1","3","796359969116135425","李","654","Male","[""坏我"",""好我"",""好他"",""坏他""]","[""弱我"",""强我"",""强他"",""弱他""]","","","","","","","","yes","","","","","","","","","SRET","EW_formal","","key","f","8.332870370370479","853.3333333333334","529.3333333333334","朋友","仁爱","Positive","morality","","","","","","","","","","",""
"829","","f","psychophysics","93","425231","0.0-7.0-3.0-0.79","4","5","5","3","2","4","2","3","4","4","4","-1","1","0","-2","-3","0","1","1","4","3","5","4","3","3","3","2","4","3","6","6","4","5","4","4","6","7","6","4","5","5","3","3","3","4","1","3","2","1","2","3","4","3","2","4","2","6","4","2","2","3","3","3","3","4","3","5","3","7","6","3","6","3","4","4","5","5","1","3","796359969116135425","李","654","Male","[""坏我"",""好我"",""好他"",""坏他""]","[""弱我"",""强我"",""强他"",""弱他""]","","","","","","","","yes","","","","","","","","","SRET","EW_formal","","key","f","8.33302752293594","853.3333333333334","529.3333333333334","自己","爱国","Positive","morality","","","","","","","","","","",""
"575","","f","psychophysics","94","426808","0.0-7.0-3.0-0.80","4","5","5","3","2","4","2","3","4","4","4","-1","1","0","-2","-3","0","1","1","4","3","5","4","3","3","3","2","4","3","6","6","4","5","4","4","6","7","6","4","5","5","3","3","3","4","1","3","2","1","2","3","4","3","2","4","2","6","4","2","2","3","3","3","3","4","3","5","3","7","6","3","6","3","4","4","5","5","1","3","796359969116135425","李","654","Male","[""坏我"",""好我"",""好他"",""坏他""]","[""弱我"",""强我"",""强他"",""弱他""]","","","","","","","","yes","","","","","","","","","SRET","EW_formal","","key","f","8.333333333333334","853.3333333333334","529.3333333333334","自己","奉献","Positive","morality","","","","","","","","","","",""
"665","","j","psychophysics","95","428474","0.0-7.0-3.0-0.81","4","5","5","3","2","4","2","3","4","4","4","-1","1","0","-2","-3","0","1","1","4","3","5","4","3","3","3","2","4","3","6","6","4","5","4","4","6","7","6","4","5","5","3","3","3","4","1","3","2","1","2","3","4","3","2","4","2","6","4","2","2","3","3","3","3","4","3","5","3","7","6","3","6","3","4","4","5","5","1","3","796359969116135425","李","654","Male","[""坏我"",""好我"",""好他"",""坏他""]","[""弱我"",""强我"",""强他"",""弱他""]","","","","","","","","no","","","","","","","","","SRET","EW_formal","","key","j","8.332663316582973","853.3333333333334","529.3333333333334","自己","娴熟","Positive","ability","","","","","","","","","","",""
"796","","j","psychophysics","96","430271","0.0-7.0-3.0-0.82","4","5","5","3","2","4","2","3","4","4","4","-1","1","0","-2","-3","0","1","1","4","3","5","4","3","3","3","2","4","3","6","6","4","5","4","4","6","7","6","4","5","5","3","3","3","4","1","3","2","1","2","3","4","3","2","4","2","6","4","2","2","3","3","3","3","4","3","5","3","7","6","3","6","3","4","4","5","5","1","3","796359969116135425","李","654","Male","[""坏我"",""好我"",""好他"",""坏他""]","[""弱我"",""强我"",""强他"",""弱他""]","","","","","","","","no","","","","","","","","","SRET","EW_formal","","key","j","8.332710280373886","853.3333333333334","529.3333333333334","自己","龌龊","Negative","morality","","","","","","","","","","",""
"616","","j","psychophysics","97","431888","0.0-7.0-3.0-0.83","4","5","5","3","2","4","2","3","4","4","4","-1","1","0","-2","-3","0","1","1","4","3","5","4","3","3","3","2","4","3","6","6","4","5","4","4","6","7","6","4","5","5","3","3","3","4","1","3","2","1","2","3","4","3","2","4","2","6","4","2","2","3","3","3","3","4","3","5","3","7","6","3","6","3","4","4","5","5","1","3","796359969116135425","李","654","Male","[""坏我"",""好我"",""好他"",""坏他""]","[""弱我"",""强我"",""强他"",""弱他""]","","","","","","","","no","","","","","","","","","SRET","EW_formal","","key","j","8.332642487046693","853.3333333333334","529.3333333333334","自己","背叛","Negative","morality","","","","","","","","","","",""
"762","","j","psychophysics","98","433650","0.0-7.0-3.0-0.84","4","5","5","3","2","4","2","3","4","4","4","-1","1","0","-2","-3","0","1","1","4","3","5","4","3","3","3","2","4","3","6","6","4","5","4","4","6","7","6","4","5","5","3","3","3","4","1","3","2","1","2","3","4","3","2","4","2","6","4","2","2","3","3","3","3","4","3","5","3","7","6","3","6","3","4","4","5","5","1","3","796359969116135425","李","654","Male","[""坏我"",""好我"",""好他"",""坏他""]","[""弱我"",""强我"",""强他"",""弱他""]","","","","","","","","no","","","","","","","","","SRET","EW_formal","","key","j","8.332701421800728","853.3333333333334","529.3333333333334","朋友","低俗","Negative","morality","","","","","","","","","","",""
"1187","","f","psychophysics","99","435838","0.0-7.0-3.0-0.85","4","5","5","3","2","4","2","3","4","4","4","-1","1","0","-2","-3","0","1","1","4","3","5","4","3","3","3","2","4","3","6","6","4","5","4","4","6","7","6","4","5","5","3","3","3","4","1","3","2","1","2","3","4","3","2","4","2","6","4","2","2","3","3","3","3","4","3","5","3","7","6","3","6","3","4","4","5","5","1","3","796359969116135425","李","654","Male","[""坏我"",""好我"",""好他"",""坏他""]","[""弱我"",""强我"",""强他"",""弱他""]","","","","","","","","yes","","","","","","","","","SRET","EW_formal","","key","f","8.332567049808384","853.3333333333334","529.3333333333334","自己","缓慢","Negative","ability","","","","","","","","","","",""
"576","","f","psychophysics","100","437414","0.0-7.0-3.0-0.86","4","5","5","3","2","4","2","3","4","4","4","-1","1","0","-2","-3","0","1","1","4","3","5","4","3","3","3","2","4","3","6","6","4","5","4","4","6","7","6","4","5","5","3","3","3","4","1","3","2","1","2","3","4","3","2","4","2","6","4","2","2","3","3","3","3","4","3","5","3","7","6","3","6","3","4","4","5","5","1","3","796359969116135425","李","654","Male","[""坏我"",""好我"",""好他"",""坏他""]","[""弱我"",""强我"",""强他"",""弱他""]","","","","","","","","yes","","","","","","","","","SRET","EW_formal","","key","f","8.332978723404132","853.3333333333334","529.3333333333334","朋友","素养","Positive","morality","","","","","","","","","","",""
"832","","f","psychophysics","101","439248","0.0-7.0-3.0-0.87","4","5","5","3","2","4","2","3","4","4","4","-1","1","0","-2","-3","0","1","1","4","3","5","4","3","3","3","2","4","3","6","6","4","5","4","4","6","7","6","4","5","5","3","3","3","4","1","3","2","1","2","3","4","3","2","4","2","6","4","2","2","3","3","3","3","4","3","5","3","7","6","3","6","3","4","4","5","5","1","3","796359969116135425","李","654","Male","[""坏我"",""好我"",""好他"",""坏他""]","[""弱我"",""强我"",""强他"",""弱他""]","","","","","","","","yes","","","","","","","","","SRET","EW_formal","","key","f","8.332876712328607","853.3333333333334","529.3333333333334","自己","主见","Positive","ability","","","","","","","","","","",""
"16171","
    <p><div style='color:white;font-size:35px; line-height:20px;'>计算任务</div></p><br>
    <p><div style='color:red;font-size:25px; line-height:20px;'>接下来，您将看到一些四则运算题，<b>请从键盘选择 0-9 进行反应。</b></div></p>
    <p><div style='color:red;font-size:25px; line-height:20px;'>请尽可能快地进行计算，计算的速度和正确率将影响报酬的发放。</div></p>
    <p><div class='footer' style='color:white;font-size:25px; line-height:20px;'>如果对本实验还有不清楚之处，请立即向实验员咨询。</p><p style='color:white;font-size:25px; line-height:20px;'>如果您明白了规则：</p><p style='color:white;font-size:22px; line-height:20px;'>请按 继续 进入练习</p>
    </div>
    ","0","html-button-response","102","455420","0.0-7.0-4.0","4","5","5","3","2","4","2","3","4","4","4","-1","1","0","-2","-3","0","1","1","4","3","5","4","3","3","3","2","4","3","6","6","4","5","4","4","6","7","6","4","5","5","3","3","3","4","1","3","2","1","2","3","4","3","2","4","2","6","4","2","2","3","3","3","3","4","3","5","3","7","6","3","6","3","4","4","5","5","1","3","796359969116135425","李","654","Male","[""坏我"",""好我"",""好他"",""坏他""]","[""弱我"",""强我"",""强他"",""弱他""]","","","","","","","","","","","","","","","","","SRET_math","math_instructions","Thu Feb 01 2024 11:20:44 GMT+0800 (中国标准时间)","","","","","","","","","","","","","","","","","","","",""
"2199","","7","psychophysics","103","457626","0.0-7.0-5.0-0.0","4","5","5","3","2","4","2","3","4","4","4","-1","1","0","-2","-3","0","1","1","4","3","5","4","3","3","3","2","4","3","6","6","4","5","4","4","6","7","6","4","5","5","3","3","3","4","1","3","2","1","2","3","4","3","2","4","2","6","4","2","2","3","3","3","3","4","3","5","3","7","6","3","6","3","4","4","5","5","1","3","796359969116135425","李","654","Male","[""坏我"",""好我"",""好他"",""坏他""]","[""弱我"",""强我"",""强他"",""弱他""]","","","","","","","","7","","","","","","","","","SRET","SRET_math_calculate","","key","7","8.30165283018855","853.3333333333334","529.3333333333334","","","","","5+2= ?","7","1","","","","","","","",""
"2029","","9","psychophysics","104","459657","0.0-7.0-5.0-0.1","4","5","5","3","2","4","2","3","4","4","4","-1","1","0","-2","-3","0","1","1","4","3","5","4","3","3","3","2","4","3","6","6","4","5","4","4","6","7","6","4","5","5","3","3","3","4","1","3","2","1","2","3","4","3","2","4","2","6","4","2","2","3","3","3","3","4","3","5","3","7","6","3","6","3","4","4","5","5","1","3","796359969116135425","李","654","Male","[""坏我"",""好我"",""好他"",""坏他""]","[""弱我"",""强我"",""强他"",""弱他""]","","","","","","","","9","","","","","","","","","SRET","SRET_math_calculate","","key","9","8.332921810699684","853.3333333333334","529.3333333333334","","","","","7+2= ?","9","1","","","","","","","",""
"2353","","8","psychophysics","105","462011","0.0-7.0-5.0-0.2","4","5","5","3","2","4","2","3","4","4","4","-1","1","0","-2","-3","0","1","1","4","3","5","4","3","3","3","2","4","3","6","6","4","5","4","4","6","7","6","4","5","5","3","3","3","4","1","3","2","1","2","3","4","3","2","4","2","6","4","2","2","3","3","3","3","4","3","5","3","7","6","3","6","3","4","4","5","5","1","3","796359969116135425","李","654","Male","[""坏我"",""好我"",""好他"",""坏他""]","[""弱我"",""强我"",""强他"",""弱他""]","","","","","","","","8","","","","","","","","","SRET","SRET_math_calculate","","key","8","8.333096085409377","853.3333333333334","529.3333333333334","","","","","56/7= ?","8","1","","","","","","","",""
"1988","","6","psychophysics","106","464006","0.0-7.0-5.0-0.3","4","5","5","3","2","4","2","3","4","4","4","-1","1","0","-2","-3","0","1","1","4","3","5","4","3","3","3","2","4","3","6","6","4","5","4","4","6","7","6","4","5","5","3","3","3","4","1","3","2","1","2","3","4","3","2","4","2","6","4","2","2","3","3","3","3","4","3","5","3","7","6","3","6","3","4","4","5","5","1","3","796359969116135425","李","654","Male","[""坏我"",""好我"",""好他"",""坏他""]","[""弱我"",""强我"",""强他"",""弱他""]","","","","","","","","6","","","","","","","","","SRET","SRET_math_calculate","","key","6","8.333193277310876","853.3333333333334","529.3333333333334","","","","","3*2= ?","6","1","","","","","","","",""
"2788","","2","psychophysics","107","466802","0.0-7.0-5.0-0.4","4","5","5","3","2","4","2","3","4","4","4","-1","1","0","-2","-3","0","1","1","4","3","5","4","3","3","3","2","4","3","6","6","4","5","4","4","6","7","6","4","5","5","3","3","3","4","1","3","2","1","2","3","4","3","2","4","2","6","4","2","2","3","3","3","3","4","3","5","3","7","6","3","6","3","4","4","5","5","1","3","796359969116135425","李","654","Male","[""坏我"",""好我"",""好他"",""坏他""]","[""弱我"",""强我"",""强他"",""弱他""]","","","","","","","","2","","","","","","","","","SRET","SRET_math_calculate","","key","2","8.33313432835814","853.3333333333334","529.3333333333334","","","","","19-17= ?","2","1","","","","","","","",""
"3094","","9","psychophysics","108","469903","0.0-7.0-5.0-0.5","4","5","5","3","2","4","2","3","4","4","4","-1","1","0","-2","-3","0","1","1","4","3","5","4","3","3","3","2","4","3","6","6","4","5","4","4","6","7","6","4","5","5","3","3","3","4","1","3","2","1","2","3","4","3","2","4","2","6","4","2","2","3","3","3","3","4","3","5","3","7","6","3","6","3","4","4","5","5","1","3","796359969116135425","李","654","Male","[""坏我"",""好我"",""好他"",""坏他""]","[""弱我"",""强我"",""强他"",""弱他""]","","","","","","","","9","","","","","","","","","SRET","SRET_math_calculate","","key","9","8.332884097035041","853.3333333333334","529.3333333333334","","","","","32-23= ?","9","1","","","","","","","",""
"2555","","1","psychophysics","109","472466","0.0-7.0-5.0-0.6","4","5","5","3","2","4","2","3","4","4","4","-1","1","0","-2","-3","0","1","1","4","3","5","4","3","3","3","2","4","3","6","6","4","5","4","4","6","7","6","4","5","5","3","3","3","4","1","3","2","1","2","3","4","3","2","4","2","6","4","2","2","3","3","3","3","4","3","5","3","7","6","3","6","3","4","4","5","5","1","3","796359969116135425","李","654","Male","[""坏我"",""好我"",""好他"",""坏他""]","[""弱我"",""强我"",""强他"",""弱他""]","","","","","","","","1","","","","","","","","","SRET","SRET_math_calculate","","key","1","8.333224755700288","853.3333333333334","529.3333333333334","","","","","30-29= ?","1","1","","","","","","","",""
"2254","","8","psychophysics","110","474721","0.0-7.0-5.0-0.7","4","5","5","3","2","4","2","3","4","4","4","-1","1","0","-2","-3","0","1","1","4","3","5","4","3","3","3","2","4","3","6","6","4","5","4","4","6","7","6","4","5","5","3","3","3","4","1","3","2","1","2","3","4","3","2","4","2","6","4","2","2","3","3","3","3","4","3","5","3","7","6","3","6","3","4","4","5","5","1","3","796359969116135425","李","654","Male","[""坏我"",""好我"",""好他"",""坏他""]","[""弱我"",""强我"",""强他"",""弱他""]","","","","","","","","8","","","","","","","","","SRET","SRET_math_calculate","","key","8","8.33308550185865","853.3333333333334","529.3333333333334","","","","","9-1= ?","8","1","","","","","","","",""
"2471","","7","psychophysics","111","477199","0.0-7.0-5.0-0.8","4","5","5","3","2","4","2","3","4","4","4","-1","1","0","-2","-3","0","1","1","4","3","5","4","3","3","3","2","4","3","6","6","4","5","4","4","6","7","6","4","5","5","3","3","3","4","1","3","2","1","2","3","4","3","2","4","2","6","4","2","2","3","3","3","3","4","3","5","3","7","6","3","6","3","4","4","5","5","1","3","796359969116135425","李","654","Male","[""坏我"",""好我"",""好他"",""坏他""]","[""弱我"",""强我"",""强他"",""弱他""]","","","","","","","","7","","","","","","","","","SRET","SRET_math_calculate","","key","7","8.33299663299671","853.3333333333334","529.3333333333334","","","","","12-5= ?","7","1","","","","","","","",""
"1944","","4","psychophysics","112","479144","0.0-7.0-5.0-0.9","4","5","5","3","2","4","2","3","4","4","4","-1","1","0","-2","-3","0","1","1","4","3","5","4","3","3","3","2","4","3","6","6","4","5","4","4","6","7","6","4","5","5","3","3","3","4","1","3","2","1","2","3","4","3","2","4","2","6","4","2","2","3","3","3","3","4","3","5","3","7","6","3","6","3","4","4","5","5","1","3","796359969116135425","李","654","Male","[""坏我"",""好我"",""好他"",""坏他""]","[""弱我"",""强我"",""强他"",""弱他""]","","","","","","","","4","","","","","","","","","SRET","SRET_math_calculate","","key","4","8.332758620689706","853.3333333333334","529.3333333333334","","","","","3+1= ?","4","1","","","","","","","",""
"2143","","4","psychophysics","113","481294","0.0-7.0-5.0-0.10","4","5","5","3","2","4","2","3","4","4","4","-1","1","0","-2","-3","0","1","1","4","3","5","4","3","3","3","2","4","3","6","6","4","5","4","4","6","7","6","4","5","5","3","3","3","4","1","3","2","1","2","3","4","3","2","4","2","6","4","2","2","3","3","3","3","4","3","5","3","7","6","3","6","3","4","4","5","5","1","3","796359969116135425","李","654","Male","[""坏我"",""好我"",""好他"",""坏他""]","[""弱我"",""强我"",""强他"",""弱他""]","","","","","","","","4","","","","","","","","","SRET","SRET_math_calculate","","key","4","8.333073929961225","853.3333333333334","529.3333333333334","","","","","9-5= ?","4","1","","","","","","","",""
"2067","","1","psychophysics","114","483368","0.0-7.0-5.0-0.11","4","5","5","3","2","4","2","3","4","4","4","-1","1","0","-2","-3","0","1","1","4","3","5","4","3","3","3","2","4","3","6","6","4","5","4","4","6","7","6","4","5","5","3","3","3","4","1","3","2","1","2","3","4","3","2","4","2","6","4","2","2","3","3","3","3","4","3","5","3","7","6","3","6","3","4","4","5","5","1","3","796359969116135425","李","654","Male","[""坏我"",""好我"",""好他"",""坏他""]","[""弱我"",""强我"",""强他"",""弱他""]","","","","","","","","1","","","","","","","","","SRET","SRET_math_calculate","","key","1","8.333064516129173","853.3333333333334","529.3333333333334","","","","","4/4= ?","1","1","","","","","","","",""
"3364","","2","psychophysics","115","486740","0.0-7.0-5.0-0.12","4","5","5","3","2","4","2","3","4","4","4","-1","1","0","-2","-3","0","1","1","4","3","5","4","3","3","3","2","4","3","6","6","4","5","4","4","6","7","6","4","5","5","3","3","3","4","1","3","2","1","2","3","4","3","2","4","2","6","4","2","2","3","3","3","3","4","3","5","3","7","6","3","6","3","4","4","5","5","1","3","796359969116135425","李","654","Male","[""坏我"",""好我"",""好他"",""坏他""]","[""弱我"",""强我"",""强他"",""弱他""]","","","","","","","","2","","","","","","","","","SRET","SRET_math_calculate","","key","2","8.33316831683177","853.3333333333334","529.3333333333334","","","","","18/9= ?","2","1","","","","","","","",""
"2652","","8","psychophysics","116","489393","0.0-7.0-5.0-0.13","4","5","5","3","2","4","2","3","4","4","4","-1","1","0","-2","-3","0","1","1","4","3","5","4","3","3","3","2","4","3","6","6","4","5","4","4","6","7","6","4","5","5","3","3","3","4","1","3","2","1","2","3","4","3","2","4","2","6","4","2","2","3","3","3","3","4","3","5","3","7","6","3","6","3","4","4","5","5","1","3","796359969116135425","李","654","Male","[""坏我"",""好我"",""好他"",""坏他""]","[""弱我"",""强我"",""强他"",""弱他""]","","","","","","","","8","","","","","","","","","SRET","SRET_math_calculate","","key","8","8.333123028391277","853.3333333333334","529.3333333333334","","","","","50-42= ?","8","1","","","","","","","",""
"2202","","8","psychophysics","117","491602","0.0-7.0-5.0-0.14","4","5","5","3","2","4","2","3","4","4","4","-1","1","0","-2","-3","0","1","1","4","3","5","4","3","3","3","2","4","3","6","6","4","5","4","4","6","7","6","4","5","5","3","3","3","4","1","3","2","1","2","3","4","3","2","4","2","6","4","2","2","3","3","3","3","4","3","5","3","7","6","3","6","3","4","4","5","5","1","3","796359969116135425","李","654","Male","[""坏我"",""好我"",""好他"",""坏他""]","[""弱我"",""强我"",""强他"",""弱他""]","","","","","","","","8","","","","","","","","","SRET","SRET_math_calculate","","key","8","8.332954545454633","853.3333333333334","529.3333333333334","","","","","2*4= ?","8","1","","","","","","","",""
"2375","","7","psychophysics","118","493984","0.0-7.0-5.0-0.15","4","5","5","3","2","4","2","3","4","4","4","-1","1","0","-2","-3","0","1","1","4","3","5","4","3","3","3","2","4","3","6","6","4","5","4","4","6","7","6","4","5","5","3","3","3","4","1","3","2","1","2","3","4","3","2","4","2","6","4","2","2","3","3","3","3","4","3","5","3","7","6","3","6","3","4","4","5","5","1","3","796359969116135425","李","654","Male","[""坏我"",""好我"",""好他"",""坏他""]","[""弱我"",""强我"",""强他"",""弱他""]","","","","","","","","7","","","","","","","","","SRET","SRET_math_calculate","","key","7","8.332982456140229","853.3333333333334","529.3333333333334","","","","","9-2= ?","7","1","","","","","","","",""
"2202","","5","psychophysics","119","496187","0.0-7.0-5.0-0.16","4","5","5","3","2","4","2","3","4","4","4","-1","1","0","-2","-3","0","1","1","4","3","5","4","3","3","3","2","4","3","6","6","4","5","4","4","6","7","6","4","5","5","3","3","3","4","1","3","2","1","2","3","4","3","2","4","2","6","4","2","2","3","3","3","3","4","3","5","3","7","6","3","6","3","4","4","5","5","1","3","796359969116135425","李","654","Male","[""坏我"",""好我"",""好他"",""坏他""]","[""弱我"",""强我"",""强他"",""弱他""]","","","","","","","","5","","","","","","","","","SRET","SRET_math_calculate","","key","5","8.333079847908657","853.3333333333334","529.3333333333334","","","","","3+2= ?","5","1","","","","","","","",""
"2771","","3","psychophysics","120","498965","0.0-7.0-5.0-0.17","4","5","5","3","2","4","2","3","4","4","4","-1","1","0","-2","-3","0","1","1","4","3","5","4","3","3","3","2","4","3","6","6","4","5","4","4","6","7","6","4","5","5","3","3","3","4","1","3","2","1","2","3","4","3","2","4","2","6","4","2","2","3","3","3","3","4","3","5","3","7","6","3","6","3","4","4","5","5","1","3","796359969116135425","李","654","Male","[""坏我"",""好我"",""好他"",""坏他""]","[""弱我"",""强我"",""强他"",""弱他""]","","","","","","","","3","","","","","","","","","SRET","SRET_math_calculate","","key","3","8.333333333333334","853.3333333333334","529.3333333333334","","","","","12/4= ?","3","1","","","","","","","",""
"2147","","2","psychophysics","121","501113","0.0-7.0-5.0-0.18","4","5","5","3","2","4","2","3","4","4","4","-1","1","0","-2","-3","0","1","1","4","3","5","4","3","3","3","2","4","3","6","6","4","5","4","4","6","7","6","4","5","5","3","3","3","4","1","3","2","1","2","3","4","3","2","4","2","6","4","2","2","3","3","3","3","4","3","5","3","7","6","3","6","3","4","4","5","5","1","3","796359969116135425","李","654","Male","[""坏我"",""好我"",""好他"",""坏他""]","[""弱我"",""强我"",""强他"",""弱他""]","","","","","","","","2","","","","","","","","","SRET","SRET_math_calculate","","key","2","8.332812500000045","853.3333333333334","529.3333333333334","","","","","29-27= ?","2","1","","","","","","","",""
"2232","","9","psychophysics","122","503353","0.0-7.0-5.0-0.19","4","5","5","3","2","4","2","3","4","4","4","-1","1","0","-2","-3","0","1","1","4","3","5","4","3","3","3","2","4","3","6","6","4","5","4","4","6","7","6","4","5","5","3","3","3","4","1","3","2","1","2","3","4","3","2","4","2","6","4","2","2","3","3","3","3","4","3","5","3","7","6","3","6","3","4","4","5","5","1","3","796359969116135425","李","654","Male","[""坏我"",""好我"",""好他"",""坏他""]","[""弱我"",""强我"",""强他"",""弱他""]","","","","","","","","9","","","","","","","","","SRET","SRET_math_calculate","","key","9","8.333208955223837","853.3333333333334","529.3333333333334","","","","","1+8= ?","9","1","","","","","","","",""
"2001","","3","psychophysics","123","505362","0.0-7.0-5.0-0.20","4","5","5","3","2","4","2","3","4","4","4","-1","1","0","-2","-3","0","1","1","4","3","5","4","3","3","3","2","4","3","6","6","4","5","4","4","6","7","6","4","5","5","3","3","3","4","1","3","2","1","2","3","4","3","2","4","2","6","4","2","2","3","3","3","3","4","3","5","3","7","6","3","6","3","4","4","5","5","1","3","796359969116135425","李","654","Male","[""坏我"",""好我"",""好他"",""坏他""]","[""弱我"",""强我"",""强他"",""弱他""]","","","","","","","","3","","","","","","","","","SRET","SRET_math_calculate","","key","3","8.333333333333334","853.3333333333334","529.3333333333334","","","","","2+1= ?","3","1","","","","","","","",""
"2048","","9","psychophysics","124","507417","0.0-7.0-5.0-0.21","4","5","5","3","2","4","2","3","4","4","4","-1","1","0","-2","-3","0","1","1","4","3","5","4","3","3","3","2","4","3","6","6","4","5","4","4","6","7","6","4","5","5","3","3","3","4","1","3","2","1","2","3","4","3","2","4","2","6","4","2","2","3","3","3","3","4","3","5","3","7","6","3","6","3","4","4","5","5","1","3","796359969116135425","李","654","Male","[""坏我"",""好我"",""好他"",""坏他""]","[""弱我"",""强我"",""强他"",""弱他""]","","","","","","","","9","","","","","","","","","SRET","SRET_math_calculate","","key","9","8.333333333333334","853.3333333333334","529.3333333333334","","","","","2+7= ?","9","1","","","","","","","",""
"2211","","9","psychophysics","125","509635","0.0-7.0-5.0-0.22","4","5","5","3","2","4","2","3","4","4","4","-1","1","0","-2","-3","0","1","1","4","3","5","4","3","3","3","2","4","3","6","6","4","5","4","4","6","7","6","4","5","5","3","3","3","4","1","3","2","1","2","3","4","3","2","4","2","6","4","2","2","3","3","3","3","4","3","5","3","7","6","3","6","3","4","4","5","5","1","3","796359969116135425","李","654","Male","[""坏我"",""好我"",""好他"",""坏他""]","[""弱我"",""强我"",""强他"",""弱他""]","","","","","","","","9","","","","","","","","","SRET","SRET_math_calculate","","key","9","8.333207547169767","853.3333333333334","529.3333333333334","","","","","8+1= ?","9","1","","","","","","","",""
"3255","","4","psychophysics","126","512897","0.0-7.0-5.0-0.23","4","5","5","3","2","4","2","3","4","4","4","-1","1","0","-2","-3","0","1","1","4","3","5","4","3","3","3","2","4","3","6","6","4","5","4","4","6","7","6","4","5","5","3","3","3","4","1","3","2","1","2","3","4","3","2","4","2","6","4","2","2","3","3","3","3","4","3","5","3","7","6","3","6","3","4","4","5","5","1","3","796359969116135425","李","654","Male","[""坏我"",""好我"",""好他"",""坏他""]","[""弱我"",""强我"",""强他"",""弱他""]","","","","","","","","4","","","","","","","","","SRET","SRET_math_calculate","","key","4","8.333076923076833","853.3333333333334","529.3333333333334","","","","","13-9= ?","4","1","","","","","","","",""
"3059","","7","psychophysics","127","515963","0.0-7.0-5.0-0.24","4","5","5","3","2","4","2","3","4","4","4","-1","1","0","-2","-3","0","1","1","4","3","5","4","3","3","3","2","4","3","6","6","4","5","4","4","6","7","6","4","5","5","3","3","3","4","1","3","2","1","2","3","4","3","2","4","2","6","4","2","2","3","3","3","3","4","3","5","3","7","6","3","6","3","4","4","5","5","1","3","796359969116135425","李","654","Male","[""坏我"",""好我"",""好他"",""坏他""]","[""弱我"",""强我"",""强他"",""弱他""]","","","","","","","","7","","","","","","","","","SRET","SRET_math_calculate","","key","7","8.333242506811958","853.3333333333334","529.3333333333334","","","","","49/7 = ?","7","1","","","","","","","",""
"2186","","8","psychophysics","128","518157","0.0-7.0-5.0-0.25","4","5","5","3","2","4","2","3","4","4","4","-1","1","0","-2","-3","0","1","1","4","3","5","4","3","3","3","2","4","3","6","6","4","5","4","4","6","7","6","4","5","5","3","3","3","4","1","3","2","1","2","3","4","3","2","4","2","6","4","2","2","3","3","3","3","4","3","5","3","7","6","3","6","3","4","4","5","5","1","3","796359969116135425","李","654","Male","[""坏我"",""好我"",""好他"",""坏他""]","[""弱我"",""强我"",""强他"",""弱他""]","","","","","","","","8","","","","","","","","","SRET","SRET_math_calculate","","key","8","8.333460076045672","853.3333333333334","529.3333333333334","","","","","4+4= ?","8","1","","","","","","","",""
"1975","","4","psychophysics","129","520132","0.0-7.0-5.0-0.26","4","5","5","3","2","4","2","3","4","4","4","-1","1","0","-2","-3","0","1","1","4","3","5","4","3","3","3","2","4","3","6","6","4","5","4","4","6","7","6","4","5","5","3","3","3","4","1","3","2","1","2","3","4","3","2","4","2","6","4","2","2","3","3","3","3","4","3","5","3","7","6","3","6","3","4","4","5","5","1","3","796359969116135425","李","654","Male","[""坏我"",""好我"",""好他"",""坏他""]","[""弱我"",""强我"",""强他"",""弱他""]","","","","","","","","4","","","","","","","","","SRET","SRET_math_calculate","","key","4","8.333050847457528","853.3333333333334","529.3333333333334","","","","","2+2= ?","4","1","","","","","","","",""
"2057","","9","psychophysics","130","522195","0.0-7.0-5.0-0.27","4","5","5","3","2","4","2","3","4","4","4","-1","1","0","-2","-3","0","1","1","4","3","5","4","3","3","3","2","4","3","6","6","4","5","4","4","6","7","6","4","5","5","3","3","3","4","1","3","2","1","2","3","4","3","2","4","2","6","4","2","2","3","3","3","3","4","3","5","3","7","6","3","6","3","4","4","5","5","1","3","796359969116135425","李","654","Male","[""坏我"",""好我"",""好他"",""坏他""]","[""弱我"",""强我"",""强他"",""弱他""]","","","","","","","","9","","","","","","","","","SRET","SRET_math_calculate","","key","9","8.332926829268152","853.3333333333334","529.3333333333334","","","","","3+6= ?","9","1","","","","","","","",""
"2171","","5","psychophysics","131","524374","0.0-7.0-5.0-0.28","4","5","5","3","2","4","2","3","4","4","4","-1","1","0","-2","-3","0","1","1","4","3","5","4","3","3","3","2","4","3","6","6","4","5","4","4","6","7","6","4","5","5","3","3","3","4","1","3","2","1","2","3","4","3","2","4","2","6","4","2","2","3","3","3","3","4","3","5","3","7","6","3","6","3","4","4","5","5","1","3","796359969116135425","李","654","Male","[""坏我"",""好我"",""好他"",""坏他""]","[""弱我"",""强我"",""强他"",""弱他""]","","","","","","","","5","","","","","","","","","SRET","SRET_math_calculate","","key","5","8.332950191570971","853.3333333333334","529.3333333333334","","","","","15-10= ?","5","1","","","","","","","",""
"1906","","7","psychophysics","132","526287","0.0-7.0-5.0-0.29","4","5","5","3","2","4","2","3","4","4","4","-1","1","0","-2","-3","0","1","1","4","3","5","4","3","3","3","2","4","3","6","6","4","5","4","4","6","7","6","4","5","5","3","3","3","4","1","3","2","1","2","3","4","3","2","4","2","6","4","2","2","3","3","3","3","4","3","5","3","7","6","3","6","3","4","4","5","5","1","3","796359969116135425","李","654","Male","[""坏我"",""好我"",""好他"",""坏他""]","[""弱我"",""强我"",""强他"",""弱他""]","","","","","","","","7","","","","","","","","","SRET","SRET_math_calculate","","key","7","8.332894736842208","853.3333333333334","529.3333333333334","","","","","2+5= ?","7","1","","","","","","","",""
"2721","","3","psychophysics","133","529014","0.0-7.0-5.0-0.30","4","5","5","3","2","4","2","3","4","4","4","-1","1","0","-2","-3","0","1","1","4","3","5","4","3","3","3","2","4","3","6","6","4","5","4","4","6","7","6","4","5","5","3","3","3","4","1","3","2","1","2","3","4","3","2","4","2","6","4","2","2","3","3","3","3","4","3","5","3","7","6","3","6","3","4","4","5","5","1","3","796359969116135425","李","654","Male","[""坏我"",""好我"",""好他"",""坏他""]","[""弱我"",""强我"",""强他"",""弱他""]","","","","","","","","3","","","","","","","","","SRET","SRET_math_calculate","","key","3","8.332822085889571","853.3333333333334","529.3333333333334","","","","","11-8= ?","3","1","","","","","","","",""
"2208","","6","psychophysics","134","531229","0.0-7.0-5.0-0.31","4","5","5","3","2","4","2","3","4","4","4","-1","1","0","-2","-3","0","1","1","4","3","5","4","3","3","3","2","4","3","6","6","4","5","4","4","6","7","6","4","5","5","3","3","3","4","1","3","2","1","2","3","4","3","2","4","2","6","4","2","2","3","3","3","3","4","3","5","3","7","6","3","6","3","4","4","5","5","1","3","796359969116135425","李","654","Male","[""坏我"",""好我"",""好他"",""坏他""]","[""弱我"",""强我"",""强他"",""弱他""]","","","","","","","","6","","","","","","","","","SRET","SRET_math_calculate","","key","6","8.333584905660466","853.3333333333334","529.3333333333334","","","","","5+1= ?","6","1","","","","","","","",""
"2209","","5","psychophysics","135","533447","0.0-7.0-5.0-0.32","4","5","5","3","2","4","2","3","4","4","4","-1","1","0","-2","-3","0","1","1","4","3","5","4","3","3","3","2","4","3","6","6","4","5","4","4","6","7","6","4","5","5","3","3","3","4","1","3","2","1","2","3","4","3","2","4","2","6","4","2","2","3","3","3","3","4","3","5","3","7","6","3","6","3","4","4","5","5","1","3","796359969116135425","李","654","Male","[""坏我"",""好我"",""好他"",""坏他""]","[""弱我"",""强我"",""强他"",""弱他""]","","","","","","","","5","","","","","","","","","SRET","SRET_math_calculate","","key","5","8.333207547169549","853.3333333333334","529.3333333333334","","","","","2+3= ?","5","1","","","","","","","",""
"2186","","3","psychophysics","136","535641","0.0-7.0-5.0-0.33","4","5","5","3","2","4","2","3","4","4","4","-1","1","0","-2","-3","0","1","1","4","3","5","4","3","3","3","2","4","3","6","6","4","5","4","4","6","7","6","4","5","5","3","3","3","4","1","3","2","1","2","3","4","3","2","4","2","6","4","2","2","3","3","3","3","4","3","5","3","7","6","3","6","3","4","4","5","5","1","3","796359969116135425","李","654","Male","[""坏我"",""好我"",""好他"",""坏他""]","[""弱我"",""强我"",""强他"",""弱他""]","","","","","","","","3","","","","","","","","","SRET","SRET_math_calculate","","key","3","8.332699619771864","853.3333333333334","529.3333333333334","","","","","3*1= ?","3","1","","","","","","","",""
