"rt","stimulus","response","trial_type","trial_index","time_elapsed","internal_node_id","swb_1","swb_2","swb_3","swb_4","swb_5","LOT_1","LOT_2","LOT_3","LOT_4","LOT_5","LOT_6","IPC_1","IPC_2","IPC_3","IPC_4","IPC_5","IPC_6","IPC_7","IPC_8","MorIden_1","MorIden_2","MorIden_3","MorIden_4","MorIden_5","MorIden_6","MorIden_7","MorIden_8","MorIden_9","MorIden_10","moralSeImag_1","moralSeImag_2","moralSeImag_3","moralSeImag_4","moralSeImag_5","moralSeImag_6","moralSeImag_7","moralSeImag_8","moralSeImag_9","sde_1","sde_2","sde_3","sde_4","sde_5","sde_6","sde_7","sde_8","sde_9","sde_10","trap2","sde_11","sde_12","sde_13","sde_14","sde_15","sde_16","sde_17","sde_18","sde_19","sde_20","IM_1","IM_2","IM_3","IM_4","IM_5","IM_6","IM_7","IM_8","IM_9","IM_10","IM_11","IM_12","IM_13","IM_14","IM_15","IM_16","IM_17","IM_18","IM_19","IM_20","subj_idx","friend_name","ParticipantID","Sex","Word","Word2","value","success","timeout","failed_images","failed_audio","failed_video","user_agent","responses","item_order","radio_event_ids","radio_event_times","key_event_times","mouse_event_times","straightlining","zigzagging","honeypot","task_id","screen_id","time_stamp","response_type","key_press","avg_frame_time","center_x","center_y","person","word","valence","domain","math","correct_response","correct","status","view_history","identity","duration","Image","condition","question_order","trap2_item"
"5297","
   <p><div style='color:white; font-size: 25px'>您好，欢迎参加本次实验。</div></p>
   <p><div style='color:white; font-size: 25px'>为充分保障您的权利，请确保您已经知晓并同意《参与实验同意书》以及《数据公开知情同意书》。</div></p>
   <p><div style='color:white; font-size: 25px'>如果您未见过上述内容，请咨询实验员。</div></p>
   <p style='color:white; font-size: 25px'>如果您选择继续实验，则表示您已经清楚两份知情同意书的内容并同意。</p>
   <p><div style = ""color: pink;font-size:30px;"">请确保您记得day0的实验编号，您将在本次实验输入该编号，若您忘记，请咨询实验员后作答。</div></p>
   <p><div style = ""color:lightblue;font-size:25px;"">请您尽可能认真地作答，我们将依据您在各问卷和按键任务中的作答质量发放报酬。</div></p>
   <p> <div style = ""color: green""><按空格键至下页></div> </p>
   "," ","html-keyboard-response","0","5298","0.0-0.0","7","7","7","7","7","5","4","4","5","5","5","2","-1","2","0","-1","0","2","0","5","4","5","5","4","3","4","4","4","4","5","5","4","8","7","3","7","5","5","6","7","5","5","4","2","6","1","5","4","1","4","2","4","3","2","5","5","6","5","3","3","4","3","7","5","6","3","7","7","7","7","7","7","4","4","6","3","7","4","6","801783599631310849","黄","12","Male","[""好他"",""好我"",""坏我"",""坏他""]","[""强他"",""强我"",""弱我"",""弱他""]","","","","","","","","","","","","","","","","","","","","","","","","","","","","","","","","","","","","","","",""
"","","","call-function","1","5299","0.0-1.0-0.0","7","7","7","7","7","5","4","4","5","5","5","2","-1","2","0","-1","0","2","0","5","4","5","5","4","3","4","4","4","4","5","5","4","8","7","3","7","5","5","6","7","5","5","4","2","6","1","5","4","1","4","2","4","3","2","5","5","6","5","3","3","4","3","7","5","6","3","7","7","7","7","7","7","4","4","6","3","7","4","6","801783599631310849","黄","12","Male","[""好他"",""好我"",""坏我"",""坏他""]","[""强他"",""强我"",""弱我"",""弱他""]","","","","","","","","","","","","","","","","","","","","","","","","","","","","","","","","","","","","","","",""
"10020","","[{""name"":""Sex"",""value"":""0""},{""name"":""friend_name"",""value"":""黄""},{""name"":""ParticipantID"",""value"":""12""}]","survey-html-form","2","15320","0.0-1.0-1.0","7","7","7","7","7","5","4","4","5","5","5","2","-1","2","0","-1","0","2","0","5","4","5","5","4","3","4","4","4","4","5","5","4","8","7","3","7","5","5","6","7","5","5","4","2","6","1","5","4","1","4","2","4","3","2","5","5","6","5","3","3","4","3","7","5","6","3","7","7","7","7","7","7","4","4","6","3","7","4","6","801783599631310849","黄","12","Male","[""好他"",""好我"",""坏我"",""坏他""]","[""强他"",""强我"",""弱我"",""弱他""]","","","","","","","","","","","","","","","","","","","","","","","","","","","","","","","","","","","","","","",""
"","","","preload","3","15452","0.0-2.0","7","7","7","7","7","5","4","4","5","5","5","2","-1","2","0","-1","0","2","0","5","4","5","5","4","3","4","4","4","4","5","5","4","8","7","3","7","5","5","6","7","5","5","4","2","6","1","5","4","1","4","2","4","3","2","5","5","6","5","3","3","4","3","7","5","6","3","7","7","7","7","7","7","4","4","6","3","7","4","6","801783599631310849","黄","12","Male","[""好他"",""好我"",""坏我"",""坏他""]","[""强他"",""强我"",""弱我"",""弱他""]","","true","false","[]","[]","[]","","","","","","","","","","","","","","","","","","","","","","","","","","","","","","","","",""
"","","","fullscreen","4","24761","0.0-3.0","7","7","7","7","7","5","4","4","5","5","5","2","-1","2","0","-1","0","2","0","5","4","5","5","4","3","4","4","4","4","5","5","4","8","7","3","7","5","5","6","7","5","5","4","2","6","1","5","4","1","4","2","4","3","2","5","5","6","5","3","3","4","3","7","5","6","3","7","7","7","7","7","7","4","4","6","3","7","4","6","801783599631310849","黄","12","Male","[""好他"",""好我"",""坏我"",""坏他""]","[""强他"",""强我"",""弱我"",""弱他""]","","true","","","","","{}","","","","","","","","","","","","","","","","","","","","","","","","","","","","","","","",""
"11873.40000000596","","{""Q01"":""7"",""Q02"":""7"",""Q03"":""7"",""Q04"":""7"",""Q05"":""7""}","survey-template","5","36643","0.0-4.0","7","7","7","7","7","5","4","4","5","5","5","2","-1","2","0","-1","0","2","0","5","4","5","5","4","3","4","4","4","4","5","5","4","8","7","3","7","5","5","6","7","5","5","4","2","6","1","5","4","1","4","2","4","3","2","5","5","6","5","3","3","4","3","7","5","6","3","7","7","7","7","7","7","4","4","6","3","7","4","6","801783599631310849","黄","12","Male","[""好他"",""好我"",""坏我"",""坏他""]","[""强他"",""强我"",""弱我"",""弱他""]","","","","","","","","{""Q01"":""7"",""Q02"":""7"",""Q03"":""7"",""Q04"":""7"",""Q05"":""7""}","[0,1,2,3,4]","[""Q01"",""Q02"",""Q03"",""Q04"",""Q05""]","[3556.800000011921,4108.9000000059605,5541,9549.10000000894,10244.60000000894]","[]","[2964.7000000029802,3556.800000011921,4108.9000000059605,5541,9084.5,9549.10000000894,10244.60000000894,11872.70000000298]","1","0","0","","","","","","","","","","","","","","","","","","","","","","",""
"20673.10000000894","","{""Q01"":""5"",""Q02"":""4"",""Q03"":""4"",""Q04"":""5"",""Q05"":""5"",""Q06"":""5""}","survey-template","6","57319","0.0-5.0","7","7","7","7","7","5","4","4","5","5","5","2","-1","2","0","-1","0","2","0","5","4","5","5","4","3","4","4","4","4","5","5","4","8","7","3","7","5","5","6","7","5","5","4","2","6","1","5","4","1","4","2","4","3","2","5","5","6","5","3","3","4","3","7","5","6","3","7","7","7","7","7","7","4","4","6","3","7","4","6","801783599631310849","黄","12","Male","[""好他"",""好我"",""坏我"",""坏他""]","[""强他"",""强我"",""弱我"",""弱他""]","","","","","","","","{""Q01"":""5"",""Q02"":""4"",""Q03"":""4"",""Q04"":""5"",""Q05"":""5"",""Q06"":""5""}","[0,1,2,3,4,5]","[""Q01"",""Q02"",""Q03"",""Q04"",""Q05"",""Q06""]","[5400.5,9192.40000000596,10168.70000000298,12280.5,13848.60000000894,18600.60000000894]","[]","[5400.5,8372.29999999702,9192.40000000596,10168.70000000298,12280.5,13848.60000000894,18600.60000000894,20672.60000000894]","0.3333333333333333","0.2","0","","","","","","","","","","","","","","","","","","","","","","",""
"34042.10000000894","","{""Q01"":""2"",""Q02"":""-1"",""Q03"":""2"",""Q04"":""0"",""Q05"":""-1"",""Q06"":""0"",""Q07"":""2"",""Q08"":""0""}","survey-template","7","91363","0.0-6.0","7","7","7","7","7","5","4","4","5","5","5","2","-1","2","0","-1","0","2","0","5","4","5","5","4","3","4","4","4","4","5","5","4","8","7","3","7","5","5","6","7","5","5","4","2","6","1","5","4","1","4","2","4","3","2","5","5","6","5","3","3","4","3","7","5","6","3","7","7","7","7","7","7","4","4","6","3","7","4","6","801783599631310849","黄","12","Male","[""好他"",""好我"",""坏我"",""坏他""]","[""强他"",""强我"",""弱我"",""弱他""]","","","","","","","","{""Q01"":""2"",""Q02"":""-1"",""Q03"":""2"",""Q04"":""0"",""Q05"":""-1"",""Q06"":""0"",""Q07"":""2"",""Q08"":""0""}","[0,1,2,3,4,5,6,7]","[""Q01"",""Q02"",""Q03"",""Q04"",""Q05"",""Q06"",""Q07"",""Q08""]","[3273.2000000029802,7441.300000011921,10605.20000000298,13393.40000000596,16077.300000011921,19109.30000001192,23189.40000000596,25557.5]","[]","[3273.2000000029802,6417.5,7441.300000011921,10605.20000000298,13393.40000000596,16077.300000011921,19109.30000001192,23189.40000000596,25557.5,29989.40000000596,34041.40000000596]","0.375","0.2857142857142857","0","","","","","","","","","","","","","","","","","","","","","","",""
"6817","
    <p><div style='color:white;font-size:35px; line-height:20px;'>词汇评估任务</div></p><br>
    <p><div style='color:white;font-size:25px; line-height:20px;'>请再次回忆该亲密的朋友，你们至少2年前就认识了，并且最近2年经常见面。</div></p>
    <p><div style='color:white;font-size:25px; line-height:20px;'>在本实验中，您将会看到一些形容词。</div></p>
    <p><div style='color:yellow;font-size:25px; line-height:20px;'>您的任务是判断这些形容词是否符合对您自己或您的朋友的描述。</div></p><p style='font-size:35px'>符合按<span style=""color:lightgreen""> f 键</span>，不符合按<span style=""color:red""> j 键</span></p>","0","html-button-response","8","98182","0.0-7.0-0.0","7","7","7","7","7","5","4","4","5","5","5","2","-1","2","0","-1","0","2","0","5","4","5","5","4","3","4","4","4","4","5","5","4","8","7","3","7","5","5","6","7","5","5","4","2","6","1","5","4","1","4","2","4","3","2","5","5","6","5","3","3","4","3","7","5","6","3","7","7","7","7","7","7","4","4","6","3","7","4","6","801783599631310849","黄","12","Male","[""好他"",""好我"",""坏我"",""坏他""]","[""强他"",""强我"",""弱我"",""弱他""]","","","","","","","","","","","","","","","","","SRET_EW","EW_instructions","Sat Jan 27 2024 22:15:17 GMT+0800 (中国标准时间)","","","","","","","","","","","","","","","","","","","",""
"1414","","j","psychophysics","9","100598","0.0-7.0-1.0-0.0","7","7","7","7","7","5","4","4","5","5","5","2","-1","2","0","-1","0","2","0","5","4","5","5","4","3","4","4","4","4","5","5","4","8","7","3","7","5","5","6","7","5","5","4","2","6","1","5","4","1","4","2","4","3","2","5","5","6","5","3","3","4","3","7","5","6","3","7","7","7","7","7","7","4","4","6","3","7","4","6","801783599631310849","黄","12","Male","[""好他"",""好我"",""坏我"",""坏他""]","[""强他"",""强我"",""弱我"",""弱他""]","","","","","","","","no","","","","","","","","","SRET_EW","EW_practice","","key","j","16.665668965517323","640","356","朋友","徇私","Negative","morality","","","","","","","","","","",""
"657","","f","psychophysics","10","102257","0.0-7.0-1.0-0.1","7","7","7","7","7","5","4","4","5","5","5","2","-1","2","0","-1","0","2","0","5","4","5","5","4","3","4","4","4","4","5","5","4","8","7","3","7","5","5","6","7","5","5","4","2","6","1","5","4","1","4","2","4","3","2","5","5","6","5","3","3","4","3","7","5","6","3","7","7","7","7","7","7","4","4","6","3","7","4","6","801783599631310849","黄","12","Male","[""好他"",""好我"",""坏我"",""坏他""]","[""强他"",""强我"",""弱我"",""弱他""]","","","","","","","","yes","","","","","","","","","SRET_EW","EW_practice","","key","f","16.664838383838415","640","356","自己","严谨","Positive","ability","","","","","","","","","","",""
"899","","j","psychophysics","11","104158","0.0-7.0-1.0-0.2","7","7","7","7","7","5","4","4","5","5","5","2","-1","2","0","-1","0","2","0","5","4","5","5","4","3","4","4","4","4","5","5","4","8","7","3","7","5","5","6","7","5","5","4","2","6","1","5","4","1","4","2","4","3","2","5","5","6","5","3","3","4","3","7","5","6","3","7","7","7","7","7","7","4","4","6","3","7","4","6","801783599631310849","黄","12","Male","[""好他"",""好我"",""坏我"",""坏他""]","[""强他"",""强我"",""弱我"",""弱他""]","","","","","","","","no","","","","","","","","","SRET_EW","EW_practice","","key","j","16.665973451327346","640","356","自己","刻板","Negative","ability","","","","","","","","","","",""
"719","","f","psychophysics","12","105877","0.0-7.0-1.0-0.3","7","7","7","7","7","5","4","4","5","5","5","2","-1","2","0","-1","0","2","0","5","4","5","5","4","3","4","4","4","4","5","5","4","8","7","3","7","5","5","6","7","5","5","4","2","6","1","5","4","1","4","2","4","3","2","5","5","6","5","3","3","4","3","7","5","6","3","7","7","7","7","7","7","4","4","6","3","7","4","6","801783599631310849","黄","12","Male","[""好他"",""好我"",""坏我"",""坏他""]","[""强他"",""强我"",""弱我"",""弱他""]","","","","","","","","yes","","","","","","","","","SRET_EW","EW_practice","","key","f","16.66725490196076","640","356","朋友","忠实","Positive","morality","","","","","","","","","","",""
"6648","
    <p><div style='color:white;font-size:35px; line-height:20px;'>请您再次阅读实验要求</div></p><br>
    <p><div style='color:white;font-size:25px; line-height:20px;'>请回忆某一个亲密的朋友，你们至少2年前就认识了，并且最近2年经常见面。</div></p>
    <p><div style='color:white;font-size:25px; line-height:20px;'>在本实验中，您将会看到一些形容词。</div></p>
    <p><div style='color:yellow;font-size:25px; line-height:20px;'>您的任务是判断这些形容词是否符合对您自己或您的朋友的描述。</div></p>
    <p><div class='footer' style='font-size:25px; line-height:20px;'>如果对本实验还有不清楚之处，请立即向实验员咨询。</p><p style='font-size:25px; line-height:20px;'>如果您明白了规则：</p><p style='font-size:22px; line-height:20px;'>请按 继续 进入正式实验</p>
    </div>
    <p style='font-size:35px'>符合按<span style=""color:lightgreen""> f 键</span>，不符合按<span style=""color:red""> j 键</span></p>","0","html-button-response","13","112526","0.0-7.0-2.0","7","7","7","7","7","5","4","4","5","5","5","2","-1","2","0","-1","0","2","0","5","4","5","5","4","3","4","4","4","4","5","5","4","8","7","3","7","5","5","6","7","5","5","4","2","6","1","5","4","1","4","2","4","3","2","5","5","6","5","3","3","4","3","7","5","6","3","7","7","7","7","7","7","4","4","6","3","7","4","6","801783599631310849","黄","12","Male","[""好他"",""好我"",""坏我"",""坏他""]","[""强他"",""强我"",""弱我"",""弱他""]","","","","","","","","","","","","","","","","","SRET_EW","prac_instructions","Sat Jan 27 2024 22:15:17 GMT+0800 (中国标准时间)","","","","","","","","","","","","","","","","","","","",""
"636","","j","psychophysics","14","114163","0.0-7.0-3.0-0.0","7","7","7","7","7","5","4","4","5","5","5","2","-1","2","0","-1","0","2","0","5","4","5","5","4","3","4","4","4","4","5","5","4","8","7","3","7","5","5","6","7","5","5","4","2","6","1","5","4","1","4","2","4","3","2","5","5","6","5","3","3","4","3","7","5","6","3","7","7","7","7","7","7","4","4","6","3","7","4","6","801783599631310849","黄","12","Male","[""好他"",""好我"",""坏我"",""坏他""]","[""强他"",""强我"",""弱我"",""弱他""]","","","","","","","","no","","","","","","","","","SRET","EW_formal","","key","j","16.66448979591832","640","356","朋友","迷糊","Negative","ability","","","","","","","","","","",""
"488","","f","psychophysics","15","115653","0.0-7.0-3.0-0.1","7","7","7","7","7","5","4","4","5","5","5","2","-1","2","0","-1","0","2","0","5","4","5","5","4","3","4","4","4","4","5","5","4","8","7","3","7","5","5","6","7","5","5","4","2","6","1","5","4","1","4","2","4","3","2","5","5","6","5","3","3","4","3","7","5","6","3","7","7","7","7","7","7","4","4","6","3","7","4","6","801783599631310849","黄","12","Male","[""好他"",""好我"",""坏我"",""坏他""]","[""强他"",""强我"",""弱我"",""弱他""]","","","","","","","","yes","","","","","","","","","SRET","EW_formal","","key","f","16.66382954545456","640","356","朋友","务实","Positive","ability","","","","","","","","","","",""
"450","","f","psychophysics","16","117104","0.0-7.0-3.0-0.2","7","7","7","7","7","5","4","4","5","5","5","2","-1","2","0","-1","0","2","0","5","4","5","5","4","3","4","4","4","4","5","5","4","8","7","3","7","5","5","6","7","5","5","4","2","6","1","5","4","1","4","2","4","3","2","5","5","6","5","3","3","4","3","7","5","6","3","7","7","7","7","7","7","4","4","6","3","7","4","6","801783599631310849","黄","12","Male","[""好他"",""好我"",""坏我"",""坏他""]","[""强他"",""强我"",""弱我"",""弱他""]","","","","","","","","yes","","","","","","","","","SRET","EW_formal","","key","f","16.666406976744202","640","356","自己","坚贞","Positive","morality","","","","","","","","","","",""
"479","","j","psychophysics","17","118586","0.0-7.0-3.0-0.3","7","7","7","7","7","5","4","4","5","5","5","2","-1","2","0","-1","0","2","0","5","4","5","5","4","3","4","4","4","4","5","5","4","8","7","3","7","5","5","6","7","5","5","4","2","6","1","5","4","1","4","2","4","3","2","5","5","6","5","3","3","4","3","7","5","6","3","7","7","7","7","7","7","4","4","6","3","7","4","6","801783599631310849","黄","12","Male","[""好他"",""好我"",""坏我"",""坏他""]","[""强他"",""强我"",""弱我"",""弱他""]","","","","","","","","no","","","","","","","","","SRET","EW_formal","","key","j","16.66842045454558","640","356","自己","说谎","Negative","morality","","","","","","","","","","",""
"494","","j","psychophysics","18","120081","0.0-7.0-3.0-0.4","7","7","7","7","7","5","4","4","5","5","5","2","-1","2","0","-1","0","2","0","5","4","5","5","4","3","4","4","4","4","5","5","4","8","7","3","7","5","5","6","7","5","5","4","2","6","1","5","4","1","4","2","4","3","2","5","5","6","5","3","3","4","3","7","5","6","3","7","7","7","7","7","7","4","4","6","3","7","4","6","801783599631310849","黄","12","Male","[""好他"",""好我"",""坏我"",""坏他""]","[""强他"",""强我"",""弱我"",""弱他""]","","","","","","","","no","","","","","","","","","SRET","EW_formal","","key","j","16.669033707865268","640","356","朋友","狡狯","Negative","morality","","","","","","","","","","",""
"497","","j","psychophysics","19","121579","0.0-7.0-3.0-0.5","7","7","7","7","7","5","4","4","5","5","5","2","-1","2","0","-1","0","2","0","5","4","5","5","4","3","4","4","4","4","5","5","4","8","7","3","7","5","5","6","7","5","5","4","2","6","1","5","4","1","4","2","4","3","2","5","5","6","5","3","3","4","3","7","5","6","3","7","7","7","7","7","7","4","4","6","3","7","4","6","801783599631310849","黄","12","Male","[""好他"",""好我"",""坏我"",""坏他""]","[""强他"",""强我"",""弱我"",""弱他""]","","","","","","","","no","","","","","","","","","SRET","EW_formal","","key","j","16.666280898876394","640","356","自己","邪恶","Negative","morality","","","","","","","","","","",""
"582","","f","psychophysics","20","123163","0.0-7.0-3.0-0.6","7","7","7","7","7","5","4","4","5","5","5","2","-1","2","0","-1","0","2","0","5","4","5","5","4","3","4","4","4","4","5","5","4","8","7","3","7","5","5","6","7","5","5","4","2","6","1","5","4","1","4","2","4","3","2","5","5","6","5","3","3","4","3","7","5","6","3","7","7","7","7","7","7","4","4","6","3","7","4","6","801783599631310849","黄","12","Male","[""好他"",""好我"",""坏我"",""坏他""]","[""强他"",""强我"",""弱我"",""弱他""]","","","","","","","","yes","","","","","","","","","SRET","EW_formal","","key","f","16.665872340425423","640","356","朋友","忠义","Positive","morality","","","","","","","","","","",""
"681","","j","psychophysics","21","124845","0.0-7.0-3.0-0.7","7","7","7","7","7","5","4","4","5","5","5","2","-1","2","0","-1","0","2","0","5","4","5","5","4","3","4","4","4","4","5","5","4","8","7","3","7","5","5","6","7","5","5","4","2","6","1","5","4","1","4","2","4","3","2","5","5","6","5","3","3","4","3","7","5","6","3","7","7","7","7","7","7","4","4","6","3","7","4","6","801783599631310849","黄","12","Male","[""好他"",""好我"",""坏我"",""坏他""]","[""强他"",""强我"",""弱我"",""弱他""]","","","","","","","","no","","","","","","","","","SRET","EW_formal","","key","j","16.66447","640","356","朋友","无为","Negative","ability","","","","","","","","","","",""
"684","","j","psychophysics","22","126531","0.0-7.0-3.0-0.8","7","7","7","7","7","5","4","4","5","5","5","2","-1","2","0","-1","0","2","0","5","4","5","5","4","3","4","4","4","4","5","5","4","8","7","3","7","5","5","6","7","5","5","4","2","6","1","5","4","1","4","2","4","3","2","5","5","6","5","3","3","4","3","7","5","6","3","7","7","7","7","7","7","4","4","6","3","7","4","6","801783599631310849","黄","12","Male","[""好他"",""好我"",""坏我"",""坏他""]","[""强他"",""强我"",""弱我"",""弱他""]","","","","","","","","no","","","","","","","","","SRET","EW_formal","","key","j","16.66834999999992","640","356","朋友","拙笨","Negative","ability","","","","","","","","","","",""
"469","","j","psychophysics","23","128002","0.0-7.0-3.0-0.9","7","7","7","7","7","5","4","4","5","5","5","2","-1","2","0","-1","0","2","0","5","4","5","5","4","3","4","4","4","4","5","5","4","8","7","3","7","5","5","6","7","5","5","4","2","6","1","5","4","1","4","2","4","3","2","5","5","6","5","3","3","4","3","7","5","6","3","7","7","7","7","7","7","4","4","6","3","7","4","6","801783599631310849","黄","12","Male","[""好他"",""好我"",""坏我"",""坏他""]","[""强他"",""强我"",""弱我"",""弱他""]","","","","","","","","no","","","","","","","","","SRET","EW_formal","","key","j","16.669425287356383","640","356","自己","贪污","Negative","morality","","","","","","","","","","",""
"546","","j","psychophysics","24","129549","0.0-7.0-3.0-0.10","7","7","7","7","7","5","4","4","5","5","5","2","-1","2","0","-1","0","2","0","5","4","5","5","4","3","4","4","4","4","5","5","4","8","7","3","7","5","5","6","7","5","5","4","2","6","1","5","4","1","4","2","4","3","2","5","5","6","5","3","3","4","3","7","5","6","3","7","7","7","7","7","7","4","4","6","3","7","4","6","801783599631310849","黄","12","Male","[""好他"",""好我"",""坏我"",""坏他""]","[""强他"",""强我"",""弱我"",""弱他""]","","","","","","","","no","","","","","","","","","SRET","EW_formal","","key","j","16.66981521739122","640","356","朋友","无赖","Negative","morality","","","","","","","","","","",""
"541","","j","psychophysics","25","131092","0.0-7.0-3.0-0.11","7","7","7","7","7","5","4","4","5","5","5","2","-1","2","0","-1","0","2","0","5","4","5","5","4","3","4","4","4","4","5","5","4","8","7","3","7","5","5","6","7","5","5","4","2","6","1","5","4","1","4","2","4","3","2","5","5","6","5","3","3","4","3","7","5","6","3","7","7","7","7","7","7","4","4","6","3","7","4","6","801783599631310849","黄","12","Male","[""好他"",""好我"",""坏我"",""坏他""]","[""强他"",""强我"",""弱我"",""弱他""]","","","","","","","","no","","","","","","","","","SRET","EW_formal","","key","j","16.669195652173823","640","356","朋友","上进","Positive","ability","","","","","","","","","","",""
"472","","f","psychophysics","26","132565","0.0-7.0-3.0-0.12","7","7","7","7","7","5","4","4","5","5","5","2","-1","2","0","-1","0","2","0","5","4","5","5","4","3","4","4","4","4","5","5","4","8","7","3","7","5","5","6","7","5","5","4","2","6","1","5","4","1","4","2","4","3","2","5","5","6","5","3","3","4","3","7","5","6","3","7","7","7","7","7","7","4","4","6","3","7","4","6","801783599631310849","黄","12","Male","[""好他"",""好我"",""坏我"",""坏他""]","[""强他"",""强我"",""弱我"",""弱他""]","","","","","","","","yes","","","","","","","","","SRET","EW_formal","","key","f","16.66435632183907","640","356","朋友","果决","Positive","ability","","","","","","","","","","",""
"518","","j","psychophysics","27","134083","0.0-7.0-3.0-0.13","7","7","7","7","7","5","4","4","5","5","5","2","-1","2","0","-1","0","2","0","5","4","5","5","4","3","4","4","4","4","5","5","4","8","7","3","7","5","5","6","7","5","5","4","2","6","1","5","4","1","4","2","4","3","2","5","5","6","5","3","3","4","3","7","5","6","3","7","7","7","7","7","7","4","4","6","3","7","4","6","801783599631310849","黄","12","Male","[""好他"",""好我"",""坏我"",""坏他""]","[""强他"",""强我"",""弱我"",""弱他""]","","","","","","","","no","","","","","","","","","SRET","EW_formal","","key","j","16.668544444444382","640","356","自己","下流","Negative","morality","","","","","","","","","","",""
"757","","f","psychophysics","28","135841","0.0-7.0-3.0-0.14","7","7","7","7","7","5","4","4","5","5","5","2","-1","2","0","-1","0","2","0","5","4","5","5","4","3","4","4","4","4","5","5","4","8","7","3","7","5","5","6","7","5","5","4","2","6","1","5","4","1","4","2","4","3","2","5","5","6","5","3","3","4","3","7","5","6","3","7","7","7","7","7","7","4","4","6","3","7","4","6","801783599631310849","黄","12","Male","[""好他"",""好我"",""坏我"",""坏他""]","[""强他"",""强我"",""弱我"",""弱他""]","","","","","","","","yes","","","","","","","","","SRET","EW_formal","","key","f","16.668980952381112","640","356","朋友","粗心","Negative","ability","","","","","","","","","","",""
"554","","j","psychophysics","29","137396","0.0-7.0-3.0-0.15","7","7","7","7","7","5","4","4","5","5","5","2","-1","2","0","-1","0","2","0","5","4","5","5","4","3","4","4","4","4","5","5","4","8","7","3","7","5","5","6","7","5","5","4","2","6","1","5","4","1","4","2","4","3","2","5","5","6","5","3","3","4","3","7","5","6","3","7","7","7","7","7","7","4","4","6","3","7","4","6","801783599631310849","黄","12","Male","[""好他"",""好我"",""坏我"",""坏他""]","[""强他"",""强我"",""弱我"",""弱他""]","","","","","","","","no","","","","","","","","","SRET","EW_formal","","key","j","16.666413043478236","640","356","朋友","弱智","Negative","ability","","","","","","","","","","",""
"612","","j","psychophysics","30","139009","0.0-7.0-3.0-0.16","7","7","7","7","7","5","4","4","5","5","5","2","-1","2","0","-1","0","2","0","5","4","5","5","4","3","4","4","4","4","5","5","4","8","7","3","7","5","5","6","7","5","5","4","2","6","1","5","4","1","4","2","4","3","2","5","5","6","5","3","3","4","3","7","5","6","3","7","7","7","7","7","7","4","4","6","3","7","4","6","801783599631310849","黄","12","Male","[""好他"",""好我"",""坏我"",""坏他""]","[""强他"",""强我"",""弱我"",""弱他""]","","","","","","","","no","","","","","","","","","SRET","EW_formal","","key","j","16.667937500000033","640","356","朋友","无敌","Positive","ability","","","","","","","","","","",""
"442","","f","psychophysics","31","140452","0.0-7.0-3.0-0.17","7","7","7","7","7","5","4","4","5","5","5","2","-1","2","0","-1","0","2","0","5","4","5","5","4","3","4","4","4","4","5","5","4","8","7","3","7","5","5","6","7","5","5","4","2","6","1","5","4","1","4","2","4","3","2","5","5","6","5","3","3","4","3","7","5","6","3","7","7","7","7","7","7","4","4","6","3","7","4","6","801783599631310849","黄","12","Male","[""好他"",""好我"",""坏我"",""坏他""]","[""强他"",""强我"",""弱我"",""弱他""]","","","","","","","","yes","","","","","","","","","SRET","EW_formal","","key","f","16.667082352941403","640","356","朋友","高尚","Positive","morality","","","","","","","","","","",""
"657","","j","psychophysics","32","142110","0.0-7.0-3.0-0.18","7","7","7","7","7","5","4","4","5","5","5","2","-1","2","0","-1","0","2","0","5","4","5","5","4","3","4","4","4","4","5","5","4","8","7","3","7","5","5","6","7","5","5","4","2","6","1","5","4","1","4","2","4","3","2","5","5","6","5","3","3","4","3","7","5","6","3","7","7","7","7","7","7","4","4","6","3","7","4","6","801783599631310849","黄","12","Male","[""好他"",""好我"",""坏我"",""坏他""]","[""强他"",""强我"",""弱我"",""弱他""]","","","","","","","","no","","","","","","","","","SRET","EW_formal","","key","j","16.669393939394126","640","356","自己","歹毒","Negative","morality","","","","","","","","","","",""
"630","","j","psychophysics","33","143741","0.0-7.0-3.0-0.19","7","7","7","7","7","5","4","4","5","5","5","2","-1","2","0","-1","0","2","0","5","4","5","5","4","3","4","4","4","4","5","5","4","8","7","3","7","5","5","6","7","5","5","4","2","6","1","5","4","1","4","2","4","3","2","5","5","6","5","3","3","4","3","7","5","6","3","7","7","7","7","7","7","4","4","6","3","7","4","6","801783599631310849","黄","12","Male","[""好他"",""好我"",""坏我"",""坏他""]","[""强他"",""强我"",""弱我"",""弱他""]","","","","","","","","no","","","","","","","","","SRET","EW_formal","","key","j","16.663639175257654","640","356","朋友","势利","Negative","morality","","","","","","","","","","",""
"705","","f","psychophysics","34","145447","0.0-7.0-3.0-0.20","7","7","7","7","7","5","4","4","5","5","5","2","-1","2","0","-1","0","2","0","5","4","5","5","4","3","4","4","4","4","5","5","4","8","7","3","7","5","5","6","7","5","5","4","2","6","1","5","4","1","4","2","4","3","2","5","5","6","5","3","3","4","3","7","5","6","3","7","7","7","7","7","7","4","4","6","3","7","4","6","801783599631310849","黄","12","Male","[""好他"",""好我"",""坏我"",""坏他""]","[""强他"",""强我"",""弱我"",""弱他""]","","","","","","","","yes","","","","","","","","","SRET","EW_formal","","key","f","16.669217821782038","640","356","自己","依靠","Negative","ability","","","","","","","","","","",""
"547","","j","psychophysics","35","146995","0.0-7.0-3.0-0.21","7","7","7","7","7","5","4","4","5","5","5","2","-1","2","0","-1","0","2","0","5","4","5","5","4","3","4","4","4","4","5","5","4","8","7","3","7","5","5","6","7","5","5","4","2","6","1","5","4","1","4","2","4","3","2","5","5","6","5","3","3","4","3","7","5","6","3","7","7","7","7","7","7","4","4","6","3","7","4","6","801783599631310849","黄","12","Male","[""好他"",""好我"",""坏我"",""坏他""]","[""强他"",""强我"",""弱我"",""弱他""]","","","","","","","","no","","","","","","","","","SRET","EW_formal","","key","j","16.666902173913158","640","356","朋友","不端","Negative","morality","","","","","","","","","","",""
"649","","j","psychophysics","36","148644","0.0-7.0-3.0-0.22","7","7","7","7","7","5","4","4","5","5","5","2","-1","2","0","-1","0","2","0","5","4","5","5","4","3","4","4","4","4","5","5","4","8","7","3","7","5","5","6","7","5","5","4","2","6","1","5","4","1","4","2","4","3","2","5","5","6","5","3","3","4","3","7","5","6","3","7","7","7","7","7","7","4","4","6","3","7","4","6","801783599631310849","黄","12","Male","[""好他"",""好我"",""坏我"",""坏他""]","[""强他"",""强我"",""弱我"",""弱他""]","","","","","","","","no","","","","","","","","","SRET","EW_formal","","key","j","16.666132653061105","640","356","朋友","自私","Negative","morality","","","","","","","","","","",""
"513","","f","psychophysics","37","150158","0.0-7.0-3.0-0.23","7","7","7","7","7","5","4","4","5","5","5","2","-1","2","0","-1","0","2","0","5","4","5","5","4","3","4","4","4","4","5","5","4","8","7","3","7","5","5","6","7","5","5","4","2","6","1","5","4","1","4","2","4","3","2","5","5","6","5","3","3","4","3","7","5","6","3","7","7","7","7","7","7","4","4","6","3","7","4","6","801783599631310849","黄","12","Male","[""好他"",""好我"",""坏我"",""坏他""]","[""强他"",""强我"",""弱我"",""弱他""]","","","","","","","","yes","","","","","","","","","SRET","EW_formal","","key","f","16.665433333333283","640","356","朋友","专注","Positive","ability","","","","","","","","","","",""
"561","","j","psychophysics","38","151720","0.0-7.0-3.0-0.24","7","7","7","7","7","5","4","4","5","5","5","2","-1","2","0","-1","0","2","0","5","4","5","5","4","3","4","4","4","4","5","5","4","8","7","3","7","5","5","6","7","5","5","4","2","6","1","5","4","1","4","2","4","3","2","5","5","6","5","3","3","4","3","7","5","6","3","7","7","7","7","7","7","4","4","6","3","7","4","6","801783599631310849","黄","12","Male","[""好他"",""好我"",""坏我"",""坏他""]","[""强他"",""强我"",""弱我"",""弱他""]","","","","","","","","no","","","","","","","","","SRET","EW_formal","","key","j","16.665684782608878","640","356","自己","利己","Negative","morality","","","","","","","","","","",""
"655","","f","psychophysics","39","153376","0.0-7.0-3.0-0.25","7","7","7","7","7","5","4","4","5","5","5","2","-1","2","0","-1","0","2","0","5","4","5","5","4","3","4","4","4","4","5","5","4","8","7","3","7","5","5","6","7","5","5","4","2","6","1","5","4","1","4","2","4","3","2","5","5","6","5","3","3","4","3","7","5","6","3","7","7","7","7","7","7","4","4","6","3","7","4","6","801783599631310849","黄","12","Male","[""好他"",""好我"",""坏我"",""坏他""]","[""强他"",""强我"",""弱我"",""弱他""]","","","","","","","","yes","","","","","","","","","SRET","EW_formal","","key","f","16.668333333333123","640","356","自己","拖拉","Negative","ability","","","","","","","","","","",""
"547","","f","psychophysics","40","154925","0.0-7.0-3.0-0.26","7","7","7","7","7","5","4","4","5","5","5","2","-1","2","0","-1","0","2","0","5","4","5","5","4","3","4","4","4","4","5","5","4","8","7","3","7","5","5","6","7","5","5","4","2","6","1","5","4","1","4","2","4","3","2","5","5","6","5","3","3","4","3","7","5","6","3","7","7","7","7","7","7","4","4","6","3","7","4","6","801783599631310849","黄","12","Male","[""好他"",""好我"",""坏我"",""坏他""]","[""强他"",""强我"",""弱我"",""弱他""]","","","","","","","","yes","","","","","","","","","SRET","EW_formal","","key","f","16.664163043477974","640","356","朋友","刚正","Positive","morality","","","","","","","","","","",""
"483","","f","psychophysics","41","156409","0.0-7.0-3.0-0.27","7","7","7","7","7","5","4","4","5","5","5","2","-1","2","0","-1","0","2","0","5","4","5","5","4","3","4","4","4","4","5","5","4","8","7","3","7","5","5","6","7","5","5","4","2","6","1","5","4","1","4","2","4","3","2","5","5","6","5","3","3","4","3","7","5","6","3","7","7","7","7","7","7","4","4","6","3","7","4","6","801783599631310849","黄","12","Male","[""好他"",""好我"",""坏我"",""坏他""]","[""强他"",""强我"",""弱我"",""弱他""]","","","","","","","","yes","","","","","","","","","SRET","EW_formal","","key","f","16.666011363636326","640","356","自己","守时","Positive","morality","","","","","","","","","","",""
"503","","j","psychophysics","42","157919","0.0-7.0-3.0-0.28","7","7","7","7","7","5","4","4","5","5","5","2","-1","2","0","-1","0","2","0","5","4","5","5","4","3","4","4","4","4","5","5","4","8","7","3","7","5","5","6","7","5","5","4","2","6","1","5","4","1","4","2","4","3","2","5","5","6","5","3","3","4","3","7","5","6","3","7","7","7","7","7","7","4","4","6","3","7","4","6","801783599631310849","黄","12","Male","[""好他"",""好我"",""坏我"",""坏他""]","[""强他"",""强我"",""弱我"",""弱他""]","","","","","","","","no","","","","","","","","","SRET","EW_formal","","key","j","16.66955056179804","640","356","自己","毛糙","Negative","ability","","","","","","","","","","",""
"526","","f","psychophysics","43","159446","0.0-7.0-3.0-0.29","7","7","7","7","7","5","4","4","5","5","5","2","-1","2","0","-1","0","2","0","5","4","5","5","4","3","4","4","4","4","5","5","4","8","7","3","7","5","5","6","7","5","5","4","2","6","1","5","4","1","4","2","4","3","2","5","5","6","5","3","3","4","3","7","5","6","3","7","7","7","7","7","7","4","4","6","3","7","4","6","801783599631310849","黄","12","Male","[""好他"",""好我"",""坏我"",""坏他""]","[""强他"",""强我"",""弱我"",""弱他""]","","","","","","","","yes","","","","","","","","","SRET","EW_formal","","key","f","16.669307692307765","640","356","自己","娴熟","Positive","ability","","","","","","","","","","",""
"526","","j","psychophysics","44","160974","0.0-7.0-3.0-0.30","7","7","7","7","7","5","4","4","5","5","5","2","-1","2","0","-1","0","2","0","5","4","5","5","4","3","4","4","4","4","5","5","4","8","7","3","7","5","5","6","7","5","5","4","2","6","1","5","4","1","4","2","4","3","2","5","5","6","5","3","3","4","3","7","5","6","3","7","7","7","7","7","7","4","4","6","3","7","4","6","801783599631310849","黄","12","Male","[""好他"",""好我"",""坏我"",""坏他""]","[""强他"",""强我"",""弱我"",""弱他""]","","","","","","","","no","","","","","","","","","SRET","EW_formal","","key","j","16.66643956043965","640","356","自己","虚假","Negative","morality","","","","","","","","","","",""
"636","","f","psychophysics","45","162611","0.0-7.0-3.0-0.31","7","7","7","7","7","5","4","4","5","5","5","2","-1","2","0","-1","0","2","0","5","4","5","5","4","3","4","4","4","4","5","5","4","8","7","3","7","5","5","6","7","5","5","4","2","6","1","5","4","1","4","2","4","3","2","5","5","6","5","3","3","4","3","7","5","6","3","7","7","7","7","7","7","4","4","6","3","7","4","6","801783599631310849","黄","12","Male","[""好他"",""好我"",""坏我"",""坏他""]","[""强他"",""强我"",""弱我"",""弱他""]","","","","","","","","yes","","","","","","","","","SRET","EW_formal","","key","f","16.66691752577341","640","356","朋友","独断","Negative","ability","","","","","","","","","","",""
"820","","j","psychophysics","46","164432","0.0-7.0-3.0-0.32","7","7","7","7","7","5","4","4","5","5","5","2","-1","2","0","-1","0","2","0","5","4","5","5","4","3","4","4","4","4","5","5","4","8","7","3","7","5","5","6","7","5","5","4","2","6","1","5","4","1","4","2","4","3","2","5","5","6","5","3","3","4","3","7","5","6","3","7","7","7","7","7","7","4","4","6","3","7","4","6","801783599631310849","黄","12","Male","[""好他"",""好我"",""坏我"",""坏他""]","[""强他"",""强我"",""弱我"",""弱他""]","","","","","","","","no","","","","","","","","","SRET","EW_formal","","key","j","16.666611111111166","640","356","自己","逞强","Negative","ability","","","","","","","","","","",""
"530","","f","psychophysics","47","165962","0.0-7.0-3.0-0.33","7","7","7","7","7","5","4","4","5","5","5","2","-1","2","0","-1","0","2","0","5","4","5","5","4","3","4","4","4","4","5","5","4","8","7","3","7","5","5","6","7","5","5","4","2","6","1","5","4","1","4","2","4","3","2","5","5","6","5","3","3","4","3","7","5","6","3","7","7","7","7","7","7","4","4","6","3","7","4","6","801783599631310849","黄","12","Male","[""好他"",""好我"",""坏我"",""坏他""]","[""强他"",""强我"",""弱我"",""弱他""]","","","","","","","","yes","","","","","","","","","SRET","EW_formal","","key","f","16.66716483516483","640","356","自己","君子","Positive","morality","","","","","","","","","","",""
"684","","j","psychophysics","48","167649","0.0-7.0-3.0-0.34","7","7","7","7","7","5","4","4","5","5","5","2","-1","2","0","-1","0","2","0","5","4","5","5","4","3","4","4","4","4","5","5","4","8","7","3","7","5","5","6","7","5","5","4","2","6","1","5","4","1","4","2","4","3","2","5","5","6","5","3","3","4","3","7","5","6","3","7","7","7","7","7","7","4","4","6","3","7","4","6","801783599631310849","黄","12","Male","[""好他"",""好我"",""坏我"",""坏他""]","[""强他"",""强我"",""弱我"",""弱他""]","","","","","","","","no","","","","","","","","","SRET","EW_formal","","key","j","16.665109999999984","640","356","自己","短浅","Negative","ability","","","","","","","","","","",""
"631","","j","psychophysics","49","169282","0.0-7.0-3.0-0.35","7","7","7","7","7","5","4","4","5","5","5","2","-1","2","0","-1","0","2","0","5","4","5","5","4","3","4","4","4","4","5","5","4","8","7","3","7","5","5","6","7","5","5","4","2","6","1","5","4","1","4","2","4","3","2","5","5","6","5","3","3","4","3","7","5","6","3","7","7","7","7","7","7","4","4","6","3","7","4","6","801783599631310849","黄","12","Male","[""好他"",""好我"",""坏我"",""坏他""]","[""强他"",""强我"",""弱我"",""弱他""]","","","","","","","","no","","","","","","","","","SRET","EW_formal","","key","j","16.668123711340105","640","356","自己","迂拙","Negative","ability","","","","","","","","","","",""
"699","","f","psychophysics","50","170982","0.0-7.0-3.0-0.36","7","7","7","7","7","5","4","4","5","5","5","2","-1","2","0","-1","0","2","0","5","4","5","5","4","3","4","4","4","4","5","5","4","8","7","3","7","5","5","6","7","5","5","4","2","6","1","5","4","1","4","2","4","3","2","5","5","6","5","3","3","4","3","7","5","6","3","7","7","7","7","7","7","4","4","6","3","7","4","6","801783599631310849","黄","12","Male","[""好他"",""好我"",""坏我"",""坏他""]","[""强他"",""强我"",""弱我"",""弱他""]","","","","","","","","yes","","","","","","","","","SRET","EW_formal","","key","f","16.667207920791853","640","356","自己","逞能","Negative","ability","","","","","","","","","","",""
"1306","","f","psychophysics","51","173290","0.0-7.0-3.0-0.37","7","7","7","7","7","5","4","4","5","5","5","2","-1","2","0","-1","0","2","0","5","4","5","5","4","3","4","4","4","4","5","5","4","8","7","3","7","5","5","6","7","5","5","4","2","6","1","5","4","1","4","2","4","3","2","5","5","6","5","3","3","4","3","7","5","6","3","7","7","7","7","7","7","4","4","6","3","7","4","6","801783599631310849","黄","12","Male","[""好他"",""好我"",""坏我"",""坏他""]","[""强他"",""强我"",""弱我"",""弱他""]","","","","","","","","yes","","","","","","","","","SRET","EW_formal","","key","f","16.668057971014356","640","356","朋友","侠义","Positive","morality","","","","","","","","","","",""
"495","","f","psychophysics","52","174786","0.0-7.0-3.0-0.38","7","7","7","7","7","5","4","4","5","5","5","2","-1","2","0","-1","0","2","0","5","4","5","5","4","3","4","4","4","4","5","5","4","8","7","3","7","5","5","6","7","5","5","4","2","6","1","5","4","1","4","2","4","3","2","5","5","6","5","3","3","4","3","7","5","6","3","7","7","7","7","7","7","4","4","6","3","7","4","6","801783599631310849","黄","12","Male","[""好他"",""好我"",""坏我"",""坏他""]","[""强他"",""强我"",""弱我"",""弱他""]","","","","","","","","yes","","","","","","","","","SRET","EW_formal","","key","f","16.66586363636353","640","356","朋友","善心","Positive","morality","","","","","","","","","","",""
"674","","f","psychophysics","53","176462","0.0-7.0-3.0-0.39","7","7","7","7","7","5","4","4","5","5","5","2","-1","2","0","-1","0","2","0","5","4","5","5","4","3","4","4","4","4","5","5","4","8","7","3","7","5","5","6","7","5","5","4","2","6","1","5","4","1","4","2","4","3","2","5","5","6","5","3","3","4","3","7","5","6","3","7","7","7","7","7","7","4","4","6","3","7","4","6","801783599631310849","黄","12","Male","[""好他"",""好我"",""坏我"",""坏他""]","[""强他"",""强我"",""弱我"",""弱他""]","","","","","","","","yes","","","","","","","","","SRET","EW_formal","","key","f","16.667789999999805","640","356","朋友","孝顺","Positive","morality","","","","","","","","","","",""
"718","","j","psychophysics","54","178181","0.0-7.0-3.0-0.40","7","7","7","7","7","5","4","4","5","5","5","2","-1","2","0","-1","0","2","0","5","4","5","5","4","3","4","4","4","4","5","5","4","8","7","3","7","5","5","6","7","5","5","4","2","6","1","5","4","1","4","2","4","3","2","5","5","6","5","3","3","4","3","7","5","6","3","7","7","7","7","7","7","4","4","6","3","7","4","6","801783599631310849","黄","12","Male","[""好他"",""好我"",""坏我"",""坏他""]","[""强他"",""强我"",""弱我"",""弱他""]","","","","","","","","no","","","","","","","","","SRET","EW_formal","","key","j","16.667264705882225","640","356","朋友","背叛","Negative","morality","","","","","","","","","","",""
"508","","j","psychophysics","55","179691","0.0-7.0-3.0-0.41","7","7","7","7","7","5","4","4","5","5","5","2","-1","2","0","-1","0","2","0","5","4","5","5","4","3","4","4","4","4","5","5","4","8","7","3","7","5","5","6","7","5","5","4","2","6","1","5","4","1","4","2","4","3","2","5","5","6","5","3","3","4","3","7","5","6","3","7","7","7","7","7","7","4","4","6","3","7","4","6","801783599631310849","黄","12","Male","[""好他"",""好我"",""坏我"",""坏他""]","[""强他"",""强我"",""弱我"",""弱他""]","","","","","","","","no","","","","","","","","","SRET","EW_formal","","key","j","16.667722222222235","640","356","朋友","奸诈","Negative","morality","","","","","","","","","","",""
"788","","f","psychophysics","56","181480","0.0-7.0-3.0-0.42","7","7","7","7","7","5","4","4","5","5","5","2","-1","2","0","-1","0","2","0","5","4","5","5","4","3","4","4","4","4","5","5","4","8","7","3","7","5","5","6","7","5","5","4","2","6","1","5","4","1","4","2","4","3","2","5","5","6","5","3","3","4","3","7","5","6","3","7","7","7","7","7","7","4","4","6","3","7","4","6","801783599631310849","黄","12","Male","[""好他"",""好我"",""坏我"",""坏他""]","[""强他"",""强我"",""弱我"",""弱他""]","","","","","","","","yes","","","","","","","","","SRET","EW_formal","","key","f","16.667641509433864","640","356","朋友","淡泊","Positive","morality","","","","","","","","","","",""
"593","","j","psychophysics","57","183074","0.0-7.0-3.0-0.43","7","7","7","7","7","5","4","4","5","5","5","2","-1","2","0","-1","0","2","0","5","4","5","5","4","3","4","4","4","4","5","5","4","8","7","3","7","5","5","6","7","5","5","4","2","6","1","5","4","1","4","2","4","3","2","5","5","6","5","3","3","4","3","7","5","6","3","7","7","7","7","7","7","4","4","6","3","7","4","6","801783599631310849","黄","12","Male","[""好他"",""好我"",""坏我"",""坏他""]","[""强他"",""强我"",""弱我"",""弱他""]","","","","","","","","no","","","","","","","","","SRET","EW_formal","","key","j","16.66703157894724","640","356","自己","无能","Negative","ability","","","","","","","","","","",""
"832","","f","psychophysics","58","184907","0.0-7.0-3.0-0.44","7","7","7","7","7","5","4","4","5","5","5","2","-1","2","0","-1","0","2","0","5","4","5","5","4","3","4","4","4","4","5","5","4","8","7","3","7","5","5","6","7","5","5","4","2","6","1","5","4","1","4","2","4","3","2","5","5","6","5","3","3","4","3","7","5","6","3","7","7","7","7","7","7","4","4","6","3","7","4","6","801783599631310849","黄","12","Male","[""好他"",""好我"",""坏我"",""坏他""]","[""强他"",""强我"",""弱我"",""弱他""]","","","","","","","","yes","","","","","","","","","SRET","EW_formal","","key","f","16.665256880734002","640","356","自己","思辨","Positive","ability","","","","","","","","","","",""
"532","","j","psychophysics","59","186440","0.0-7.0-3.0-0.45","7","7","7","7","7","5","4","4","5","5","5","2","-1","2","0","-1","0","2","0","5","4","5","5","4","3","4","4","4","4","5","5","4","8","7","3","7","5","5","6","7","5","5","4","2","6","1","5","4","1","4","2","4","3","2","5","5","6","5","3","3","4","3","7","5","6","3","7","7","7","7","7","7","4","4","6","3","7","4","6","801783599631310849","黄","12","Male","[""好他"",""好我"",""坏我"",""坏他""]","[""强他"",""强我"",""弱我"",""弱他""]","","","","","","","","no","","","","","","","","","SRET","EW_formal","","key","j","16.66636263736259","640","356","自己","恶劣","Negative","morality","","","","","","","","","","",""
"491","","f","psychophysics","60","187932","0.0-7.0-3.0-0.46","7","7","7","7","7","5","4","4","5","5","5","2","-1","2","0","-1","0","2","0","5","4","5","5","4","3","4","4","4","4","5","5","4","8","7","3","7","5","5","6","7","5","5","4","2","6","1","5","4","1","4","2","4","3","2","5","5","6","5","3","3","4","3","7","5","6","3","7","7","7","7","7","7","4","4","6","3","7","4","6","801783599631310849","黄","12","Male","[""好他"",""好我"",""坏我"",""坏他""]","[""强他"",""强我"",""弱我"",""弱他""]","","","","","","","","yes","","","","","","","","","SRET","EW_formal","","key","f","16.66384090909097","640","356","朋友","智慧","Positive","ability","","","","","","","","","","",""
"633","","j","psychophysics","61","189566","0.0-7.0-3.0-0.47","7","7","7","7","7","5","4","4","5","5","5","2","-1","2","0","-1","0","2","0","5","4","5","5","4","3","4","4","4","4","5","5","4","8","7","3","7","5","5","6","7","5","5","4","2","6","1","5","4","1","4","2","4","3","2","5","5","6","5","3","3","4","3","7","5","6","3","7","7","7","7","7","7","4","4","6","3","7","4","6","801783599631310849","黄","12","Male","[""好他"",""好我"",""坏我"",""坏他""]","[""强他"",""强我"",""弱我"",""弱他""]","","","","","","","","no","","","","","","","","","SRET","EW_formal","","key","j","16.669288659793835","640","356","自己","笨蛋","Negative","ability","","","","","","","","","","",""
"969","","f","psychophysics","62","191536","0.0-7.0-3.0-0.48","7","7","7","7","7","5","4","4","5","5","5","2","-1","2","0","-1","0","2","0","5","4","5","5","4","3","4","4","4","4","5","5","4","8","7","3","7","5","5","6","7","5","5","4","2","6","1","5","4","1","4","2","4","3","2","5","5","6","5","3","3","4","3","7","5","6","3","7","7","7","7","7","7","4","4","6","3","7","4","6","801783599631310849","黄","12","Male","[""好他"",""好我"",""坏我"",""坏他""]","[""强他"",""强我"",""弱我"",""弱他""]","","","","","","","","yes","","","","","","","","","SRET","EW_formal","","key","f","16.667144067796595","640","356","自己","无私","Positive","morality","","","","","","","","","","",""
"460","","f","psychophysics","63","192997","0.0-7.0-3.0-0.49","7","7","7","7","7","5","4","4","5","5","5","2","-1","2","0","-1","0","2","0","5","4","5","5","4","3","4","4","4","4","5","5","4","8","7","3","7","5","5","6","7","5","5","4","2","6","1","5","4","1","4","2","4","3","2","5","5","6","5","3","3","4","3","7","5","6","3","7","7","7","7","7","7","4","4","6","3","7","4","6","801783599631310849","黄","12","Male","[""好他"",""好我"",""坏我"",""坏他""]","[""强他"",""强我"",""弱我"",""弱他""]","","","","","","","","yes","","","","","","","","","SRET","EW_formal","","key","f","16.66410465116293","640","356","自己","义气","Positive","morality","","","","","","","","","","",""
"500","","j","psychophysics","64","194497","0.0-7.0-3.0-0.50","7","7","7","7","7","5","4","4","5","5","5","2","-1","2","0","-1","0","2","0","5","4","5","5","4","3","4","4","4","4","5","5","4","8","7","3","7","5","5","6","7","5","5","4","2","6","1","5","4","1","4","2","4","3","2","5","5","6","5","3","3","4","3","7","5","6","3","7","7","7","7","7","7","4","4","6","3","7","4","6","801783599631310849","黄","12","Male","[""好他"",""好我"",""坏我"",""坏他""]","[""强他"",""强我"",""弱我"",""弱他""]","","","","","","","","no","","","","","","","","","SRET","EW_formal","","key","j","16.66861797752823","640","356","朋友","外行","Negative","ability","","","","","","","","","","",""
"526","","j","psychophysics","65","196024","0.0-7.0-3.0-0.51","7","7","7","7","7","5","4","4","5","5","5","2","-1","2","0","-1","0","2","0","5","4","5","5","4","3","4","4","4","4","5","5","4","8","7","3","7","5","5","6","7","5","5","4","2","6","1","5","4","1","4","2","4","3","2","5","5","6","5","3","3","4","3","7","5","6","3","7","7","7","7","7","7","4","4","6","3","7","4","6","801783599631310849","黄","12","Male","[""好他"",""好我"",""坏我"",""坏他""]","[""强他"",""强我"",""弱我"",""弱他""]","","","","","","","","no","","","","","","","","","SRET","EW_formal","","key","j","16.669054945054846","640","356","自己","低劣","Negative","morality","","","","","","","","","","",""
"628","","j","psychophysics","66","197654","0.0-7.0-3.0-0.52","7","7","7","7","7","5","4","4","5","5","5","2","-1","2","0","-1","0","2","0","5","4","5","5","4","3","4","4","4","4","5","5","4","8","7","3","7","5","5","6","7","5","5","4","2","6","1","5","4","1","4","2","4","3","2","5","5","6","5","3","3","4","3","7","5","6","3","7","7","7","7","7","7","4","4","6","3","7","4","6","801783599631310849","黄","12","Male","[""好他"",""好我"",""坏我"",""坏他""]","[""强他"",""强我"",""弱我"",""弱他""]","","","","","","","","no","","","","","","","","","SRET","EW_formal","","key","j","16.665814432989716","640","356","朋友","不孝","Negative","morality","","","","","","","","","","",""
"742","","j","psychophysics","67","199397","0.0-7.0-3.0-0.53","7","7","7","7","7","5","4","4","5","5","5","2","-1","2","0","-1","0","2","0","5","4","5","5","4","3","4","4","4","4","5","5","4","8","7","3","7","5","5","6","7","5","5","4","2","6","1","5","4","1","4","2","4","3","2","5","5","6","5","3","3","4","3","7","5","6","3","7","7","7","7","7","7","4","4","6","3","7","4","6","801783599631310849","黄","12","Male","[""好他"",""好我"",""坏我"",""坏他""]","[""强他"",""强我"",""弱我"",""弱他""]","","","","","","","","no","","","","","","","","","SRET","EW_formal","","key","j","16.667902912621305","640","356","朋友","驽钝","Negative","ability","","","","","","","","","","",""
"514","","f","psychophysics","68","200911","0.0-7.0-3.0-0.54","7","7","7","7","7","5","4","4","5","5","5","2","-1","2","0","-1","0","2","0","5","4","5","5","4","3","4","4","4","4","5","5","4","8","7","3","7","5","5","6","7","5","5","4","2","6","1","5","4","1","4","2","4","3","2","5","5","6","5","3","3","4","3","7","5","6","3","7","7","7","7","7","7","4","4","6","3","7","4","6","801783599631310849","黄","12","Male","[""好他"",""好我"",""坏我"",""坏他""]","[""强他"",""强我"",""弱我"",""弱他""]","","","","","","","","yes","","","","","","","","","SRET","EW_formal","","key","f","16.669322222222238","640","356","自己","廉明","Positive","morality","","","","","","","","","","",""
"680","","f","psychophysics","69","202592","0.0-7.0-3.0-0.55","7","7","7","7","7","5","4","4","5","5","5","2","-1","2","0","-1","0","2","0","5","4","5","5","4","3","4","4","4","4","5","5","4","8","7","3","7","5","5","6","7","5","5","4","2","6","1","5","4","1","4","2","4","3","2","5","5","6","5","3","3","4","3","7","5","6","3","7","7","7","7","7","7","4","4","6","3","7","4","6","801783599631310849","黄","12","Male","[""好他"",""好我"",""坏我"",""坏他""]","[""强他"",""强我"",""弱我"",""弱他""]","","","","","","","","yes","","","","","","","","","SRET","EW_formal","","key","f","16.66603999999992","640","356","朋友","拖延","Negative","ability","","","","","","","","","","",""
"851","","f","psychophysics","70","204445","0.0-7.0-3.0-0.56","7","7","7","7","7","5","4","4","5","5","5","2","-1","2","0","-1","0","2","0","5","4","5","5","4","3","4","4","4","4","5","5","4","8","7","3","7","5","5","6","7","5","5","4","2","6","1","5","4","1","4","2","4","3","2","5","5","6","5","3","3","4","3","7","5","6","3","7","7","7","7","7","7","4","4","6","3","7","4","6","801783599631310849","黄","12","Male","[""好他"",""好我"",""坏我"",""坏他""]","[""强他"",""强我"",""弱我"",""弱他""]","","","","","","","","yes","","","","","","","","","SRET","EW_formal","","key","f","16.66635454545454","640","356","自己","奉献","Positive","morality","","","","","","","","","","",""
"643","","j","psychophysics","71","206089","0.0-7.0-3.0-0.57","7","7","7","7","7","5","4","4","5","5","5","2","-1","2","0","-1","0","2","0","5","4","5","5","4","3","4","4","4","4","5","5","4","8","7","3","7","5","5","6","7","5","5","4","2","6","1","5","4","1","4","2","4","3","2","5","5","6","5","3","3","4","3","7","5","6","3","7","7","7","7","7","7","4","4","6","3","7","4","6","801783599631310849","黄","12","Male","[""好他"",""好我"",""坏我"",""坏他""]","[""强他"",""强我"",""弱我"",""弱他""]","","","","","","","","no","","","","","","","","","SRET","EW_formal","","key","j","16.66661224489775","640","356","朋友","昏庸","Negative","ability","","","","","","","","","","",""
"502","","j","psychophysics","72","207592","0.0-7.0-3.0-0.58","7","7","7","7","7","5","4","4","5","5","5","2","-1","2","0","-1","0","2","0","5","4","5","5","4","3","4","4","4","4","5","5","4","8","7","3","7","5","5","6","7","5","5","4","2","6","1","5","4","1","4","2","4","3","2","5","5","6","5","3","3","4","3","7","5","6","3","7","7","7","7","7","7","4","4","6","3","7","4","6","801783599631310849","黄","12","Male","[""好他"",""好我"",""坏我"",""坏他""]","[""强他"",""强我"",""弱我"",""弱他""]","","","","","","","","no","","","","","","","","","SRET","EW_formal","","key","j","16.663573033707753","640","356","自己","小人","Negative","morality","","","","","","","","","","",""
"555","","j","psychophysics","73","209148","0.0-7.0-3.0-0.59","7","7","7","7","7","5","4","4","5","5","5","2","-1","2","0","-1","0","2","0","5","4","5","5","4","3","4","4","4","4","5","5","4","8","7","3","7","5","5","6","7","5","5","4","2","6","1","5","4","1","4","2","4","3","2","5","5","6","5","3","3","4","3","7","5","6","3","7","7","7","7","7","7","4","4","6","3","7","4","6","801783599631310849","黄","12","Male","[""好他"",""好我"",""坏我"",""坏他""]","[""强他"",""强我"",""弱我"",""弱他""]","","","","","","","","no","","","","","","","","","SRET","EW_formal","","key","j","16.663913043478438","640","356","朋友","阴毒","Negative","morality","","","","","","","","","","",""
"796","","f","psychophysics","74","210947","0.0-7.0-3.0-0.60","7","7","7","7","7","5","4","4","5","5","5","2","-1","2","0","-1","0","2","0","5","4","5","5","4","3","4","4","4","4","5","5","4","8","7","3","7","5","5","6","7","5","5","4","2","6","1","5","4","1","4","2","4","3","2","5","5","6","5","3","3","4","3","7","5","6","3","7","7","7","7","7","7","4","4","6","3","7","4","6","801783599631310849","黄","12","Male","[""好他"",""好我"",""坏我"",""坏他""]","[""强他"",""强我"",""弱我"",""弱他""]","","","","","","","","yes","","","","","","","","","SRET","EW_formal","","key","f","16.66851401869148","640","356","朋友","稳健","Positive","ability","","","","","","","","","","",""
"784","","f","psychophysics","75","212731","0.0-7.0-3.0-0.61","7","7","7","7","7","5","4","4","5","5","5","2","-1","2","0","-1","0","2","0","5","4","5","5","4","3","4","4","4","4","5","5","4","8","7","3","7","5","5","6","7","5","5","4","2","6","1","5","4","1","4","2","4","3","2","5","5","6","5","3","3","4","3","7","5","6","3","7","7","7","7","7","7","4","4","6","3","7","4","6","801783599631310849","黄","12","Male","[""好他"",""好我"",""坏我"",""坏他""]","[""强他"",""强我"",""弱我"",""弱他""]","","","","","","","","yes","","","","","","","","","SRET","EW_formal","","key","f","16.66864150943386","640","356","自己","中用","Positive","ability","","","","","","","","","","",""
"600","","f","psychophysics","76","214332","0.0-7.0-3.0-0.62","7","7","7","7","7","5","4","4","5","5","5","2","-1","2","0","-1","0","2","0","5","4","5","5","4","3","4","4","4","4","5","5","4","8","7","3","7","5","5","6","7","5","5","4","2","6","1","5","4","1","4","2","4","3","2","5","5","6","5","3","3","4","3","7","5","6","3","7","7","7","7","7","7","4","4","6","3","7","4","6","801783599631310849","黄","12","Male","[""好他"",""好我"",""坏我"",""坏他""]","[""强他"",""强我"",""弱我"",""弱他""]","","","","","","","","yes","","","","","","","","","SRET","EW_formal","","key","f","16.66626315789487","640","356","自己","远见","Positive","ability","","","","","","","","","","",""
"470","","f","psychophysics","77","215803","0.0-7.0-3.0-0.63","7","7","7","7","7","5","4","4","5","5","5","2","-1","2","0","-1","0","2","0","5","4","5","5","4","3","4","4","4","4","5","5","4","8","7","3","7","5","5","6","7","5","5","4","2","6","1","5","4","1","4","2","4","3","2","5","5","6","5","3","3","4","3","7","5","6","3","7","7","7","7","7","7","4","4","6","3","7","4","6","801783599631310849","黄","12","Male","[""好他"",""好我"",""坏我"",""坏他""]","[""强他"",""强我"",""弱我"",""弱他""]","","","","","","","","yes","","","","","","","","","SRET","EW_formal","","key","f","16.669874999999923","640","356","自己","独立","Positive","ability","","","","","","","","","","",""
"1043","","f","psychophysics","78","217848","0.0-7.0-3.0-0.64","7","7","7","7","7","5","4","4","5","5","5","2","-1","2","0","-1","0","2","0","5","4","5","5","4","3","4","4","4","4","5","5","4","8","7","3","7","5","5","6","7","5","5","4","2","6","1","5","4","1","4","2","4","3","2","5","5","6","5","3","3","4","3","7","5","6","3","7","7","7","7","7","7","4","4","6","3","7","4","6","801783599631310849","黄","12","Male","[""好他"",""好我"",""坏我"",""坏他""]","[""强他"",""强我"",""弱我"",""弱他""]","","","","","","","","yes","","","","","","","","","SRET","EW_formal","","key","f","16.66638842975208","640","356","朋友","谦逊","Positive","morality","","","","","","","","","","",""
"866","","f","psychophysics","79","219716","0.0-7.0-3.0-0.65","7","7","7","7","7","5","4","4","5","5","5","2","-1","2","0","-1","0","2","0","5","4","5","5","4","3","4","4","4","4","5","5","4","8","7","3","7","5","5","6","7","5","5","4","2","6","1","5","4","1","4","2","4","3","2","5","5","6","5","3","3","4","3","7","5","6","3","7","7","7","7","7","7","4","4","6","3","7","4","6","801783599631310849","黄","12","Male","[""好他"",""好我"",""坏我"",""坏他""]","[""强他"",""强我"",""弱我"",""弱他""]","","","","","","","","yes","","","","","","","","","SRET","EW_formal","","key","f","16.666117117116972","640","356","自己","忠诚","Positive","morality","","","","","","","","","","",""
"661","","f","psychophysics","80","221378","0.0-7.0-3.0-0.66","7","7","7","7","7","5","4","4","5","5","5","2","-1","2","0","-1","0","2","0","5","4","5","5","4","3","4","4","4","4","5","5","4","8","7","3","7","5","5","6","7","5","5","4","2","6","1","5","4","1","4","2","4","3","2","5","5","6","5","3","3","4","3","7","5","6","3","7","7","7","7","7","7","4","4","6","3","7","4","6","801783599631310849","黄","12","Male","[""好他"",""好我"",""坏我"",""坏他""]","[""强他"",""强我"",""弱我"",""弱他""]","","","","","","","","yes","","","","","","","","","SRET","EW_formal","","key","f","16.669171717171935","640","356","朋友","能干","Positive","ability","","","","","","","","","","",""
"777","","f","psychophysics","81","223156","0.0-7.0-3.0-0.67","7","7","7","7","7","5","4","4","5","5","5","2","-1","2","0","-1","0","2","0","5","4","5","5","4","3","4","4","4","4","5","5","4","8","7","3","7","5","5","6","7","5","5","4","2","6","1","5","4","1","4","2","4","3","2","5","5","6","5","3","3","4","3","7","5","6","3","7","7","7","7","7","7","4","4","6","3","7","4","6","801783599631310849","黄","12","Male","[""好他"",""好我"",""坏我"",""坏他""]","[""强他"",""强我"",""弱我"",""弱他""]","","","","","","","","yes","","","","","","","","","SRET","EW_formal","","key","f","16.66644339622652","640","356","自己","肯干","Positive","ability","","","","","","","","","","",""
"491","","f","psychophysics","82","224647","0.0-7.0-3.0-0.68","7","7","7","7","7","5","4","4","5","5","5","2","-1","2","0","-1","0","2","0","5","4","5","5","4","3","4","4","4","4","5","5","4","8","7","3","7","5","5","6","7","5","5","4","2","6","1","5","4","1","4","2","4","3","2","5","5","6","5","3","3","4","3","7","5","6","3","7","7","7","7","7","7","4","4","6","3","7","4","6","801783599631310849","黄","12","Male","[""好他"",""好我"",""坏我"",""坏他""]","[""强他"",""强我"",""弱我"",""弱他""]","","","","","","","","yes","","","","","","","","","SRET","EW_formal","","key","f","16.666261363636295","640","356","朋友","果断","Positive","ability","","","","","","","","","","",""
"483","","f","psychophysics","83","226132","0.0-7.0-3.0-0.69","7","7","7","7","7","5","4","4","5","5","5","2","-1","2","0","-1","0","2","0","5","4","5","5","4","3","4","4","4","4","5","5","4","8","7","3","7","5","5","6","7","5","5","4","2","6","1","5","4","1","4","2","4","3","2","5","5","6","5","3","3","4","3","7","5","6","3","7","7","7","7","7","7","4","4","6","3","7","4","6","801783599631310849","黄","12","Male","[""好他"",""好我"",""坏我"",""坏他""]","[""强他"",""强我"",""弱我"",""弱他""]","","","","","","","","yes","","","","","","","","","SRET","EW_formal","","key","f","16.668795454545364","640","356","朋友","刻苦","Positive","ability","","","","","","","","","","",""
"602","","f","psychophysics","84","227736","0.0-7.0-3.0-0.70","7","7","7","7","7","5","4","4","5","5","5","2","-1","2","0","-1","0","2","0","5","4","5","5","4","3","4","4","4","4","5","5","4","8","7","3","7","5","5","6","7","5","5","4","2","6","1","5","4","1","4","2","4","3","2","5","5","6","5","3","3","4","3","7","5","6","3","7","7","7","7","7","7","4","4","6","3","7","4","6","801783599631310849","黄","12","Male","[""好他"",""好我"",""坏我"",""坏他""]","[""强他"",""强我"",""弱我"",""弱他""]","","","","","","","","yes","","","","","","","","","SRET","EW_formal","","key","f","16.670072916666566","640","356","自己","厚道","Positive","morality","","","","","","","","","","",""
"733","","j","psychophysics","85","229470","0.0-7.0-3.0-0.71","7","7","7","7","7","5","4","4","5","5","5","2","-1","2","0","-1","0","2","0","5","4","5","5","4","3","4","4","4","4","5","5","4","8","7","3","7","5","5","6","7","5","5","4","2","6","1","5","4","1","4","2","4","3","2","5","5","6","5","3","3","4","3","7","5","6","3","7","7","7","7","7","7","4","4","6","3","7","4","6","801783599631310849","黄","12","Male","[""好他"",""好我"",""坏我"",""坏他""]","[""强他"",""强我"",""弱我"",""弱他""]","","","","","","","","no","","","","","","","","","SRET","EW_formal","","key","j","16.66330097087357","640","356","自己","庸碌","Negative","ability","","","","","","","","","","",""
"546","","f","psychophysics","86","231018","0.0-7.0-3.0-0.72","7","7","7","7","7","5","4","4","5","5","5","2","-1","2","0","-1","0","2","0","5","4","5","5","4","3","4","4","4","4","5","5","4","8","7","3","7","5","5","6","7","5","5","4","2","6","1","5","4","1","4","2","4","3","2","5","5","6","5","3","3","4","3","7","5","6","3","7","7","7","7","7","7","4","4","6","3","7","4","6","801783599631310849","黄","12","Male","[""好他"",""好我"",""坏我"",""坏他""]","[""强他"",""强我"",""弱我"",""弱他""]","","","","","","","","yes","","","","","","","","","SRET","EW_formal","","key","f","16.669736263736223","640","356","自己","聪明","Positive","ability","","","","","","","","","","",""
"585","","f","psychophysics","87","232605","0.0-7.0-3.0-0.73","7","7","7","7","7","5","4","4","5","5","5","2","-1","2","0","-1","0","2","0","5","4","5","5","4","3","4","4","4","4","5","5","4","8","7","3","7","5","5","6","7","5","5","4","2","6","1","5","4","1","4","2","4","3","2","5","5","6","5","3","3","4","3","7","5","6","3","7","7","7","7","7","7","4","4","6","3","7","4","6","801783599631310849","黄","12","Male","[""好他"",""好我"",""坏我"",""坏他""]","[""强他"",""强我"",""弱我"",""弱他""]","","","","","","","","yes","","","","","","","","","SRET","EW_formal","","key","f","16.66773684210524","640","356","自己","有力","Positive","ability","","","","","","","","","","",""
"555","","f","psychophysics","88","234160","0.0-7.0-3.0-0.74","7","7","7","7","7","5","4","4","5","5","5","2","-1","2","0","-1","0","2","0","5","4","5","5","4","3","4","4","4","4","5","5","4","8","7","3","7","5","5","6","7","5","5","4","2","6","1","5","4","1","4","2","4","3","2","5","5","6","5","3","3","4","3","7","5","6","3","7","7","7","7","7","7","4","4","6","3","7","4","6","801783599631310849","黄","12","Male","[""好他"",""好我"",""坏我"",""坏他""]","[""强他"",""强我"",""弱我"",""弱他""]","","","","","","","","yes","","","","","","","","","SRET","EW_formal","","key","f","16.666380434782617","640","356","朋友","守法","Positive","morality","","","","","","","","","","",""
"587","","j","psychophysics","89","235748","0.0-7.0-3.0-0.75","7","7","7","7","7","5","4","4","5","5","5","2","-1","2","0","-1","0","2","0","5","4","5","5","4","3","4","4","4","4","5","5","4","8","7","3","7","5","5","6","7","5","5","4","2","6","1","5","4","1","4","2","4","3","2","5","5","6","5","3","3","4","3","7","5","6","3","7","7","7","7","7","7","4","4","6","3","7","4","6","801783599631310849","黄","12","Male","[""好他"",""好我"",""坏我"",""坏他""]","[""强他"",""强我"",""弱我"",""弱他""]","","","","","","","","no","","","","","","","","","SRET","EW_formal","","key","j","16.66628723404249","640","356","朋友","拜金","Negative","morality","","","","","","","","","","",""
"508","","f","psychophysics","90","237258","0.0-7.0-3.0-0.76","7","7","7","7","7","5","4","4","5","5","5","2","-1","2","0","-1","0","2","0","5","4","5","5","4","3","4","4","4","4","5","5","4","8","7","3","7","5","5","6","7","5","5","4","2","6","1","5","4","1","4","2","4","3","2","5","5","6","5","3","3","4","3","7","5","6","3","7","7","7","7","7","7","4","4","6","3","7","4","6","801783599631310849","黄","12","Male","[""好他"",""好我"",""坏我"",""坏他""]","[""强他"",""强我"",""弱我"",""弱他""]","","","","","","","","yes","","","","","","","","","SRET","EW_formal","","key","f","16.66958888888896","640","356","自己","清廉","Positive","morality","","","","","","","","","","",""
"605","","j","psychophysics","91","238866","0.0-7.0-3.0-0.77","7","7","7","7","7","5","4","4","5","5","5","2","-1","2","0","-1","0","2","0","5","4","5","5","4","3","4","4","4","4","5","5","4","8","7","3","7","5","5","6","7","5","5","4","2","6","1","5","4","1","4","2","4","3","2","5","5","6","5","3","3","4","3","7","5","6","3","7","7","7","7","7","7","4","4","6","3","7","4","6","801783599631310849","黄","12","Male","[""好他"",""好我"",""坏我"",""坏他""]","[""强他"",""强我"",""弱我"",""弱他""]","","","","","","","","no","","","","","","","","","SRET","EW_formal","","key","j","16.666368421052557","640","356","自己","失信","Negative","morality","","","","","","","","","","",""
"488","","f","psychophysics","92","240355","0.0-7.0-3.0-0.78","7","7","7","7","7","5","4","4","5","5","5","2","-1","2","0","-1","0","2","0","5","4","5","5","4","3","4","4","4","4","5","5","4","8","7","3","7","5","5","6","7","5","5","4","2","6","1","5","4","1","4","2","4","3","2","5","5","6","5","3","3","4","3","7","5","6","3","7","7","7","7","7","7","4","4","6","3","7","4","6","801783599631310849","黄","12","Male","[""好他"",""好我"",""坏我"",""坏他""]","[""强他"",""强我"",""弱我"",""弱他""]","","","","","","","","yes","","","","","","","","","SRET","EW_formal","","key","f","16.6666741573034","640","356","朋友","文明","Positive","morality","","","","","","","","","","",""
"639","","j","psychophysics","93","241995","0.0-7.0-3.0-0.79","7","7","7","7","7","5","4","4","5","5","5","2","-1","2","0","-1","0","2","0","5","4","5","5","4","3","4","4","4","4","5","5","4","8","7","3","7","5","5","6","7","5","5","4","2","6","1","5","4","1","4","2","4","3","2","5","5","6","5","3","3","4","3","7","5","6","3","7","7","7","7","7","7","4","4","6","3","7","4","6","801783599631310849","黄","12","Male","[""好他"",""好我"",""坏我"",""坏他""]","[""强他"",""强我"",""弱我"",""弱他""]","","","","","","","","no","","","","","","","","","SRET","EW_formal","","key","j","16.666360824742444","640","356","朋友","新手","Negative","ability","","","","","","","","","","",""
"1669","","j","psychophysics","94","244666","0.0-7.0-3.0-0.80","7","7","7","7","7","5","4","4","5","5","5","2","-1","2","0","-1","0","2","0","5","4","5","5","4","3","4","4","4","4","5","5","4","8","7","3","7","5","5","6","7","5","5","4","2","6","1","5","4","1","4","2","4","3","2","5","5","6","5","3","3","4","3","7","5","6","3","7","7","7","7","7","7","4","4","6","3","7","4","6","801783599631310849","黄","12","Male","[""好他"",""好我"",""坏我"",""坏他""]","[""强他"",""强我"",""弱我"",""弱他""]","","","","","","","","no","","","","","","","","","SRET","EW_formal","","key","j","16.666207547169787","640","356","自己","懂行","Positive","ability","","","","","","","","","","",""
"480","","f","psychophysics","95","246147","0.0-7.0-3.0-0.81","7","7","7","7","7","5","4","4","5","5","5","2","-1","2","0","-1","0","2","0","5","4","5","5","4","3","4","4","4","4","5","5","4","8","7","3","7","5","5","6","7","5","5","4","2","6","1","5","4","1","4","2","4","3","2","5","5","6","5","3","3","4","3","7","5","6","3","7","7","7","7","7","7","4","4","6","3","7","4","6","801783599631310849","黄","12","Male","[""好他"",""好我"",""坏我"",""坏他""]","[""强他"",""强我"",""弱我"",""弱他""]","","","","","","","","yes","","","","","","","","","SRET","EW_formal","","key","f","16.670022727272723","640","356","自己","高明","Positive","ability","","","","","","","","","","",""
"529","","f","psychophysics","96","247677","0.0-7.0-3.0-0.82","7","7","7","7","7","5","4","4","5","5","5","2","-1","2","0","-1","0","2","0","5","4","5","5","4","3","4","4","4","4","5","5","4","8","7","3","7","5","5","6","7","5","5","4","2","6","1","5","4","1","4","2","4","3","2","5","5","6","5","3","3","4","3","7","5","6","3","7","7","7","7","7","7","4","4","6","3","7","4","6","801783599631310849","黄","12","Male","[""好他"",""好我"",""坏我"",""坏他""]","[""强他"",""强我"",""弱我"",""弱他""]","","","","","","","","yes","","","","","","","","","SRET","EW_formal","","key","f","16.66665934065931","640","356","自己","好心","Positive","morality","","","","","","","","","","",""
"547","","f","psychophysics","97","249225","0.0-7.0-3.0-0.83","7","7","7","7","7","5","4","4","5","5","5","2","-1","2","0","-1","0","2","0","5","4","5","5","4","3","4","4","4","4","5","5","4","8","7","3","7","5","5","6","7","5","5","4","2","6","1","5","4","1","4","2","4","3","2","5","5","6","5","3","3","4","3","7","5","6","3","7","7","7","7","7","7","4","4","6","3","7","4","6","801783599631310849","黄","12","Male","[""好他"",""好我"",""坏我"",""坏他""]","[""强他"",""强我"",""弱我"",""弱他""]","","","","","","","","yes","","","","","","","","","SRET","EW_formal","","key","f","16.667304347826008","640","356","朋友","利落","Positive","ability","","","","","","","","","","",""
"462","","f","psychophysics","98","250688","0.0-7.0-3.0-0.84","7","7","7","7","7","5","4","4","5","5","5","2","-1","2","0","-1","0","2","0","5","4","5","5","4","3","4","4","4","4","5","5","4","8","7","3","7","5","5","6","7","5","5","4","2","6","1","5","4","1","4","2","4","3","2","5","5","6","5","3","3","4","3","7","5","6","3","7","7","7","7","7","7","4","4","6","3","7","4","6","801783599631310849","黄","12","Male","[""好他"",""好我"",""坏我"",""坏他""]","[""强他"",""强我"",""弱我"",""弱他""]","","","","","","","","yes","","","","","","","","","SRET","EW_formal","","key","f","16.66716091954029","640","356","朋友","素养","Positive","morality","","","","","","","","","","",""
"483","","j","psychophysics","99","252174","0.0-7.0-3.0-0.85","7","7","7","7","7","5","4","4","5","5","5","2","-1","2","0","-1","0","2","0","5","4","5","5","4","3","4","4","4","4","5","5","4","8","7","3","7","5","5","6","7","5","5","4","2","6","1","5","4","1","4","2","4","3","2","5","5","6","5","3","3","4","3","7","5","6","3","7","7","7","7","7","7","4","4","6","3","7","4","6","801783599631310849","黄","12","Male","[""好他"",""好我"",""坏我"",""坏他""]","[""强他"",""强我"",""弱我"",""弱他""]","","","","","","","","no","","","","","","","","","SRET","EW_formal","","key","j","16.66753409090928","640","356","自己","缓慢","Negative","ability","","","","","","","","","","",""
"649","","j","psychophysics","100","253824","0.0-7.0-3.0-0.86","7","7","7","7","7","5","4","4","5","5","5","2","-1","2","0","-1","0","2","0","5","4","5","5","4","3","4","4","4","4","5","5","4","8","7","3","7","5","5","6","7","5","5","4","2","6","1","5","4","1","4","2","4","3","2","5","5","6","5","3","3","4","3","7","5","6","3","7","7","7","7","7","7","4","4","6","3","7","4","6","801783599631310849","黄","12","Male","[""好他"",""好我"",""坏我"",""坏他""]","[""强他"",""强我"",""弱我"",""弱他""]","","","","","","","","no","","","","","","","","","SRET","EW_formal","","key","j","16.666612244898047","640","356","朋友","低俗","Negative","morality","","","","","","","","","","",""
"855","","f","psychophysics","101","255684","0.0-7.0-3.0-0.87","7","7","7","7","7","5","4","4","5","5","5","2","-1","2","0","-1","0","2","0","5","4","5","5","4","3","4","4","4","4","5","5","4","8","7","3","7","5","5","6","7","5","5","4","2","6","1","5","4","1","4","2","4","3","2","5","5","6","5","3","3","4","3","7","5","6","3","7","7","7","7","7","7","4","4","6","3","7","4","6","801783599631310849","黄","12","Male","[""好他"",""好我"",""坏我"",""坏他""]","[""强他"",""强我"",""弱我"",""弱他""]","","","","","","","","yes","","","","","","","","","SRET","EW_formal","","key","f","16.66616363636382","640","356","自己","主见","Positive","ability","","","","","","","","","","",""
"5713","
    <p><div style='color:white;font-size:35px; line-height:20px;'>计算任务</div></p><br>
    <p><div style='color:red;font-size:25px; line-height:20px;'>接下来，您将看到一些四则运算题，<b>请从键盘选择 0-9 进行反应。</b></div></p>
    <p><div style='color:red;font-size:25px; line-height:20px;'>请尽可能快地进行计算，计算的速度和正确率将影响报酬的发放。</div></p>
    <p><div class='footer' style='color:white;font-size:25px; line-height:20px;'>如果对本实验还有不清楚之处，请立即向实验员咨询。</p><p style='color:white;font-size:25px; line-height:20px;'>如果您明白了规则：</p><p style='color:white;font-size:22px; line-height:20px;'>请按 继续 进入练习</p>
    </div>
    ","0","html-button-response","102","261397","0.0-7.0-4.0","7","7","7","7","7","5","4","4","5","5","5","2","-1","2","0","-1","0","2","0","5","4","5","5","4","3","4","4","4","4","5","5","4","8","7","3","7","5","5","6","7","5","5","4","2","6","1","5","4","1","4","2","4","3","2","5","5","6","5","3","3","4","3","7","5","6","3","7","7","7","7","7","7","4","4","6","3","7","4","6","801783599631310849","黄","12","Male","[""好他"",""好我"",""坏我"",""坏他""]","[""强他"",""强我"",""弱我"",""弱他""]","","","","","","","","","","","","","","","","","SRET_math","math_instructions","Sat Jan 27 2024 22:15:17 GMT+0800 (中国标准时间)","","","","","","","","","","","","","","","","","","","",""
"1642","","0","psychophysics","103","263041","0.0-7.0-5.0-0.0","7","7","7","7","7","5","4","4","5","5","5","2","-1","2","0","-1","0","2","0","5","4","5","5","4","3","4","4","4","4","5","5","4","8","7","3","7","5","5","6","7","5","5","4","2","6","1","5","4","1","4","2","4","3","2","5","5","6","5","3","3","4","3","7","5","6","3","7","7","7","7","7","7","4","4","6","3","7","4","6","801783599631310849","黄","12","Male","[""好他"",""好我"",""坏我"",""坏他""]","[""强他"",""强我"",""弱我"",""弱他""]","","","","","","","","0","","","","","","","","","SRET","SRET_math_calculate","","key","0","16.664979797979637","640","356","","","","","12-12= ?","0","1","","","","","","","",""
"1648","","1","psychophysics","104","264690","0.0-7.0-5.0-0.1","7","7","7","7","7","5","4","4","5","5","5","2","-1","2","0","-1","0","2","0","5","4","5","5","4","3","4","4","4","4","5","5","4","8","7","3","7","5","5","6","7","5","5","4","2","6","1","5","4","1","4","2","4","3","2","5","5","6","5","3","3","4","3","7","5","6","3","7","7","7","7","7","7","4","4","6","3","7","4","6","801783599631310849","黄","12","Male","[""好他"",""好我"",""坏我"",""坏他""]","[""强他"",""强我"",""弱我"",""弱他""]","","","","","","","","1","","","","","","","","","SRET","SRET_math_calculate","","key","1","16.66630612244908","640","356","","","","","30-29= ?","1","1","","","","","","","",""
"1941","","9","psychophysics","105","266632","0.0-7.0-5.0-0.2","7","7","7","7","7","5","4","4","5","5","5","2","-1","2","0","-1","0","2","0","5","4","5","5","4","3","4","4","4","4","5","5","4","8","7","3","7","5","5","6","7","5","5","4","2","6","1","5","4","1","4","2","4","3","2","5","5","6","5","3","3","4","3","7","5","6","3","7","7","7","7","7","7","4","4","6","3","7","4","6","801783599631310849","黄","12","Male","[""好他"",""好我"",""坏我"",""坏他""]","[""强他"",""强我"",""弱我"",""弱他""]","","","","","","","","9","","","","","","","","","SRET","SRET_math_calculate","","key","9","16.666895652173654","640","356","","","","","18/2= ?","9","1","","","","","","","",""
"1511","","9","psychophysics","106","268144","0.0-7.0-5.0-0.3","7","7","7","7","7","5","4","4","5","5","5","2","-1","2","0","-1","0","2","0","5","4","5","5","4","3","4","4","4","4","5","5","4","8","7","3","7","5","5","6","7","5","5","4","2","6","1","5","4","1","4","2","4","3","2","5","5","6","5","3","3","4","3","7","5","6","3","7","7","7","7","7","7","4","4","6","3","7","4","6","801783599631310849","黄","12","Male","[""好他"",""好我"",""坏我"",""坏他""]","[""强他"",""强我"",""弱我"",""弱他""]","","","","","","","","9","","","","","","","","","SRET","SRET_math_calculate","","key","9","16.669588888889283","640","356","","","","","7+2= ?","9","1","","","","","","","",""
"1918","","3","psychophysics","107","270064","0.0-7.0-5.0-0.4","7","7","7","7","7","5","4","4","5","5","5","2","-1","2","0","-1","0","2","0","5","4","5","5","4","3","4","4","4","4","5","5","4","8","7","3","7","5","5","6","7","5","5","4","2","6","1","5","4","1","4","2","4","3","2","5","5","6","5","3","3","4","3","7","5","6","3","7","7","7","7","7","7","4","4","6","3","7","4","6","801783599631310849","黄","12","Male","[""好他"",""好我"",""坏我"",""坏他""]","[""强他"",""强我"",""弱我"",""弱他""]","","","","","","","","3","","","","","","","","","SRET","SRET_math_calculate","","key","3","16.667850877193064","640","356","","","","","11-8= ?","3","1","","","","","","","",""
"1617","","3","psychophysics","108","271682","0.0-7.0-5.0-0.5","7","7","7","7","7","5","4","4","5","5","5","2","-1","2","0","-1","0","2","0","5","4","5","5","4","3","4","4","4","4","5","5","4","8","7","3","7","5","5","6","7","5","5","4","2","6","1","5","4","1","4","2","4","3","2","5","5","6","5","3","3","4","3","7","5","6","3","7","7","7","7","7","7","4","4","6","3","7","4","6","801783599631310849","黄","12","Male","[""好他"",""好我"",""坏我"",""坏他""]","[""强他"",""强我"",""弱我"",""弱他""]","","","","","","","","3","","","","","","","","","SRET","SRET_math_calculate","","key","3","16.668822916666613","640","356","","","","","9/3= ?","3","1","","","","","","","",""
"1851","","6","psychophysics","109","273534","0.0-7.0-5.0-0.6","7","7","7","7","7","5","4","4","5","5","5","2","-1","2","0","-1","0","2","0","5","4","5","5","4","3","4","4","4","4","5","5","4","8","7","3","7","5","5","6","7","5","5","4","2","6","1","5","4","1","4","2","4","3","2","5","5","6","5","3","3","4","3","7","5","6","3","7","7","7","7","7","7","4","4","6","3","7","4","6","801783599631310849","黄","12","Male","[""好他"",""好我"",""坏我"",""坏他""]","[""强他"",""强我"",""弱我"",""弱他""]","","","","","","","","6","","","","","","","","","SRET","SRET_math_calculate","","key","6","16.66427272727279","640","356","","","","","5+1= ?","6","1","","","","","","","",""
"1950","","8","psychophysics","110","275487","0.0-7.0-5.0-0.7","7","7","7","7","7","5","4","4","5","5","5","2","-1","2","0","-1","0","2","0","5","4","5","5","4","3","4","4","4","4","5","5","4","8","7","3","7","5","5","6","7","5","5","4","2","6","1","5","4","1","4","2","4","3","2","5","5","6","5","3","3","4","3","7","5","6","3","7","7","7","7","7","7","4","4","6","3","7","4","6","801783599631310849","黄","12","Male","[""好他"",""好我"",""坏我"",""坏他""]","[""强他"",""强我"",""弱我"",""弱他""]","","","","","","","","8","","","","","","","","","SRET","SRET_math_calculate","","key","8","16.66863247863232","640","356","","","","","11-3= ?","8","1","","","","","","","",""
"1682","","5","psychophysics","111","277170","0.0-7.0-5.0-0.8","7","7","7","7","7","5","4","4","5","5","5","2","-1","2","0","-1","0","2","0","5","4","5","5","4","3","4","4","4","4","5","5","4","8","7","3","7","5","5","6","7","5","5","4","2","6","1","5","4","1","4","2","4","3","2","5","5","6","5","3","3","4","3","7","5","6","3","7","7","7","7","7","7","4","4","6","3","7","4","6","801783599631310849","黄","12","Male","[""好他"",""好我"",""坏我"",""坏他""]","[""强他"",""强我"",""弱我"",""弱他""]","","","","","","","","5","","","","","","","","","SRET","SRET_math_calculate","","key","5","16.66551999999967","640","356","","","","","2+3= ?","5","1","","","","","","","",""
"1798","","8","psychophysics","112","278969","0.0-7.0-5.0-0.9","7","7","7","7","7","5","4","4","5","5","5","2","-1","2","0","-1","0","2","0","5","4","5","5","4","3","4","4","4","4","5","5","4","8","7","3","7","5","5","6","7","5","5","4","2","6","1","5","4","1","4","2","4","3","2","5","5","6","5","3","3","4","3","7","5","6","3","7","7","7","7","7","7","4","4","6","3","7","4","6","801783599631310849","黄","12","Male","[""好他"",""好我"",""坏我"",""坏他""]","[""强他"",""强我"",""弱我"",""弱他""]","","","","","","","","8","","","","","","","","","SRET","SRET_math_calculate","","key","8","16.667355140186977","640","356","","","","","72/9= ?","8","1","","","","","","","",""
"1799","","8","psychophysics","113","280769","0.0-7.0-5.0-0.10","7","7","7","7","7","5","4","4","5","5","5","2","-1","2","0","-1","0","2","0","5","4","5","5","4","3","4","4","4","4","5","5","4","8","7","3","7","5","5","6","7","5","5","4","2","6","1","5","4","1","4","2","4","3","2","5","5","6","5","3","3","4","3","7","5","6","3","7","7","7","7","7","7","4","4","6","3","7","4","6","801783599631310849","黄","12","Male","[""好他"",""好我"",""坏我"",""坏他""]","[""强他"",""强我"",""弱我"",""弱他""]","","","","","","","","8","","","","","","","","","SRET","SRET_math_calculate","","key","8","16.667112149533196","640","356","","","","","8*1= ?","8","1","","","","","","","",""
"2328","","9","psychophysics","114","283099","0.0-7.0-5.0-0.11","7","7","7","7","7","5","4","4","5","5","5","2","-1","2","0","-1","0","2","0","5","4","5","5","4","3","4","4","4","4","5","5","4","8","7","3","7","5","5","6","7","5","5","4","2","6","1","5","4","1","4","2","4","3","2","5","5","6","5","3","3","4","3","7","5","6","3","7","7","7","7","7","7","4","4","6","3","7","4","6","801783599631310849","黄","12","Male","[""好他"",""好我"",""坏我"",""坏他""]","[""强他"",""强我"",""弱我"",""弱他""]","","","","","","","","9","","","","","","","","","SRET","SRET_math_calculate","","key","9","16.666239130435144","640","356","","","","","32-23= ?","9","1","","","","","","","",""
"186","","9","psychophysics","115","283286","0.0-7.0-5.0-0.12","7","7","7","7","7","5","4","4","5","5","5","2","-1","2","0","-1","0","2","0","5","4","5","5","4","3","4","4","4","4","5","5","4","8","7","3","7","5","5","6","7","5","5","4","2","6","1","5","4","1","4","2","4","3","2","5","5","6","5","3","3","4","3","7","5","6","3","7","7","7","7","7","7","4","4","6","3","7","4","6","801783599631310849","黄","12","Male","[""好他"",""好我"",""坏我"",""坏他""]","[""强他"",""强我"",""弱我"",""弱他""]","","","","","","","","9","","","","","","","","","SRET","SRET_math_calculate","","key","9","16.695818181816403","640","356","","","","","3+2= ?","5","0","","","","","","","",""
"1749","","7","psychophysics","116","285036","0.0-7.0-5.0-0.13","7","7","7","7","7","5","4","4","5","5","5","2","-1","2","0","-1","0","2","0","5","4","5","5","4","3","4","4","4","4","5","5","4","8","7","3","7","5","5","6","7","5","5","4","2","6","1","5","4","1","4","2","4","3","2","5","5","6","5","3","3","4","3","7","5","6","3","7","7","7","7","7","7","4","4","6","3","7","4","6","801783599631310849","黄","12","Male","[""好他"",""好我"",""坏我"",""坏他""]","[""强他"",""强我"",""弱我"",""弱他""]","","","","","","","","7","","","","","","","","","SRET","SRET_math_calculate","","key","7","16.667951923076963","640","356","","","","","9-2= ?","7","1","","","","","","","",""
"1755","","4","psychophysics","117","286793","0.0-7.0-5.0-0.14","7","7","7","7","7","5","4","4","5","5","5","2","-1","2","0","-1","0","2","0","5","4","5","5","4","3","4","4","4","4","5","5","4","8","7","3","7","5","5","6","7","5","5","4","2","6","1","5","4","1","4","2","4","3","2","5","5","6","5","3","3","4","3","7","5","6","3","7","7","7","7","7","7","4","4","6","3","7","4","6","801783599631310849","黄","12","Male","[""好他"",""好我"",""坏我"",""坏他""]","[""强他"",""强我"",""弱我"",""弱他""]","","","","","","","","4","","","","","","","","","SRET","SRET_math_calculate","","key","4","16.66605769230787","640","356","","","","","9-5= ?","4","1","","","","","","","",""
"1626","","4","psychophysics","118","288420","0.0-7.0-5.0-0.15","7","7","7","7","7","5","4","4","5","5","5","2","-1","2","0","-1","0","2","0","5","4","5","5","4","3","4","4","4","4","5","5","4","8","7","3","7","5","5","6","7","5","5","4","2","6","1","5","4","1","4","2","4","3","2","5","5","6","5","3","3","4","3","7","5","6","3","7","7","7","7","7","7","4","4","6","3","7","4","6","801783599631310849","黄","12","Male","[""好他"",""好我"",""坏我"",""坏他""]","[""强他"",""强我"",""弱我"",""弱他""]","","","","","","","","4","","","","","","","","","SRET","SRET_math_calculate","","key","4","16.664711340206324","640","356","","","","","3+1= ?","4","1","","","","","","","",""
"1595","","9","psychophysics","119","290020","0.0-7.0-5.0-0.16","7","7","7","7","7","5","4","4","5","5","5","2","-1","2","0","-1","0","2","0","5","4","5","5","4","3","4","4","4","4","5","5","4","8","7","3","7","5","5","6","7","5","5","4","2","6","1","5","4","1","4","2","4","3","2","5","5","6","5","3","3","4","3","7","5","6","3","7","7","7","7","7","7","4","4","6","3","7","4","6","801783599631310849","黄","12","Male","[""好他"",""好我"",""坏我"",""坏他""]","[""强他"",""强我"",""弱我"",""弱他""]","","","","","","","","9","","","","","","","","","SRET","SRET_math_calculate","","key","9","16.667221052631565","640","356","","","","","3+6= ?","9","1","","","","","","","",""
"1666","","0","psychophysics","120","291687","0.0-7.0-5.0-0.17","7","7","7","7","7","5","4","4","5","5","5","2","-1","2","0","-1","0","2","0","5","4","5","5","4","3","4","4","4","4","5","5","4","8","7","3","7","5","5","6","7","5","5","4","2","6","1","5","4","1","4","2","4","3","2","5","5","6","5","3","3","4","3","7","5","6","3","7","7","7","7","7","7","4","4","6","3","7","4","6","801783599631310849","黄","12","Male","[""好他"",""好我"",""坏我"",""坏他""]","[""强他"",""强我"",""弱我"",""弱他""]","","","","","","","","0","","","","","","","","","SRET","SRET_math_calculate","","key","0","16.666020202020658","640","356","","","","","1-1= ?","0","1","","","","","","","",""
"1863","","5","psychophysics","121","293551","0.0-7.0-5.0-0.18","7","7","7","7","7","5","4","4","5","5","5","2","-1","2","0","-1","0","2","0","5","4","5","5","4","3","4","4","4","4","5","5","4","8","7","3","7","5","5","6","7","5","5","4","2","6","1","5","4","1","4","2","4","3","2","5","5","6","5","3","3","4","3","7","5","6","3","7","7","7","7","7","7","4","4","6","3","7","4","6","801783599631310849","黄","12","Male","[""好他"",""好我"",""坏我"",""坏他""]","[""强他"",""强我"",""弱我"",""弱他""]","","","","","","","","5","","","","","","","","","SRET","SRET_math_calculate","","key","5","16.667518181818412","640","356","","","","","4+1= ?","5","1","","","","","","","",""
"1695","","4","psychophysics","122","295248","0.0-7.0-5.0-0.19","7","7","7","7","7","5","4","4","5","5","5","2","-1","2","0","-1","0","2","0","5","4","5","5","4","3","4","4","4","4","5","5","4","8","7","3","7","5","5","6","7","5","5","4","2","6","1","5","4","1","4","2","4","3","2","5","5","6","5","3","3","4","3","7","5","6","3","7","7","7","7","7","7","4","4","6","3","7","4","6","801783599631310849","黄","12","Male","[""好他"",""好我"",""坏我"",""坏他""]","[""强他"",""强我"",""弱我"",""弱他""]","","","","","","","","4","","","","","","","","","SRET","SRET_math_calculate","","key","4","16.667306930692934","640","356","","","","","2+2= ?","4","1","","","","","","","",""
"1831","","7","psychophysics","123","297080","0.0-7.0-5.0-0.20","7","7","7","7","7","5","4","4","5","5","5","2","-1","2","0","-1","0","2","0","5","4","5","5","4","3","4","4","4","4","5","5","4","8","7","3","7","5","5","6","7","5","5","4","2","6","1","5","4","1","4","2","4","3","2","5","5","6","5","3","3","4","3","7","5","6","3","7","7","7","7","7","7","4","4","6","3","7","4","6","801783599631310849","黄","12","Male","[""好他"",""好我"",""坏我"",""坏他""]","[""强他"",""强我"",""弱我"",""弱他""]","","","","","","","","7","","","","","","","","","SRET","SRET_math_calculate","","key","7","16.668944954128246","640","356","","","","","1+6= ?","7","1","","","","","","","",""
"1595","","1","psychophysics","124","298675","0.0-7.0-5.0-0.21","7","7","7","7","7","5","4","4","5","5","5","2","-1","2","0","-1","0","2","0","5","4","5","5","4","3","4","4","4","4","5","5","4","8","7","3","7","5","5","6","7","5","5","4","2","6","1","5","4","1","4","2","4","3","2","5","5","6","5","3","3","4","3","7","5","6","3","7","7","7","7","7","7","4","4","6","3","7","4","6","801783599631310849","黄","12","Male","[""好他"",""好我"",""坏我"",""坏他""]","[""强他"",""强我"",""弱我"",""弱他""]","","","","","","","","1","","","","","","","","","SRET","SRET_math_calculate","","key","1","16.665999999999585","640","356","","","","","12/12= ?","1","1","","","","","","","",""
"1769","","2","psychophysics","125","300446","0.0-7.0-5.0-0.22","7","7","7","7","7","5","4","4","5","5","5","2","-1","2","0","-1","0","2","0","5","4","5","5","4","3","4","4","4","4","5","5","4","8","7","3","7","5","5","6","7","5","5","4","2","6","1","5","4","1","4","2","4","3","2","5","5","6","5","3","3","4","3","7","5","6","3","7","7","7","7","7","7","4","4","6","3","7","4","6","801783599631310849","黄","12","Male","[""好他"",""好我"",""坏我"",""坏他""]","[""强他"",""强我"",""弱我"",""弱他""]","","","","","","","","2","","","","","","","","","SRET","SRET_math_calculate","","key","2","16.666266666666516","640","356","","","","","29-27= ?","2","1","","","","","","","",""
"1766","","7","psychophysics","126","302212","0.0-7.0-5.0-0.23","7","7","7","7","7","5","4","4","5","5","5","2","-1","2","0","-1","0","2","0","5","4","5","5","4","3","4","4","4","4","5","5","4","8","7","3","7","5","5","6","7","5","5","4","2","6","1","5","4","1","4","2","4","3","2","5","5","6","5","3","3","4","3","7","5","6","3","7","7","7","7","7","7","4","4","6","3","7","4","6","801783599631310849","黄","12","Male","[""好他"",""好我"",""坏我"",""坏他""]","[""强他"",""强我"",""弱我"",""弱他""]","","","","","","","","7","","","","","","","","","SRET","SRET_math_calculate","","key","7","16.66841904761913","640","356","","","","","4+3= ?","7","1","","","","","","","",""
"1946","","9","psychophysics","127","304159","0.0-7.0-5.0-0.24","7","7","7","7","7","5","4","4","5","5","5","2","-1","2","0","-1","0","2","0","5","4","5","5","4","3","4","4","4","4","5","5","4","8","7","3","7","5","5","6","7","5","5","4","2","6","1","5","4","1","4","2","4","3","2","5","5","6","5","3","3","4","3","7","5","6","3","7","7","7","7","7","7","4","4","6","3","7","4","6","801783599631310849","黄","12","Male","[""好他"",""好我"",""坏我"",""坏他""]","[""强他"",""强我"",""弱我"",""弱他""]","","","","","","","","9","","","","","","","","","SRET","SRET_math_calculate","","key","9","16.665870689655502","640","356","","","","","1+8= ?","9","1","","","","","","","",""
"1900","","6","psychophysics","128","306061","0.0-7.0-5.0-0.25","7","7","7","7","7","5","4","4","5","5","5","2","-1","2","0","-1","0","2","0","5","4","5","5","4","3","4","4","4","4","5","5","4","8","7","3","7","5","5","6","7","5","5","4","2","6","1","5","4","1","4","2","4","3","2","5","5","6","5","3","3","4","3","7","5","6","3","7","7","7","7","7","7","4","4","6","3","7","4","6","801783599631310849","黄","12","Male","[""好他"",""好我"",""坏我"",""坏他""]","[""强他"",""强我"",""弱我"",""弱他""]","","","","","","","","6","","","","","","","","","SRET","SRET_math_calculate","","key","6","16.664530973451363","640","356","","","","","4+2= ?","6","1","","","","","","","",""
"2135","","9","psychophysics","129","308196","0.0-7.0-5.0-0.26","7","7","7","7","7","5","4","4","5","5","5","2","-1","2","0","-1","0","2","0","5","4","5","5","4","3","4","4","4","4","5","5","4","8","7","3","7","5","5","6","7","5","5","4","2","6","1","5","4","1","4","2","4","3","2","5","5","6","5","3","3","4","3","7","5","6","3","7","7","7","7","7","7","4","4","6","3","7","4","6","801783599631310849","黄","12","Male","[""好他"",""好我"",""坏我"",""坏他""]","[""强他"",""强我"",""弱我"",""弱他""]","","","","","","","","9","","","","","","","","","SRET","SRET_math_calculate","","key","9","16.668078740157636","640","356","","","","","3*3= ?","9","1","","","","","","","",""
"2105","","0","psychophysics","130","310302","0.0-7.0-5.0-0.27","7","7","7","7","7","5","4","4","5","5","5","2","-1","2","0","-1","0","2","0","5","4","5","5","4","3","4","4","4","4","5","5","4","8","7","3","7","5","5","6","7","5","5","4","2","6","1","5","4","1","4","2","4","3","2","5","5","6","5","3","3","4","3","7","5","6","3","7","7","7","7","7","7","4","4","6","3","7","4","6","801783599631310849","黄","12","Male","[""好他"",""好我"",""坏我"",""坏他""]","[""强他"",""强我"",""弱我"",""弱他""]","","","","","","","","0","","","","","","","","","SRET","SRET_math_calculate","","key","0","16.666888888889282","640","356","","","","","5*0= ?","0","1","","","","","","","",""
"1586","","0","psychophysics","131","311890","0.0-7.0-5.0-0.28","7","7","7","7","7","5","4","4","5","5","5","2","-1","2","0","-1","0","2","0","5","4","5","5","4","3","4","4","4","4","5","5","4","8","7","3","7","5","5","6","7","5","5","4","2","6","1","5","4","1","4","2","4","3","2","5","5","6","5","3","3","4","3","7","5","6","3","7","7","7","7","7","7","4","4","6","3","7","4","6","801783599631310849","黄","12","Male","[""好他"",""好我"",""坏我"",""坏他""]","[""强他"",""强我"",""弱我"",""弱他""]","","","","","","","","0","","","","","","","","","SRET","SRET_math_calculate","","key","0","16.666053191489326","640","356","","","","","7*0= ?","0","1","","","","","","","",""
"1710","","7","psychophysics","132","313600","0.0-7.0-5.0-0.29","7","7","7","7","7","5","4","4","5","5","5","2","-1","2","0","-1","0","2","0","5","4","5","5","4","3","4","4","4","4","5","5","4","8","7","3","7","5","5","6","7","5","5","4","2","6","1","5","4","1","4","2","4","3","2","5","5","6","5","3","3","4","3","7","5","6","3","7","7","7","7","7","7","4","4","6","3","7","4","6","801783599631310849","黄","12","Male","[""好他"",""好我"",""坏我"",""坏他""]","[""强他"",""强我"",""弱我"",""弱他""]","","","","","","","","7","","","","","","","","","SRET","SRET_math_calculate","","key","7","16.66723762376183","640","356","","","","","12-5= ?","7","1","","","","","","","",""
"1928","","3","psychophysics","133","315531","0.0-7.0-5.0-0.30","7","7","7","7","7","5","4","4","5","5","5","2","-1","2","0","-1","0","2","0","5","4","5","5","4","3","4","4","4","4","5","5","4","8","7","3","7","5","5","6","7","5","5","4","2","6","1","5","4","1","4","2","4","3","2","5","5","6","5","3","3","4","3","7","5","6","3","7","7","7","7","7","7","4","4","6","3","7","4","6","801783599631310849","黄","12","Male","[""好他"",""好我"",""坏我"",""坏他""]","[""强他"",""强我"",""弱我"",""弱他""]","","","","","","","","3","","","","","","","","","SRET","SRET_math_calculate","","key","3","16.668730434782944","640","356","","","","","12/4= ?","3","1","","","","","","","",""
"1814","","3","psychophysics","134","317346","0.0-7.0-5.0-0.31","7","7","7","7","7","5","4","4","5","5","5","2","-1","2","0","-1","0","2","0","5","4","5","5","4","3","4","4","4","4","5","5","4","8","7","3","7","5","5","6","7","5","5","4","2","6","1","5","4","1","4","2","4","3","2","5","5","6","5","3","3","4","3","7","5","6","3","7","7","7","7","7","7","4","4","6","3","7","4","6","801783599631310849","黄","12","Male","[""好他"",""好我"",""坏我"",""坏他""]","[""强他"",""强我"",""弱我"",""弱他""]","","","","","","","","3","","","","","","","","","SRET","SRET_math_calculate","","key","3","16.66900925925896","640","356","","","","","21/7=  ?","3","1","","","","","","","",""
"1890","","5","psychophysics","135","319237","0.0-7.0-5.0-0.32","7","7","7","7","7","5","4","4","5","5","5","2","-1","2","0","-1","0","2","0","5","4","5","5","4","3","4","4","4","4","5","5","4","8","7","3","7","5","5","6","7","5","5","4","2","6","1","5","4","1","4","2","4","3","2","5","5","6","5","3","3","4","3","7","5","6","3","7","7","7","7","7","7","4","4","6","3","7","4","6","801783599631310849","黄","12","Male","[""好他"",""好我"",""坏我"",""坏他""]","[""强他"",""强我"",""弱我"",""弱他""]","","","","","","","","5","","","","","","","","","SRET","SRET_math_calculate","","key","5","16.668115044247557","640","356","","","","","17-12= ? ","5","1","","","","","","","",""
"1844","","2","psychophysics","136","321082","0.0-7.0-5.0-0.33","7","7","7","7","7","5","4","4","5","5","5","2","-1","2","0","-1","0","2","0","5","4","5","5","4","3","4","4","4","4","5","5","4","8","7","3","7","5","5","6","7","5","5","4","2","6","1","5","4","1","4","2","4","3","2","5","5","6","5","3","3","4","3","7","5","6","3","7","7","7","7","7","7","4","4","6","3","7","4","6","801783599631310849","黄","12","Male","[""好他"",""好我"",""坏我"",""坏他""]","[""强他"",""强我"",""弱我"",""弱他""]","","","","","","","","2","","","","","","","","","SRET","SRET_math_calculate","","key","2","16.667678899082585","640","356","","","","","12/6= ?","2","1","","","","","","","",""
"1703","","1","psychophysics","137","322785","0.0-7.0-5.0-0.34","7","7","7","7","7","5","4","4","5","5","5","2","-1","2","0","-1","0","2","0","5","4","5","5","4","3","4","4","4","4","5","5","4","8","7","3","7","5","5","6","7","5","5","4","2","6","1","5","4","1","4","2","4","3","2","5","5","6","5","3","3","4","3","7","5","6","3","7","7","7","7","7","7","4","4","6","3","7","4","6","801783599631310849","黄","12","Male","[""好他"",""好我"",""坏我"",""坏他""]","[""强他"",""强我"",""弱我"",""弱他""]","","","","","","","","1","","","","","","","","","SRET","SRET_math_calculate","","key","1","16.667941176470634","640","356","","","","","4/4= ?","1","1","","","","","","","",""
"1784","","5","psychophysics","138","324571","0.0-7.0-5.0-0.35","7","7","7","7","7","5","4","4","5","5","5","2","-1","2","0","-1","0","2","0","5","4","5","5","4","3","4","4","4","4","5","5","4","8","7","3","7","5","5","6","7","5","5","4","2","6","1","5","4","1","4","2","4","3","2","5","5","6","5","3","3","4","3","7","5","6","3","7","7","7","7","7","7","4","4","6","3","7","4","6","801783599631310849","黄","12","Male","[""好他"",""好我"",""坏我"",""坏他""]","[""强他"",""强我"",""弱我"",""弱他""]","","","","","","","","5","","","","","","","","","SRET","SRET_math_calculate","","key","5","16.668273584905656","640","356","","","","","16-11= ?","5","1","","","","","","","",""
"1725","","3","psychophysics","139","326297","0.0-7.0-5.0-0.36","7","7","7","7","7","5","4","4","5","5","5","2","-1","2","0","-1","0","2","0","5","4","5","5","4","3","4","4","4","4","5","5","4","8","7","3","7","5","5","6","7","5","5","4","2","6","1","5","4","1","4","2","4","3","2","5","5","6","5","3","3","4","3","7","5","6","3","7","7","7","7","7","7","4","4","6","3","7","4","6","801783599631310849","黄","12","Male","[""好他"",""好我"",""坏我"",""坏他""]","[""强他"",""强我"",""弱我"",""弱他""]","","","","","","","","3","","","","","","","","","SRET","SRET_math_calculate","","key","3","16.666764705882443","640","356","","","","","20/5= ?","4","0","","","","","","","",""
"1813","","6","psychophysics","140","328111","0.0-7.0-5.0-0.37","7","7","7","7","7","5","4","4","5","5","5","2","-1","2","0","-1","0","2","0","5","4","5","5","4","3","4","4","4","4","5","5","4","8","7","3","7","5","5","6","7","5","5","4","2","6","1","5","4","1","4","2","4","3","2","5","5","6","5","3","3","4","3","7","5","6","3","7","7","7","7","7","7","4","4","6","3","7","4","6","801783599631310849","黄","12","Male","[""好他"",""好我"",""坏我"",""坏他""]","[""强他"",""强我"",""弱我"",""弱他""]","","","","","","","","6","","","","","","","","","SRET","SRET_math_calculate","","key","6","16.66789814814843","640","356","","","","","2+4= ?","6","1","","","","","","","",""
"2080","","9","psychophysics","141","330192","0.0-7.0-5.0-0.38","7","7","7","7","7","5","4","4","5","5","5","2","-1","2","0","-1","0","2","0","5","4","5","5","4","3","4","4","4","4","5","5","4","8","7","3","7","5","5","6","7","5","5","4","2","6","1","5","4","1","4","2","4","3","2","5","5","6","5","3","3","4","3","7","5","6","3","7","7","7","7","7","7","4","4","6","3","7","4","6","801783599631310849","黄","12","Male","[""好他"",""好我"",""坏我"",""坏他""]","[""强他"",""强我"",""弱我"",""弱他""]","","","","","","","","9","","","","","","","","","SRET","SRET_math_calculate","","key","9","16.66861290322577","640","356","","","","","5+4= ?","9","1","","","","","","","",""
"1518","","1","psychophysics","142","331711","0.0-7.0-5.0-0.39","7","7","7","7","7","5","4","4","5","5","5","2","-1","2","0","-1","0","2","0","5","4","5","5","4","3","4","4","4","4","5","5","4","8","7","3","7","5","5","6","7","5","5","4","2","6","1","5","4","1","4","2","4","3","2","5","5","6","5","3","3","4","3","7","5","6","3","7","7","7","7","7","7","4","4","6","3","7","4","6","801783599631310849","黄","12","Male","[""好他"",""好我"",""坏我"",""坏他""]","[""强他"",""强我"",""弱我"",""弱他""]","","","","","","","","1","","","","","","","","","SRET","SRET_math_calculate","","key","1","16.66469999999972","640","356","","","","","10-9= ?","1","1","","","","","","","",""
