"rt","stimulus","response","trial_type","trial_index","time_elapsed","internal_node_id","swb_1","swb_2","swb_3","swb_4","swb_5","LOT_1","LOT_2","LOT_3","LOT_4","LOT_5","LOT_6","IPC_1","IPC_2","IPC_3","IPC_4","IPC_5","IPC_6","IPC_7","IPC_8","MorIden_1","MorIden_2","MorIden_3","MorIden_4","MorIden_5","MorIden_6","MorIden_7","MorIden_8","MorIden_9","MorIden_10","moralSeImag_1","moralSeImag_2","moralSeImag_3","moralSeImag_4","moralSeImag_5","moralSeImag_6","moralSeImag_7","moralSeImag_8","moralSeImag_9","sde_1","sde_2","sde_3","sde_4","sde_5","sde_6","sde_7","sde_8","sde_9","sde_10","trap2","sde_11","sde_12","sde_13","sde_14","sde_15","sde_16","sde_17","sde_18","sde_19","sde_20","IM_1","IM_2","IM_3","IM_4","IM_5","IM_6","IM_7","IM_8","IM_9","IM_10","IM_11","IM_12","IM_13","IM_14","IM_15","IM_16","IM_17","IM_18","IM_19","IM_20","subj_idx","friend_name","ParticipantID","Sex","Word","Word2","value","success","timeout","failed_images","failed_audio","failed_video","user_agent","responses","item_order","radio_event_ids","radio_event_times","key_event_times","mouse_event_times","straightlining","zigzagging","honeypot","task_id","screen_id","time_stamp","response_type","key_press","avg_frame_time","center_x","center_y","person","word","valence","domain","math","correct_response","correct","status","view_history","identity","duration","Image","condition","question_order","trap2_item"
"1837","
   <p><div style='color:white; font-size: 25px'>您好，欢迎参加本次实验。</div></p>
   <p><div style='color:white; font-size: 25px'>为充分保障您的权利，请确保您已经知晓并同意《参与实验同意书》以及《数据公开知情同意书》。</div></p>
   <p><div style='color:white; font-size: 25px'>如果您未见过上述内容，请咨询实验员。</div></p>
   <p style='color:white; font-size: 25px'>如果您选择继续实验，则表示您已经清楚两份知情同意书的内容并同意。</p>
   <p><div style = ""color: pink;font-size:30px;"">请确保您记得day0的实验编号，您将在本次实验输入该编号，若您忘记，请咨询实验员后作答。</div></p>
   <p><div style = ""color:lightblue;font-size:25px;"">请您尽可能认真地作答，我们将依据您在各问卷和按键任务中的作答质量发放报酬。</div></p>
   <p> <div style = ""color: green""><按空格键至下页></div> </p>
   "," ","html-keyboard-response","0","1839","0.0-0.0","7","6","7","6","6","5","5","5","5","5","5","1","0","0","-2","1","2","1","2","5","4","5","5","5","4","4","4","5","5","7","9","6","9","7","3","8","7","9","7","6","3","3","7","2","7","2","6","6","1","2","1","6","1","2","6","6","7","6","6","3","2","1","2","2","5","2","6","7","7","6","7","7","6","1","6","3","7","3","6","776954102012973057","陈","375","Male","[""好他"",""坏我"",""坏他"",""好我""]","[""强他"",""弱我"",""弱他"",""强我""]","","","","","","","","","","","","","","","","","","","","","","","","","","","","","","","","","","","","","","",""
"","","","call-function","1","1840","0.0-1.0-0.0","7","6","7","6","6","5","5","5","5","5","5","1","0","0","-2","1","2","1","2","5","4","5","5","5","4","4","4","5","5","7","9","6","9","7","3","8","7","9","7","6","3","3","7","2","7","2","6","6","1","2","1","6","1","2","6","6","7","6","6","3","2","1","2","2","5","2","6","7","7","6","7","7","6","1","6","3","7","3","6","776954102012973057","陈","375","Male","[""好他"",""坏我"",""坏他"",""好我""]","[""强他"",""弱我"",""弱他"",""强我""]","","","","","","","","","","","","","","","","","","","","","","","","","","","","","","","","","","","","","","",""
"30258","","[{""name"":""friend_name"",""value"":""陈""},{""name"":""ParticipantID"",""value"":""375""}]","survey-html-form","2","32099","0.0-1.0-1.0","7","6","7","6","6","5","5","5","5","5","5","1","0","0","-2","1","2","1","2","5","4","5","5","5","4","4","4","5","5","7","9","6","9","7","3","8","7","9","7","6","3","3","7","2","7","2","6","6","1","2","1","6","1","2","6","6","7","6","6","3","2","1","2","2","5","2","6","7","7","6","7","7","6","1","6","3","7","3","6","776954102012973057","陈","375","Male","[""好他"",""坏我"",""坏他"",""好我""]","[""强他"",""弱我"",""弱他"",""强我""]","","","","","","","","","","","","","","","","","","","","","","","","","","","","","","","","","","","","","","",""
"","","","preload","3","32650","0.0-2.0","7","6","7","6","6","5","5","5","5","5","5","1","0","0","-2","1","2","1","2","5","4","5","5","5","4","4","4","5","5","7","9","6","9","7","3","8","7","9","7","6","3","3","7","2","7","2","6","6","1","2","1","6","1","2","6","6","7","6","6","3","2","1","2","2","5","2","6","7","7","6","7","7","6","1","6","3","7","3","6","776954102012973057","陈","375","Male","[""好他"",""坏我"",""坏他"",""好我""]","[""强他"",""弱我"",""弱他"",""强我""]","","true","false","[]","[]","[]","","","","","","","","","","","","","","","","","","","","","","","","","","","","","","","","",""
"","","","fullscreen","4","34399","0.0-3.0","7","6","7","6","6","5","5","5","5","5","5","1","0","0","-2","1","2","1","2","5","4","5","5","5","4","4","4","5","5","7","9","6","9","7","3","8","7","9","7","6","3","3","7","2","7","2","6","6","1","2","1","6","1","2","6","6","7","6","6","3","2","1","2","2","5","2","6","7","7","6","7","7","6","1","6","3","7","3","6","776954102012973057","陈","375","Male","[""好他"",""坏我"",""坏他"",""好我""]","[""强他"",""弱我"",""弱他"",""强我""]","","true","","","","","{}","","","","","","","","","","","","","","","","","","","","","","","","","","","","","","","",""
"10656.79999999702","","{""Q01"":""7"",""Q02"":""6"",""Q03"":""7"",""Q04"":""6"",""Q05"":""6""}","survey-template","5","45060","0.0-4.0","7","6","7","6","6","5","5","5","5","5","5","1","0","0","-2","1","2","1","2","5","4","5","5","5","4","4","4","5","5","7","9","6","9","7","3","8","7","9","7","6","3","3","7","2","7","2","6","6","1","2","1","6","1","2","6","6","7","6","6","3","2","1","2","2","5","2","6","7","7","6","7","7","6","1","6","3","7","3","6","776954102012973057","陈","375","Male","[""好他"",""坏我"",""坏他"",""好我""]","[""强他"",""弱我"",""弱他"",""强我""]","","","","","","","","{""Q01"":""7"",""Q02"":""6"",""Q03"":""7"",""Q04"":""6"",""Q05"":""6""}","[0,1,2,3,4]","[""Q01"",""Q02"",""Q03"",""Q04"",""Q05""]","[4239.600000008941,5344.4000000059605,6824.79999999702,8297.5,9512.90000000596]","[]","[4239.600000008941,5344.4000000059605,6824.79999999702,8297.5,9512.90000000596,10655.90000000596]","0.6","0.75","0","","","","","","","","","","","","","","","","","","","","","","",""
"24697.79999999702","","{""Q01"":""5"",""Q02"":""5"",""Q03"":""5"",""Q04"":""5"",""Q05"":""5"",""Q06"":""5""}","survey-template","6","69764","0.0-5.0","7","6","7","6","6","5","5","5","5","5","5","1","0","0","-2","1","2","1","2","5","4","5","5","5","4","4","4","5","5","7","9","6","9","7","3","8","7","9","7","6","3","3","7","2","7","2","6","6","1","2","1","6","1","2","6","6","7","6","6","3","2","1","2","2","5","2","6","7","7","6","7","7","6","1","6","3","7","3","6","776954102012973057","陈","375","Male","[""好他"",""坏我"",""坏他"",""好我""]","[""强他"",""弱我"",""弱他"",""强我""]","","","","","","","","{""Q01"":""5"",""Q02"":""5"",""Q03"":""5"",""Q04"":""5"",""Q05"":""5"",""Q06"":""5""}","[0,1,2,3,4,5]","[""Q01"",""Q02"",""Q03"",""Q04"",""Q06"",""Q05""]","[8369.39999999106,10210.199999988079,11665.699999988079,14625.29999999702,19242.39999999106,23593.09999999404]","[]","[8369.39999999106,10210.199999988079,11665.699999988079,14625.29999999702,16624.89999999106,19242.39999999106,23593.09999999404,24697.09999999404]","0.5","0.8","0","","","","","","","","","","","","","","","","","","","","","","",""
"54323.80000001192","","{""Q01"":""1"",""Q02"":""0"",""Q03"":""0"",""Q04"":""-2"",""Q05"":""1"",""Q06"":""2"",""Q07"":""1"",""Q08"":""2""}","survey-template","7","124092","0.0-6.0","7","6","7","6","6","5","5","5","5","5","5","1","0","0","-2","1","2","1","2","5","4","5","5","5","4","4","4","5","5","7","9","6","9","7","3","8","7","9","7","6","3","3","7","2","7","2","6","6","1","2","1","6","1","2","6","6","7","6","6","3","2","1","2","2","5","2","6","7","7","6","7","7","6","1","6","3","7","3","6","776954102012973057","陈","375","Male","[""好他"",""坏我"",""坏他"",""好我""]","[""强他"",""弱我"",""弱他"",""强我""]","","","","","","","","{""Q01"":""1"",""Q02"":""0"",""Q03"":""0"",""Q04"":""-2"",""Q05"":""1"",""Q06"":""2"",""Q07"":""1"",""Q08"":""2""}","[0,1,2,3,4,5,6,7]","[""Q01"",""Q02"",""Q03"",""Q04"",""Q05"",""Q06"",""Q07"",""Q08""]","[2602.9000000059605,40339.60000000894,43715,46082.90000000596,47523.10000000894,51722.90000000596,52740,53778.80000001192]","[]","[2602.9000000059605,40339.60000000894,43715,46082.90000000596,47523.10000000894,49922.70000000298,51722.90000000596,52740,53778.80000001192,54322.70000000298]","0.375","0.5714285714285714","0","","","","","","","","","","","","","","","","","","","","","","",""
"32179","
    <p><div style='color:white;font-size:35px; line-height:20px;'>词汇评估任务</div></p><br>
    <p><div style='color:white;font-size:25px; line-height:20px;'>请再次回忆该亲密的朋友，你们至少2年前就认识了，并且最近2年经常见面。</div></p>
    <p><div style='color:white;font-size:25px; line-height:20px;'>在本实验中，您将会看到一些形容词。</div></p>
    <p><div style='color:yellow;font-size:25px; line-height:20px;'>您的任务是判断这些形容词是否符合对您自己或您的朋友的描述。</div></p><p style='font-size:35px'>符合按<span style=""color:lightgreen""> j 键</span>，不符合按<span style=""color:red""> f 键</span></p>","0","html-button-response","8","156275","0.0-7.0-0.0","7","6","7","6","6","5","5","5","5","5","5","1","0","0","-2","1","2","1","2","5","4","5","5","5","4","4","4","5","5","7","9","6","9","7","3","8","7","9","7","6","3","3","7","2","7","2","6","6","1","2","1","6","1","2","6","6","7","6","6","3","2","1","2","2","5","2","6","7","7","6","7","7","6","1","6","3","7","3","6","776954102012973057","陈","375","Male","[""好他"",""坏我"",""坏他"",""好我""]","[""强他"",""弱我"",""弱他"",""强我""]","","","","","","","","","","","","","","","","","SRET_EW","EW_instructions","Mon Jan 29 2024 18:29:06 GMT+0800 (GMT+08:00)","","","","","","","","","","","","","","","","","","","",""
"null","","null","psychophysics","9","159280","0.0-7.0-1.0-0.0","7","6","7","6","6","5","5","5","5","5","5","1","0","0","-2","1","2","1","2","5","4","5","5","5","4","4","4","5","5","7","9","6","9","7","3","8","7","9","7","6","3","3","7","2","7","2","6","6","1","2","1","6","1","2","6","6","7","6","6","3","2","1","2","2","5","2","6","7","7","6","7","7","6","1","6","3","7","3","6","776954102012973057","陈","375","Male","[""好他"",""坏我"",""坏他"",""好我""]","[""强他"",""弱我"",""弱他"",""强我""]","","","","","","","","","","","","","","","","","SRET_EW","EW_practice","","key","null","16.75979329608937","768","428","自己","刻板","Negative","ability","","","","","","","","","","",""
"2001","","f","psychophysics","10","162284","0.0-7.0-1.0-0.1","7","6","7","6","6","5","5","5","5","5","5","1","0","0","-2","1","2","1","2","5","4","5","5","5","4","4","4","5","5","7","9","6","9","7","3","8","7","9","7","6","3","3","7","2","7","2","6","6","1","2","1","6","1","2","6","6","7","6","6","3","2","1","2","2","5","2","6","7","7","6","7","7","6","1","6","3","7","3","6","776954102012973057","陈","375","Male","[""好他"",""坏我"",""坏他"",""好我""]","[""强他"",""弱我"",""弱他"",""强我""]","","","","","","","","no","","","","","","","","","SRET_EW","EW_practice","","key","f","16.666233333333285","768","428","朋友","徇私","Negative","morality","","","","","","","","","","",""
"948","","j","psychophysics","11","164234","0.0-7.0-1.0-0.2","7","6","7","6","6","5","5","5","5","5","5","1","0","0","-2","1","2","1","2","5","4","5","5","5","4","4","4","5","5","7","9","6","9","7","3","8","7","9","7","6","3","3","7","2","7","2","6","6","1","2","1","6","1","2","6","6","7","6","6","3","2","1","2","2","5","2","6","7","7","6","7","7","6","1","6","3","7","3","6","776954102012973057","陈","375","Male","[""好他"",""坏我"",""坏他"",""好我""]","[""强他"",""弱我"",""弱他"",""强我""]","","","","","","","","yes","","","","","","","","","SRET_EW","EW_practice","","key","j","16.665913793103567","768","428","朋友","忠实","Positive","morality","","","","","","","","","","",""
"786","","j","psychophysics","12","166022","0.0-7.0-1.0-0.3","7","6","7","6","6","5","5","5","5","5","5","1","0","0","-2","1","2","1","2","5","4","5","5","5","4","4","4","5","5","7","9","6","9","7","3","8","7","9","7","6","3","3","7","2","7","2","6","6","1","2","1","6","1","2","6","6","7","6","6","3","2","1","2","2","5","2","6","7","7","6","7","7","6","1","6","3","7","3","6","776954102012973057","陈","375","Male","[""好他"",""坏我"",""坏他"",""好我""]","[""强他"",""弱我"",""弱他"",""强我""]","","","","","","","","yes","","","","","","","","","SRET_EW","EW_practice","","key","j","16.666169811320767","768","428","自己","严谨","Positive","ability","","","","","","","","","","",""
"15859","
    <p><div style='color:white;font-size:35px; line-height:20px;'>请您再次阅读实验要求</div></p><br>
    <p><div style='color:white;font-size:25px; line-height:20px;'>请回忆某一个亲密的朋友，你们至少2年前就认识了，并且最近2年经常见面。</div></p>
    <p><div style='color:white;font-size:25px; line-height:20px;'>在本实验中，您将会看到一些形容词。</div></p>
    <p><div style='color:yellow;font-size:25px; line-height:20px;'>您的任务是判断这些形容词是否符合对您自己或您的朋友的描述。</div></p>
    <p><div class='footer' style='font-size:25px; line-height:20px;'>如果对本实验还有不清楚之处，请立即向实验员咨询。</p><p style='font-size:25px; line-height:20px;'>如果您明白了规则：</p><p style='font-size:22px; line-height:20px;'>请按 继续 进入正式实验</p>
    </div>
    <p style='font-size:35px'>符合按<span style=""color:lightgreen""> j 键</span>，不符合按<span style=""color:red""> f 键</span></p>","0","html-button-response","13","181882","0.0-7.0-2.0","7","6","7","6","6","5","5","5","5","5","5","1","0","0","-2","1","2","1","2","5","4","5","5","5","4","4","4","5","5","7","9","6","9","7","3","8","7","9","7","6","3","3","7","2","7","2","6","6","1","2","1","6","1","2","6","6","7","6","6","3","2","1","2","2","5","2","6","7","7","6","7","7","6","1","6","3","7","3","6","776954102012973057","陈","375","Male","[""好他"",""坏我"",""坏他"",""好我""]","[""强他"",""弱我"",""弱他"",""强我""]","","","","","","","","","","","","","","","","","SRET_EW","prac_instructions","Mon Jan 29 2024 18:29:06 GMT+0800 (GMT+08:00)","","","","","","","","","","","","","","","","","","","",""
"931","","j","psychophysics","14","183814","0.0-7.0-3.0-0.0","7","6","7","6","6","5","5","5","5","5","5","1","0","0","-2","1","2","1","2","5","4","5","5","5","4","4","4","5","5","7","9","6","9","7","3","8","7","9","7","6","3","3","7","2","7","2","6","6","1","2","1","6","1","2","6","6","7","6","6","3","2","1","2","2","5","2","6","7","7","6","7","7","6","1","6","3","7","3","6","776954102012973057","陈","375","Male","[""好他"",""坏我"",""坏他"",""好我""]","[""强他"",""弱我"",""弱他"",""强我""]","","","","","","","","yes","","","","","","","","","SRET","EW_formal","","key","j","16.665710526315817","768","428","自己","坚贞","Positive","morality","","","","","","","","","","",""
"885","","f","psychophysics","15","185702","0.0-7.0-3.0-0.1","7","6","7","6","6","5","5","5","5","5","5","1","0","0","-2","1","2","1","2","5","4","5","5","5","4","4","4","5","5","7","9","6","9","7","3","8","7","9","7","6","3","3","7","2","7","2","6","6","1","2","1","6","1","2","6","6","7","6","6","3","2","1","2","2","5","2","6","7","7","6","7","7","6","1","6","3","7","3","6","776954102012973057","陈","375","Male","[""好他"",""坏我"",""坏他"",""好我""]","[""强他"",""弱我"",""弱他"",""强我""]","","","","","","","","no","","","","","","","","","SRET","EW_formal","","key","f","16.666070796460208","768","428","朋友","迷糊","Negative","ability","","","","","","","","","","",""
"733","","j","psychophysics","16","187437","0.0-7.0-3.0-0.2","7","6","7","6","6","5","5","5","5","5","5","1","0","0","-2","1","2","1","2","5","4","5","5","5","4","4","4","5","5","7","9","6","9","7","3","8","7","9","7","6","3","3","7","2","7","2","6","6","1","2","1","6","1","2","6","6","7","6","6","3","2","1","2","2","5","2","6","7","7","6","7","7","6","1","6","3","7","3","6","776954102012973057","陈","375","Male","[""好他"",""坏我"",""坏他"",""好我""]","[""强他"",""弱我"",""弱他"",""强我""]","","","","","","","","yes","","","","","","","","","SRET","EW_formal","","key","j","16.666106796116473","768","428","自己","说谎","Negative","morality","","","","","","","","","","",""
"1122","","j","psychophysics","17","189561","0.0-7.0-3.0-0.3","7","6","7","6","6","5","5","5","5","5","5","1","0","0","-2","1","2","1","2","5","4","5","5","5","4","4","4","5","5","7","9","6","9","7","3","8","7","9","7","6","3","3","7","2","7","2","6","6","1","2","1","6","1","2","6","6","7","6","6","3","2","1","2","2","5","2","6","7","7","6","7","7","6","1","6","3","7","3","6","776954102012973057","陈","375","Male","[""好他"",""坏我"",""坏他"",""好我""]","[""强他"",""弱我"",""弱他"",""强我""]","","","","","","","","yes","","","","","","","","","SRET","EW_formal","","key","j","16.66612698412699","768","428","朋友","务实","Positive","ability","","","","","","","","","","",""
"1100","","j","psychophysics","18","191662","0.0-7.0-3.0-0.4","7","6","7","6","6","5","5","5","5","5","5","1","0","0","-2","1","2","1","2","5","4","5","5","5","4","4","4","5","5","7","9","6","9","7","3","8","7","9","7","6","3","3","7","2","7","2","6","6","1","2","1","6","1","2","6","6","7","6","6","3","2","1","2","2","5","2","6","7","7","6","7","7","6","1","6","3","7","3","6","776954102012973057","陈","375","Male","[""好他"",""坏我"",""坏他"",""好我""]","[""强他"",""弱我"",""弱他"",""强我""]","","","","","","","","yes","","","","","","","","","SRET","EW_formal","","key","j","16.66680000000005","768","428","朋友","拖延","Negative","ability","","","","","","","","","","",""
"905","","j","psychophysics","19","193569","0.0-7.0-3.0-0.5","7","6","7","6","6","5","5","5","5","5","5","1","0","0","-2","1","2","1","2","5","4","5","5","5","4","4","4","5","5","7","9","6","9","7","3","8","7","9","7","6","3","3","7","2","7","2","6","6","1","2","1","6","1","2","6","6","7","6","6","3","2","1","2","2","5","2","6","7","7","6","7","7","6","1","6","3","7","3","6","776954102012973057","陈","375","Male","[""好他"",""坏我"",""坏他"",""好我""]","[""强他"",""弱我"",""弱他"",""强我""]","","","","","","","","yes","","","","","","","","","SRET","EW_formal","","key","j","16.66693859649138","768","428","朋友","忠诚","Positive","morality","","","","","","","","","","",""
"1196","","j","psychophysics","20","195767","0.0-7.0-3.0-0.6","7","6","7","6","6","5","5","5","5","5","5","1","0","0","-2","1","2","1","2","5","4","5","5","5","4","4","4","5","5","7","9","6","9","7","3","8","7","9","7","6","3","3","7","2","7","2","6","6","1","2","1","6","1","2","6","6","7","6","6","3","2","1","2","2","5","2","6","7","7","6","7","7","6","1","6","3","7","3","6","776954102012973057","陈","375","Male","[""好他"",""坏我"",""坏他"",""好我""]","[""强他"",""弱我"",""弱他"",""强我""]","","","","","","","","yes","","","","","","","","","SRET","EW_formal","","key","j","16.666625954198317","768","428","自己","慈悲","Positive","morality","","","","","","","","","","",""
"1175","","f","psychophysics","21","197945","0.0-7.0-3.0-0.7","7","6","7","6","6","5","5","5","5","5","5","1","0","0","-2","1","2","1","2","5","4","5","5","5","4","4","4","5","5","7","9","6","9","7","3","8","7","9","7","6","3","3","7","2","7","2","6","6","1","2","1","6","1","2","6","6","7","6","6","3","2","1","2","2","5","2","6","7","7","6","7","7","6","1","6","3","7","3","6","776954102012973057","陈","375","Male","[""好他"",""坏我"",""坏他"",""好我""]","[""强他"",""弱我"",""弱他"",""强我""]","","","","","","","","no","","","","","","","","","SRET","EW_formal","","key","f","16.66672093023243","768","428","自己","驽钝","Negative","ability","","","","","","","","","","",""
"949","","j","psychophysics","22","199896","0.0-7.0-3.0-0.8","7","6","7","6","6","5","5","5","5","5","5","1","0","0","-2","1","2","1","2","5","4","5","5","5","4","4","4","5","5","7","9","6","9","7","3","8","7","9","7","6","3","3","7","2","7","2","6","6","1","2","1","6","1","2","6","6","7","6","6","3","2","1","2","2","5","2","6","7","7","6","7","7","6","1","6","3","7","3","6","776954102012973057","陈","375","Male","[""好他"",""坏我"",""坏他"",""好我""]","[""强他"",""弱我"",""弱他"",""强我""]","","","","","","","","yes","","","","","","","","","SRET","EW_formal","","key","j","16.666422413793043","768","428","朋友","愚痴","Negative","ability","","","","","","","","","","",""
"790","","j","psychophysics","23","201687","0.0-7.0-3.0-0.9","7","6","7","6","6","5","5","5","5","5","5","1","0","0","-2","1","2","1","2","5","4","5","5","5","4","4","4","5","5","7","9","6","9","7","3","8","7","9","7","6","3","3","7","2","7","2","6","6","1","2","1","6","1","2","6","6","7","6","6","3","2","1","2","2","5","2","6","7","7","6","7","7","6","1","6","3","7","3","6","776954102012973057","陈","375","Male","[""好他"",""坏我"",""坏他"",""好我""]","[""强他"",""弱我"",""弱他"",""强我""]","","","","","","","","yes","","","","","","","","","SRET","EW_formal","","key","j","16.666785046728883","768","428","朋友","细心","Positive","ability","","","","","","","","","","",""
"1039","","f","psychophysics","24","203728","0.0-7.0-3.0-0.10","7","6","7","6","6","5","5","5","5","5","5","1","0","0","-2","1","2","1","2","5","4","5","5","5","4","4","4","5","5","7","9","6","9","7","3","8","7","9","7","6","3","3","7","2","7","2","6","6","1","2","1","6","1","2","6","6","7","6","6","3","2","1","2","2","5","2","6","7","7","6","7","7","6","1","6","3","7","3","6","776954102012973057","陈","375","Male","[""好他"",""坏我"",""坏他"",""好我""]","[""强他"",""弱我"",""弱他"",""强我""]","","","","","","","","no","","","","","","","","","SRET","EW_formal","","key","f","16.667471074380128","768","428","朋友","短视","Negative","ability","","","","","","","","","","",""
"912","","f","psychophysics","25","205642","0.0-7.0-3.0-0.11","7","6","7","6","6","5","5","5","5","5","5","1","0","0","-2","1","2","1","2","5","4","5","5","5","4","4","4","5","5","7","9","6","9","7","3","8","7","9","7","6","3","3","7","2","7","2","6","6","1","2","1","6","1","2","6","6","7","6","6","3","2","1","2","2","5","2","6","7","7","6","7","7","6","1","6","3","7","3","6","776954102012973057","陈","375","Male","[""好他"",""坏我"",""坏他"",""好我""]","[""强他"",""弱我"",""弱他"",""强我""]","","","","","","","","no","","","","","","","","","SRET","EW_formal","","key","f","16.667307017543894","768","428","朋友","缺德","Negative","morality","","","","","","","","","","",""
"800","","j","psychophysics","26","207443","0.0-7.0-3.0-0.12","7","6","7","6","6","5","5","5","5","5","5","1","0","0","-2","1","2","1","2","5","4","5","5","5","4","4","4","5","5","7","9","6","9","7","3","8","7","9","7","6","3","3","7","2","7","2","6","6","1","2","1","6","1","2","6","6","7","6","6","3","2","1","2","2","5","2","6","7","7","6","7","7","6","1","6","3","7","3","6","776954102012973057","陈","375","Male","[""好他"",""坏我"",""坏他"",""好我""]","[""强他"",""弱我"",""弱他"",""强我""]","","","","","","","","yes","","","","","","","","","SRET","EW_formal","","key","j","16.66605607476646","768","428","自己","厚道","Positive","morality","","","","","","","","","","",""
"900","","f","psychophysics","27","209344","0.0-7.0-3.0-0.13","7","6","7","6","6","5","5","5","5","5","5","1","0","0","-2","1","2","1","2","5","4","5","5","5","4","4","4","5","5","7","9","6","9","7","3","8","7","9","7","6","3","3","7","2","7","2","6","6","1","2","1","6","1","2","6","6","7","6","6","3","2","1","2","2","5","2","6","7","7","6","7","7","6","1","6","3","7","3","6","776954102012973057","陈","375","Male","[""好他"",""坏我"",""坏他"",""好我""]","[""强他"",""弱我"",""弱他"",""强我""]","","","","","","","","no","","","","","","","","","SRET","EW_formal","","key","f","16.666752212389323","768","428","自己","迟钝","Negative","ability","","","","","","","","","","",""
"1059","","j","psychophysics","28","211406","0.0-7.0-3.0-0.14","7","6","7","6","6","5","5","5","5","5","5","1","0","0","-2","1","2","1","2","5","4","5","5","5","4","4","4","5","5","7","9","6","9","7","3","8","7","9","7","6","3","3","7","2","7","2","6","6","1","2","1","6","1","2","6","6","7","6","6","3","2","1","2","2","5","2","6","7","7","6","7","7","6","1","6","3","7","3","6","776954102012973057","陈","375","Male","[""好他"",""坏我"",""坏他"",""好我""]","[""强他"",""弱我"",""弱他"",""强我""]","","","","","","","","yes","","","","","","","","","SRET","EW_formal","","key","j","16.666886178861805","768","428","自己","依靠","Negative","ability","","","","","","","","","","",""
"834","","j","psychophysics","29","213243","0.0-7.0-3.0-0.15","7","6","7","6","6","5","5","5","5","5","5","1","0","0","-2","1","2","1","2","5","4","5","5","5","4","4","4","5","5","7","9","6","9","7","3","8","7","9","7","6","3","3","7","2","7","2","6","6","1","2","1","6","1","2","6","6","7","6","6","3","2","1","2","2","5","2","6","7","7","6","7","7","6","1","6","3","7","3","6","776954102012973057","陈","375","Male","[""好他"",""坏我"",""坏他"",""好我""]","[""强他"",""弱我"",""弱他"",""强我""]","","","","","","","","yes","","","","","","","","","SRET","EW_formal","","key","j","16.666183486238545","768","428","自己","高明","Positive","ability","","","","","","","","","","",""
"1206","","j","psychophysics","30","215452","0.0-7.0-3.0-0.16","7","6","7","6","6","5","5","5","5","5","5","1","0","0","-2","1","2","1","2","5","4","5","5","5","4","4","4","5","5","7","9","6","9","7","3","8","7","9","7","6","3","3","7","2","7","2","6","6","1","2","1","6","1","2","6","6","7","6","6","3","2","1","2","2","5","2","6","7","7","6","7","7","6","1","6","3","7","3","6","776954102012973057","陈","375","Male","[""好他"",""坏我"",""坏他"",""好我""]","[""强他"",""弱我"",""弱他"",""强我""]","","","","","","","","yes","","","","","","","","","SRET","EW_formal","","key","j","16.666174242424226","768","428","朋友","宽容","Positive","morality","","","","","","","","","","",""
"733","","f","psychophysics","31","217187","0.0-7.0-3.0-0.17","7","6","7","6","6","5","5","5","5","5","5","1","0","0","-2","1","2","1","2","5","4","5","5","5","4","4","4","5","5","7","9","6","9","7","3","8","7","9","7","6","3","3","7","2","7","2","6","6","1","2","1","6","1","2","6","6","7","6","6","3","2","1","2","2","5","2","6","7","7","6","7","7","6","1","6","3","7","3","6","776954102012973057","陈","375","Male","[""好他"",""坏我"",""坏他"",""好我""]","[""强他"",""弱我"",""弱他"",""强我""]","","","","","","","","no","","","","","","","","","SRET","EW_formal","","key","f","16.66681553398059","768","428","朋友","愚蠢","Negative","ability","","","","","","","","","","",""
"879","","j","psychophysics","32","219067","0.0-7.0-3.0-0.18","7","6","7","6","6","5","5","5","5","5","5","1","0","0","-2","1","2","1","2","5","4","5","5","5","4","4","4","5","5","7","9","6","9","7","3","8","7","9","7","6","3","3","7","2","7","2","6","6","1","2","1","6","1","2","6","6","7","6","6","3","2","1","2","2","5","2","6","7","7","6","7","7","6","1","6","3","7","3","6","776954102012973057","陈","375","Male","[""好他"",""坏我"",""坏他"",""好我""]","[""强他"",""弱我"",""弱他"",""强我""]","","","","","","","","yes","","","","","","","","","SRET","EW_formal","","key","j","16.66708928571435","768","428","朋友","扎实","Positive","ability","","","","","","","","","","",""
"868","","f","psychophysics","33","220936","0.0-7.0-3.0-0.19","7","6","7","6","6","5","5","5","5","5","5","1","0","0","-2","1","2","1","2","5","4","5","5","5","4","4","4","5","5","7","9","6","9","7","3","8","7","9","7","6","3","3","7","2","7","2","6","6","1","2","1","6","1","2","6","6","7","6","6","3","2","1","2","2","5","2","6","7","7","6","7","7","6","1","6","3","7","3","6","776954102012973057","陈","375","Male","[""好他"",""坏我"",""坏他"",""好我""]","[""强他"",""弱我"",""弱他"",""强我""]","","","","","","","","no","","","","","","","","","SRET","EW_formal","","key","f","16.666450450450668","768","428","朋友","小人","Negative","morality","","","","","","","","","","",""
"1143","","f","psychophysics","34","223081","0.0-7.0-3.0-0.20","7","6","7","6","6","5","5","5","5","5","5","1","0","0","-2","1","2","1","2","5","4","5","5","5","4","4","4","5","5","7","9","6","9","7","3","8","7","9","7","6","3","3","7","2","7","2","6","6","1","2","1","6","1","2","6","6","7","6","6","3","2","1","2","2","5","2","6","7","7","6","7","7","6","1","6","3","7","3","6","776954102012973057","陈","375","Male","[""好他"",""坏我"",""坏他"",""好我""]","[""强他"",""弱我"",""弱他"",""强我""]","","","","","","","","no","","","","","","","","","SRET","EW_formal","","key","f","16.667118110236352","768","428","朋友","弱智","Negative","ability","","","","","","","","","","",""
"1292","","f","psychophysics","35","225375","0.0-7.0-3.0-0.21","7","6","7","6","6","5","5","5","5","5","5","1","0","0","-2","1","2","1","2","5","4","5","5","5","4","4","4","5","5","7","9","6","9","7","3","8","7","9","7","6","3","3","7","2","7","2","6","6","1","2","1","6","1","2","6","6","7","6","6","3","2","1","2","2","5","2","6","7","7","6","7","7","6","1","6","3","7","3","6","776954102012973057","陈","375","Male","[""好他"",""坏我"",""坏他"",""好我""]","[""强他"",""弱我"",""弱他"",""强我""]","","","","","","","","no","","","","","","","","","SRET","EW_formal","","key","f","16.666613138686138","768","428","自己","外行","Negative","ability","","","","","","","","","","",""
"800","","f","psychophysics","36","227176","0.0-7.0-3.0-0.22","7","6","7","6","6","5","5","5","5","5","5","1","0","0","-2","1","2","1","2","5","4","5","5","5","4","4","4","5","5","7","9","6","9","7","3","8","7","9","7","6","3","3","7","2","7","2","6","6","1","2","1","6","1","2","6","6","7","6","6","3","2","1","2","2","5","2","6","7","7","6","7","7","6","1","6","3","7","3","6","776954102012973057","陈","375","Male","[""好他"",""坏我"",""坏他"",""好我""]","[""强他"",""弱我"",""弱他"",""强我""]","","","","","","","","no","","","","","","","","","SRET","EW_formal","","key","f","16.665943925233588","768","428","自己","腐败","Negative","morality","","","","","","","","","","",""
"1066","","f","psychophysics","37","229244","0.0-7.0-3.0-0.23","7","6","7","6","6","5","5","5","5","5","5","1","0","0","-2","1","2","1","2","5","4","5","5","5","4","4","4","5","5","7","9","6","9","7","3","8","7","9","7","6","3","3","7","2","7","2","6","6","1","2","1","6","1","2","6","6","7","6","6","3","2","1","2","2","5","2","6","7","7","6","7","7","6","1","6","3","7","3","6","776954102012973057","陈","375","Male","[""好他"",""坏我"",""坏他"",""好我""]","[""强他"",""弱我"",""弱他"",""强我""]","","","","","","","","no","","","","","","","","","SRET","EW_formal","","key","f","16.667439024390255","768","428","朋友","忠义","Positive","morality","","","","","","","","","","",""
"1159","","j","psychophysics","38","231404","0.0-7.0-3.0-0.24","7","6","7","6","6","5","5","5","5","5","5","1","0","0","-2","1","2","1","2","5","4","5","5","5","4","4","4","5","5","7","9","6","9","7","3","8","7","9","7","6","3","3","7","2","7","2","6","6","1","2","1","6","1","2","6","6","7","6","6","3","2","1","2","2","5","2","6","7","7","6","7","7","6","1","6","3","7","3","6","776954102012973057","陈","375","Male","[""好他"",""坏我"",""坏他"",""好我""]","[""强他"",""弱我"",""弱他"",""强我""]","","","","","","","","yes","","","","","","","","","SRET","EW_formal","","key","j","16.66706976744183","768","428","朋友","博学","Positive","ability","","","","","","","","","","",""
"782","","f","psychophysics","39","233187","0.0-7.0-3.0-0.25","7","6","7","6","6","5","5","5","5","5","5","1","0","0","-2","1","2","1","2","5","4","5","5","5","4","4","4","5","5","7","9","6","9","7","3","8","7","9","7","6","3","3","7","2","7","2","6","6","1","2","1","6","1","2","6","6","7","6","6","3","2","1","2","2","5","2","6","7","7","6","7","7","6","1","6","3","7","3","6","776954102012973057","陈","375","Male","[""好他"",""坏我"",""坏他"",""好我""]","[""强他"",""弱我"",""弱他"",""强我""]","","","","","","","","no","","","","","","","","","SRET","EW_formal","","key","f","16.666226415094297","768","428","朋友","诡诈","Negative","morality","","","","","","","","","","",""
"1113","","j","psychophysics","40","235302","0.0-7.0-3.0-0.26","7","6","7","6","6","5","5","5","5","5","5","1","0","0","-2","1","2","1","2","5","4","5","5","5","4","4","4","5","5","7","9","6","9","7","3","8","7","9","7","6","3","3","7","2","7","2","6","6","1","2","1","6","1","2","6","6","7","6","6","3","2","1","2","2","5","2","6","7","7","6","7","7","6","1","6","3","7","3","6","776954102012973057","陈","375","Male","[""好他"",""坏我"",""坏他"",""好我""]","[""强他"",""弱我"",""弱他"",""强我""]","","","","","","","","yes","","","","","","","","","SRET","EW_formal","","key","j","16.666626984126946","768","428","自己","学霸","Positive","ability","","","","","","","","","","",""
"1107","","j","psychophysics","41","237411","0.0-7.0-3.0-0.27","7","6","7","6","6","5","5","5","5","5","5","1","0","0","-2","1","2","1","2","5","4","5","5","5","4","4","4","5","5","7","9","6","9","7","3","8","7","9","7","6","3","3","7","2","7","2","6","6","1","2","1","6","1","2","6","6","7","6","6","3","2","1","2","2","5","2","6","7","7","6","7","7","6","1","6","3","7","3","6","776954102012973057","陈","375","Male","[""好他"",""坏我"",""坏他"",""好我""]","[""强他"",""弱我"",""弱他"",""强我""]","","","","","","","","yes","","","","","","","","","SRET","EW_formal","","key","j","16.666439999999945","768","428","自己","刻苦","Positive","ability","","","","","","","","","","",""
"775","","j","psychophysics","42","239187","0.0-7.0-3.0-0.28","7","6","7","6","6","5","5","5","5","5","5","1","0","0","-2","1","2","1","2","5","4","5","5","5","4","4","4","5","5","7","9","6","9","7","3","8","7","9","7","6","3","3","7","2","7","2","6","6","1","2","1","6","1","2","6","6","7","6","6","3","2","1","2","2","5","2","6","7","7","6","7","7","6","1","6","3","7","3","6","776954102012973057","陈","375","Male","[""好他"",""坏我"",""坏他"",""好我""]","[""强他"",""弱我"",""弱他"",""强我""]","","","","","","","","yes","","","","","","","","","SRET","EW_formal","","key","j","16.667264150943495","768","428","自己","顶事","Positive","ability","","","","","","","","","","",""
"717","","f","psychophysics","43","240906","0.0-7.0-3.0-0.29","7","6","7","6","6","5","5","5","5","5","5","1","0","0","-2","1","2","1","2","5","4","5","5","5","4","4","4","5","5","7","9","6","9","7","3","8","7","9","7","6","3","3","7","2","7","2","6","6","1","2","1","6","1","2","6","6","7","6","6","3","2","1","2","2","5","2","6","7","7","6","7","7","6","1","6","3","7","3","6","776954102012973057","陈","375","Male","[""好他"",""坏我"",""坏他"",""好我""]","[""强他"",""弱我"",""弱他"",""强我""]","","","","","","","","no","","","","","","","","","SRET","EW_formal","","key","f","16.66661764705878","768","428","自己","笨蛋","Negative","ability","","","","","","","","","","",""
"942","","f","psychophysics","44","242850","0.0-7.0-3.0-0.30","7","6","7","6","6","5","5","5","5","5","5","1","0","0","-2","1","2","1","2","5","4","5","5","5","4","4","4","5","5","7","9","6","9","7","3","8","7","9","7","6","3","3","7","2","7","2","6","6","1","2","1","6","1","2","6","6","7","6","6","3","2","1","2","2","5","2","6","7","7","6","7","7","6","1","6","3","7","3","6","776954102012973057","陈","375","Male","[""好他"",""坏我"",""坏他"",""好我""]","[""强他"",""弱我"",""弱他"",""强我""]","","","","","","","","no","","","","","","","","","SRET","EW_formal","","key","f","16.6673448275863","768","428","自己","无敌","Positive","ability","","","","","","","","","","",""
"1171","","j","psychophysics","45","245024","0.0-7.0-3.0-0.31","7","6","7","6","6","5","5","5","5","5","5","1","0","0","-2","1","2","1","2","5","4","5","5","5","4","4","4","5","5","7","9","6","9","7","3","8","7","9","7","6","3","3","7","2","7","2","6","6","1","2","1","6","1","2","6","6","7","6","6","3","2","1","2","2","5","2","6","7","7","6","7","7","6","1","6","3","7","3","6","776954102012973057","陈","375","Male","[""好他"",""坏我"",""坏他"",""好我""]","[""强他"",""弱我"",""弱他"",""强我""]","","","","","","","","yes","","","","","","","","","SRET","EW_formal","","key","j","16.667286821705552","768","428","朋友","聪明","Positive","ability","","","","","","","","","","",""
"670","","f","psychophysics","46","246695","0.0-7.0-3.0-0.32","7","6","7","6","6","5","5","5","5","5","5","1","0","0","-2","1","2","1","2","5","4","5","5","5","4","4","4","5","5","7","9","6","9","7","3","8","7","9","7","6","3","3","7","2","7","2","6","6","1","2","1","6","1","2","6","6","7","6","6","3","2","1","2","2","5","2","6","7","7","6","7","7","6","1","6","3","7","3","6","776954102012973057","陈","375","Male","[""好他"",""坏我"",""坏他"",""好我""]","[""强他"",""弱我"",""弱他"",""强我""]","","","","","","","","no","","","","","","","","","SRET","EW_formal","","key","f","16.666626262626107","768","428","自己","罪恶","Negative","morality","","","","","","","","","","",""
"809","","j","psychophysics","47","248507","0.0-7.0-3.0-0.33","7","6","7","6","6","5","5","5","5","5","5","1","0","0","-2","1","2","1","2","5","4","5","5","5","4","4","4","5","5","7","9","6","9","7","3","8","7","9","7","6","3","3","7","2","7","2","6","6","1","2","1","6","1","2","6","6","7","6","6","3","2","1","2","2","5","2","6","7","7","6","7","7","6","1","6","3","7","3","6","776954102012973057","陈","375","Male","[""好他"",""坏我"",""坏他"",""好我""]","[""强他"",""弱我"",""弱他"",""强我""]","","","","","","","","yes","","","","","","","","","SRET","EW_formal","","key","j","16.666824074074274","768","428","朋友","沉着","Positive","ability","","","","","","","","","","",""
"954","","j","psychophysics","48","250462","0.0-7.0-3.0-0.34","7","6","7","6","6","5","5","5","5","5","5","1","0","0","-2","1","2","1","2","5","4","5","5","5","4","4","4","5","5","7","9","6","9","7","3","8","7","9","7","6","3","3","7","2","7","2","6","6","1","2","1","6","1","2","6","6","7","6","6","3","2","1","2","2","5","2","6","7","7","6","7","7","6","1","6","3","7","3","6","776954102012973057","陈","375","Male","[""好他"",""坏我"",""坏他"",""好我""]","[""强他"",""弱我"",""弱他"",""强我""]","","","","","","","","yes","","","","","","","","","SRET","EW_formal","","key","j","16.66654310344843","768","428","自己","孝顺","Positive","morality","","","","","","","","","","",""
"818","","f","psychophysics","49","252280","0.0-7.0-3.0-0.35","7","6","7","6","6","5","5","5","5","5","5","1","0","0","-2","1","2","1","2","5","4","5","5","5","4","4","4","5","5","7","9","6","9","7","3","8","7","9","7","6","3","3","7","2","7","2","6","6","1","2","1","6","1","2","6","6","7","6","6","3","2","1","2","2","5","2","6","7","7","6","7","7","6","1","6","3","7","3","6","776954102012973057","陈","375","Male","[""好他"",""坏我"",""坏他"",""好我""]","[""强他"",""弱我"",""弱他"",""强我""]","","","","","","","","no","","","","","","","","","SRET","EW_formal","","key","f","16.66618518518522","768","428","自己","短浅","Negative","ability","","","","","","","","","","",""
"845","","j","psychophysics","50","254127","0.0-7.0-3.0-0.36","7","6","7","6","6","5","5","5","5","5","5","1","0","0","-2","1","2","1","2","5","4","5","5","5","4","4","4","5","5","7","9","6","9","7","3","8","7","9","7","6","3","3","7","2","7","2","6","6","1","2","1","6","1","2","6","6","7","6","6","3","2","1","2","2","5","2","6","7","7","6","7","7","6","1","6","3","7","3","6","776954102012973057","陈","375","Male","[""好他"",""坏我"",""坏他"",""好我""]","[""强他"",""弱我"",""弱他"",""强我""]","","","","","","","","yes","","","","","","","","","SRET","EW_formal","","key","j","16.667336363636423","768","428","朋友","毅力","Positive","ability","","","","","","","","","","",""
"790","","f","psychophysics","51","255919","0.0-7.0-3.0-0.37","7","6","7","6","6","5","5","5","5","5","5","1","0","0","-2","1","2","1","2","5","4","5","5","5","4","4","4","5","5","7","9","6","9","7","3","8","7","9","7","6","3","3","7","2","7","2","6","6","1","2","1","6","1","2","6","6","7","6","6","3","2","1","2","2","5","2","6","7","7","6","7","7","6","1","6","3","7","3","6","776954102012973057","陈","375","Male","[""好他"",""坏我"",""坏他"",""好我""]","[""强他"",""弱我"",""弱他"",""强我""]","","","","","","","","no","","","","","","","","","SRET","EW_formal","","key","f","16.666158878504763","768","428","朋友","窝囊","Negative","ability","","","","","","","","","","",""
"876","","f","psychophysics","52","257796","0.0-7.0-3.0-0.38","7","6","7","6","6","5","5","5","5","5","5","1","0","0","-2","1","2","1","2","5","4","5","5","5","4","4","4","5","5","7","9","6","9","7","3","8","7","9","7","6","3","3","7","2","7","2","6","6","1","2","1","6","1","2","6","6","7","6","6","3","2","1","2","2","5","2","6","7","7","6","7","7","6","1","6","3","7","3","6","776954102012973057","陈","375","Male","[""好他"",""坏我"",""坏他"",""好我""]","[""强他"",""弱我"",""弱他"",""强我""]","","","","","","","","no","","","","","","","","","SRET","EW_formal","","key","f","16.666630630630756","768","428","朋友","无为","Negative","ability","","","","","","","","","","",""
"845","","j","psychophysics","53","259644","0.0-7.0-3.0-0.39","7","6","7","6","6","5","5","5","5","5","5","1","0","0","-2","1","2","1","2","5","4","5","5","5","4","4","4","5","5","7","9","6","9","7","3","8","7","9","7","6","3","3","7","2","7","2","6","6","1","2","1","6","1","2","6","6","7","6","6","3","2","1","2","2","5","2","6","7","7","6","7","7","6","1","6","3","7","3","6","776954102012973057","陈","375","Male","[""好他"",""坏我"",""坏他"",""好我""]","[""强他"",""弱我"",""弱他"",""强我""]","","","","","","","","yes","","","","","","","","","SRET","EW_formal","","key","j","16.666654545454765","768","428","自己","精干","Positive","ability","","","","","","","","","","",""
"1024","","j","psychophysics","54","261670","0.0-7.0-3.0-0.40","7","6","7","6","6","5","5","5","5","5","5","1","0","0","-2","1","2","1","2","5","4","5","5","5","4","4","4","5","5","7","9","6","9","7","3","8","7","9","7","6","3","3","7","2","7","2","6","6","1","2","1","6","1","2","6","6","7","6","6","3","2","1","2","2","5","2","6","7","7","6","7","7","6","1","6","3","7","3","6","776954102012973057","陈","375","Male","[""好他"",""坏我"",""坏他"",""好我""]","[""强他"",""弱我"",""弱他"",""强我""]","","","","","","","","yes","","","","","","","","","SRET","EW_formal","","key","j","16.667198347107437","768","428","朋友","善良","Positive","morality","","","","","","","","","","",""
"999","","j","psychophysics","55","263670","0.0-7.0-3.0-0.41","7","6","7","6","6","5","5","5","5","5","5","1","0","0","-2","1","2","1","2","5","4","5","5","5","4","4","4","5","5","7","9","6","9","7","3","8","7","9","7","6","3","3","7","2","7","2","6","6","1","2","1","6","1","2","6","6","7","6","6","3","2","1","2","2","5","2","6","7","7","6","7","7","6","1","6","3","7","3","6","776954102012973057","陈","375","Male","[""好他"",""坏我"",""坏他"",""好我""]","[""强他"",""弱我"",""弱他"",""强我""]","","","","","","","","yes","","","","","","","","","SRET","EW_formal","","key","j","16.666621848739325","768","428","自己","义气","Positive","morality","","","","","","","","","","",""
"null","","null","psychophysics","56","266683","0.0-7.0-3.0-0.42","7","6","7","6","6","5","5","5","5","5","5","1","0","0","-2","1","2","1","2","5","4","5","5","5","4","4","4","5","5","7","9","6","9","7","3","8","7","9","7","6","3","3","7","2","7","2","6","6","1","2","1","6","1","2","6","6","7","6","6","3","2","1","2","2","5","2","6","7","7","6","7","7","6","1","6","3","7","3","6","776954102012973057","陈","375","Male","[""好他"",""坏我"",""坏他"",""好我""]","[""强他"",""弱我"",""弱他"",""强我""]","","","","","","","","","","","","","","","","","SRET","EW_formal","","key","null","16.666300000000046","768","428","朋友","好心","Positive","morality","","","","","","","","","","",""
"2","","j","psychophysics","57","267687","0.0-7.0-3.0-0.43","7","6","7","6","6","5","5","5","5","5","5","1","0","0","-2","1","2","1","2","5","4","5","5","5","4","4","4","5","5","7","9","6","9","7","3","8","7","9","7","6","3","3","7","2","7","2","6","6","1","2","1","6","1","2","6","6","7","6","6","3","2","1","2","2","5","2","6","7","7","6","7","7","6","1","6","3","7","3","6","776954102012973057","陈","375","Male","[""好他"",""坏我"",""坏他"",""好我""]","[""强他"",""弱我"",""弱他"",""强我""]","","","","","","","","yes","","","","","","","","","SRET","EW_formal","","key","j","16.666677966101243","768","428","自己","高效","Positive","ability","","","","","","","","","","",""
"771","","f","psychophysics","58","269460","0.0-7.0-3.0-0.44","7","6","7","6","6","5","5","5","5","5","5","1","0","0","-2","1","2","1","2","5","4","5","5","5","4","4","4","5","5","7","9","6","9","7","3","8","7","9","7","6","3","3","7","2","7","2","6","6","1","2","1","6","1","2","6","6","7","6","6","3","2","1","2","2","5","2","6","7","7","6","7","7","6","1","6","3","7","3","6","776954102012973057","陈","375","Male","[""好他"",""坏我"",""坏他"",""好我""]","[""强他"",""弱我"",""弱他"",""强我""]","","","","","","","","no","","","","","","","","","SRET","EW_formal","","key","f","16.665866666666364","768","428","自己","蛇蝎","Negative","morality","","","","","","","","","","",""
"955","","f","psychophysics","59","271417","0.0-7.0-3.0-0.45","7","6","7","6","6","5","5","5","5","5","5","1","0","0","-2","1","2","1","2","5","4","5","5","5","4","4","4","5","5","7","9","6","9","7","3","8","7","9","7","6","3","3","7","2","7","2","6","6","1","2","1","6","1","2","6","6","7","6","6","3","2","1","2","2","5","2","6","7","7","6","7","7","6","1","6","3","7","3","6","776954102012973057","陈","375","Male","[""好他"",""坏我"",""坏他"",""好我""]","[""强他"",""弱我"",""弱他"",""强我""]","","","","","","","","no","","","","","","","","","SRET","EW_formal","","key","f","16.666991452991457","768","428","朋友","龌龊","Negative","morality","","","","","","","","","","",""
"903","","j","psychophysics","60","273322","0.0-7.0-3.0-0.46","7","6","7","6","6","5","5","5","5","5","5","1","0","0","-2","1","2","1","2","5","4","5","5","5","4","4","4","5","5","7","9","6","9","7","3","8","7","9","7","6","3","3","7","2","7","2","6","6","1","2","1","6","1","2","6","6","7","6","6","3","2","1","2","2","5","2","6","7","7","6","7","7","6","1","6","3","7","3","6","776954102012973057","陈","375","Male","[""好他"",""坏我"",""坏他"",""好我""]","[""强他"",""弱我"",""弱他"",""强我""]","","","","","","","","yes","","","","","","","","","SRET","EW_formal","","key","j","16.66595575221262","768","428","自己","刚正","Positive","morality","","","","","","","","","","",""
"914","","f","psychophysics","61","275238","0.0-7.0-3.0-0.47","7","6","7","6","6","5","5","5","5","5","5","1","0","0","-2","1","2","1","2","5","4","5","5","5","4","4","4","5","5","7","9","6","9","7","3","8","7","9","7","6","3","3","7","2","7","2","6","6","1","2","1","6","1","2","6","6","7","6","6","3","2","1","2","2","5","2","6","7","7","6","7","7","6","1","6","3","7","3","6","776954102012973057","陈","375","Male","[""好他"",""坏我"",""坏他"",""好我""]","[""强他"",""弱我"",""弱他"",""强我""]","","","","","","","","no","","","","","","","","","SRET","EW_formal","","key","f","16.666254385965242","768","428","自己","不端","Negative","morality","","","","","","","","","","",""
"737","","j","psychophysics","62","276978","0.0-7.0-3.0-0.48","7","6","7","6","6","5","5","5","5","5","5","1","0","0","-2","1","2","1","2","5","4","5","5","5","4","4","4","5","5","7","9","6","9","7","3","8","7","9","7","6","3","3","7","2","7","2","6","6","1","2","1","6","1","2","6","6","7","6","6","3","2","1","2","2","5","2","6","7","7","6","7","7","6","1","6","3","7","3","6","776954102012973057","陈","375","Male","[""好他"",""坏我"",""坏他"",""好我""]","[""强他"",""弱我"",""弱他"",""强我""]","","","","","","","","yes","","","","","","","","","SRET","EW_formal","","key","j","16.666970873786163","768","428","自己","诚信","Positive","morality","","","","","","","","","","",""
"814","","j","psychophysics","63","278793","0.0-7.0-3.0-0.49","7","6","7","6","6","5","5","5","5","5","5","1","0","0","-2","1","2","1","2","5","4","5","5","5","4","4","4","5","5","7","9","6","9","7","3","8","7","9","7","6","3","3","7","2","7","2","6","6","1","2","1","6","1","2","6","6","7","6","6","3","2","1","2","2","5","2","6","7","7","6","7","7","6","1","6","3","7","3","6","776954102012973057","陈","375","Male","[""好他"",""坏我"",""坏他"",""好我""]","[""强他"",""弱我"",""弱他"",""强我""]","","","","","","","","yes","","","","","","","","","SRET","EW_formal","","key","j","16.667370370370378","768","428","自己","谦逊","Positive","morality","","","","","","","","","","",""
"913","","f","psychophysics","64","280707","0.0-7.0-3.0-0.50","7","6","7","6","6","5","5","5","5","5","5","1","0","0","-2","1","2","1","2","5","4","5","5","5","4","4","4","5","5","7","9","6","9","7","3","8","7","9","7","6","3","3","7","2","7","2","6","6","1","2","1","6","1","2","6","6","7","6","6","3","2","1","2","2","5","2","6","7","7","6","7","7","6","1","6","3","7","3","6","776954102012973057","陈","375","Male","[""好他"",""坏我"",""坏他"",""好我""]","[""强他"",""弱我"",""弱他"",""强我""]","","","","","","","","no","","","","","","","","","SRET","EW_formal","","key","f","16.666535087719176","768","428","自己","不孝","Negative","morality","","","","","","","","","","",""
"816","","f","psychophysics","65","282525","0.0-7.0-3.0-0.51","7","6","7","6","6","5","5","5","5","5","5","1","0","0","-2","1","2","1","2","5","4","5","5","5","4","4","4","5","5","7","9","6","9","7","3","8","7","9","7","6","3","3","7","2","7","2","6","6","1","2","1","6","1","2","6","6","7","6","6","3","2","1","2","2","5","2","6","7","7","6","7","7","6","1","6","3","7","3","6","776954102012973057","陈","375","Male","[""好他"",""坏我"",""坏他"",""好我""]","[""强他"",""弱我"",""弱他"",""强我""]","","","","","","","","no","","","","","","","","","SRET","EW_formal","","key","f","16.6673888888887","768","428","自己","恶劣","Negative","morality","","","","","","","","","","",""
"1080","","j","psychophysics","66","284606","0.0-7.0-3.0-0.52","7","6","7","6","6","5","5","5","5","5","5","1","0","0","-2","1","2","1","2","5","4","5","5","5","4","4","4","5","5","7","9","6","9","7","3","8","7","9","7","6","3","3","7","2","7","2","6","6","1","2","1","6","1","2","6","6","7","6","6","3","2","1","2","2","5","2","6","7","7","6","7","7","6","1","6","3","7","3","6","776954102012973057","陈","375","Male","[""好他"",""坏我"",""坏他"",""好我""]","[""强他"",""弱我"",""弱他"",""强我""]","","","","","","","","yes","","","","","","","","","SRET","EW_formal","","key","j","16.667225806451412","768","428","自己","独立","Positive","ability","","","","","","","","","","",""
"698","","f","psychophysics","67","286308","0.0-7.0-3.0-0.53","7","6","7","6","6","5","5","5","5","5","5","1","0","0","-2","1","2","1","2","5","4","5","5","5","4","4","4","5","5","7","9","6","9","7","3","8","7","9","7","6","3","3","7","2","7","2","6","6","1","2","1","6","1","2","6","6","7","6","6","3","2","1","2","2","5","2","6","7","7","6","7","7","6","1","6","3","7","3","6","776954102012973057","陈","375","Male","[""好他"",""坏我"",""坏他"",""好我""]","[""强他"",""弱我"",""弱他"",""强我""]","","","","","","","","no","","","","","","","","","SRET","EW_formal","","key","f","16.666663366337055","768","428","自己","废物","Negative","ability","","","","","","","","","","",""
"787","","j","psychophysics","68","288096","0.0-7.0-3.0-0.54","7","6","7","6","6","5","5","5","5","5","5","1","0","0","-2","1","2","1","2","5","4","5","5","5","4","4","4","5","5","7","9","6","9","7","3","8","7","9","7","6","3","3","7","2","7","2","6","6","1","2","1","6","1","2","6","6","7","6","6","3","2","1","2","2","5","2","6","7","7","6","7","7","6","1","6","3","7","3","6","776954102012973057","陈","375","Male","[""好他"",""坏我"",""坏他"",""好我""]","[""强他"",""弱我"",""弱他"",""强我""]","","","","","","","","yes","","","","","","","","","SRET","EW_formal","","key","j","16.665490566037334","768","428","自己","仗义","Positive","morality","","","","","","","","","","",""
"859","","j","psychophysics","69","289956","0.0-7.0-3.0-0.55","7","6","7","6","6","5","5","5","5","5","5","1","0","0","-2","1","2","1","2","5","4","5","5","5","4","4","4","5","5","7","9","6","9","7","3","8","7","9","7","6","3","3","7","2","7","2","6","6","1","2","1","6","1","2","6","6","7","6","6","3","2","1","2","2","5","2","6","7","7","6","7","7","6","1","6","3","7","3","6","776954102012973057","陈","375","Male","[""好他"",""坏我"",""坏他"",""好我""]","[""强他"",""弱我"",""弱他"",""强我""]","","","","","","","","yes","","","","","","","","","SRET","EW_formal","","key","j","16.66686486486484","768","428","自己","正气","Positive","morality","","","","","","","","","","",""
"731","","f","psychophysics","70","291689","0.0-7.0-3.0-0.56","7","6","7","6","6","5","5","5","5","5","5","1","0","0","-2","1","2","1","2","5","4","5","5","5","4","4","4","5","5","7","9","6","9","7","3","8","7","9","7","6","3","3","7","2","7","2","6","6","1","2","1","6","1","2","6","6","7","6","6","3","2","1","2","2","5","2","6","7","7","6","7","7","6","1","6","3","7","3","6","776954102012973057","陈","375","Male","[""好他"",""坏我"",""坏他"",""好我""]","[""强他"",""弱我"",""弱他"",""强我""]","","","","","","","","no","","","","","","","","","SRET","EW_formal","","key","f","16.666805825242548","768","428","自己","淫乱","Negative","morality","","","","","","","","","","",""
"1329","","j","psychophysics","71","294020","0.0-7.0-3.0-0.57","7","6","7","6","6","5","5","5","5","5","5","1","0","0","-2","1","2","1","2","5","4","5","5","5","4","4","4","5","5","7","9","6","9","7","3","8","7","9","7","6","3","3","7","2","7","2","6","6","1","2","1","6","1","2","6","6","7","6","6","3","2","1","2","2","5","2","6","7","7","6","7","7","6","1","6","3","7","3","6","776954102012973057","陈","375","Male","[""好他"",""坏我"",""坏他"",""好我""]","[""强他"",""弱我"",""弱他"",""强我""]","","","","","","","","yes","","","","","","","","","SRET","EW_formal","","key","j","16.666741007194005","768","428","朋友","远见","Positive","ability","","","","","","","","","","",""
"846","","j","psychophysics","72","295867","0.0-7.0-3.0-0.58","7","6","7","6","6","5","5","5","5","5","5","1","0","0","-2","1","2","1","2","5","4","5","5","5","4","4","4","5","5","7","9","6","9","7","3","8","7","9","7","6","3","3","7","2","7","2","6","6","1","2","1","6","1","2","6","6","7","6","6","3","2","1","2","2","5","2","6","7","7","6","7","7","6","1","6","3","7","3","6","776954102012973057","陈","375","Male","[""好他"",""坏我"",""坏他"",""好我""]","[""强他"",""弱我"",""弱他"",""强我""]","","","","","","","","yes","","","","","","","","","SRET","EW_formal","","key","j","16.667281818181934","768","428","自己","干练","Positive","ability","","","","","","","","","","",""
"883","","j","psychophysics","73","297753","0.0-7.0-3.0-0.59","7","6","7","6","6","5","5","5","5","5","5","1","0","0","-2","1","2","1","2","5","4","5","5","5","4","4","4","5","5","7","9","6","9","7","3","8","7","9","7","6","3","3","7","2","7","2","6","6","1","2","1","6","1","2","6","6","7","6","6","3","2","1","2","2","5","2","6","7","7","6","7","7","6","1","6","3","7","3","6","776954102012973057","陈","375","Male","[""好他"",""坏我"",""坏他"",""好我""]","[""强他"",""弱我"",""弱他"",""强我""]","","","","","","","","yes","","","","","","","","","SRET","EW_formal","","key","j","16.6674553571429","768","428","朋友","守法","Positive","morality","","","","","","","","","","",""
"865","","f","psychophysics","74","299619","0.0-7.0-3.0-0.60","7","6","7","6","6","5","5","5","5","5","5","1","0","0","-2","1","2","1","2","5","4","5","5","5","4","4","4","5","5","7","9","6","9","7","3","8","7","9","7","6","3","3","7","2","7","2","6","6","1","2","1","6","1","2","6","6","7","6","6","3","2","1","2","2","5","2","6","7","7","6","7","7","6","1","6","3","7","3","6","776954102012973057","陈","375","Male","[""好他"",""坏我"",""坏他"",""好我""]","[""强他"",""弱我"",""弱他"",""强我""]","","","","","","","","no","","","","","","","","","SRET","EW_formal","","key","f","16.66632432432432","768","428","自己","差生","Negative","ability","","","","","","","","","","",""
"846","","j","psychophysics","75","301467","0.0-7.0-3.0-0.61","7","6","7","6","6","5","5","5","5","5","5","1","0","0","-2","1","2","1","2","5","4","5","5","5","4","4","4","5","5","7","9","6","9","7","3","8","7","9","7","6","3","3","7","2","7","2","6","6","1","2","1","6","1","2","6","6","7","6","6","3","2","1","2","2","5","2","6","7","7","6","7","7","6","1","6","3","7","3","6","776954102012973057","陈","375","Male","[""好他"",""坏我"",""坏他"",""好我""]","[""强他"",""弱我"",""弱他"",""强我""]","","","","","","","","yes","","","","","","","","","SRET","EW_formal","","key","j","16.666718181818514","768","428","朋友","清廉","Positive","morality","","","","","","","","","","",""
"1185","","j","psychophysics","76","303655","0.0-7.0-3.0-0.62","7","6","7","6","6","5","5","5","5","5","5","1","0","0","-2","1","2","1","2","5","4","5","5","5","4","4","4","5","5","7","9","6","9","7","3","8","7","9","7","6","3","3","7","2","7","2","6","6","1","2","1","6","1","2","6","6","7","6","6","3","2","1","2","2","5","2","6","7","7","6","7","7","6","1","6","3","7","3","6","776954102012973057","陈","375","Male","[""好他"",""坏我"",""坏他"",""好我""]","[""强他"",""弱我"",""弱他"",""强我""]","","","","","","","","yes","","","","","","","","","SRET","EW_formal","","key","j","16.6672307692307","768","428","朋友","娴熟","Positive","ability","","","","","","","","","","",""
"780","","f","psychophysics","77","305436","0.0-7.0-3.0-0.63","7","6","7","6","6","5","5","5","5","5","5","1","0","0","-2","1","2","1","2","5","4","5","5","5","4","4","4","5","5","7","9","6","9","7","3","8","7","9","7","6","3","3","7","2","7","2","6","6","1","2","1","6","1","2","6","6","7","6","6","3","2","1","2","2","5","2","6","7","7","6","7","7","6","1","6","3","7","3","6","776954102012973057","陈","375","Male","[""好他"",""坏我"",""坏他"",""好我""]","[""强他"",""弱我"",""弱他"",""强我""]","","","","","","","","no","","","","","","","","","SRET","EW_formal","","key","f","16.66672641509443","768","428","朋友","黑心","Negative","morality","","","","","","","","","","",""
"749","","f","psychophysics","78","307186","0.0-7.0-3.0-0.64","7","6","7","6","6","5","5","5","5","5","5","1","0","0","-2","1","2","1","2","5","4","5","5","5","4","4","4","5","5","7","9","6","9","7","3","8","7","9","7","6","3","3","7","2","7","2","6","6","1","2","1","6","1","2","6","6","7","6","6","3","2","1","2","2","5","2","6","7","7","6","7","7","6","1","6","3","7","3","6","776954102012973057","陈","375","Male","[""好他"",""坏我"",""坏他"",""好我""]","[""强他"",""弱我"",""弱他"",""强我""]","","","","","","","","no","","","","","","","","","SRET","EW_formal","","key","f","16.667250000000283","768","428","自己","无能","Negative","ability","","","","","","","","","","",""
"820","","f","psychophysics","79","309008","0.0-7.0-3.0-0.65","7","6","7","6","6","5","5","5","5","5","5","1","0","0","-2","1","2","1","2","5","4","5","5","5","4","4","4","5","5","7","9","6","9","7","3","8","7","9","7","6","3","3","7","2","7","2","6","6","1","2","1","6","1","2","6","6","7","6","6","3","2","1","2","2","5","2","6","7","7","6","7","7","6","1","6","3","7","3","6","776954102012973057","陈","375","Male","[""好他"",""坏我"",""坏他"",""好我""]","[""强他"",""弱我"",""弱他"",""强我""]","","","","","","","","no","","","","","","","","","SRET","EW_formal","","key","f","16.666722222222166","768","428","朋友","粗心","Negative","ability","","","","","","","","","","",""
"761","","f","psychophysics","80","310771","0.0-7.0-3.0-0.66","7","6","7","6","6","5","5","5","5","5","5","1","0","0","-2","1","2","1","2","5","4","5","5","5","4","4","4","5","5","7","9","6","9","7","3","8","7","9","7","6","3","3","7","2","7","2","6","6","1","2","1","6","1","2","6","6","7","6","6","3","2","1","2","2","5","2","6","7","7","6","7","7","6","1","6","3","7","3","6","776954102012973057","陈","375","Male","[""好他"",""坏我"",""坏他"",""好我""]","[""强他"",""弱我"",""弱他"",""强我""]","","","","","","","","no","","","","","","","","","SRET","EW_formal","","key","f","16.666142857142923","768","428","自己","势利","Negative","morality","","","","","","","","","","",""
"808","","f","psychophysics","81","312580","0.0-7.0-3.0-0.67","7","6","7","6","6","5","5","5","5","5","5","1","0","0","-2","1","2","1","2","5","4","5","5","5","4","4","4","5","5","7","9","6","9","7","3","8","7","9","7","6","3","3","7","2","7","2","6","6","1","2","1","6","1","2","6","6","7","6","6","3","2","1","2","2","5","2","6","7","7","6","7","7","6","1","6","3","7","3","6","776954102012973057","陈","375","Male","[""好他"",""坏我"",""坏他"",""好我""]","[""强他"",""弱我"",""弱他"",""强我""]","","","","","","","","no","","","","","","","","","SRET","EW_formal","","key","f","16.666149532710197","768","428","朋友","奸诈","Negative","morality","","","","","","","","","","",""
"802","","f","psychophysics","82","314387","0.0-7.0-3.0-0.68","7","6","7","6","6","5","5","5","5","5","5","1","0","0","-2","1","2","1","2","5","4","5","5","5","4","4","4","5","5","7","9","6","9","7","3","8","7","9","7","6","3","3","7","2","7","2","6","6","1","2","1","6","1","2","6","6","7","6","6","3","2","1","2","2","5","2","6","7","7","6","7","7","6","1","6","3","7","3","6","776954102012973057","陈","375","Male","[""好他"",""坏我"",""坏他"",""好我""]","[""强他"",""弱我"",""弱他"",""强我""]","","","","","","","","no","","","","","","","","","SRET","EW_formal","","key","f","16.66726851851854","768","428","朋友","毛糙","Negative","ability","","","","","","","","","","",""
"734","","j","psychophysics","83","316122","0.0-7.0-3.0-0.69","7","6","7","6","6","5","5","5","5","5","5","1","0","0","-2","1","2","1","2","5","4","5","5","5","4","4","4","5","5","7","9","6","9","7","3","8","7","9","7","6","3","3","7","2","7","2","6","6","1","2","1","6","1","2","6","6","7","6","6","3","2","1","2","2","5","2","6","7","7","6","7","7","6","1","6","3","7","3","6","776954102012973057","陈","375","Male","[""好他"",""坏我"",""坏他"",""好我""]","[""强他"",""弱我"",""弱他"",""强我""]","","","","","","","","yes","","","","","","","","","SRET","EW_formal","","key","j","16.667252427184597","768","428","朋友","忠勇","Positive","morality","","","","","","","","","","",""
"764","","j","psychophysics","84","317887","0.0-7.0-3.0-0.70","7","6","7","6","6","5","5","5","5","5","5","1","0","0","-2","1","2","1","2","5","4","5","5","5","4","4","4","5","5","7","9","6","9","7","3","8","7","9","7","6","3","3","7","2","7","2","6","6","1","2","1","6","1","2","6","6","7","6","6","3","2","1","2","2","5","2","6","7","7","6","7","7","6","1","6","3","7","3","6","776954102012973057","陈","375","Male","[""好他"",""坏我"",""坏他"",""好我""]","[""强他"",""弱我"",""弱他"",""强我""]","","","","","","","","yes","","","","","","","","","SRET","EW_formal","","key","j","16.666761904761994","768","428","朋友","忠良","Positive","morality","","","","","","","","","","",""
"1012","","j","psychophysics","85","319902","0.0-7.0-3.0-0.71","7","6","7","6","6","5","5","5","5","5","5","1","0","0","-2","1","2","1","2","5","4","5","5","5","4","4","4","5","5","7","9","6","9","7","3","8","7","9","7","6","3","3","7","2","7","2","6","6","1","2","1","6","1","2","6","6","7","6","6","3","2","1","2","2","5","2","6","7","7","6","7","7","6","1","6","3","7","3","6","776954102012973057","陈","375","Male","[""好他"",""坏我"",""坏他"",""好我""]","[""强他"",""弱我"",""弱他"",""强我""]","","","","","","","","yes","","","","","","","","","SRET","EW_formal","","key","j","16.666499999999846","768","428","自己","坚持","Positive","ability","","","","","","","","","","",""
"801","","f","psychophysics","86","321707","0.0-7.0-3.0-0.72","7","6","7","6","6","5","5","5","5","5","5","1","0","0","-2","1","2","1","2","5","4","5","5","5","4","4","4","5","5","7","9","6","9","7","3","8","7","9","7","6","3","3","7","2","7","2","6","6","1","2","1","6","1","2","6","6","7","6","6","3","2","1","2","2","5","2","6","7","7","6","7","7","6","1","6","3","7","3","6","776954102012973057","陈","375","Male","[""好他"",""坏我"",""坏他"",""好我""]","[""强他"",""弱我"",""弱他"",""强我""]","","","","","","","","no","","","","","","","","","SRET","EW_formal","","key","f","16.667373831776107","768","428","朋友","中用","Positive","ability","","","","","","","","","","",""
"732","","f","psychophysics","87","323440","0.0-7.0-3.0-0.73","7","6","7","6","6","5","5","5","5","5","5","1","0","0","-2","1","2","1","2","5","4","5","5","5","4","4","4","5","5","7","9","6","9","7","3","8","7","9","7","6","3","3","7","2","7","2","6","6","1","2","1","6","1","2","6","6","7","6","6","3","2","1","2","2","5","2","6","7","7","6","7","7","6","1","6","3","7","3","6","776954102012973057","陈","375","Male","[""好他"",""坏我"",""坏他"",""好我""]","[""强他"",""弱我"",""弱他"",""强我""]","","","","","","","","no","","","","","","","","","SRET","EW_formal","","key","f","16.665786407766998","768","428","朋友","背叛","Negative","morality","","","","","","","","","","",""
"842","","f","psychophysics","88","325285","0.0-7.0-3.0-0.74","7","6","7","6","6","5","5","5","5","5","5","1","0","0","-2","1","2","1","2","5","4","5","5","5","4","4","4","5","5","7","9","6","9","7","3","8","7","9","7","6","3","3","7","2","7","2","6","6","1","2","1","6","1","2","6","6","7","6","6","3","2","1","2","2","5","2","6","7","7","6","7","7","6","1","6","3","7","3","6","776954102012973057","陈","375","Male","[""好他"",""坏我"",""坏他"",""好我""]","[""强他"",""弱我"",""弱他"",""强我""]","","","","","","","","no","","","","","","","","","SRET","EW_formal","","key","f","16.6667363636365","768","428","自己","卑鄙","Negative","morality","","","","","","","","","","",""
"899","","f","psychophysics","89","327186","0.0-7.0-3.0-0.75","7","6","7","6","6","5","5","5","5","5","5","1","0","0","-2","1","2","1","2","5","4","5","5","5","4","4","4","5","5","7","9","6","9","7","3","8","7","9","7","6","3","3","7","2","7","2","6","6","1","2","1","6","1","2","6","6","7","6","6","3","2","1","2","2","5","2","6","7","7","6","7","7","6","1","6","3","7","3","6","776954102012973057","陈","375","Male","[""好他"",""坏我"",""坏他"",""好我""]","[""强他"",""弱我"",""弱他"",""强我""]","","","","","","","","no","","","","","","","","","SRET","EW_formal","","key","f","16.66720353982327","768","428","自己","不仁","Negative","morality","","","","","","","","","","",""
"795","","j","psychophysics","90","328984","0.0-7.0-3.0-0.76","7","6","7","6","6","5","5","5","5","5","5","1","0","0","-2","1","2","1","2","5","4","5","5","5","4","4","4","5","5","7","9","6","9","7","3","8","7","9","7","6","3","3","7","2","7","2","6","6","1","2","1","6","1","2","6","6","7","6","6","3","2","1","2","2","5","2","6","7","7","6","7","7","6","1","6","3","7","3","6","776954102012973057","陈","375","Male","[""好他"",""坏我"",""坏他"",""好我""]","[""强他"",""弱我"",""弱他"",""强我""]","","","","","","","","yes","","","","","","","","","SRET","EW_formal","","key","j","16.66608411214961","768","428","自己","仁厚","Positive","morality","","","","","","","","","","",""
"736","","f","psychophysics","91","330722","0.0-7.0-3.0-0.77","7","6","7","6","6","5","5","5","5","5","5","1","0","0","-2","1","2","1","2","5","4","5","5","5","4","4","4","5","5","7","9","6","9","7","3","8","7","9","7","6","3","3","7","2","7","2","6","6","1","2","1","6","1","2","6","6","7","6","6","3","2","1","2","2","5","2","6","7","7","6","7","7","6","1","6","3","7","3","6","776954102012973057","陈","375","Male","[""好他"",""坏我"",""坏他"",""好我""]","[""强他"",""弱我"",""弱他"",""强我""]","","","","","","","","no","","","","","","","","","SRET","EW_formal","","key","f","16.667359223301087","768","428","朋友","虚伪","Negative","morality","","","","","","","","","","",""
"780","","f","psychophysics","92","332504","0.0-7.0-3.0-0.78","7","6","7","6","6","5","5","5","5","5","5","1","0","0","-2","1","2","1","2","5","4","5","5","5","4","4","4","5","5","7","9","6","9","7","3","8","7","9","7","6","3","3","7","2","7","2","6","6","1","2","1","6","1","2","6","6","7","6","6","3","2","1","2","2","5","2","6","7","7","6","7","7","6","1","6","3","7","3","6","776954102012973057","陈","375","Male","[""好他"",""坏我"",""坏他"",""好我""]","[""强他"",""弱我"",""弱他"",""强我""]","","","","","","","","no","","","","","","","","","SRET","EW_formal","","key","f","16.66736792452811","768","428","自己","无知","Negative","ability","","","","","","","","","","",""
"871","","j","psychophysics","93","334376","0.0-7.0-3.0-0.79","7","6","7","6","6","5","5","5","5","5","5","1","0","0","-2","1","2","1","2","5","4","5","5","5","4","4","4","5","5","7","9","6","9","7","3","8","7","9","7","6","3","3","7","2","7","2","6","6","1","2","1","6","1","2","6","6","7","6","6","3","2","1","2","2","5","2","6","7","7","6","7","7","6","1","6","3","7","3","6","776954102012973057","陈","375","Male","[""好他"",""坏我"",""坏他"",""好我""]","[""强他"",""弱我"",""弱他"",""强我""]","","","","","","","","yes","","","","","","","","","SRET","EW_formal","","key","j","16.66650450450467","768","428","朋友","变通","Positive","ability","","","","","","","","","","",""
"1111","","f","psychophysics","94","336488","0.0-7.0-3.0-0.80","7","6","7","6","6","5","5","5","5","5","5","1","0","0","-2","1","2","1","2","5","4","5","5","5","4","4","4","5","5","7","9","6","9","7","3","8","7","9","7","6","3","3","7","2","7","2","6","6","1","2","1","6","1","2","6","6","7","6","6","3","2","1","2","2","5","2","6","7","7","6","7","7","6","1","6","3","7","3","6","776954102012973057","陈","375","Male","[""好他"",""坏我"",""坏他"",""好我""]","[""强他"",""弱我"",""弱他"",""强我""]","","","","","","","","no","","","","","","","","","SRET","EW_formal","","key","f","16.666777777777973","768","428","朋友","低劣","Negative","morality","","","","","","","","","","",""
"845","","f","psychophysics","95","338335","0.0-7.0-3.0-0.81","7","6","7","6","6","5","5","5","5","5","5","1","0","0","-2","1","2","1","2","5","4","5","5","5","4","4","4","5","5","7","9","6","9","7","3","8","7","9","7","6","3","3","7","2","7","2","6","6","1","2","1","6","1","2","6","6","7","6","6","3","2","1","2","2","5","2","6","7","7","6","7","7","6","1","6","3","7","3","6","776954102012973057","陈","375","Male","[""好他"",""坏我"",""坏他"",""好我""]","[""强他"",""弱我"",""弱他"",""强我""]","","","","","","","","no","","","","","","","","","SRET","EW_formal","","key","f","16.667509090909416","768","428","朋友","拙笨","Negative","ability","","","","","","","","","","",""
"1126","","f","psychophysics","96","340464","0.0-7.0-3.0-0.82","7","6","7","6","6","5","5","5","5","5","5","1","0","0","-2","1","2","1","2","5","4","5","5","5","4","4","4","5","5","7","9","6","9","7","3","8","7","9","7","6","3","3","7","2","7","2","6","6","1","2","1","6","1","2","6","6","7","6","6","3","2","1","2","2","5","2","6","7","7","6","7","7","6","1","6","3","7","3","6","776954102012973057","陈","375","Male","[""好他"",""坏我"",""坏他"",""好我""]","[""强他"",""弱我"",""弱他"",""强我""]","","","","","","","","no","","","","","","","","","SRET","EW_formal","","key","f","16.66656349206321","768","428","朋友","歹毒","Negative","morality","","","","","","","","","","",""
"737","","j","psychophysics","97","342202","0.0-7.0-3.0-0.83","7","6","7","6","6","5","5","5","5","5","5","1","0","0","-2","1","2","1","2","5","4","5","5","5","4","4","4","5","5","7","9","6","9","7","3","8","7","9","7","6","3","3","7","2","7","2","6","6","1","2","1","6","1","2","6","6","7","6","6","3","2","1","2","2","5","2","6","7","7","6","7","7","6","1","6","3","7","3","6","776954102012973057","陈","375","Male","[""好他"",""坏我"",""坏他"",""好我""]","[""强他"",""弱我"",""弱他"",""强我""]","","","","","","","","yes","","","","","","","","","SRET","EW_formal","","key","j","16.666519230768944","768","428","朋友","热心","Positive","morality","","","","","","","","","","",""
"881","","j","psychophysics","98","344086","0.0-7.0-3.0-0.84","7","6","7","6","6","5","5","5","5","5","5","1","0","0","-2","1","2","1","2","5","4","5","5","5","4","4","4","5","5","7","9","6","9","7","3","8","7","9","7","6","3","3","7","2","7","2","6","6","1","2","1","6","1","2","6","6","7","6","6","3","2","1","2","2","5","2","6","7","7","6","7","7","6","1","6","3","7","3","6","776954102012973057","陈","375","Male","[""好他"",""坏我"",""坏他"",""好我""]","[""强他"",""弱我"",""弱他"",""强我""]","","","","","","","","yes","","","","","","","","","SRET","EW_formal","","key","j","16.66700000000024","768","428","朋友","素养","Positive","morality","","","","","","","","","","",""
"682","","f","psychophysics","99","345769","0.0-7.0-3.0-0.85","7","6","7","6","6","5","5","5","5","5","5","1","0","0","-2","1","2","1","2","5","4","5","5","5","4","4","4","5","5","7","9","6","9","7","3","8","7","9","7","6","3","3","7","2","7","2","6","6","1","2","1","6","1","2","6","6","7","6","6","3","2","1","2","2","5","2","6","7","7","6","7","7","6","1","6","3","7","3","6","776954102012973057","陈","375","Male","[""好他"",""坏我"",""坏他"",""好我""]","[""强他"",""弱我"",""弱他"",""强我""]","","","","","","","","no","","","","","","","","","SRET","EW_formal","","key","f","16.6670199999999","768","428","朋友","低俗","Negative","morality","","","","","","","","","","",""
"1280","","f","psychophysics","100","348050","0.0-7.0-3.0-0.86","7","6","7","6","6","5","5","5","5","5","5","1","0","0","-2","1","2","1","2","5","4","5","5","5","4","4","4","5","5","7","9","6","9","7","3","8","7","9","7","6","3","3","7","2","7","2","6","6","1","2","1","6","1","2","6","6","7","6","6","3","2","1","2","2","5","2","6","7","7","6","7","7","6","1","6","3","7","3","6","776954102012973057","陈","375","Male","[""好他"",""坏我"",""坏他"",""好我""]","[""强他"",""弱我"",""弱他"",""强我""]","","","","","","","","no","","","","","","","","","SRET","EW_formal","","key","f","16.666080882352936","768","428","自己","缓慢","Negative","ability","","","","","","","","","","",""
"867","","j","psychophysics","101","349921","0.0-7.0-3.0-0.87","7","6","7","6","6","5","5","5","5","5","5","1","0","0","-2","1","2","1","2","5","4","5","5","5","4","4","4","5","5","7","9","6","9","7","3","8","7","9","7","6","3","3","7","2","7","2","6","6","1","2","1","6","1","2","6","6","7","6","6","3","2","1","2","2","5","2","6","7","7","6","7","7","6","1","6","3","7","3","6","776954102012973057","陈","375","Male","[""好他"",""坏我"",""坏他"",""好我""]","[""强他"",""弱我"",""弱他"",""强我""]","","","","","","","","yes","","","","","","","","","SRET","EW_formal","","key","j","16.667027027027363","768","428","自己","主见","Positive","ability","","","","","","","","","","",""
"21896","
    <p><div style='color:white;font-size:35px; line-height:20px;'>计算任务</div></p><br>
    <p><div style='color:red;font-size:25px; line-height:20px;'>接下来，您将看到一些四则运算题，<b>请从键盘选择 0-9 进行反应。</b></div></p>
    <p><div style='color:red;font-size:25px; line-height:20px;'>请尽可能快地进行计算，计算的速度和正确率将影响报酬的发放。</div></p>
    <p><div class='footer' style='color:white;font-size:25px; line-height:20px;'>如果对本实验还有不清楚之处，请立即向实验员咨询。</p><p style='color:white;font-size:25px; line-height:20px;'>如果您明白了规则：</p><p style='color:white;font-size:22px; line-height:20px;'>请按 继续 进入练习</p>
    </div>
    ","0","html-button-response","102","371818","0.0-7.0-4.0","7","6","7","6","6","5","5","5","5","5","5","1","0","0","-2","1","2","1","2","5","4","5","5","5","4","4","4","5","5","7","9","6","9","7","3","8","7","9","7","6","3","3","7","2","7","2","6","6","1","2","1","6","1","2","6","6","7","6","6","3","2","1","2","2","5","2","6","7","7","6","7","7","6","1","6","3","7","3","6","776954102012973057","陈","375","Male","[""好他"",""坏我"",""坏他"",""好我""]","[""强他"",""弱我"",""弱他"",""强我""]","","","","","","","","","","","","","","","","","SRET_math","math_instructions","Mon Jan 29 2024 18:29:06 GMT+0800 (GMT+08:00)","","","","","","","","","","","","","","","","","","","",""
"2708","","7","psychophysics","103","374529","0.0-7.0-5.0-0.0","7","6","7","6","6","5","5","5","5","5","5","1","0","0","-2","1","2","1","2","5","4","5","5","5","4","4","4","5","5","7","9","6","9","7","3","8","7","9","7","6","3","3","7","2","7","2","6","6","1","2","1","6","1","2","6","6","7","6","6","3","2","1","2","2","5","2","6","7","7","6","7","7","6","1","6","3","7","3","6","776954102012973057","陈","375","Male","[""好他"",""坏我"",""坏他"",""好我""]","[""强他"",""弱我"",""弱他"",""强我""]","","","","","","","","7","","","","","","","","","SRET","SRET_math_calculate","","key","7","16.666833333333344","768","428","","","","","9-2= ?","7","1","","","","","","","",""
"2099","","8","psychophysics","104","376630","0.0-7.0-5.0-0.1","7","6","7","6","6","5","5","5","5","5","5","1","0","0","-2","1","2","1","2","5","4","5","5","5","4","4","4","5","5","7","9","6","9","7","3","8","7","9","7","6","3","3","7","2","7","2","6","6","1","2","1","6","1","2","6","6","7","6","6","3","2","1","2","2","5","2","6","7","7","6","7","7","6","1","6","3","7","3","6","776954102012973057","陈","375","Male","[""好他"",""坏我"",""坏他"",""好我""]","[""强他"",""弱我"",""弱他"",""强我""]","","","","","","","","8","","","","","","","","","SRET","SRET_math_calculate","","key","8","16.666560000000057","768","428","","","","","1+7= ?","8","1","","","","","","","",""
"2175","","5","psychophysics","105","378810","0.0-7.0-5.0-0.2","7","6","7","6","6","5","5","5","5","5","5","1","0","0","-2","1","2","1","2","5","4","5","5","5","4","4","4","5","5","7","9","6","9","7","3","8","7","9","7","6","3","3","7","2","7","2","6","6","1","2","1","6","1","2","6","6","7","6","6","3","2","1","2","2","5","2","6","7","7","6","7","7","6","1","6","3","7","3","6","776954102012973057","陈","375","Male","[""好他"",""坏我"",""坏他"",""好我""]","[""强他"",""弱我"",""弱他"",""强我""]","","","","","","","","5","","","","","","","","","SRET","SRET_math_calculate","","key","5","16.667115384615204","768","428","","","","","15-10= ?","5","1","","","","","","","",""
"2248","","8","psychophysics","106","381060","0.0-7.0-5.0-0.3","7","6","7","6","6","5","5","5","5","5","5","1","0","0","-2","1","2","1","2","5","4","5","5","5","4","4","4","5","5","7","9","6","9","7","3","8","7","9","7","6","3","3","7","2","7","2","6","6","1","2","1","6","1","2","6","6","7","6","6","3","2","1","2","2","5","2","6","7","7","6","7","7","6","1","6","3","7","3","6","776954102012973057","陈","375","Male","[""好他"",""坏我"",""坏他"",""好我""]","[""强他"",""弱我"",""弱他"",""强我""]","","","","","","","","8","","","","","","","","","SRET","SRET_math_calculate","","key","8","16.666738805970535","768","428","","","","","8*1= ?","8","1","","","","","","","",""
"2495","","0","psychophysics","107","383557","0.0-7.0-5.0-0.4","7","6","7","6","6","5","5","5","5","5","5","1","0","0","-2","1","2","1","2","5","4","5","5","5","4","4","4","5","5","7","9","6","9","7","3","8","7","9","7","6","3","3","7","2","7","2","6","6","1","2","1","6","1","2","6","6","7","6","6","3","2","1","2","2","5","2","6","7","7","6","7","7","6","1","6","3","7","3","6","776954102012973057","陈","375","Male","[""好他"",""坏我"",""坏他"",""好我""]","[""强他"",""弱我"",""弱他"",""强我""]","","","","","","","","0","","","","","","","","","SRET","SRET_math_calculate","","key","0","22.99370370370377","768","428","","","","","9-9= ?","0","1","","","","","","","",""
"1960","","3","psychophysics","108","385519","0.0-7.0-5.0-0.5","7","6","7","6","6","5","5","5","5","5","5","1","0","0","-2","1","2","1","2","5","4","5","5","5","4","4","4","5","5","7","9","6","9","7","3","8","7","9","7","6","3","3","7","2","7","2","6","6","1","2","1","6","1","2","6","6","7","6","6","3","2","1","2","2","5","2","6","7","7","6","7","7","6","1","6","3","7","3","6","776954102012973057","陈","375","Male","[""好他"",""坏我"",""坏他"",""好我""]","[""强他"",""弱我"",""弱他"",""强我""]","","","","","","","","3","","","","","","","","","SRET","SRET_math_calculate","","key","3","16.66610256410214","768","428","","","","","3+3= ?","6","0","","","","","","","",""
"2201","","2","psychophysics","109","387736","0.0-7.0-5.0-0.6","7","6","7","6","6","5","5","5","5","5","5","1","0","0","-2","1","2","1","2","5","4","5","5","5","4","4","4","5","5","7","9","6","9","7","3","8","7","9","7","6","3","3","7","2","7","2","6","6","1","2","1","6","1","2","6","6","7","6","6","3","2","1","2","2","5","2","6","7","7","6","7","7","6","1","6","3","7","3","6","776954102012973057","陈","375","Male","[""好他"",""坏我"",""坏他"",""好我""]","[""强他"",""弱我"",""弱他"",""强我""]","","","","","","","","2","","","","","","","","","SRET","SRET_math_calculate","","key","2","16.666651515151678","768","428","","","","","12/6= ?","2","1","","","","","","","",""
"2251","","2","psychophysics","110","389988","0.0-7.0-5.0-0.7","7","6","7","6","6","5","5","5","5","5","5","1","0","0","-2","1","2","1","2","5","4","5","5","5","4","4","4","5","5","7","9","6","9","7","3","8","7","9","7","6","3","3","7","2","7","2","6","6","1","2","1","6","1","2","6","6","7","6","6","3","2","1","2","2","5","2","6","7","7","6","7","7","6","1","6","3","7","3","6","776954102012973057","陈","375","Male","[""好他"",""坏我"",""坏他"",""好我""]","[""强他"",""弱我"",""弱他"",""强我""]","","","","","","","","2","","","","","","","","","SRET","SRET_math_calculate","","key","2","16.66623880597024","768","428","","","","","90/45= ?","2","1","","","","","","","",""
"2195","","4","psychophysics","111","392185","0.0-7.0-5.0-0.8","7","6","7","6","6","5","5","5","5","5","5","1","0","0","-2","1","2","1","2","5","4","5","5","5","4","4","4","5","5","7","9","6","9","7","3","8","7","9","7","6","3","3","7","2","7","2","6","6","1","2","1","6","1","2","6","6","7","6","6","3","2","1","2","2","5","2","6","7","7","6","7","7","6","1","6","3","7","3","6","776954102012973057","陈","375","Male","[""好他"",""坏我"",""坏他"",""好我""]","[""强他"",""弱我"",""弱他"",""强我""]","","","","","","","","4","","","","","","","","","SRET","SRET_math_calculate","","key","4","16.66663358778602","768","428","","","","","20/5= ?","4","1","","","","","","","",""
"1945","","3","psychophysics","112","394141","0.0-7.0-5.0-0.9","7","6","7","6","6","5","5","5","5","5","5","1","0","0","-2","1","2","1","2","5","4","5","5","5","4","4","4","5","5","7","9","6","9","7","3","8","7","9","7","6","3","3","7","2","7","2","6","6","1","2","1","6","1","2","6","6","7","6","6","3","2","1","2","2","5","2","6","7","7","6","7","7","6","1","6","3","7","3","6","776954102012973057","陈","375","Male","[""好他"",""坏我"",""坏他"",""好我""]","[""强他"",""弱我"",""弱他"",""强我""]","","","","","","","","3","","","","","","","","","SRET","SRET_math_calculate","","key","3","16.666525862068802","768","428","","","","","9-6= ?","3","1","","","","","","","",""
"2136","","9","psychophysics","113","396279","0.0-7.0-5.0-0.10","7","6","7","6","6","5","5","5","5","5","5","1","0","0","-2","1","2","1","2","5","4","5","5","5","4","4","4","5","5","7","9","6","9","7","3","8","7","9","7","6","3","3","7","2","7","2","6","6","1","2","1","6","1","2","6","6","7","6","6","3","2","1","2","2","5","2","6","7","7","6","7","7","6","1","6","3","7","3","6","776954102012973057","陈","375","Male","[""好他"",""坏我"",""坏他"",""好我""]","[""强他"",""弱我"",""弱他"",""强我""]","","","","","","","","9","","","","","","","","","SRET","SRET_math_calculate","","key","9","16.666015748031747","768","428","","","","","1+8= ?","9","1","","","","","","","",""
"2303","","5","psychophysics","114","398584","0.0-7.0-5.0-0.11","7","6","7","6","6","5","5","5","5","5","5","1","0","0","-2","1","2","1","2","5","4","5","5","5","4","4","4","5","5","7","9","6","9","7","3","8","7","9","7","6","3","3","7","2","7","2","6","6","1","2","1","6","1","2","6","6","7","6","6","3","2","1","2","2","5","2","6","7","7","6","7","7","6","1","6","3","7","3","6","776954102012973057","陈","375","Male","[""好他"",""坏我"",""坏他"",""好我""]","[""强他"",""弱我"",""弱他"",""强我""]","","","","","","","","5","","","","","","","","","SRET","SRET_math_calculate","","key","5","16.66705797101452","768","428","","","","","3+2= ?","5","1","","","","","","","",""
"2459","","7","psychophysics","115","401055","0.0-7.0-5.0-0.12","7","6","7","6","6","5","5","5","5","5","5","1","0","0","-2","1","2","1","2","5","4","5","5","5","4","4","4","5","5","7","9","6","9","7","3","8","7","9","7","6","3","3","7","2","7","2","6","6","1","2","1","6","1","2","6","6","7","6","6","3","2","1","2","2","5","2","6","7","7","6","7","7","6","1","6","3","7","3","6","776954102012973057","陈","375","Male","[""好他"",""坏我"",""坏他"",""好我""]","[""强他"",""弱我"",""弱他"",""强我""]","","","","","","","","7","","","","","","","","","SRET","SRET_math_calculate","","key","7","16.66667346938808","768","428","","","","","12-5= ?","7","1","","","","","","","",""
"2011","","8","psychophysics","116","403069","0.0-7.0-5.0-0.13","7","6","7","6","6","5","5","5","5","5","5","1","0","0","-2","1","2","1","2","5","4","5","5","5","4","4","4","5","5","7","9","6","9","7","3","8","7","9","7","6","3","3","7","2","7","2","6","6","1","2","1","6","1","2","6","6","7","6","6","3","2","1","2","2","5","2","6","7","7","6","7","7","6","1","6","3","7","3","6","776954102012973057","陈","375","Male","[""好他"",""坏我"",""坏他"",""好我""]","[""强他"",""弱我"",""弱他"",""强我""]","","","","","","","","8","","","","","","","","","SRET","SRET_math_calculate","","key","8","16.665983333333376","768","428","","","","","9-1= ?","8","1","","","","","","","",""
"1963","","9","psychophysics","117","405034","0.0-7.0-5.0-0.14","7","6","7","6","6","5","5","5","5","5","5","1","0","0","-2","1","2","1","2","5","4","5","5","5","4","4","4","5","5","7","9","6","9","7","3","8","7","9","7","6","3","3","7","2","7","2","6","6","1","2","1","6","1","2","6","6","7","6","6","3","2","1","2","2","5","2","6","7","7","6","7","7","6","1","6","3","7","3","6","776954102012973057","陈","375","Male","[""好他"",""坏我"",""坏他"",""好我""]","[""强他"",""弱我"",""弱他"",""强我""]","","","","","","","","9","","","","","","","","","SRET","SRET_math_calculate","","key","9","16.666068376068317","768","428","","","","","3+6= ?","9","1","","","","","","","",""
"2223","","3","psychophysics","118","407269","0.0-7.0-5.0-0.15","7","6","7","6","6","5","5","5","5","5","5","1","0","0","-2","1","2","1","2","5","4","5","5","5","4","4","4","5","5","7","9","6","9","7","3","8","7","9","7","6","3","3","7","2","7","2","6","6","1","2","1","6","1","2","6","6","7","6","6","3","2","1","2","2","5","2","6","7","7","6","7","7","6","1","6","3","7","3","6","776954102012973057","陈","375","Male","[""好他"",""坏我"",""坏他"",""好我""]","[""强他"",""弱我"",""弱他"",""强我""]","","","","","","","","3","","","","","","","","","SRET","SRET_math_calculate","","key","3","16.666285714285564","768","428","","","","","3*1= ?","3","1","","","","","","","",""
"2514","","8","psychophysics","119","409786","0.0-7.0-5.0-0.16","7","6","7","6","6","5","5","5","5","5","5","1","0","0","-2","1","2","1","2","5","4","5","5","5","4","4","4","5","5","7","9","6","9","7","3","8","7","9","7","6","3","3","7","2","7","2","6","6","1","2","1","6","1","2","6","6","7","6","6","3","2","1","2","2","5","2","6","7","7","6","7","7","6","1","6","3","7","3","6","776954102012973057","陈","375","Male","[""好他"",""坏我"",""坏他"",""好我""]","[""强他"",""弱我"",""弱他"",""强我""]","","","","","","","","8","","","","","","","","","SRET","SRET_math_calculate","","key","8","16.66660666666653","768","428","","","","","2*4= ?","8","1","","","","","","","",""
"2012","","3","psychophysics","120","411800","0.0-7.0-5.0-0.17","7","6","7","6","6","5","5","5","5","5","5","1","0","0","-2","1","2","1","2","5","4","5","5","5","4","4","4","5","5","7","9","6","9","7","3","8","7","9","7","6","3","3","7","2","7","2","6","6","1","2","1","6","1","2","6","6","7","6","6","3","2","1","2","2","5","2","6","7","7","6","7","7","6","1","6","3","7","3","6","776954102012973057","陈","375","Male","[""好他"",""坏我"",""坏他"",""好我""]","[""强他"",""弱我"",""弱他"",""强我""]","","","","","","","","3","","","","","","","","","SRET","SRET_math_calculate","","key","3","16.667291666666763","768","428","","","","","2+1= ?","3","1","","","","","","","",""
"2358","","9","psychophysics","121","414162","0.0-7.0-5.0-0.18","7","6","7","6","6","5","5","5","5","5","5","1","0","0","-2","1","2","1","2","5","4","5","5","5","4","4","4","5","5","7","9","6","9","7","3","8","7","9","7","6","3","3","7","2","7","2","6","6","1","2","1","6","1","2","6","6","7","6","6","3","2","1","2","2","5","2","6","7","7","6","7","7","6","1","6","3","7","3","6","776954102012973057","陈","375","Male","[""好他"",""坏我"",""坏他"",""好我""]","[""强他"",""弱我"",""弱他"",""强我""]","","","","","","","","9","","","","","","","","","SRET","SRET_math_calculate","","key","9","16.66617857142867","768","428","","","","","32-23= ?","9","1","","","","","","","",""
"2265","","0","psychophysics","122","416429","0.0-7.0-5.0-0.19","7","6","7","6","6","5","5","5","5","5","5","1","0","0","-2","1","2","1","2","5","4","5","5","5","4","4","4","5","5","7","9","6","9","7","3","8","7","9","7","6","3","3","7","2","7","2","6","6","1","2","1","6","1","2","6","6","7","6","6","3","2","1","2","2","5","2","6","7","7","6","7","7","6","1","6","3","7","3","6","776954102012973057","陈","375","Male","[""好他"",""坏我"",""坏他"",""好我""]","[""强他"",""弱我"",""弱他"",""强我""]","","","","","","","","0","","","","","","","","","SRET","SRET_math_calculate","","key","0","16.666548148148124","768","428","","","","","12-12= ?","0","1","","","","","","","",""
"1941","","2","psychophysics","123","418373","0.0-7.0-5.0-0.20","7","6","7","6","6","5","5","5","5","5","5","1","0","0","-2","1","2","1","2","5","4","5","5","5","4","4","4","5","5","7","9","6","9","7","3","8","7","9","7","6","3","3","7","2","7","2","6","6","1","2","1","6","1","2","6","6","7","6","6","3","2","1","2","2","5","2","6","7","7","6","7","7","6","1","6","3","7","3","6","776954102012973057","陈","375","Male","[""好他"",""坏我"",""坏他"",""好我""]","[""强他"",""弱我"",""弱他"",""强我""]","","","","","","","","2","","","","","","","","","SRET","SRET_math_calculate","","key","2","16.66706896551728","768","428","","","","","5-3= ?","2","1","","","","","","","",""
"2143","","7","psychophysics","124","420530","0.0-7.0-5.0-0.21","7","6","7","6","6","5","5","5","5","5","5","1","0","0","-2","1","2","1","2","5","4","5","5","5","4","4","4","5","5","7","9","6","9","7","3","8","7","9","7","6","3","3","7","2","7","2","6","6","1","2","1","6","1","2","6","6","7","6","6","3","2","1","2","2","5","2","6","7","7","6","7","7","6","1","6","3","7","3","6","776954102012973057","陈","375","Male","[""好他"",""坏我"",""坏他"",""好我""]","[""强他"",""弱我"",""弱他"",""强我""]","","","","","","","","7","","","","","","","","","SRET","SRET_math_calculate","","key","7","16.666585937499804","768","428","","","","","2+5= ?","7","1","","","","","","","",""
"1871","","8","psychophysics","125","422405","0.0-7.0-5.0-0.22","7","6","7","6","6","5","5","5","5","5","5","1","0","0","-2","1","2","1","2","5","4","5","5","5","4","4","4","5","5","7","9","6","9","7","3","8","7","9","7","6","3","3","7","2","7","2","6","6","1","2","1","6","1","2","6","6","7","6","6","3","2","1","2","2","5","2","6","7","7","6","7","7","6","1","6","3","7","3","6","776954102012973057","陈","375","Male","[""好他"",""坏我"",""坏他"",""好我""]","[""强他"",""弱我"",""弱他"",""强我""]","","","","","","","","8","","","","","","","","","SRET","SRET_math_calculate","","key","8","16.665741071428783","768","428","","","","","1*8= ?","8","1","","","","","","","",""
"2035","","2","psychophysics","126","424443","0.0-7.0-5.0-0.23","7","6","7","6","6","5","5","5","5","5","5","1","0","0","-2","1","2","1","2","5","4","5","5","5","4","4","4","5","5","7","9","6","9","7","3","8","7","9","7","6","3","3","7","2","7","2","6","6","1","2","1","6","1","2","6","6","7","6","6","3","2","1","2","2","5","2","6","7","7","6","7","7","6","1","6","3","7","3","6","776954102012973057","陈","375","Male","[""好他"",""坏我"",""坏他"",""好我""]","[""强他"",""弱我"",""弱他"",""强我""]","","","","","","","","2","","","","","","","","","SRET","SRET_math_calculate","","key","2","16.66673553719047","768","428","","","","","8/4= ?","2","1","","","","","","","",""
"1906","","8","psychophysics","127","426363","0.0-7.0-5.0-0.24","7","6","7","6","6","5","5","5","5","5","5","1","0","0","-2","1","2","1","2","5","4","5","5","5","4","4","4","5","5","7","9","6","9","7","3","8","7","9","7","6","3","3","7","2","7","2","6","6","1","2","1","6","1","2","6","6","7","6","6","3","2","1","2","2","5","2","6","7","7","6","7","7","6","1","6","3","7","3","6","776954102012973057","陈","375","Male","[""好他"",""坏我"",""坏他"",""好我""]","[""强他"",""弱我"",""弱他"",""强我""]","","","","","","","","8","","","","","","","","","SRET","SRET_math_calculate","","key","8","16.66681578947362","768","428","","","","","4+4= ?","8","1","","","","","","","",""
"2331","","3","psychophysics","128","428697","0.0-7.0-5.0-0.25","7","6","7","6","6","5","5","5","5","5","5","1","0","0","-2","1","2","1","2","5","4","5","5","5","4","4","4","5","5","7","9","6","9","7","3","8","7","9","7","6","3","3","7","2","7","2","6","6","1","2","1","6","1","2","6","6","7","6","6","3","2","1","2","2","5","2","6","7","7","6","7","7","6","1","6","3","7","3","6","776954102012973057","陈","375","Male","[""好他"",""坏我"",""坏他"",""好我""]","[""强他"",""弱我"",""弱他"",""强我""]","","","","","","","","3","","","","","","","","","SRET","SRET_math_calculate","","key","3","16.666669064747897","768","428","","","","","3+0= ?","3","1","","","","","","","",""
"2103","","7","psychophysics","129","430805","0.0-7.0-5.0-0.26","7","6","7","6","6","5","5","5","5","5","5","1","0","0","-2","1","2","1","2","5","4","5","5","5","4","4","4","5","5","7","9","6","9","7","3","8","7","9","7","6","3","3","7","2","7","2","6","6","1","2","1","6","1","2","6","6","7","6","6","3","2","1","2","2","5","2","6","7","7","6","7","7","6","1","6","3","7","3","6","776954102012973057","陈","375","Male","[""好他"",""坏我"",""坏他"",""好我""]","[""强他"",""弱我"",""弱他"",""强我""]","","","","","","","","7","","","","","","","","","SRET","SRET_math_calculate","","key","7","16.6662063492062","768","428","","","","","6+1= ?","7","1","","","","","","","",""
"2303","","8","psychophysics","130","433122","0.0-7.0-5.0-0.27","7","6","7","6","6","5","5","5","5","5","5","1","0","0","-2","1","2","1","2","5","4","5","5","5","4","4","4","5","5","7","9","6","9","7","3","8","7","9","7","6","3","3","7","2","7","2","6","6","1","2","1","6","1","2","6","6","7","6","6","3","2","1","2","2","5","2","6","7","7","6","7","7","6","1","6","3","7","3","6","776954102012973057","陈","375","Male","[""好他"",""坏我"",""坏他"",""好我""]","[""强他"",""弱我"",""弱他"",""强我""]","","","","","","","","8","","","","","","","","","SRET","SRET_math_calculate","","key","8","16.667101449275346","768","428","","","","","4*2= ?","8","1","","","","","","","",""
"2013","","7","psychophysics","131","435138","0.0-7.0-5.0-0.28","7","6","7","6","6","5","5","5","5","5","5","1","0","0","-2","1","2","1","2","5","4","5","5","5","4","4","4","5","5","7","9","6","9","7","3","8","7","9","7","6","3","3","7","2","7","2","6","6","1","2","1","6","1","2","6","6","7","6","6","3","2","1","2","2","5","2","6","7","7","6","7","7","6","1","6","3","7","3","6","776954102012973057","陈","375","Male","[""好他"",""坏我"",""坏他"",""好我""]","[""强他"",""弱我"",""弱他"",""强我""]","","","","","","","","7","","","","","","","","","SRET","SRET_math_calculate","","key","7","16.667208333333352","768","428","","","","","4+3= ?","7","1","","","","","","","",""
"1951","","5","psychophysics","132","437092","0.0-7.0-5.0-0.29","7","6","7","6","6","5","5","5","5","5","5","1","0","0","-2","1","2","1","2","5","4","5","5","5","4","4","4","5","5","7","9","6","9","7","3","8","7","9","7","6","3","3","7","2","7","2","6","6","1","2","1","6","1","2","6","6","7","6","6","3","2","1","2","2","5","2","6","7","7","6","7","7","6","1","6","3","7","3","6","776954102012973057","陈","375","Male","[""好他"",""坏我"",""坏他"",""好我""]","[""强他"",""弱我"",""弱他"",""强我""]","","","","","","","","5","","","","","","","","","SRET","SRET_math_calculate","","key","5","16.666931034482772","768","428","","","","","12-7= ?","5","1","","","","","","","",""
"1977","","4","psychophysics","133","439086","0.0-7.0-5.0-0.30","7","6","7","6","6","5","5","5","5","5","5","1","0","0","-2","1","2","1","2","5","4","5","5","5","4","4","4","5","5","7","9","6","9","7","3","8","7","9","7","6","3","3","7","2","7","2","6","6","1","2","1","6","1","2","6","6","7","6","6","3","2","1","2","2","5","2","6","7","7","6","7","7","6","1","6","3","7","3","6","776954102012973057","陈","375","Male","[""好他"",""坏我"",""坏他"",""好我""]","[""强他"",""弱我"",""弱他"",""强我""]","","","","","","","","4","","","","","","","","","SRET","SRET_math_calculate","","key","4","16.666067226890654","768","428","","","","","9-5= ?","4","1","","","","","","","",""
"1914","","9","psychophysics","134","441002","0.0-7.0-5.0-0.31","7","6","7","6","6","5","5","5","5","5","5","1","0","0","-2","1","2","1","2","5","4","5","5","5","4","4","4","5","5","7","9","6","9","7","3","8","7","9","7","6","3","3","7","2","7","2","6","6","1","2","1","6","1","2","6","6","7","6","6","3","2","1","2","2","5","2","6","7","7","6","7","7","6","1","6","3","7","3","6","776954102012973057","陈","375","Male","[""好他"",""坏我"",""坏他"",""好我""]","[""强他"",""弱我"",""弱他"",""强我""]","","","","","","","","9","","","","","","","","","SRET","SRET_math_calculate","","key","9","16.66585087719304","768","428","","","","","4+5= ?","9","1","","","","","","","",""
"2062","","0","psychophysics","135","443067","0.0-7.0-5.0-0.32","7","6","7","6","6","5","5","5","5","5","5","1","0","0","-2","1","2","1","2","5","4","5","5","5","4","4","4","5","5","7","9","6","9","7","3","8","7","9","7","6","3","3","7","2","7","2","6","6","1","2","1","6","1","2","6","6","7","6","6","3","2","1","2","2","5","2","6","7","7","6","7","7","6","1","6","3","7","3","6","776954102012973057","陈","375","Male","[""好他"",""坏我"",""坏他"",""好我""]","[""强他"",""弱我"",""弱他"",""强我""]","","","","","","","","0","","","","","","","","","SRET","SRET_math_calculate","","key","0","16.666560975609467","768","428","","","","","22-22= ?","0","1","","","","","","","",""
"2071","","4","psychophysics","136","445141","0.0-7.0-5.0-0.33","7","6","7","6","6","5","5","5","5","5","5","1","0","0","-2","1","2","1","2","5","4","5","5","5","4","4","4","5","5","7","9","6","9","7","3","8","7","9","7","6","3","3","7","2","7","2","6","6","1","2","1","6","1","2","6","6","7","6","6","3","2","1","2","2","5","2","6","7","7","6","7","7","6","1","6","3","7","3","6","776954102012973057","陈","375","Male","[""好他"",""坏我"",""坏他"",""好我""]","[""强他"",""弱我"",""弱他"",""强我""]","","","","","","","","4","","","","","","","","","SRET","SRET_math_calculate","","key","4","16.665861788617516","768","428","","","","","9-4= ?","5","0","","","","","","","",""
"2022","","6","psychophysics","137","447166","0.0-7.0-5.0-0.34","7","6","7","6","6","5","5","5","5","5","5","1","0","0","-2","1","2","1","2","5","4","5","5","5","4","4","4","5","5","7","9","6","9","7","3","8","7","9","7","6","3","3","7","2","7","2","6","6","1","2","1","6","1","2","6","6","7","6","6","3","2","1","2","2","5","2","6","7","7","6","7","7","6","1","6","3","7","3","6","776954102012973057","陈","375","Male","[""好他"",""坏我"",""坏他"",""好我""]","[""强他"",""弱我"",""弱他"",""强我""]","","","","","","","","6","","","","","","","","","SRET","SRET_math_calculate","","key","6","16.665743801652834","768","428","","","","","9-3= ?","6","1","","","","","","","",""
"2605","","8","psychophysics","138","449776","0.0-7.0-5.0-0.35","7","6","7","6","6","5","5","5","5","5","5","1","0","0","-2","1","2","1","2","5","4","5","5","5","4","4","4","5","5","7","9","6","9","7","3","8","7","9","7","6","3","3","7","2","7","2","6","6","1","2","1","6","1","2","6","6","7","6","6","3","2","1","2","2","5","2","6","7","7","6","7","7","6","1","6","3","7","3","6","776954102012973057","陈","375","Male","[""好他"",""坏我"",""坏他"",""好我""]","[""强他"",""弱我"",""弱他"",""强我""]","","","","","","","","8","","","","","","","","","SRET","SRET_math_calculate","","key","8","16.666103225806353","768","428","","","","","13-5= ?","8","1","","","","","","","",""
"1957","","6","psychophysics","139","451736","0.0-7.0-5.0-0.36","7","6","7","6","6","5","5","5","5","5","5","1","0","0","-2","1","2","1","2","5","4","5","5","5","4","4","4","5","5","7","9","6","9","7","3","8","7","9","7","6","3","3","7","2","7","2","6","6","1","2","1","6","1","2","6","6","7","6","6","3","2","1","2","2","5","2","6","7","7","6","7","7","6","1","6","3","7","3","6","776954102012973057","陈","375","Male","[""好他"",""坏我"",""坏他"",""好我""]","[""强他"",""弱我"",""弱他"",""强我""]","","","","","","","","6","","","","","","","","","SRET","SRET_math_calculate","","key","6","16.666000000000174","768","428","","","","","2*3= ?","6","1","","","","","","","",""
"2619","","1","psychophysics","140","454372","0.0-7.0-5.0-0.37","7","6","7","6","6","5","5","5","5","5","5","1","0","0","-2","1","2","1","2","5","4","5","5","5","4","4","4","5","5","7","9","6","9","7","3","8","7","9","7","6","3","3","7","2","7","2","6","6","1","2","1","6","1","2","6","6","7","6","6","3","2","1","2","2","5","2","6","7","7","6","7","7","6","1","6","3","7","3","6","776954102012973057","陈","375","Male","[""好他"",""坏我"",""坏他"",""好我""]","[""强他"",""弱我"",""弱他"",""强我""]","","","","","","","","1","","","","","","","","","SRET","SRET_math_calculate","","key","1","16.666426751592084","768","428","","","","","12/12= ?","1","1","","","","","","","",""
"2132","","1","psychophysics","141","456506","0.0-7.0-5.0-0.38","7","6","7","6","6","5","5","5","5","5","5","1","0","0","-2","1","2","1","2","5","4","5","5","5","4","4","4","5","5","7","9","6","9","7","3","8","7","9","7","6","3","3","7","2","7","2","6","6","1","2","1","6","1","2","6","6","7","6","6","3","2","1","2","2","5","2","6","7","7","6","7","7","6","1","6","3","7","3","6","776954102012973057","陈","375","Male","[""好他"",""坏我"",""坏他"",""好我""]","[""强他"",""弱我"",""弱他"",""强我""]","","","","","","","","1","","","","","","","","","SRET","SRET_math_calculate","","key","1","16.666401574802933","768","428","","","","","10-9= ?","1","1","","","","","","","",""
"2361","","5","psychophysics","142","458869","0.0-7.0-5.0-0.39","7","6","7","6","6","5","5","5","5","5","5","1","0","0","-2","1","2","1","2","5","4","5","5","5","4","4","4","5","5","7","9","6","9","7","3","8","7","9","7","6","3","3","7","2","7","2","6","6","1","2","1","6","1","2","6","6","7","6","6","3","2","1","2","2","5","2","6","7","7","6","7","7","6","1","6","3","7","3","6","776954102012973057","陈","375","Male","[""好他"",""坏我"",""坏他"",""好我""]","[""强他"",""弱我"",""弱他"",""强我""]","","","","","","","","5","","","","","","","","","SRET","SRET_math_calculate","","key","5","16.66649645390088","768","428","","","","","14-9= ?","5","1","","","","","","","",""
