"rt","stimulus","response","trial_type","trial_index","time_elapsed","internal_node_id","swb_1","swb_2","swb_3","swb_4","swb_5","LOT_1","LOT_2","LOT_3","LOT_4","LOT_5","LOT_6","IPC_1","IPC_2","IPC_3","IPC_4","IPC_5","IPC_6","IPC_7","IPC_8","MorIden_1","MorIden_2","MorIden_3","MorIden_4","MorIden_5","MorIden_6","MorIden_7","MorIden_8","MorIden_9","MorIden_10","moralSeImag_1","moralSeImag_2","moralSeImag_3","moralSeImag_4","moralSeImag_5","moralSeImag_6","moralSeImag_7","moralSeImag_8","moralSeImag_9","sde_1","sde_2","sde_3","sde_4","sde_5","sde_6","sde_7","sde_8","sde_9","sde_10","trap2","sde_11","sde_12","sde_13","sde_14","sde_15","sde_16","sde_17","sde_18","sde_19","sde_20","IM_1","IM_2","IM_3","IM_4","IM_5","IM_6","IM_7","IM_8","IM_9","IM_10","IM_11","IM_12","IM_13","IM_14","IM_15","IM_16","IM_17","IM_18","IM_19","IM_20","subj_idx","friend_name","ParticipantID","Sex","Word","Word2","value","success","timeout","failed_images","failed_audio","failed_video","user_agent","responses","item_order","radio_event_ids","radio_event_times","key_event_times","mouse_event_times","straightlining","zigzagging","honeypot","task_id","screen_id","time_stamp","response_type","key_press","avg_frame_time","center_x","center_y","person","word","valence","domain","math","correct_response","correct","status","view_history","identity","duration","Image","condition","question_order","trap2_item"
"23234","
   <p><div style='color:white; font-size: 25px'>您好，欢迎参加本次实验。</div></p>
   <p><div style='color:white; font-size: 25px'>为充分保障您的权利，请确保您已经知晓并同意《参与实验同意书》以及《数据公开知情同意书》。</div></p>
   <p><div style='color:white; font-size: 25px'>如果您未见过上述内容，请咨询实验员。</div></p>
   <p style='color:white; font-size: 25px'>如果您选择继续实验，则表示您已经清楚两份知情同意书的内容并同意。</p>
   <p><div style = ""color: pink;font-size:30px;"">请确保您记得day0的实验编号，您将在本次实验输入该编号，若您忘记，请咨询实验员后作答。</div></p>
   <p><div style = ""color:lightblue;font-size:25px;"">请您尽可能认真地作答，我们将依据您在各问卷和按键任务中的作答质量发放报酬。</div></p>
   <p> <div style = ""color: green""><按空格键至下页></div> </p>
   "," ","html-keyboard-response","0","23235","0.0-0.0","6","5","6","3","4","5","4","4","5","5","5","1","0","-1","0","1","2","1","1","4","4","5","5","4","5","4","3","4","5","6","5","7","6","5","6","7","6","5","5","7","6","6","7","3","6","1","5","6","1","4","3","4","2","5","5","5","5","6","6","3","3","2","4","5","6","3","7","5","6","6","4","7","7","4","7","6","7","5","4","735455183198490626","张","507","Male","[""好我"",""好他"",""坏他"",""坏我""]","[""强我"",""强他"",""弱他"",""弱我""]","","","","","","","","","","","","","","","","","","","","","","","","","","","","","","","","","","","","","","",""
"","","","call-function","1","23236","0.0-1.0-0.0","6","5","6","3","4","5","4","4","5","5","5","1","0","-1","0","1","2","1","1","4","4","5","5","4","5","4","3","4","5","6","5","7","6","5","6","7","6","5","5","7","6","6","7","3","6","1","5","6","1","4","3","4","2","5","5","5","5","6","6","3","3","2","4","5","6","3","7","5","6","6","4","7","7","4","7","6","7","5","4","735455183198490626","张","507","Male","[""好我"",""好他"",""坏他"",""坏我""]","[""强我"",""强他"",""弱他"",""弱我""]","","","","","","","","","","","","","","","","","","","","","","","","","","","","","","","","","","","","","","",""
"16169","","[{""name"":""Sex"",""value"":""0""},{""name"":""friend_name"",""value"":""张""},{""name"":""ParticipantID"",""value"":""507""}]","survey-html-form","2","39405","0.0-1.0-1.0","6","5","6","3","4","5","4","4","5","5","5","1","0","-1","0","1","2","1","1","4","4","5","5","4","5","4","3","4","5","6","5","7","6","5","6","7","6","5","5","7","6","6","7","3","6","1","5","6","1","4","3","4","2","5","5","5","5","6","6","3","3","2","4","5","6","3","7","5","6","6","4","7","7","4","7","6","7","5","4","735455183198490626","张","507","Male","[""好我"",""好他"",""坏他"",""坏我""]","[""强我"",""强他"",""弱他"",""弱我""]","","","","","","","","","","","","","","","","","","","","","","","","","","","","","","","","","","","","","","",""
"","","","preload","3","42417","0.0-2.0","6","5","6","3","4","5","4","4","5","5","5","1","0","-1","0","1","2","1","1","4","4","5","5","4","5","4","3","4","5","6","5","7","6","5","6","7","6","5","5","7","6","6","7","3","6","1","5","6","1","4","3","4","2","5","5","5","5","6","6","3","3","2","4","5","6","3","7","5","6","6","4","7","7","4","7","6","7","5","4","735455183198490626","张","507","Male","[""好我"",""好他"",""坏他"",""坏我""]","[""强我"",""强他"",""弱他"",""弱我""]","","true","false","[]","[]","[]","","","","","","","","","","","","","","","","","","","","","","","","","","","","","","","","",""
"","","","fullscreen","4","46021","0.0-3.0","6","5","6","3","4","5","4","4","5","5","5","1","0","-1","0","1","2","1","1","4","4","5","5","4","5","4","3","4","5","6","5","7","6","5","6","7","6","5","5","7","6","6","7","3","6","1","5","6","1","4","3","4","2","5","5","5","5","6","6","3","3","2","4","5","6","3","7","5","6","6","4","7","7","4","7","6","7","5","4","735455183198490626","张","507","Male","[""好我"",""好他"",""坏他"",""坏我""]","[""强我"",""强他"",""弱他"",""弱我""]","","true","","","","","{}","","","","","","","","","","","","","","","","","","","","","","","","","","","","","","","",""
"80459.59999999404","","{""Q01"":""6"",""Q02"":""5"",""Q03"":""6"",""Q04"":""3"",""Q05"":""4""}","survey-template","5","126483","0.0-4.0","6","5","6","3","4","5","4","4","5","5","5","1","0","-1","0","1","2","1","1","4","4","5","5","4","5","4","3","4","5","6","5","7","6","5","6","7","6","5","5","7","6","6","7","3","6","1","5","6","1","4","3","4","2","5","5","5","5","6","6","3","3","2","4","5","6","3","7","5","6","6","4","7","7","4","7","6","7","5","4","735455183198490626","张","507","Male","[""好我"",""好他"",""坏他"",""坏我""]","[""强我"",""强他"",""弱他"",""弱我""]","","","","","","","","{""Q01"":""6"",""Q02"":""5"",""Q03"":""6"",""Q04"":""3"",""Q05"":""4""}","[0,1,2,3,4]","[""Q01"",""Q02"",""Q01"",""Q02"",""Q02"",""Q03"",""Q04"",""Q05""]","[9471.799999982119,13140.799999982119,17631.09999999404,18442.69999998808,19962.79999998212,20777.79999998212,75514.69999998808,78610.79999998212]","[]","[8369.09999999404,9471.799999982119,12742.09999999404,13140.799999982119,17631.09999999404,18442.69999998808,19962.79999998212,20777.79999998212,75514.69999998808,78610.79999998212,80458.79999998212]","0.4","0.75","0","","","","","","","","","","","","","","","","","","","","","","",""
"47130.09999999404","","{""Q01"":""5"",""Q02"":""4"",""Q03"":""4"",""Q04"":""5"",""Q05"":""5"",""Q06"":""5""}","survey-template","6","173616","0.0-5.0","6","5","6","3","4","5","4","4","5","5","5","1","0","-1","0","1","2","1","1","4","4","5","5","4","5","4","3","4","5","6","5","7","6","5","6","7","6","5","5","7","6","6","7","3","6","1","5","6","1","4","3","4","2","5","5","5","5","6","6","3","3","2","4","5","6","3","7","5","6","6","4","7","7","4","7","6","7","5","4","735455183198490626","张","507","Male","[""好我"",""好他"",""坏他"",""坏我""]","[""强我"",""强他"",""弱他"",""弱我""]","","","","","","","","{""Q01"":""5"",""Q02"":""4"",""Q03"":""4"",""Q04"":""5"",""Q05"":""5"",""Q06"":""5""}","[0,1,2,3,4,5]","[""Q01"",""Q01"",""Q02"",""Q03"",""Q04"",""Q05"",""Q06""]","[3502.5,6381.300000011921,30178.09999999404,32651.09999999404,36206.90000000596,39586,46388.90000000596]","[]","[3502.5,6381.300000011921,30178.09999999404,32195.90000000596,32651.09999999404,36206.90000000596,39586,43540.09999999404,45543,46004.90000000596,46388.90000000596,47129.90000000596]","0.3333333333333333","0.2","0","","","","","","","","","","","","","","","","","","","","","","",""
"56499","","{""Q01"":""1"",""Q02"":""0"",""Q03"":""-1"",""Q04"":""0"",""Q05"":""1"",""Q06"":""2"",""Q07"":""1"",""Q08"":""1""}","survey-template","7","230117","0.0-6.0","6","5","6","3","4","5","4","4","5","5","5","1","0","-1","0","1","2","1","1","4","4","5","5","4","5","4","3","4","5","6","5","7","6","5","6","7","6","5","5","7","6","6","7","3","6","1","5","6","1","4","3","4","2","5","5","5","5","6","6","3","3","2","4","5","6","3","7","5","6","6","4","7","7","4","7","6","7","5","4","735455183198490626","张","507","Male","[""好我"",""好他"",""坏他"",""坏我""]","[""强我"",""强他"",""弱他"",""弱我""]","","","","","","","","{""Q01"":""1"",""Q02"":""0"",""Q03"":""-1"",""Q04"":""0"",""Q05"":""1"",""Q06"":""2"",""Q07"":""1"",""Q08"":""1""}","[0,1,2,3,4,5,6,7]","[""Q01"",""Q02"",""Q03"",""Q04"",""Q05"",""Q06"",""Q07"",""Q08""]","[18598.5,26557.5,32169.40000000596,38970.19999998808,43519.69999998808,47377.40000000596,52412.29999998212,55703.19999998808]","[]","[18598.5,26557.5,32169.40000000596,37038.09999999404,38970.19999998808,43519.69999998808,46976.19999998808,47377.40000000596,52412.29999998212,55703.19999998808,56498.09999999404]","0.5","0.8571428571428571","0","","","","","","","","","","","","","","","","","","","","","","",""
"21024","
    <p><div style='color:white;font-size:35px; line-height:20px;'>词汇评估任务</div></p><br>
    <p><div style='color:white;font-size:25px; line-height:20px;'>请再次回忆该亲密的朋友，你们至少2年前就认识了，并且最近2年经常见面。</div></p>
    <p><div style='color:white;font-size:25px; line-height:20px;'>在本实验中，您将会看到一些形容词。</div></p>
    <p><div style='color:yellow;font-size:25px; line-height:20px;'>您的任务是判断这些形容词是否符合对您自己或您的朋友的描述。</div></p><p style='font-size:35px'>符合按<span style=""color:lightgreen""> j 键</span>，不符合按<span style=""color:red""> f 键</span></p>","0","html-button-response","8","251143","0.0-7.0-0.0","6","5","6","3","4","5","4","4","5","5","5","1","0","-1","0","1","2","1","1","4","4","5","5","4","5","4","3","4","5","6","5","7","6","5","6","7","6","5","5","7","6","6","7","3","6","1","5","6","1","4","3","4","2","5","5","5","5","6","6","3","3","2","4","5","6","3","7","5","6","6","4","7","7","4","7","6","7","5","4","735455183198490626","张","507","Male","[""好我"",""好他"",""坏他"",""坏我""]","[""强我"",""强他"",""弱他"",""弱我""]","","","","","","","","","","","","","","","","","SRET_EW","EW_instructions","Mon Jan 29 2024 13:47:58 GMT+0800 (中国标准时间)","","","","","","","","","","","","","","","","","","","",""
"null","","null","psychophysics","9","254151","0.0-7.0-1.0-0.0","6","5","6","3","4","5","4","4","5","5","5","1","0","-1","0","1","2","1","1","4","4","5","5","4","5","4","3","4","5","6","5","7","6","5","6","7","6","5","5","7","6","6","7","3","6","1","5","6","1","4","3","4","2","5","5","5","5","6","6","3","3","2","4","5","6","3","7","5","6","6","4","7","7","4","7","6","7","5","4","735455183198490626","张","507","Male","[""好我"",""好他"",""坏他"",""坏我""]","[""强我"",""强他"",""弱他"",""弱我""]","","","","","","","","","","","","","","","","","SRET_EW","EW_practice","","key","null","4.517267267267267","853.3333333333334","529.3333333333334","朋友","徇私","Negative","morality","","","","","","","","","","",""
"1332","","f","psychophysics","10","256485","0.0-7.0-1.0-0.1","6","5","6","3","4","5","4","4","5","5","5","1","0","-1","0","1","2","1","1","4","4","5","5","4","5","4","3","4","5","6","5","7","6","5","6","7","6","5","5","7","6","6","7","3","6","1","5","6","1","4","3","4","2","5","5","5","5","6","6","3","3","2","4","5","6","3","7","5","6","6","4","7","7","4","7","6","7","5","4","735455183198490626","张","507","Male","[""好我"",""好他"",""坏他"",""坏我""]","[""强我"",""强他"",""弱他"",""弱我""]","","","","","","","","no","","","","","","","","","SRET_EW","EW_practice","","key","f","4.667535070140292","853.3333333333334","529.3333333333334","朋友","忠实","Positive","morality","","","","","","","","","","",""
"1153","","j","psychophysics","11","258639","0.0-7.0-1.0-0.2","6","5","6","3","4","5","4","4","5","5","5","1","0","-1","0","1","2","1","1","4","4","5","5","4","5","4","3","4","5","6","5","7","6","5","6","7","6","5","5","7","6","6","7","3","6","1","5","6","1","4","3","4","2","5","5","5","5","6","6","3","3","2","4","5","6","3","7","5","6","6","4","7","7","4","7","6","7","5","4","735455183198490626","张","507","Male","[""好我"",""好他"",""坏他"",""坏我""]","[""强我"",""强他"",""弱他"",""弱我""]","","","","","","","","yes","","","","","","","","","SRET_EW","EW_practice","","key","j","4.66355748373107","853.3333333333334","529.3333333333334","自己","严谨","Positive","ability","","","","","","","","","","",""
"1020","","f","psychophysics","12","260660","0.0-7.0-1.0-0.3","6","5","6","3","4","5","4","4","5","5","5","1","0","-1","0","1","2","1","1","4","4","5","5","4","5","4","3","4","5","6","5","7","6","5","6","7","6","5","5","7","6","6","7","3","6","1","5","6","1","4","3","4","2","5","5","5","5","6","6","3","3","2","4","5","6","3","7","5","6","6","4","7","7","4","7","6","7","5","4","735455183198490626","张","507","Male","[""好我"",""好他"",""坏他"",""坏我""]","[""强我"",""强他"",""弱他"",""弱我""]","","","","","","","","no","","","","","","","","","SRET_EW","EW_practice","","key","f","4.472605790645906","853.3333333333334","529.3333333333334","自己","刻板","Negative","ability","","","","","","","","","","",""
"5221","
    <p><div style='color:white;font-size:35px; line-height:20px;'>请您再次阅读实验要求</div></p><br>
    <p><div style='color:white;font-size:25px; line-height:20px;'>请回忆某一个亲密的朋友，你们至少2年前就认识了，并且最近2年经常见面。</div></p>
    <p><div style='color:white;font-size:25px; line-height:20px;'>在本实验中，您将会看到一些形容词。</div></p>
    <p><div style='color:yellow;font-size:25px; line-height:20px;'>您的任务是判断这些形容词是否符合对您自己或您的朋友的描述。</div></p>
    <p><div class='footer' style='font-size:25px; line-height:20px;'>如果对本实验还有不清楚之处，请立即向实验员咨询。</p><p style='font-size:25px; line-height:20px;'>如果您明白了规则：</p><p style='font-size:22px; line-height:20px;'>请按 继续 进入正式实验</p>
    </div>
    <p style='font-size:35px'>符合按<span style=""color:lightgreen""> j 键</span>，不符合按<span style=""color:red""> f 键</span></p>","0","html-button-response","13","265882","0.0-7.0-2.0","6","5","6","3","4","5","4","4","5","5","5","1","0","-1","0","1","2","1","1","4","4","5","5","4","5","4","3","4","5","6","5","7","6","5","6","7","6","5","5","7","6","6","7","3","6","1","5","6","1","4","3","4","2","5","5","5","5","6","6","3","3","2","4","5","6","3","7","5","6","6","4","7","7","4","7","6","7","5","4","735455183198490626","张","507","Male","[""好我"",""好他"",""坏他"",""坏我""]","[""强我"",""强他"",""弱他"",""弱我""]","","","","","","","","","","","","","","","","","SRET_EW","prac_instructions","Mon Jan 29 2024 13:47:58 GMT+0800 (中国标准时间)","","","","","","","","","","","","","","","","","","","",""
"922","","f","psychophysics","14","267806","0.0-7.0-3.0-0.0","6","5","6","3","4","5","4","4","5","5","5","1","0","-1","0","1","2","1","1","4","4","5","5","4","5","4","3","4","5","6","5","7","6","5","6","7","6","5","5","7","6","6","7","3","6","1","5","6","1","4","3","4","2","5","5","5","5","6","6","3","3","2","4","5","6","3","7","5","6","6","4","7","7","4","7","6","7","5","4","735455183198490626","张","507","Male","[""好我"",""好他"",""坏他"",""坏我""]","[""强我"",""强他"",""弱他"",""弱我""]","","","","","","","","no","","","","","","","","","SRET","EW_formal","","key","f","4.754455445544526","853.3333333333334","529.3333333333334","朋友","迷糊","Negative","ability","","","","","","","","","","",""
"1162","","f","psychophysics","15","269970","0.0-7.0-3.0-0.1","6","5","6","3","4","5","4","4","5","5","5","1","0","-1","0","1","2","1","1","4","4","5","5","4","5","4","3","4","5","6","5","7","6","5","6","7","6","5","5","7","6","6","7","3","6","1","5","6","1","4","3","4","2","5","5","5","5","6","6","3","3","2","4","5","6","3","7","5","6","6","4","7","7","4","7","6","7","5","4","735455183198490626","张","507","Male","[""好我"",""好他"",""坏他"",""坏我""]","[""强我"",""强他"",""弱他"",""弱我""]","","","","","","","","no","","","","","","","","","SRET","EW_formal","","key","f","4.495634095634144","853.3333333333334","529.3333333333334","自己","说谎","Negative","morality","","","","","","","","","","",""
"1065","","j","psychophysics","16","272037","0.0-7.0-3.0-0.2","6","5","6","3","4","5","4","4","5","5","5","1","0","-1","0","1","2","1","1","4","4","5","5","4","5","4","3","4","5","6","5","7","6","5","6","7","6","5","5","7","6","6","7","3","6","1","5","6","1","4","3","4","2","5","5","5","5","6","6","3","3","2","4","5","6","3","7","5","6","6","4","7","7","4","7","6","7","5","4","735455183198490626","张","507","Male","[""好我"",""好他"",""坏他"",""坏我""]","[""强我"",""强他"",""弱他"",""弱我""]","","","","","","","","yes","","","","","","","","","SRET","EW_formal","","key","j","4.583964365256151","853.3333333333334","529.3333333333334","朋友","务实","Positive","ability","","","","","","","","","","",""
"1044","","j","psychophysics","17","274082","0.0-7.0-3.0-0.3","6","5","6","3","4","5","4","4","5","5","5","1","0","-1","0","1","2","1","1","4","4","5","5","4","5","4","3","4","5","6","5","7","6","5","6","7","6","5","5","7","6","6","7","3","6","1","5","6","1","4","3","4","2","5","5","5","5","6","6","3","3","2","4","5","6","3","7","5","6","6","4","7","7","4","7","6","7","5","4","735455183198490626","张","507","Male","[""好我"",""好他"",""坏他"",""坏我""]","[""强我"",""强他"",""弱他"",""弱我""]","","","","","","","","yes","","","","","","","","","SRET","EW_formal","","key","j","4.419739696312364","853.3333333333334","529.3333333333334","自己","坚贞","Positive","morality","","","","","","","","","","",""
"965","","f","psychophysics","18","276048","0.0-7.0-3.0-0.4","6","5","6","3","4","5","4","4","5","5","5","1","0","-1","0","1","2","1","1","4","4","5","5","4","5","4","3","4","5","6","5","7","6","5","6","7","6","5","5","7","6","6","7","3","6","1","5","6","1","4","3","4","2","5","5","5","5","6","6","3","3","2","4","5","6","3","7","5","6","6","4","7","7","4","7","6","7","5","4","735455183198490626","张","507","Male","[""好我"",""好他"",""坏他"",""坏我""]","[""强我"",""强他"",""弱他"",""弱我""]","","","","","","","","no","","","","","","","","","SRET","EW_formal","","key","f","4.639479905437352","853.3333333333334","529.3333333333334","自己","腐败","Negative","morality","","","","","","","","","","",""
"986","","j","psychophysics","19","278036","0.0-7.0-3.0-0.5","6","5","6","3","4","5","4","4","5","5","5","1","0","-1","0","1","2","1","1","4","4","5","5","4","5","4","3","4","5","6","5","7","6","5","6","7","6","5","5","7","6","6","7","3","6","1","5","6","1","4","3","4","2","5","5","5","5","6","6","3","3","2","4","5","6","3","7","5","6","6","4","7","7","4","7","6","7","5","4","735455183198490626","张","507","Male","[""好我"",""好他"",""坏他"",""坏我""]","[""强我"",""强他"",""弱他"",""弱我""]","","","","","","","","yes","","","","","","","","","SRET","EW_formal","","key","j","4.733651551312705","853.3333333333334","529.3333333333334","自己","沉着","Positive","ability","","","","","","","","","","",""
"877","","f","psychophysics","20","279913","0.0-7.0-3.0-0.6","6","5","6","3","4","5","4","4","5","5","5","1","0","-1","0","1","2","1","1","4","4","5","5","4","5","4","3","4","5","6","5","7","6","5","6","7","6","5","5","7","6","6","7","3","6","1","5","6","1","4","3","4","2","5","5","5","5","6","6","3","3","2","4","5","6","3","7","5","6","6","4","7","7","4","7","6","7","5","4","735455183198490626","张","507","Male","[""好我"",""好他"",""坏他"",""坏我""]","[""强我"",""强他"",""弱他"",""弱我""]","","","","","","","","no","","","","","","","","","SRET","EW_formal","","key","f","4.485645933014354","853.3333333333334","529.3333333333334","朋友","背叛","Negative","morality","","","","","","","","","","",""
"813","","j","psychophysics","21","281727","0.0-7.0-3.0-0.7","6","5","6","3","4","5","4","4","5","5","5","1","0","-1","0","1","2","1","1","4","4","5","5","4","5","4","3","4","5","6","5","7","6","5","6","7","6","5","5","7","6","6","7","3","6","1","5","6","1","4","3","4","2","5","5","5","5","6","6","3","3","2","4","5","6","3","7","5","6","6","4","7","7","4","7","6","7","5","4","735455183198490626","张","507","Male","[""好我"",""好他"",""坏他"",""坏我""]","[""强我"",""强他"",""弱他"",""弱我""]","","","","","","","","yes","","","","","","","","","SRET","EW_formal","","key","j","4.432352941176528","853.3333333333334","529.3333333333334","自己","守信","Positive","morality","","","","","","","","","","",""
"997","","j","psychophysics","22","283726","0.0-7.0-3.0-0.8","6","5","6","3","4","5","4","4","5","5","5","1","0","-1","0","1","2","1","1","4","4","5","5","4","5","4","3","4","5","6","5","7","6","5","6","7","6","5","5","7","6","6","7","3","6","1","5","6","1","4","3","4","2","5","5","5","5","6","6","3","3","2","4","5","6","3","7","5","6","6","4","7","7","4","7","6","7","5","4","735455183198490626","张","507","Male","[""好我"",""好他"",""坏他"",""坏我""]","[""强我"",""强他"",""弱他"",""弱我""]","","","","","","","","yes","","","","","","","","","SRET","EW_formal","","key","j","4.546241457858743","853.3333333333334","529.3333333333334","朋友","敏捷","Positive","ability","","","","","","","","","","",""
"1363","","j","psychophysics","23","286090","0.0-7.0-3.0-0.9","6","5","6","3","4","5","4","4","5","5","5","1","0","-1","0","1","2","1","1","4","4","5","5","4","5","4","3","4","5","6","5","7","6","5","6","7","6","5","5","7","6","6","7","3","6","1","5","6","1","4","3","4","2","5","5","5","5","6","6","3","3","2","4","5","6","3","7","5","6","6","4","7","7","4","7","6","7","5","4","735455183198490626","张","507","Male","[""好我"",""好他"",""坏他"",""坏我""]","[""强我"",""强他"",""弱他"",""弱我""]","","","","","","","","yes","","","","","","","","","SRET","EW_formal","","key","j","4.509177820267664","853.3333333333334","529.3333333333334","朋友","无私","Positive","morality","","","","","","","","","","",""
"787","","f","psychophysics","24","287878","0.0-7.0-3.0-0.10","6","5","6","3","4","5","4","4","5","5","5","1","0","-1","0","1","2","1","1","4","4","5","5","4","5","4","3","4","5","6","5","7","6","5","6","7","6","5","5","7","6","6","7","3","6","1","5","6","1","4","3","4","2","5","5","5","5","6","6","3","3","2","4","5","6","3","7","5","6","6","4","7","7","4","7","6","7","5","4","735455183198490626","张","507","Male","[""好我"",""好他"",""坏他"",""坏我""]","[""强我"",""强他"",""弱他"",""弱我""]","","","","","","","","no","","","","","","","","","SRET","EW_formal","","key","f","4.606958762886598","853.3333333333334","529.3333333333334","朋友","窝囊","Negative","ability","","","","","","","","","","",""
"944","","j","psychophysics","25","289823","0.0-7.0-3.0-0.11","6","5","6","3","4","5","4","4","5","5","5","1","0","-1","0","1","2","1","1","4","4","5","5","4","5","4","3","4","5","6","5","7","6","5","6","7","6","5","5","7","6","6","7","3","6","1","5","6","1","4","3","4","2","5","5","5","5","6","6","3","3","2","4","5","6","3","7","5","6","6","4","7","7","4","7","6","7","5","4","735455183198490626","张","507","Male","[""好我"",""好他"",""坏他"",""坏我""]","[""强我"",""强他"",""弱他"",""弱我""]","","","","","","","","yes","","","","","","","","","SRET","EW_formal","","key","j","4.819402985074685","853.3333333333334","529.3333333333334","自己","厚道","Positive","morality","","","","","","","","","","",""
"1373","","f","psychophysics","26","292196","0.0-7.0-3.0-0.12","6","5","6","3","4","5","4","4","5","5","5","1","0","-1","0","1","2","1","1","4","4","5","5","4","5","4","3","4","5","6","5","7","6","5","6","7","6","5","5","7","6","6","7","3","6","1","5","6","1","4","3","4","2","5","5","5","5","6","6","3","3","2","4","5","6","3","7","5","6","6","4","7","7","4","7","6","7","5","4","735455183198490626","张","507","Male","[""好我"",""好他"",""坏他"",""坏我""]","[""强我"",""强他"",""弱他"",""弱我""]","","","","","","","","no","","","","","","","","","SRET","EW_formal","","key","f","4.507224334600849","853.3333333333334","529.3333333333334","自己","混账","Negative","morality","","","","","","","","","","",""
"1352","","f","psychophysics","27","294550","0.0-7.0-3.0-0.13","6","5","6","3","4","5","4","4","5","5","5","1","0","-1","0","1","2","1","1","4","4","5","5","4","5","4","3","4","5","6","5","7","6","5","6","7","6","5","5","7","6","6","7","3","6","1","5","6","1","4","3","4","2","5","5","5","5","6","6","3","3","2","4","5","6","3","7","5","6","6","4","7","7","4","7","6","7","5","4","735455183198490626","张","507","Male","[""好我"",""好他"",""坏他"",""坏我""]","[""强我"",""强他"",""弱他"",""弱我""]","","","","","","","","no","","","","","","","","","SRET","EW_formal","","key","f","4.709418837675351","853.3333333333334","529.3333333333334","自己","昏庸","Negative","ability","","","","","","","","","","",""
"1882","","f","psychophysics","28","297432","0.0-7.0-3.0-0.14","6","5","6","3","4","5","4","4","5","5","5","1","0","-1","0","1","2","1","1","4","4","5","5","4","5","4","3","4","5","6","5","7","6","5","6","7","6","5","5","7","6","6","7","3","6","1","5","6","1","4","3","4","2","5","5","5","5","6","6","3","3","2","4","5","6","3","7","5","6","6","4","7","7","4","7","6","7","5","4","735455183198490626","张","507","Male","[""好我"",""好他"",""坏他"",""坏我""]","[""强我"",""强他"",""弱他"",""弱我""]","","","","","","","","no","","","","","","","","","SRET","EW_formal","","key","f","4.72171052631577","853.3333333333334","529.3333333333334","自己","君子","Positive","morality","","","","","","","","","","",""
"865","","f","psychophysics","29","299299","0.0-7.0-3.0-0.15","6","5","6","3","4","5","4","4","5","5","5","1","0","-1","0","1","2","1","1","4","4","5","5","4","5","4","3","4","5","6","5","7","6","5","6","7","6","5","5","7","6","6","7","3","6","1","5","6","1","4","3","4","2","5","5","5","5","6","6","3","3","2","4","5","6","3","7","5","6","6","4","7","7","4","7","6","7","5","4","735455183198490626","张","507","Male","[""好我"",""好他"",""坏他"",""坏我""]","[""强我"",""强他"",""弱他"",""弱我""]","","","","","","","","no","","","","","","","","","SRET","EW_formal","","key","f","4.4870192307691745","853.3333333333334","529.3333333333334","朋友","无知","Negative","ability","","","","","","","","","","",""
"1373","","j","psychophysics","30","301673","0.0-7.0-3.0-0.16","6","5","6","3","4","5","4","4","5","5","5","1","0","-1","0","1","2","1","1","4","4","5","5","4","5","4","3","4","5","6","5","7","6","5","6","7","6","5","5","7","6","6","7","3","6","1","5","6","1","4","3","4","2","5","5","5","5","6","6","3","3","2","4","5","6","3","7","5","6","6","4","7","7","4","7","6","7","5","4","735455183198490626","张","507","Male","[""好我"",""好他"",""坏他"",""坏我""]","[""强我"",""强他"",""弱他"",""弱我""]","","","","","","","","yes","","","","","","","","","SRET","EW_formal","","key","j","4.658858267716559","853.3333333333334","529.3333333333334","朋友","笨蛋","Negative","ability","","","","","","","","","","",""
"1043","","j","psychophysics","31","303716","0.0-7.0-3.0-0.17","6","5","6","3","4","5","4","4","5","5","5","1","0","-1","0","1","2","1","1","4","4","5","5","4","5","4","3","4","5","6","5","7","6","5","6","7","6","5","5","7","6","6","7","3","6","1","5","6","1","4","3","4","2","5","5","5","5","6","6","3","3","2","4","5","6","3","7","5","6","6","4","7","7","4","7","6","7","5","4","735455183198490626","张","507","Male","[""好我"",""好他"",""坏他"",""坏我""]","[""强我"",""强他"",""弱他"",""弱我""]","","","","","","","","yes","","","","","","","","","SRET","EW_formal","","key","j","4.546993318485471","853.3333333333334","529.3333333333334","朋友","中用","Positive","ability","","","","","","","","","","",""
"898","","f","psychophysics","32","305616","0.0-7.0-3.0-0.18","6","5","6","3","4","5","4","4","5","5","5","1","0","-1","0","1","2","1","1","4","4","5","5","4","5","4","3","4","5","6","5","7","6","5","6","7","6","5","5","7","6","6","7","3","6","1","5","6","1","4","3","4","2","5","5","5","5","6","6","3","3","2","4","5","6","3","7","5","6","6","4","7","7","4","7","6","7","5","4","735455183198490626","张","507","Male","[""好我"",""好他"",""坏他"",""坏我""]","[""强我"",""强他"",""弱他"",""弱我""]","","","","","","","","no","","","","","","","","","SRET","EW_formal","","key","f","4.623902439024362","853.3333333333334","529.3333333333334","自己","拖延","Negative","ability","","","","","","","","","","",""
"921","","f","psychophysics","33","307538","0.0-7.0-3.0-0.19","6","5","6","3","4","5","4","4","5","5","5","1","0","-1","0","1","2","1","1","4","4","5","5","4","5","4","3","4","5","6","5","7","6","5","6","7","6","5","5","7","6","6","7","3","6","1","5","6","1","4","3","4","2","5","5","5","5","6","6","3","3","2","4","5","6","3","7","5","6","6","4","7","7","4","7","6","7","5","4","735455183198490626","张","507","Male","[""好我"",""好他"",""坏他"",""坏我""]","[""强我"",""强他"",""弱他"",""弱我""]","","","","","","","","no","","","","","","","","","SRET","EW_formal","","key","f","4.395871559632974","853.3333333333334","529.3333333333334","自己","毛糙","Negative","ability","","","","","","","","","","",""
"756","","j","psychophysics","34","309295","0.0-7.0-3.0-0.20","6","5","6","3","4","5","4","4","5","5","5","1","0","-1","0","1","2","1","1","4","4","5","5","4","5","4","3","4","5","6","5","7","6","5","6","7","6","5","5","7","6","6","7","3","6","1","5","6","1","4","3","4","2","5","5","5","5","6","6","3","3","2","4","5","6","3","7","5","6","6","4","7","7","4","7","6","7","5","4","735455183198490626","张","507","Male","[""好我"",""好他"",""坏他"",""坏我""]","[""强我"",""强他"",""弱他"",""弱我""]","","","","","","","","yes","","","","","","","","","SRET","EW_formal","","key","j","4.652785145888532","853.3333333333334","529.3333333333334","自己","守时","Positive","morality","","","","","","","","","","",""
"898","","f","psychophysics","35","311194","0.0-7.0-3.0-0.21","6","5","6","3","4","5","4","4","5","5","5","1","0","-1","0","1","2","1","1","4","4","5","5","4","5","4","3","4","5","6","5","7","6","5","6","7","6","5","5","7","6","6","7","3","6","1","5","6","1","4","3","4","2","5","5","5","5","6","6","3","3","2","4","5","6","3","7","5","6","6","4","7","7","4","7","6","7","5","4","735455183198490626","张","507","Male","[""好我"",""好他"",""坏他"",""坏我""]","[""强我"",""强他"",""弱他"",""弱我""]","","","","","","","","no","","","","","","","","","SRET","EW_formal","","key","f","4.580145278450307","853.3333333333334","529.3333333333334","朋友","粗心","Negative","ability","","","","","","","","","","",""
"986","","j","psychophysics","36","313182","0.0-7.0-3.0-0.22","6","5","6","3","4","5","4","4","5","5","5","1","0","-1","0","1","2","1","1","4","4","5","5","4","5","4","3","4","5","6","5","7","6","5","6","7","6","5","5","7","6","6","7","3","6","1","5","6","1","4","3","4","2","5","5","5","5","6","6","3","3","2","4","5","6","3","7","5","6","6","4","7","7","4","7","6","7","5","4","735455183198490626","张","507","Male","[""好我"",""好他"",""坏他"",""坏我""]","[""强我"",""强他"",""弱他"",""弱我""]","","","","","","","","yes","","","","","","","","","SRET","EW_formal","","key","j","4.517767653758516","853.3333333333334","529.3333333333334","朋友","聪明","Positive","ability","","","","","","","","","","",""
"1406","","j","psychophysics","37","315590","0.0-7.0-3.0-0.23","6","5","6","3","4","5","4","4","5","5","5","1","0","-1","0","1","2","1","1","4","4","5","5","4","5","4","3","4","5","6","5","7","6","5","6","7","6","5","5","7","6","6","7","3","6","1","5","6","1","4","3","4","2","5","5","5","5","6","6","3","3","2","4","5","6","3","7","5","6","6","4","7","7","4","7","6","7","5","4","735455183198490626","张","507","Male","[""好我"",""好他"",""坏他"",""坏我""]","[""强我"",""强他"",""弱他"",""弱我""]","","","","","","","","yes","","","","","","","","","SRET","EW_formal","","key","j","4.791599999999977","853.3333333333334","529.3333333333334","朋友","能干","Positive","ability","","","","","","","","","","",""
"768","","f","psychophysics","38","317358","0.0-7.0-3.0-0.24","6","5","6","3","4","5","4","4","5","5","5","1","0","-1","0","1","2","1","1","4","4","5","5","4","5","4","3","4","5","6","5","7","6","5","6","7","6","5","5","7","6","6","7","3","6","1","5","6","1","4","3","4","2","5","5","5","5","6","6","3","3","2","4","5","6","3","7","5","6","6","4","7","7","4","7","6","7","5","4","735455183198490626","张","507","Male","[""好我"",""好他"",""坏他"",""坏我""]","[""强我"",""强他"",""弱他"",""弱我""]","","","","","","","","no","","","","","","","","","SRET","EW_formal","","key","f","4.427568922305706","853.3333333333334","529.3333333333334","自己","无助","Negative","ability","","","","","","","","","","",""
"1329","","j","psychophysics","39","319688","0.0-7.0-3.0-0.25","6","5","6","3","4","5","4","4","5","5","5","1","0","-1","0","1","2","1","1","4","4","5","5","4","5","4","3","4","5","6","5","7","6","5","6","7","6","5","5","7","6","6","7","3","6","1","5","6","1","4","3","4","2","5","5","5","5","6","6","3","3","2","4","5","6","3","7","5","6","6","4","7","7","4","7","6","7","5","4","735455183198490626","张","507","Male","[""好我"",""好他"",""坏他"",""坏我""]","[""强我"",""强他"",""弱他"",""弱我""]","","","","","","","","yes","","","","","","","","","SRET","EW_formal","","key","j","4.576771653543307","853.3333333333334","529.3333333333334","自己","偏私","Negative","morality","","","","","","","","","","",""
"977","","f","psychophysics","40","321666","0.0-7.0-3.0-0.26","6","5","6","3","4","5","4","4","5","5","5","1","0","-1","0","1","2","1","1","4","4","5","5","4","5","4","3","4","5","6","5","7","6","5","6","7","6","5","5","7","6","6","7","3","6","1","5","6","1","4","3","4","2","5","5","5","5","6","6","3","3","2","4","5","6","3","7","5","6","6","4","7","7","4","7","6","7","5","4","735455183198490626","张","507","Male","[""好我"",""好他"",""坏他"",""坏我""]","[""强我"",""强他"",""弱他"",""弱我""]","","","","","","","","no","","","","","","","","","SRET","EW_formal","","key","f","4.593023255813954","853.3333333333334","529.3333333333334","朋友","恶劣","Negative","morality","","","","","","","","","","",""
"1222","","j","psychophysics","41","323888","0.0-7.0-3.0-0.27","6","5","6","3","4","5","4","4","5","5","5","1","0","-1","0","1","2","1","1","4","4","5","5","4","5","4","3","4","5","6","5","7","6","5","6","7","6","5","5","7","6","6","7","3","6","1","5","6","1","4","3","4","2","5","5","5","5","6","6","3","3","2","4","5","6","3","7","5","6","6","4","7","7","4","7","6","7","5","4","735455183198490626","张","507","Male","[""好我"",""好他"",""坏他"",""坏我""]","[""强我"",""强他"",""弱他"",""弱我""]","","","","","","","","yes","","","","","","","","","SRET","EW_formal","","key","j","4.637238493723922","853.3333333333334","529.3333333333334","自己","变通","Positive","ability","","","","","","","","","","",""
"1168","","f","psychophysics","42","326057","0.0-7.0-3.0-0.28","6","5","6","3","4","5","4","4","5","5","5","1","0","-1","0","1","2","1","1","4","4","5","5","4","5","4","3","4","5","6","5","7","6","5","6","7","6","5","5","7","6","6","7","3","6","1","5","6","1","4","3","4","2","5","5","5","5","6","6","3","3","2","4","5","6","3","7","5","6","6","4","7","7","4","7","6","7","5","4","735455183198490626","张","507","Male","[""好我"",""好他"",""坏他"",""坏我""]","[""强我"",""强他"",""弱他"",""弱我""]","","","","","","","","no","","","","","","","","","SRET","EW_formal","","key","f","4.551680672268981","853.3333333333334","529.3333333333334","自己","高尚","Positive","morality","","","","","","","","","","",""
"792","","j","psychophysics","43","327850","0.0-7.0-3.0-0.29","6","5","6","3","4","5","4","4","5","5","5","1","0","-1","0","1","2","1","1","4","4","5","5","4","5","4","3","4","5","6","5","7","6","5","6","7","6","5","5","7","6","6","7","3","6","1","5","6","1","4","3","4","2","5","5","5","5","6","6","3","3","2","4","5","6","3","7","5","6","6","4","7","7","4","7","6","7","5","4","735455183198490626","张","507","Male","[""好我"",""好他"",""坏他"",""坏我""]","[""强我"",""强他"",""弱他"",""弱我""]","","","","","","","","yes","","","","","","","","","SRET","EW_formal","","key","j","4.691601049868766","853.3333333333334","529.3333333333334","自己","干练","Positive","ability","","","","","","","","","","",""
"1244","","j","psychophysics","44","330095","0.0-7.0-3.0-0.30","6","5","6","3","4","5","4","4","5","5","5","1","0","-1","0","1","2","1","1","4","4","5","5","4","5","4","3","4","5","6","5","7","6","5","6","7","6","5","5","7","6","6","7","3","6","1","5","6","1","4","3","4","2","5","5","5","5","6","6","3","3","2","4","5","6","3","7","5","6","6","4","7","7","4","7","6","7","5","4","735455183198490626","张","507","Male","[""好我"",""好他"",""坏他"",""坏我""]","[""强我"",""强他"",""弱他"",""弱我""]","","","","","","","","yes","","","","","","","","","SRET","EW_formal","","key","j","4.566122448979639","853.3333333333334","529.3333333333334","自己","依靠","Negative","ability","","","","","","","","","","",""
"934","","f","psychophysics","45","332030","0.0-7.0-3.0-0.31","6","5","6","3","4","5","4","4","5","5","5","1","0","-1","0","1","2","1","1","4","4","5","5","4","5","4","3","4","5","6","5","7","6","5","6","7","6","5","5","7","6","6","7","3","6","1","5","6","1","4","3","4","2","5","5","5","5","6","6","3","3","2","4","5","6","3","7","5","6","6","4","7","7","4","7","6","7","5","4","735455183198490626","张","507","Male","[""好我"",""好他"",""坏他"",""坏我""]","[""强我"",""强他"",""弱他"",""弱我""]","","","","","","","","no","","","","","","","","","SRET","EW_formal","","key","f","4.615311004784577","853.3333333333334","529.3333333333334","自己","弱智","Negative","ability","","","","","","","","","","",""
"1168","","f","psychophysics","46","334199","0.0-7.0-3.0-0.32","6","5","6","3","4","5","4","4","5","5","5","1","0","-1","0","1","2","1","1","4","4","5","5","4","5","4","3","4","5","6","5","7","6","5","6","7","6","5","5","7","6","6","7","3","6","1","5","6","1","4","3","4","2","5","5","5","5","6","6","3","3","2","4","5","6","3","7","5","6","6","4","7","7","4","7","6","7","5","4","735455183198490626","张","507","Male","[""好我"",""好他"",""坏他"",""坏我""]","[""强我"",""强他"",""弱他"",""弱我""]","","","","","","","","no","","","","","","","","","SRET","EW_formal","","key","f","4.6202991452991204","853.3333333333334","529.3333333333334","朋友","势利","Negative","morality","","","","","","","","","","",""
"746","","j","psychophysics","47","335945","0.0-7.0-3.0-0.33","6","5","6","3","4","5","4","4","5","5","5","1","0","-1","0","1","2","1","1","4","4","5","5","4","5","4","3","4","5","6","5","7","6","5","6","7","6","5","5","7","6","6","7","3","6","1","5","6","1","4","3","4","2","5","5","5","5","6","6","3","3","2","4","5","6","3","7","5","6","6","4","7","7","4","7","6","7","5","4","735455183198490626","张","507","Male","[""好我"",""好他"",""坏他"",""坏我""]","[""强我"",""强他"",""弱他"",""弱我""]","","","","","","","","yes","","","","","","","","","SRET","EW_formal","","key","j","4.525714285714346","853.3333333333334","529.3333333333334","朋友","娴熟","Positive","ability","","","","","","","","","","",""
"892","","j","psychophysics","48","337839","0.0-7.0-3.0-0.34","6","5","6","3","4","5","4","4","5","5","5","1","0","-1","0","1","2","1","1","4","4","5","5","4","5","4","3","4","5","6","5","7","6","5","6","7","6","5","5","7","6","6","7","3","6","1","5","6","1","4","3","4","2","5","5","5","5","6","6","3","3","2","4","5","6","3","7","5","6","6","4","7","7","4","7","6","7","5","4","735455183198490626","张","507","Male","[""好我"",""好他"",""坏他"",""坏我""]","[""强我"",""强他"",""弱他"",""弱我""]","","","","","","","","yes","","","","","","","","","SRET","EW_formal","","key","j","4.461938534278877","853.3333333333334","529.3333333333334","朋友","热心","Positive","morality","","","","","","","","","","",""
"1231","","j","psychophysics","49","340070","0.0-7.0-3.0-0.35","6","5","6","3","4","5","4","4","5","5","5","1","0","-1","0","1","2","1","1","4","4","5","5","4","5","4","3","4","5","6","5","7","6","5","6","7","6","5","5","7","6","6","7","3","6","1","5","6","1","4","3","4","2","5","5","5","5","6","6","3","3","2","4","5","6","3","7","5","6","6","4","7","7","4","7","6","7","5","4","735455183198490626","张","507","Male","[""好我"",""好他"",""坏他"",""坏我""]","[""强我"",""强他"",""弱他"",""弱我""]","","","","","","","","yes","","","","","","","","","SRET","EW_formal","","key","j","4.634511434511459","853.3333333333334","529.3333333333334","自己","博学","Positive","ability","","","","","","","","","","",""
"1962","","j","psychophysics","50","343032","0.0-7.0-3.0-0.36","6","5","6","3","4","5","4","4","5","5","5","1","0","-1","0","1","2","1","1","4","4","5","5","4","5","4","3","4","5","6","5","7","6","5","6","7","6","5","5","7","6","6","7","3","6","1","5","6","1","4","3","4","2","5","5","5","5","6","6","3","3","2","4","5","6","3","7","5","6","6","4","7","7","4","7","6","7","5","4","735455183198490626","张","507","Male","[""好我"",""好他"",""坏他"",""坏我""]","[""强我"",""强他"",""弱他"",""弱我""]","","","","","","","","yes","","","","","","","","","SRET","EW_formal","","key","j","4.70478468899516","853.3333333333334","529.3333333333334","自己","肯干","Positive","ability","","","","","","","","","","",""
"1120","","f","psychophysics","51","345153","0.0-7.0-3.0-0.37","6","5","6","3","4","5","4","4","5","5","5","1","0","-1","0","1","2","1","1","4","4","5","5","4","5","4","3","4","5","6","5","7","6","5","6","7","6","5","5","7","6","6","7","3","6","1","5","6","1","4","3","4","2","5","5","5","5","6","6","3","3","2","4","5","6","3","7","5","6","6","4","7","7","4","7","6","7","5","4","735455183198490626","张","507","Male","[""好我"",""好他"",""坏他"",""坏我""]","[""强我"",""强他"",""弱他"",""弱我""]","","","","","","","","no","","","","","","","","","SRET","EW_formal","","key","f","4.400415800415752","853.3333333333334","529.3333333333334","自己","精干","Positive","ability","","","","","","","","","","",""
"1495","","j","psychophysics","52","347649","0.0-7.0-3.0-0.38","6","5","6","3","4","5","4","4","5","5","5","1","0","-1","0","1","2","1","1","4","4","5","5","4","5","4","3","4","5","6","5","7","6","5","6","7","6","5","5","7","6","6","7","3","6","1","5","6","1","4","3","4","2","5","5","5","5","6","6","3","3","2","4","5","6","3","7","5","6","6","4","7","7","4","7","6","7","5","4","735455183198490626","张","507","Male","[""好我"",""好他"",""坏他"",""坏我""]","[""强我"",""强他"",""弱他"",""弱我""]","","","","","","","","yes","","","","","","","","","SRET","EW_formal","","key","j","4.588397790055248","853.3333333333334","529.3333333333334","朋友","仗义","Positive","morality","","","","","","","","","","",""
"766","","j","psychophysics","53","349416","0.0-7.0-3.0-0.39","6","5","6","3","4","5","4","4","5","5","5","1","0","-1","0","1","2","1","1","4","4","5","5","4","5","4","3","4","5","6","5","7","6","5","6","7","6","5","5","7","6","6","7","3","6","1","5","6","1","4","3","4","2","5","5","5","5","6","6","3","3","2","4","5","6","3","7","5","6","6","4","7","7","4","7","6","7","5","4","735455183198490626","张","507","Male","[""好我"",""好他"",""坏他"",""坏我""]","[""强我"",""强他"",""弱他"",""弱我""]","","","","","","","","yes","","","","","","","","","SRET","EW_formal","","key","j","4.484732824427481","853.3333333333334","529.3333333333334","自己","文明","Positive","morality","","","","","","","","","","",""
"966","","f","psychophysics","54","351384","0.0-7.0-3.0-0.40","6","5","6","3","4","5","4","4","5","5","5","1","0","-1","0","1","2","1","1","4","4","5","5","4","5","4","3","4","5","6","5","7","6","5","6","7","6","5","5","7","6","6","7","3","6","1","5","6","1","4","3","4","2","5","5","5","5","6","6","3","3","2","4","5","6","3","7","5","6","6","4","7","7","4","7","6","7","5","4","735455183198490626","张","507","Male","[""好我"",""好他"",""坏他"",""坏我""]","[""强我"",""强他"",""弱他"",""弱我""]","","","","","","","","no","","","","","","","","","SRET","EW_formal","","key","f","4.532101616628095","853.3333333333334","529.3333333333334","自己","刻薄","Negative","morality","","","","","","","","","","",""
"900","","j","psychophysics","55","353285","0.0-7.0-3.0-0.41","6","5","6","3","4","5","4","4","5","5","5","1","0","-1","0","1","2","1","1","4","4","5","5","4","5","4","3","4","5","6","5","7","6","5","6","7","6","5","5","7","6","6","7","3","6","1","5","6","1","4","3","4","2","5","5","5","5","6","6","3","3","2","4","5","6","3","7","5","6","6","4","7","7","4","7","6","7","5","4","735455183198490626","张","507","Male","[""好我"",""好他"",""坏他"",""坏我""]","[""强我"",""强他"",""弱他"",""弱我""]","","","","","","","","yes","","","","","","","","","SRET","EW_formal","","key","j","4.861282051282111","853.3333333333334","529.3333333333334","朋友","侠义","Positive","morality","","","","","","","","","","",""
"1019","","j","psychophysics","56","355305","0.0-7.0-3.0-0.42","6","5","6","3","4","5","4","4","5","5","5","1","0","-1","0","1","2","1","1","4","4","5","5","4","5","4","3","4","5","6","5","7","6","5","6","7","6","5","5","7","6","6","7","3","6","1","5","6","1","4","3","4","2","5","5","5","5","6","6","3","3","2","4","5","6","3","7","5","6","6","4","7","7","4","7","6","7","5","4","735455183198490626","张","507","Male","[""好我"",""好他"",""坏他"",""坏我""]","[""强我"",""强他"",""弱他"",""弱我""]","","","","","","","","yes","","","","","","","","","SRET","EW_formal","","key","j","4.573015873015899","853.3333333333334","529.3333333333334","朋友","奉献","Positive","morality","","","","","","","","","","",""
"645","","f","psychophysics","57","356952","0.0-7.0-3.0-0.43","6","5","6","3","4","5","4","4","5","5","5","1","0","-1","0","1","2","1","1","4","4","5","5","4","5","4","3","4","5","6","5","7","6","5","6","7","6","5","5","7","6","6","7","3","6","1","5","6","1","4","3","4","2","5","5","5","5","6","6","3","3","2","4","5","6","3","7","5","6","6","4","7","7","4","7","6","7","5","4","735455183198490626","张","507","Male","[""好我"",""好他"",""坏他"",""坏我""]","[""强我"",""强他"",""弱他"",""弱我""]","","","","","","","","no","","","","","","","","","SRET","EW_formal","","key","f","4.354376657825027","853.3333333333334","529.3333333333334","朋友","不孝","Negative","morality","","","","","","","","","","",""
"800","","j","psychophysics","58","358753","0.0-7.0-3.0-0.44","6","5","6","3","4","5","4","4","5","5","5","1","0","-1","0","1","2","1","1","4","4","5","5","4","5","4","3","4","5","6","5","7","6","5","6","7","6","5","5","7","6","6","7","3","6","1","5","6","1","4","3","4","2","5","5","5","5","6","6","3","3","2","4","5","6","3","7","5","6","6","4","7","7","4","7","6","7","5","4","735455183198490626","张","507","Male","[""好我"",""好他"",""坏他"",""坏我""]","[""强我"",""强他"",""弱他"",""弱我""]","","","","","","","","yes","","","","","","","","","SRET","EW_formal","","key","j","4.639175257731959","853.3333333333334","529.3333333333334","自己","有力","Positive","ability","","","","","","","","","","",""
"677","","f","psychophysics","59","360432","0.0-7.0-3.0-0.45","6","5","6","3","4","5","4","4","5","5","5","1","0","-1","0","1","2","1","1","4","4","5","5","4","5","4","3","4","5","6","5","7","6","5","6","7","6","5","5","7","6","6","7","3","6","1","5","6","1","4","3","4","2","5","5","5","5","6","6","3","3","2","4","5","6","3","7","5","6","6","4","7","7","4","7","6","7","5","4","735455183198490626","张","507","Male","[""好我"",""好他"",""坏他"",""坏我""]","[""强我"",""强他"",""弱他"",""弱我""]","","","","","","","","no","","","","","","","","","SRET","EW_formal","","key","f","4.615469613259797","853.3333333333334","529.3333333333334","自己","迟钝","Negative","ability","","","","","","","","","","",""
"678","","j","psychophysics","60","362111","0.0-7.0-3.0-0.46","6","5","6","3","4","5","4","4","5","5","5","1","0","-1","0","1","2","1","1","4","4","5","5","4","5","4","3","4","5","6","5","7","6","5","6","7","6","5","5","7","6","6","7","3","6","1","5","6","1","4","3","4","2","5","5","5","5","6","6","3","3","2","4","5","6","3","7","5","6","6","4","7","7","4","7","6","7","5","4","735455183198490626","张","507","Male","[""好我"",""好他"",""坏他"",""坏我""]","[""强我"",""强他"",""弱他"",""弱我""]","","","","","","","","yes","","","","","","","","","SRET","EW_formal","","key","j","4.432095490716242","853.3333333333334","529.3333333333334","自己","忠诚","Positive","morality","","","","","","","","","","",""
"656","","f","psychophysics","61","363767","0.0-7.0-3.0-0.47","6","5","6","3","4","5","4","4","5","5","5","1","0","-1","0","1","2","1","1","4","4","5","5","4","5","4","3","4","5","6","5","7","6","5","6","7","6","5","5","7","6","6","7","3","6","1","5","6","1","4","3","4","2","5","5","5","5","6","6","3","3","2","4","5","6","3","7","5","6","6","4","7","7","4","7","6","7","5","4","735455183198490626","张","507","Male","[""好我"",""好他"",""坏他"",""坏我""]","[""强我"",""强他"",""弱他"",""弱我""]","","","","","","","","no","","","","","","","","","SRET","EW_formal","","key","f","4.45945945945946","853.3333333333334","529.3333333333334","朋友","邪恶","Negative","morality","","","","","","","","","","",""
"666","","f","psychophysics","62","365434","0.0-7.0-3.0-0.48","6","5","6","3","4","5","4","4","5","5","5","1","0","-1","0","1","2","1","1","4","4","5","5","4","5","4","3","4","5","6","5","7","6","5","6","7","6","5","5","7","6","6","7","3","6","1","5","6","1","4","3","4","2","5","5","5","5","6","6","3","3","2","4","5","6","3","7","5","6","6","4","7","7","4","7","6","7","5","4","735455183198490626","张","507","Male","[""好我"",""好他"",""坏他"",""坏我""]","[""强我"",""强他"",""弱他"",""弱我""]","","","","","","","","no","","","","","","","","","SRET","EW_formal","","key","f","4.752148997134671","853.3333333333334","529.3333333333334","朋友","歹毒","Negative","morality","","","","","","","","","","",""
"1264","","f","psychophysics","63","367699","0.0-7.0-3.0-0.49","6","5","6","3","4","5","4","4","5","5","5","1","0","-1","0","1","2","1","1","4","4","5","5","4","5","4","3","4","5","6","5","7","6","5","6","7","6","5","5","7","6","6","7","3","6","1","5","6","1","4","3","4","2","5","5","5","5","6","6","3","3","2","4","5","6","3","7","5","6","6","4","7","7","4","7","6","7","5","4","735455183198490626","张","507","Male","[""好我"",""好他"",""坏他"",""坏我""]","[""强我"",""强他"",""弱他"",""弱我""]","","","","","","","","no","","","","","","","","","SRET","EW_formal","","key","f","4.724476987447674","853.3333333333334","529.3333333333334","朋友","拙笨","Negative","ability","","","","","","","","","","",""
"944","","j","psychophysics","64","369644","0.0-7.0-3.0-0.50","6","5","6","3","4","5","4","4","5","5","5","1","0","-1","0","1","2","1","1","4","4","5","5","4","5","4","3","4","5","6","5","7","6","5","6","7","6","5","5","7","6","6","7","3","6","1","5","6","1","4","3","4","2","5","5","5","5","6","6","3","3","2","4","5","6","3","7","5","6","6","4","7","7","4","7","6","7","5","4","735455183198490626","张","507","Male","[""好我"",""好他"",""坏他"",""坏我""]","[""强我"",""强他"",""弱他"",""弱我""]","","","","","","","","yes","","","","","","","","","SRET","EW_formal","","key","j","4.52511627906974","853.3333333333334","529.3333333333334","朋友","果决","Positive","ability","","","","","","","","","","",""
"725","","f","psychophysics","65","371369","0.0-7.0-3.0-0.51","6","5","6","3","4","5","4","4","5","5","5","1","0","-1","0","1","2","1","1","4","4","5","5","4","5","4","3","4","5","6","5","7","6","5","6","7","6","5","5","7","6","6","7","3","6","1","5","6","1","4","3","4","2","5","5","5","5","6","6","3","3","2","4","5","6","3","7","5","6","6","4","7","7","4","7","6","7","5","4","735455183198490626","张","507","Male","[""好我"",""好他"",""坏他"",""坏我""]","[""强我"",""强他"",""弱他"",""弱我""]","","","","","","","","no","","","","","","","","","SRET","EW_formal","","key","f","4.39002557544757","853.3333333333334","529.3333333333334","自己","奸险","Negative","morality","","","","","","","","","","",""
"791","","f","psychophysics","66","373161","0.0-7.0-3.0-0.52","6","5","6","3","4","5","4","4","5","5","5","1","0","-1","0","1","2","1","1","4","4","5","5","4","5","4","3","4","5","6","5","7","6","5","6","7","6","5","5","7","6","6","7","3","6","1","5","6","1","4","3","4","2","5","5","5","5","6","6","3","3","2","4","5","6","3","7","5","6","6","4","7","7","4","7","6","7","5","4","735455183198490626","张","507","Male","[""好我"",""好他"",""坏他"",""坏我""]","[""强我"",""强他"",""弱他"",""弱我""]","","","","","","","","no","","","","","","","","","SRET","EW_formal","","key","f","4.583076923076834","853.3333333333334","529.3333333333334","自己","阴毒","Negative","morality","","","","","","","","","","",""
"1002","","j","psychophysics","67","375164","0.0-7.0-3.0-0.53","6","5","6","3","4","5","4","4","5","5","5","1","0","-1","0","1","2","1","1","4","4","5","5","4","5","4","3","4","5","6","5","7","6","5","6","7","6","5","5","7","6","6","7","3","6","1","5","6","1","4","3","4","2","5","5","5","5","6","6","3","3","2","4","5","6","3","7","5","6","6","4","7","7","4","7","6","7","5","4","735455183198490626","张","507","Male","[""好我"",""好他"",""坏他"",""坏我""]","[""强我"",""强他"",""弱他"",""弱我""]","","","","","","","","yes","","","","","","","","","SRET","EW_formal","","key","j","4.505191873589139","853.3333333333334","529.3333333333334","朋友","思辨","Positive","ability","","","","","","","","","","",""
"934","","j","psychophysics","68","377100","0.0-7.0-3.0-0.54","6","5","6","3","4","5","4","4","5","5","5","1","0","-1","0","1","2","1","1","4","4","5","5","4","5","4","3","4","5","6","5","7","6","5","6","7","6","5","5","7","6","6","7","3","6","1","5","6","1","4","3","4","2","5","5","5","5","6","6","3","3","2","4","5","6","3","7","5","6","6","4","7","7","4","7","6","7","5","4","735455183198490626","张","507","Male","[""好我"",""好他"",""坏他"",""坏我""]","[""强我"",""强他"",""弱他"",""弱我""]","","","","","","","","yes","","","","","","","","","SRET","EW_formal","","key","j","4.465127020785273","853.3333333333334","529.3333333333334","朋友","孝顺","Positive","morality","","","","","","","","","","",""
"713","","j","psychophysics","69","378813","0.0-7.0-3.0-0.55","6","5","6","3","4","5","4","4","5","5","5","1","0","-1","0","1","2","1","1","4","4","5","5","4","5","4","3","4","5","6","5","7","6","5","6","7","6","5","5","7","6","6","7","3","6","1","5","6","1","4","3","4","2","5","5","5","5","6","6","3","3","2","4","5","6","3","7","5","6","6","4","7","7","4","7","6","7","5","4","735455183198490626","张","507","Male","[""好我"",""好他"",""坏他"",""坏我""]","[""强我"",""强他"",""弱他"",""弱我""]","","","","","","","","yes","","","","","","","","","SRET","EW_formal","","key","j","4.866666666666534","853.3333333333334","529.3333333333334","朋友","善心","Positive","morality","","","","","","","","","","",""
"681","","f","psychophysics","70","380495","0.0-7.0-3.0-0.56","6","5","6","3","4","5","4","4","5","5","5","1","0","-1","0","1","2","1","1","4","4","5","5","4","5","4","3","4","5","6","5","7","6","5","6","7","6","5","5","7","6","6","7","3","6","1","5","6","1","4","3","4","2","5","5","5","5","6","6","3","3","2","4","5","6","3","7","5","6","6","4","7","7","4","7","6","7","5","4","735455183198490626","张","507","Male","[""好我"",""好他"",""坏他"",""坏我""]","[""强我"",""强他"",""弱他"",""弱我""]","","","","","","","","no","","","","","","","","","SRET","EW_formal","","key","f","4.625895316804439","853.3333333333334","529.3333333333334","自己","草率","Negative","ability","","","","","","","","","","",""
"711","","f","psychophysics","71","382206","0.0-7.0-3.0-0.57","6","5","6","3","4","5","4","4","5","5","5","1","0","-1","0","1","2","1","1","4","4","5","5","4","5","4","3","4","5","6","5","7","6","5","6","7","6","5","5","7","6","6","7","3","6","1","5","6","1","4","3","4","2","5","5","5","5","6","6","3","3","2","4","5","6","3","7","5","6","6","4","7","7","4","7","6","7","5","4","735455183198490626","张","507","Male","[""好我"",""好他"",""坏他"",""坏我""]","[""强我"",""强他"",""弱他"",""弱我""]","","","","","","","","no","","","","","","","","","SRET","EW_formal","","key","f","4.5433510638299115","853.3333333333334","529.3333333333334","自己","贪污","Negative","morality","","","","","","","","","","",""
"700","","f","psychophysics","72","383907","0.0-7.0-3.0-0.58","6","5","6","3","4","5","4","4","5","5","5","1","0","-1","0","1","2","1","1","4","4","5","5","4","5","4","3","4","5","6","5","7","6","5","6","7","6","5","5","7","6","6","7","3","6","1","5","6","1","4","3","4","2","5","5","5","5","6","6","3","3","2","4","5","6","3","7","5","6","6","4","7","7","4","7","6","7","5","4","735455183198490626","张","507","Male","[""好我"",""好他"",""坏他"",""坏我""]","[""强我"",""强他"",""弱他"",""弱我""]","","","","","","","","no","","","","","","","","","SRET","EW_formal","","key","f","4.405208333333273","853.3333333333334","529.3333333333334","自己","虚假","Negative","morality","","","","","","","","","","",""
"656","","f","psychophysics","73","385565","0.0-7.0-3.0-0.59","6","5","6","3","4","5","4","4","5","5","5","1","0","-1","0","1","2","1","1","4","4","5","5","4","5","4","3","4","5","6","5","7","6","5","6","7","6","5","5","7","6","6","7","3","6","1","5","6","1","4","3","4","2","5","5","5","5","6","6","3","3","2","4","5","6","3","7","5","6","6","4","7","7","4","7","6","7","5","4","735455183198490626","张","507","Male","[""好我"",""好他"",""坏他"",""坏我""]","[""强我"",""强他"",""弱他"",""弱我""]","","","","","","","","no","","","","","","","","","SRET","EW_formal","","key","f","4.6100840336135755","853.3333333333334","529.3333333333334","朋友","迂拙","Negative","ability","","","","","","","","","","",""
"798","","j","psychophysics","74","387364","0.0-7.0-3.0-0.60","6","5","6","3","4","5","4","4","5","5","5","1","0","-1","0","1","2","1","1","4","4","5","5","4","5","4","3","4","5","6","5","7","6","5","6","7","6","5","5","7","6","6","7","3","6","1","5","6","1","4","3","4","2","5","5","5","5","6","6","3","3","2","4","5","6","3","7","5","6","6","4","7","7","4","7","6","7","5","4","735455183198490626","张","507","Male","[""好我"",""好他"",""坏他"",""坏我""]","[""强我"",""强他"",""弱他"",""弱我""]","","","","","","","","yes","","","","","","","","","SRET","EW_formal","","key","j","4.5585241730279895","853.3333333333334","529.3333333333334","朋友","谦逊","Positive","morality","","","","","","","","","","",""
"987","","j","psychophysics","75","389352","0.0-7.0-3.0-0.61","6","5","6","3","4","5","4","4","5","5","5","1","0","-1","0","1","2","1","1","4","4","5","5","4","5","4","3","4","5","6","5","7","6","5","6","7","6","5","5","7","6","6","7","3","6","1","5","6","1","4","3","4","2","5","5","5","5","6","6","3","3","2","4","5","6","3","7","5","6","6","4","7","7","4","7","6","7","5","4","735455183198490626","张","507","Male","[""好我"",""好他"",""坏他"",""坏我""]","[""强我"",""强他"",""弱他"",""弱我""]","","","","","","","","yes","","","","","","","","","SRET","EW_formal","","key","j","4.486455981941309","853.3333333333334","529.3333333333334","自己","细心","Positive","ability","","","","","","","","","","",""
"590","","f","psychophysics","76","390943","0.0-7.0-3.0-0.62","6","5","6","3","4","5","4","4","5","5","5","1","0","-1","0","1","2","1","1","4","4","5","5","4","5","4","3","4","5","6","5","7","6","5","6","7","6","5","5","7","6","6","7","3","6","1","5","6","1","4","3","4","2","5","5","5","5","6","6","3","3","2","4","5","6","3","7","5","6","6","4","7","7","4","7","6","7","5","4","735455183198490626","张","507","Male","[""好我"",""好他"",""坏他"",""坏我""]","[""强我"",""强他"",""弱他"",""弱我""]","","","","","","","","no","","","","","","","","","SRET","EW_formal","","key","f","4.768975903614423","853.3333333333334","529.3333333333334","自己","无赖","Negative","morality","","","","","","","","","","",""
"868","","f","psychophysics","77","392812","0.0-7.0-3.0-0.63","6","5","6","3","4","5","4","4","5","5","5","1","0","-1","0","1","2","1","1","4","4","5","5","4","5","4","3","4","5","6","5","7","6","5","6","7","6","5","5","7","6","6","7","3","6","1","5","6","1","4","3","4","2","5","5","5","5","6","6","3","3","2","4","5","6","3","7","5","6","6","4","7","7","4","7","6","7","5","4","735455183198490626","张","507","Male","[""好我"",""好他"",""坏他"",""坏我""]","[""强我"",""强他"",""弱他"",""弱我""]","","","","","","","","no","","","","","","","","","SRET","EW_formal","","key","f","4.597783251231412","853.3333333333334","529.3333333333334","朋友","狡狯","Negative","morality","","","","","","","","","","",""
"779","","j","psychophysics","78","394592","0.0-7.0-3.0-0.64","6","5","6","3","4","5","4","4","5","5","5","1","0","-1","0","1","2","1","1","4","4","5","5","4","5","4","3","4","5","6","5","7","6","5","6","7","6","5","5","7","6","6","7","3","6","1","5","6","1","4","3","4","2","5","5","5","5","6","6","3","3","2","4","5","6","3","7","5","6","6","4","7","7","4","7","6","7","5","4","735455183198490626","张","507","Male","[""好我"",""好他"",""坏他"",""坏我""]","[""强我"",""强他"",""弱他"",""弱我""]","","","","","","","","yes","","","","","","","","","SRET","EW_formal","","key","j","4.438095238095209","853.3333333333334","529.3333333333334","朋友","坚持","Positive","ability","","","","","","","","","","",""
"748","","j","psychophysics","79","396341","0.0-7.0-3.0-0.65","6","5","6","3","4","5","4","4","5","5","5","1","0","-1","0","1","2","1","1","4","4","5","5","4","5","4","3","4","5","6","5","7","6","5","6","7","6","5","5","7","6","6","7","3","6","1","5","6","1","4","3","4","2","5","5","5","5","6","6","3","3","2","4","5","6","3","7","5","6","6","4","7","7","4","7","6","7","5","4","735455183198490626","张","507","Male","[""好我"",""好他"",""坏他"",""坏我""]","[""强我"",""强他"",""弱他"",""弱我""]","","","","","","","","yes","","","","","","","","","SRET","EW_formal","","key","j","4.487917737789173","853.3333333333334","529.3333333333334","自己","骁勇","Positive","ability","","","","","","","","","","",""
"1142","","f","psychophysics","80","398484","0.0-7.0-3.0-0.66","6","5","6","3","4","5","4","4","5","5","5","1","0","-1","0","1","2","1","1","4","4","5","5","4","5","4","3","4","5","6","5","7","6","5","6","7","6","5","5","7","6","6","7","3","6","1","5","6","1","4","3","4","2","5","5","5","5","6","6","3","3","2","4","5","6","3","7","5","6","6","4","7","7","4","7","6","7","5","4","735455183198490626","张","507","Male","[""好我"",""好他"",""坏他"",""坏我""]","[""强我"",""强他"",""弱他"",""弱我""]","","","","","","","","no","","","","","","","","","SRET","EW_formal","","key","f","4.54765957446801","853.3333333333334","529.3333333333334","朋友","怠惰","Negative","ability","","","","","","","","","","",""
"755","","j","psychophysics","81","400241","0.0-7.0-3.0-0.67","6","5","6","3","4","5","4","4","5","5","5","1","0","-1","0","1","2","1","1","4","4","5","5","4","5","4","3","4","5","6","5","7","6","5","6","7","6","5","5","7","6","6","7","3","6","1","5","6","1","4","3","4","2","5","5","5","5","6","6","3","3","2","4","5","6","3","7","5","6","6","4","7","7","4","7","6","7","5","4","735455183198490626","张","507","Male","[""好我"",""好他"",""坏他"",""坏我""]","[""强我"",""强他"",""弱他"",""弱我""]","","","","","","","","yes","","","","","","","","","SRET","EW_formal","","key","j","4.497948717948748","853.3333333333334","529.3333333333334","自己","利落","Positive","ability","","","","","","","","","","",""
"876","","f","psychophysics","82","402119","0.0-7.0-3.0-0.68","6","5","6","3","4","5","4","4","5","5","5","1","0","-1","0","1","2","1","1","4","4","5","5","4","5","4","3","4","5","6","5","7","6","5","6","7","6","5","5","7","6","6","7","3","6","1","5","6","1","4","3","4","2","5","5","5","5","6","6","3","3","2","4","5","6","3","7","5","6","6","4","7","7","4","7","6","7","5","4","735455183198490626","张","507","Male","[""好我"",""好他"",""坏他"",""坏我""]","[""强我"",""强他"",""弱他"",""弱我""]","","","","","","","","no","","","","","","","","","SRET","EW_formal","","key","f","4.595343137254816","853.3333333333334","529.3333333333334","自己","盲目","Negative","ability","","","","","","","","","","",""
"765","","j","psychophysics","83","403885","0.0-7.0-3.0-0.69","6","5","6","3","4","5","4","4","5","5","5","1","0","-1","0","1","2","1","1","4","4","5","5","4","5","4","3","4","5","6","5","7","6","5","6","7","6","5","5","7","6","6","7","3","6","1","5","6","1","4","3","4","2","5","5","5","5","6","6","3","3","2","4","5","6","3","7","5","6","6","4","7","7","4","7","6","7","5","4","735455183198490626","张","507","Male","[""好我"",""好他"",""坏他"",""坏我""]","[""强我"",""强他"",""弱他"",""弱我""]","","","","","","","","yes","","","","","","","","","SRET","EW_formal","","key","j","4.685904255319211","853.3333333333334","529.3333333333334","朋友","高明","Positive","ability","","","","","","","","","","",""
"778","","f","psychophysics","84","405664","0.0-7.0-3.0-0.70","6","5","6","3","4","5","4","4","5","5","5","1","0","-1","0","1","2","1","1","4","4","5","5","4","5","4","3","4","5","6","5","7","6","5","6","7","6","5","5","7","6","6","7","3","6","1","5","6","1","4","3","4","2","5","5","5","5","6","6","3","3","2","4","5","6","3","7","5","6","6","4","7","7","4","7","6","7","5","4","735455183198490626","张","507","Male","[""好我"",""好他"",""坏他"",""坏我""]","[""强我"",""强他"",""弱他"",""弱我""]","","","","","","","","no","","","","","","","","","SRET","EW_formal","","key","f","4.648293963254593","853.3333333333334","529.3333333333334","自己","黑心","Negative","morality","","","","","","","","","","",""
"1010","","j","psychophysics","85","407675","0.0-7.0-3.0-0.71","6","5","6","3","4","5","4","4","5","5","5","1","0","-1","0","1","2","1","1","4","4","5","5","4","5","4","3","4","5","6","5","7","6","5","6","7","6","5","5","7","6","6","7","3","6","1","5","6","1","4","3","4","2","5","5","5","5","6","6","3","3","2","4","5","6","3","7","5","6","6","4","7","7","4","7","6","7","5","4","735455183198490626","张","507","Male","[""好我"",""好他"",""坏他"",""坏我""]","[""强我"",""强他"",""弱他"",""弱我""]","","","","","","","","yes","","","","","","","","","SRET","EW_formal","","key","j","4.472828507795074","853.3333333333334","529.3333333333334","自己","差生","Negative","ability","","","","","","","","","","",""
"810","","j","psychophysics","86","409486","0.0-7.0-3.0-0.72","6","5","6","3","4","5","4","4","5","5","5","1","0","-1","0","1","2","1","1","4","4","5","5","4","5","4","3","4","5","6","5","7","6","5","6","7","6","5","5","7","6","6","7","3","6","1","5","6","1","4","3","4","2","5","5","5","5","6","6","3","3","2","4","5","6","3","7","5","6","6","4","7","7","4","7","6","7","5","4","735455183198490626","张","507","Male","[""好我"",""好他"",""坏他"",""坏我""]","[""强我"",""强他"",""弱他"",""弱我""]","","","","","","","","yes","","","","","","","","","SRET","EW_formal","","key","j","4.5434673366833875","853.3333333333334","529.3333333333334","朋友","仁爱","Positive","morality","","","","","","","","","","",""
"825","","f","psychophysics","87","411312","0.0-7.0-3.0-0.73","6","5","6","3","4","5","4","4","5","5","5","1","0","-1","0","1","2","1","1","4","4","5","5","4","5","4","3","4","5","6","5","7","6","5","6","7","6","5","5","7","6","6","7","3","6","1","5","6","1","4","3","4","2","5","5","5","5","6","6","3","3","2","4","5","6","3","7","5","6","6","4","7","7","4","7","6","7","5","4","735455183198490626","张","507","Male","[""好我"",""好他"",""坏他"",""坏我""]","[""强我"",""强他"",""弱他"",""弱我""]","","","","","","","","no","","","","","","","","","SRET","EW_formal","","key","f","4.610913705583786","853.3333333333334","529.3333333333334","朋友","废物","Negative","ability","","","","","","","","","","",""
"1023","","j","psychophysics","88","413336","0.0-7.0-3.0-0.74","6","5","6","3","4","5","4","4","5","5","5","1","0","-1","0","1","2","1","1","4","4","5","5","4","5","4","3","4","5","6","5","7","6","5","6","7","6","5","5","7","6","6","7","3","6","1","5","6","1","4","3","4","2","5","5","5","5","6","6","3","3","2","4","5","6","3","7","5","6","6","4","7","7","4","7","6","7","5","4","735455183198490626","张","507","Male","[""好我"",""好他"",""坏他"",""坏我""]","[""强我"",""强他"",""弱他"",""弱我""]","","","","","","","","yes","","","","","","","","","SRET","EW_formal","","key","j","4.603189066059199","853.3333333333334","529.3333333333334","自己","慷慨","Positive","morality","","","","","","","","","","",""
"769","","f","psychophysics","89","415106","0.0-7.0-3.0-0.75","6","5","6","3","4","5","4","4","5","5","5","1","0","-1","0","1","2","1","1","4","4","5","5","4","5","4","3","4","5","6","5","7","6","5","6","7","6","5","5","7","6","6","7","3","6","1","5","6","1","4","3","4","2","5","5","5","5","6","6","3","3","2","4","5","6","3","7","5","6","6","4","7","7","4","7","6","7","5","4","735455183198490626","张","507","Male","[""好我"",""好他"",""坏他"",""坏我""]","[""强我"",""强他"",""弱他"",""弱我""]","","","","","","","","no","","","","","","","","","SRET","EW_formal","","key","f","4.553092783505095","853.3333333333334","529.3333333333334","朋友","贪腐","Negative","morality","","","","","","","","","","",""
"736","","f","psychophysics","90","416843","0.0-7.0-3.0-0.76","6","5","6","3","4","5","4","4","5","5","5","1","0","-1","0","1","2","1","1","4","4","5","5","4","5","4","3","4","5","6","5","7","6","5","6","7","6","5","5","7","6","6","7","3","6","1","5","6","1","4","3","4","2","5","5","5","5","6","6","3","3","2","4","5","6","3","7","5","6","6","4","7","7","4","7","6","7","5","4","735455183198490626","张","507","Male","[""好我"",""好他"",""坏他"",""坏我""]","[""强我"",""强他"",""弱他"",""弱我""]","","","","","","","","no","","","","","","","","","SRET","EW_formal","","key","f","4.7100543478260555","853.3333333333334","529.3333333333334","朋友","不良","Negative","morality","","","","","","","","","","",""
"736","","j","psychophysics","91","418580","0.0-7.0-3.0-0.77","6","5","6","3","4","5","4","4","5","5","5","1","0","-1","0","1","2","1","1","4","4","5","5","4","5","4","3","4","5","6","5","7","6","5","6","7","6","5","5","7","6","6","7","3","6","1","5","6","1","4","3","4","2","5","5","5","5","6","6","3","3","2","4","5","6","3","7","5","6","6","4","7","7","4","7","6","7","5","4","735455183198490626","张","507","Male","[""好我"",""好他"",""坏他"",""坏我""]","[""强我"",""强他"",""弱他"",""弱我""]","","","","","","","","yes","","","","","","","","","SRET","EW_formal","","key","j","4.701639344262263","853.3333333333334","529.3333333333334","朋友","稳健","Positive","ability","","","","","","","","","","",""
"788","","j","psychophysics","92","420369","0.0-7.0-3.0-0.78","6","5","6","3","4","5","4","4","5","5","5","1","0","-1","0","1","2","1","1","4","4","5","5","4","5","4","3","4","5","6","5","7","6","5","6","7","6","5","5","7","6","6","7","3","6","1","5","6","1","4","3","4","2","5","5","5","5","6","6","3","3","2","4","5","6","3","7","5","6","6","4","7","7","4","7","6","7","5","4","735455183198490626","张","507","Male","[""好我"",""好他"",""坏他"",""坏我""]","[""强我"",""强他"",""弱他"",""弱我""]","","","","","","","","yes","","","","","","","","","SRET","EW_formal","","key","j","4.37041564792176","853.3333333333334","529.3333333333334","朋友","清廉","Positive","morality","","","","","","","","","","",""
"624","","f","psychophysics","93","421994","0.0-7.0-3.0-0.79","6","5","6","3","4","5","4","4","5","5","5","1","0","-1","0","1","2","1","1","4","4","5","5","4","5","4","3","4","5","6","5","7","6","5","6","7","6","5","5","7","6","6","7","3","6","1","5","6","1","4","3","4","2","5","5","5","5","6","6","3","3","2","4","5","6","3","7","5","6","6","4","7","7","4","7","6","7","5","4","735455183198490626","张","507","Male","[""好我"",""好他"",""坏他"",""坏我""]","[""强我"",""强他"",""弱他"",""弱我""]","","","","","","","","no","","","","","","","","","SRET","EW_formal","","key","f","4.39241192411921","853.3333333333334","529.3333333333334","朋友","卑鄙","Negative","morality","","","","","","","","","","",""
"648","","j","psychophysics","94","423643","0.0-7.0-3.0-0.80","6","5","6","3","4","5","4","4","5","5","5","1","0","-1","0","1","2","1","1","4","4","5","5","4","5","4","3","4","5","6","5","7","6","5","6","7","6","5","5","7","6","6","7","3","6","1","5","6","1","4","3","4","2","5","5","5","5","6","6","3","3","2","4","5","6","3","7","5","6","6","4","7","7","4","7","6","7","5","4","735455183198490626","张","507","Male","[""好我"",""好他"",""坏他"",""坏我""]","[""强我"",""强他"",""弱他"",""弱我""]","","","","","","","","yes","","","","","","","","","SRET","EW_formal","","key","j","4.703724928366696","853.3333333333334","529.3333333333334","自己","廉明","Positive","morality","","","","","","","","","","",""
"758","","f","psychophysics","95","425402","0.0-7.0-3.0-0.81","6","5","6","3","4","5","4","4","5","5","5","1","0","-1","0","1","2","1","1","4","4","5","5","4","5","4","3","4","5","6","5","7","6","5","6","7","6","5","5","7","6","6","7","3","6","1","5","6","1","4","3","4","2","5","5","5","5","6","6","3","3","2","4","5","6","3","7","5","6","6","4","7","7","4","7","6","7","5","4","735455183198490626","张","507","Male","[""好我"",""好他"",""坏他"",""坏我""]","[""强我"",""强他"",""弱他"",""弱我""]","","","","","","","","no","","","","","","","","","SRET","EW_formal","","key","f","4.941408450704258","853.3333333333334","529.3333333333334","朋友","愚痴","Negative","ability","","","","","","","","","","",""
"1054","","j","psychophysics","96","427458","0.0-7.0-3.0-0.82","6","5","6","3","4","5","4","4","5","5","5","1","0","-1","0","1","2","1","1","4","4","5","5","4","5","4","3","4","5","6","5","7","6","5","6","7","6","5","5","7","6","6","7","3","6","1","5","6","1","4","3","4","2","5","5","5","5","6","6","3","3","2","4","5","6","3","7","5","6","6","4","7","7","4","7","6","7","5","4","735455183198490626","张","507","Male","[""好我"",""好他"",""坏他"",""坏我""]","[""强我"",""强他"",""弱他"",""弱我""]","","","","","","","","yes","","","","","","","","","SRET","EW_formal","","key","j","4.680365296803653","853.3333333333334","529.3333333333334","朋友","外行","Negative","ability","","","","","","","","","","",""
"957","","j","psychophysics","97","429417","0.0-7.0-3.0-0.83","6","5","6","3","4","5","4","4","5","5","5","1","0","-1","0","1","2","1","1","4","4","5","5","4","5","4","3","4","5","6","5","7","6","5","6","7","6","5","5","7","6","6","7","3","6","1","5","6","1","4","3","4","2","5","5","5","5","6","6","3","3","2","4","5","6","3","7","5","6","6","4","7","7","4","7","6","7","5","4","735455183198490626","张","507","Male","[""好我"",""好他"",""坏他"",""坏我""]","[""强我"",""强他"",""弱他"",""弱我""]","","","","","","","","yes","","","","","","","","","SRET","EW_formal","","key","j","4.719806763285024","853.3333333333334","529.3333333333334","自己","高洁","Positive","morality","","","","","","","","","","",""
"868","","f","psychophysics","98","431285","0.0-7.0-3.0-0.84","6","5","6","3","4","5","4","4","5","5","5","1","0","-1","0","1","2","1","1","4","4","5","5","4","5","4","3","4","5","6","5","7","6","5","6","7","6","5","5","7","6","6","7","3","6","1","5","6","1","4","3","4","2","5","5","5","5","6","6","3","3","2","4","5","6","3","7","5","6","6","4","7","7","4","7","6","7","5","4","735455183198490626","张","507","Male","[""好我"",""好他"",""坏他"",""坏我""]","[""强我"",""强他"",""弱他"",""弱我""]","","","","","","","","no","","","","","","","","","SRET","EW_formal","","key","f","4.773913043478201","853.3333333333334","529.3333333333334","自己","缓慢","Negative","ability","","","","","","","","","","",""
"835","","f","psychophysics","99","433121","0.0-7.0-3.0-0.85","6","5","6","3","4","5","4","4","5","5","5","1","0","-1","0","1","2","1","1","4","4","5","5","4","5","4","3","4","5","6","5","7","6","5","6","7","6","5","5","7","6","6","7","3","6","1","5","6","1","4","3","4","2","5","5","5","5","6","6","3","3","2","4","5","6","3","7","5","6","6","4","7","7","4","7","6","7","5","4","735455183198490626","张","507","Male","[""好我"",""好他"",""坏他"",""坏我""]","[""强我"",""强他"",""弱他"",""弱我""]","","","","","","","","no","","","","","","","","","SRET","EW_formal","","key","f","4.607304785894295","853.3333333333334","529.3333333333334","朋友","低俗","Negative","morality","","","","","","","","","","",""
"625","","j","psychophysics","100","434746","0.0-7.0-3.0-0.86","6","5","6","3","4","5","4","4","5","5","5","1","0","-1","0","1","2","1","1","4","4","5","5","4","5","4","3","4","5","6","5","7","6","5","6","7","6","5","5","7","6","6","7","3","6","1","5","6","1","4","3","4","2","5","5","5","5","6","6","3","3","2","4","5","6","3","7","5","6","6","4","7","7","4","7","6","7","5","4","735455183198490626","张","507","Male","[""好我"",""好他"",""坏他"",""坏我""]","[""强我"",""强他"",""弱他"",""弱我""]","","","","","","","","yes","","","","","","","","","SRET","EW_formal","","key","j","4.452747252747221","853.3333333333334","529.3333333333334","自己","主见","Positive","ability","","","","","","","","","","",""
"678","","j","psychophysics","101","436425","0.0-7.0-3.0-0.87","6","5","6","3","4","5","4","4","5","5","5","1","0","-1","0","1","2","1","1","4","4","5","5","4","5","4","3","4","5","6","5","7","6","5","6","7","6","5","5","7","6","6","7","3","6","1","5","6","1","4","3","4","2","5","5","5","5","6","6","3","3","2","4","5","6","3","7","5","6","6","4","7","7","4","7","6","7","5","4","735455183198490626","张","507","Male","[""好我"",""好他"",""坏他"",""坏我""]","[""强我"",""强他"",""弱他"",""弱我""]","","","","","","","","yes","","","","","","","","","SRET","EW_formal","","key","j","4.69187675070028","853.3333333333334","529.3333333333334","朋友","素养","Positive","morality","","","","","","","","","","",""
"13105","
    <p><div style='color:white;font-size:35px; line-height:20px;'>计算任务</div></p><br>
    <p><div style='color:red;font-size:25px; line-height:20px;'>接下来，您将看到一些四则运算题，<b>请从键盘选择 0-9 进行反应。</b></div></p>
    <p><div style='color:red;font-size:25px; line-height:20px;'>请尽可能快地进行计算，计算的速度和正确率将影响报酬的发放。</div></p>
    <p><div class='footer' style='color:white;font-size:25px; line-height:20px;'>如果对本实验还有不清楚之处，请立即向实验员咨询。</p><p style='color:white;font-size:25px; line-height:20px;'>如果您明白了规则：</p><p style='color:white;font-size:22px; line-height:20px;'>请按 继续 进入练习</p>
    </div>
    ","0","html-button-response","102","449531","0.0-7.0-4.0","6","5","6","3","4","5","4","4","5","5","5","1","0","-1","0","1","2","1","1","4","4","5","5","4","5","4","3","4","5","6","5","7","6","5","6","7","6","5","5","7","6","6","7","3","6","1","5","6","1","4","3","4","2","5","5","5","5","6","6","3","3","2","4","5","6","3","7","5","6","6","4","7","7","4","7","6","7","5","4","735455183198490626","张","507","Male","[""好我"",""好他"",""坏他"",""坏我""]","[""强我"",""强他"",""弱他"",""弱我""]","","","","","","","","","","","","","","","","","SRET_math","math_instructions","Mon Jan 29 2024 13:47:58 GMT+0800 (中国标准时间)","","","","","","","","","","","","","","","","","","","",""
"2343","","7","psychophysics","103","451875","0.0-7.0-5.0-0.0","6","5","6","3","4","5","4","4","5","5","5","1","0","-1","0","1","2","1","1","4","4","5","5","4","5","4","3","4","5","6","5","7","6","5","6","7","6","5","5","7","6","6","7","3","6","1","5","6","1","4","3","4","2","5","5","5","5","6","6","3","3","2","4","5","6","3","7","5","6","6","4","7","7","4","7","6","7","5","4","735455183198490626","张","507","Male","[""好我"",""好他"",""坏他"",""坏我""]","[""强我"",""强他"",""弱他"",""弱我""]","","","","","","","","7","","","","","","","","","SRET","SRET_math_calculate","","key","7","4.74028340080974","853.3333333333334","529.3333333333334","","","","","3+4= ?","7","1","","","","","","","",""
"2318","","3","psychophysics","104","454199","0.0-7.0-5.0-0.1","6","5","6","3","4","5","4","4","5","5","5","1","0","-1","0","1","2","1","1","4","4","5","5","4","5","4","3","4","5","6","5","7","6","5","6","7","6","5","5","7","6","6","7","3","6","1","5","6","1","4","3","4","2","5","5","5","5","6","6","3","3","2","4","5","6","3","7","5","6","6","4","7","7","4","7","6","7","5","4","735455183198490626","张","507","Male","[""好我"",""好他"",""坏他"",""坏我""]","[""强我"",""强他"",""弱他"",""弱我""]","","","","","","","","3","","","","","","","","","SRET","SRET_math_calculate","","key","3","4.614741035856527","853.3333333333334","529.3333333333334","","","","","9-6= ?","3","1","","","","","","","",""
"2587","","8","psychophysics","105","456786","0.0-7.0-5.0-0.2","6","5","6","3","4","5","4","4","5","5","5","1","0","-1","0","1","2","1","1","4","4","5","5","4","5","4","3","4","5","6","5","7","6","5","6","7","6","5","5","7","6","6","7","3","6","1","5","6","1","4","3","4","2","5","5","5","5","6","6","3","3","2","4","5","6","3","7","5","6","6","4","7","7","4","7","6","7","5","4","735455183198490626","张","507","Male","[""好我"",""好他"",""坏他"",""坏我""]","[""强我"",""强他"",""弱他"",""弱我""]","","","","","","","","8","","","","","","","","","SRET","SRET_math_calculate","","key","8","4.671247739602191","853.3333333333334","529.3333333333334","","","","","6+2= ?","8","1","","","","","","","",""
"2201","","2","psychophysics","106","458988","0.0-7.0-5.0-0.3","6","5","6","3","4","5","4","4","5","5","5","1","0","-1","0","1","2","1","1","4","4","5","5","4","5","4","3","4","5","6","5","7","6","5","6","7","6","5","5","7","6","6","7","3","6","1","5","6","1","4","3","4","2","5","5","5","5","6","6","3","3","2","4","5","6","3","7","5","6","6","4","7","7","4","7","6","7","5","4","735455183198490626","张","507","Male","[""好我"",""好他"",""坏他"",""坏我""]","[""强我"",""强他"",""弱他"",""弱我""]","","","","","","","","2","","","","","","","","","SRET","SRET_math_calculate","","key","2","4.436161616161546","853.3333333333334","529.3333333333334","","","","","8-6= ?","2","1","","","","","","","",""
"2318","","6","psychophysics","107","461312","0.0-7.0-5.0-0.4","6","5","6","3","4","5","4","4","5","5","5","1","0","-1","0","1","2","1","1","4","4","5","5","4","5","4","3","4","5","6","5","7","6","5","6","7","6","5","5","7","6","6","7","3","6","1","5","6","1","4","3","4","2","5","5","5","5","6","6","3","3","2","4","5","6","3","7","5","6","6","4","7","7","4","7","6","7","5","4","735455183198490626","张","507","Male","[""好我"",""好他"",""坏他"",""坏我""]","[""强我"",""强他"",""弱他"",""弱我""]","","","","","","","","6","","","","","","","","","SRET","SRET_math_calculate","","key","6","4.632335329341294","853.3333333333334","529.3333333333334","","","","","4+2= ?","6","1","","","","","","","",""
"1879","","6","psychophysics","108","463192","0.0-7.0-5.0-0.5","6","5","6","3","4","5","4","4","5","5","5","1","0","-1","0","1","2","1","1","4","4","5","5","4","5","4","3","4","5","6","5","7","6","5","6","7","6","5","5","7","6","6","7","3","6","1","5","6","1","4","3","4","2","5","5","5","5","6","6","3","3","2","4","5","6","3","7","5","6","6","4","7","7","4","7","6","7","5","4","735455183198490626","张","507","Male","[""好我"",""好他"",""坏他"",""坏我""]","[""强我"",""强他"",""弱他"",""弱我""]","","","","","","","","6","","","","","","","","","SRET","SRET_math_calculate","","key","6","4.606633906633964","853.3333333333334","529.3333333333334","","","","","3+3= ?","6","1","","","","","","","",""
"2919","","3","psychophysics","109","466111","0.0-7.0-5.0-0.6","6","5","6","3","4","5","4","4","5","5","5","1","0","-1","0","1","2","1","1","4","4","5","5","4","5","4","3","4","5","6","5","7","6","5","6","7","6","5","5","7","6","6","7","3","6","1","5","6","1","4","3","4","2","5","5","5","5","6","6","3","3","2","4","5","6","3","7","5","6","6","4","7","7","4","7","6","7","5","4","735455183198490626","张","507","Male","[""好我"",""好他"",""坏他"",""坏我""]","[""强我"",""强他"",""弱他"",""弱我""]","","","","","","","","3","","","","","","","","","SRET","SRET_math_calculate","","key","3","4.535925349922294","853.3333333333334","529.3333333333334","","","","","21/7=  ?","3","1","","","","","","","",""
"2308","","8","psychophysics","110","468419","0.0-7.0-5.0-0.7","6","5","6","3","4","5","4","4","5","5","5","1","0","-1","0","1","2","1","1","4","4","5","5","4","5","4","3","4","5","6","5","7","6","5","6","7","6","5","5","7","6","6","7","3","6","1","5","6","1","4","3","4","2","5","5","5","5","6","6","3","3","2","4","5","6","3","7","5","6","6","4","7","7","4","7","6","7","5","4","735455183198490626","张","507","Male","[""好我"",""好他"",""坏他"",""坏我""]","[""强我"",""强他"",""弱他"",""弱我""]","","","","","","","","8","","","","","","","","","SRET","SRET_math_calculate","","key","8","4.760743801652796","853.3333333333334","529.3333333333334","","","","","4+4= ?","8","1","","","","","","","",""
"2233","","3","psychophysics","111","470654","0.0-7.0-5.0-0.8","6","5","6","3","4","5","4","4","5","5","5","1","0","-1","0","1","2","1","1","4","4","5","5","4","5","4","3","4","5","6","5","7","6","5","6","7","6","5","5","7","6","6","7","3","6","1","5","6","1","4","3","4","2","5","5","5","5","6","6","3","3","2","4","5","6","3","7","5","6","6","4","7","7","4","7","6","7","5","4","735455183198490626","张","507","Male","[""好我"",""好他"",""坏他"",""坏我""]","[""强我"",""强他"",""弱他"",""弱我""]","","","","","","","","3","","","","","","","","","SRET","SRET_math_calculate","","key","3","4.624481327800829","853.3333333333334","529.3333333333334","","","","","11-8= ?","3","1","","","","","","","",""
"2244","","6","psychophysics","112","472898","0.0-7.0-5.0-0.9","6","5","6","3","4","5","4","4","5","5","5","1","0","-1","0","1","2","1","1","4","4","5","5","4","5","4","3","4","5","6","5","7","6","5","6","7","6","5","5","7","6","6","7","3","6","1","5","6","1","4","3","4","2","5","5","5","5","6","6","3","3","2","4","5","6","3","7","5","6","6","4","7","7","4","7","6","7","5","4","735455183198490626","张","507","Male","[""好我"",""好他"",""坏他"",""坏我""]","[""强我"",""强他"",""弱他"",""弱我""]","","","","","","","","6","","","","","","","","","SRET","SRET_math_calculate","","key","6","4.852380952381053","853.3333333333334","529.3333333333334","","","","","5+1= ?","6","1","","","","","","","",""
"1927","","3","psychophysics","113","474832","0.0-7.0-5.0-0.10","6","5","6","3","4","5","4","4","5","5","5","1","0","-1","0","1","2","1","1","4","4","5","5","4","5","4","3","4","5","6","5","7","6","5","6","7","6","5","5","7","6","6","7","3","6","1","5","6","1","4","3","4","2","5","5","5","5","6","6","3","3","2","4","5","6","3","7","5","6","6","4","7","7","4","7","6","7","5","4","735455183198490626","张","507","Male","[""好我"",""好他"",""坏他"",""坏我""]","[""强我"",""强他"",""弱他"",""弱我""]","","","","","","","","3","","","","","","","","","SRET","SRET_math_calculate","","key","3","4.670944309927305","853.3333333333334","529.3333333333334","","","","","2+1= ?","3","1","","","","","","","",""
"2131","","9","psychophysics","114","476963","0.0-7.0-5.0-0.11","6","5","6","3","4","5","4","4","5","5","5","1","0","-1","0","1","2","1","1","4","4","5","5","4","5","4","3","4","5","6","5","7","6","5","6","7","6","5","5","7","6","6","7","3","6","1","5","6","1","4","3","4","2","5","5","5","5","6","6","3","3","2","4","5","6","3","7","5","6","6","4","7","7","4","7","6","7","5","4","735455183198490626","张","507","Male","[""好我"",""好他"",""坏他"",""坏我""]","[""强我"",""强他"",""弱他"",""弱我""]","","","","","","","","9","","","","","","","","","SRET","SRET_math_calculate","","key","9","4.619565217391305","853.3333333333334","529.3333333333334","","","","","1+8= ?","9","1","","","","","","","",""
"4870","","2","psychophysics","115","481834","0.0-7.0-5.0-0.12","6","5","6","3","4","5","4","4","5","5","5","1","0","-1","0","1","2","1","1","4","4","5","5","4","5","4","3","4","5","6","5","7","6","5","6","7","6","5","5","7","6","6","7","3","6","1","5","6","1","4","3","4","2","5","5","5","5","6","6","3","3","2","4","5","6","3","7","5","6","6","4","7","7","4","7","6","7","5","4","735455183198490626","张","507","Male","[""好我"",""好他"",""坏他"",""坏我""]","[""强我"",""强他"",""弱他"",""弱我""]","","","","","","","","2","","","","","","","","","SRET","SRET_math_calculate","","key","2","4.6340648854961835","853.3333333333334","529.3333333333334","","","","","19-17= ?","2","1","","","","","","","",""
"3197","","7","psychophysics","116","485032","0.0-7.0-5.0-0.13","6","5","6","3","4","5","4","4","5","5","5","1","0","-1","0","1","2","1","1","4","4","5","5","4","5","4","3","4","5","6","5","7","6","5","6","7","6","5","5","7","6","6","7","3","6","1","5","6","1","4","3","4","2","5","5","5","5","6","6","3","3","2","4","5","6","3","7","5","6","6","4","7","7","4","7","6","7","5","4","735455183198490626","张","507","Male","[""好我"",""好他"",""坏他"",""坏我""]","[""强我"",""强他"",""弱他"",""弱我""]","","","","","","","","7","","","","","","","","","SRET","SRET_math_calculate","","key","7","4.559428571428621","853.3333333333334","529.3333333333334","","","","","11-4= ?","7","1","","","","","","","",""
"2410","","5","psychophysics","117","487443","0.0-7.0-5.0-0.14","6","5","6","3","4","5","4","4","5","5","5","1","0","-1","0","1","2","1","1","4","4","5","5","4","5","4","3","4","5","6","5","7","6","5","6","7","6","5","5","7","6","6","7","3","6","1","5","6","1","4","3","4","2","5","5","5","5","6","6","3","3","2","4","5","6","3","7","5","6","6","4","7","7","4","7","6","7","5","4","735455183198490626","张","507","Male","[""好我"",""好他"",""坏他"",""坏我""]","[""强我"",""强他"",""弱他"",""弱我""]","","","","","","","","5","","","","","","","","","SRET","SRET_math_calculate","","key","5","4.587786259541985","853.3333333333334","529.3333333333334","","","","","8-3= ? ","5","1","","","","","","","",""
"2096","","7","psychophysics","118","489544","0.0-7.0-5.0-0.15","6","5","6","3","4","5","4","4","5","5","5","1","0","-1","0","1","2","1","1","4","4","5","5","4","5","4","3","4","5","6","5","7","6","5","6","7","6","5","5","7","6","6","7","3","6","1","5","6","1","4","3","4","2","5","5","5","5","6","6","3","3","2","4","5","6","3","7","5","6","6","4","7","7","4","7","6","7","5","4","735455183198490626","张","507","Male","[""好我"",""好他"",""坏他"",""坏我""]","[""强我"",""强他"",""弱他"",""弱我""]","","","","","","","","7","","","","","","","","","SRET","SRET_math_calculate","","key","7","4.565217391304348","853.3333333333334","529.3333333333334","","","","","1+6= ?","7","1","","","","","","","",""
"2433","","8","psychophysics","119","491978","0.0-7.0-5.0-0.16","6","5","6","3","4","5","4","4","5","5","5","1","0","-1","0","1","2","1","1","4","4","5","5","4","5","4","3","4","5","6","5","7","6","5","6","7","6","5","5","7","6","6","7","3","6","1","5","6","1","4","3","4","2","5","5","5","5","6","6","3","3","2","4","5","6","3","7","5","6","6","4","7","7","4","7","6","7","5","4","735455183198490626","张","507","Male","[""好我"",""好他"",""坏他"",""坏我""]","[""强我"",""强他"",""弱他"",""弱我""]","","","","","","","","8","","","","","","","","","SRET","SRET_math_calculate","","key","8","4.540560747663573","853.3333333333334","529.3333333333334","","","","","3+5= ?","8","1","","","","","","","",""
"2676","","3","psychophysics","120","494656","0.0-7.0-5.0-0.17","6","5","6","3","4","5","4","4","5","5","5","1","0","-1","0","1","2","1","1","4","4","5","5","4","5","4","3","4","5","6","5","7","6","5","6","7","6","5","5","7","6","6","7","3","6","1","5","6","1","4","3","4","2","5","5","5","5","6","6","3","3","2","4","5","6","3","7","5","6","6","4","7","7","4","7","6","7","5","4","735455183198490626","张","507","Male","[""好我"",""好他"",""坏他"",""坏我""]","[""强我"",""强他"",""弱他"",""弱我""]","","","","","","","","3","","","","","","","","","SRET","SRET_math_calculate","","key","3","4.786379928315391","853.3333333333334","529.3333333333334","","","","","6/2= ?","3","1","","","","","","","",""
"4220","","4","psychophysics","121","498881","0.0-7.0-5.0-0.18","6","5","6","3","4","5","4","4","5","5","5","1","0","-1","0","1","2","1","1","4","4","5","5","4","5","4","3","4","5","6","5","7","6","5","6","7","6","5","5","7","6","6","7","3","6","1","5","6","1","4","3","4","2","5","5","5","5","6","6","3","3","2","4","5","6","3","7","5","6","6","4","7","7","4","7","6","7","5","4","735455183198490626","张","507","Male","[""好我"",""好他"",""坏他"",""坏我""]","[""强我"",""强他"",""弱他"",""弱我""]","","","","","","","","4","","","","","","","","","SRET","SRET_math_calculate","","key","4","4.60239651416122","853.3333333333334","529.3333333333334","","","","","13-9= ?","4","1","","","","","","","",""
"2971","","8","psychophysics","122","501853","0.0-7.0-5.0-0.19","6","5","6","3","4","5","4","4","5","5","5","1","0","-1","0","1","2","1","1","4","4","5","5","4","5","4","3","4","5","6","5","7","6","5","6","7","6","5","5","7","6","6","7","3","6","1","5","6","1","4","3","4","2","5","5","5","5","6","6","3","3","2","4","5","6","3","7","5","6","6","4","7","7","4","7","6","7","5","4","735455183198490626","张","507","Male","[""好我"",""好他"",""坏他"",""坏我""]","[""强我"",""强他"",""弱他"",""弱我""]","","","","","","","","8","","","","","","","","","SRET","SRET_math_calculate","","key","8","4.578086419753141","853.3333333333334","529.3333333333334","","","","","4*2= ?","8","1","","","","","","","",""
"2397","","0","psychophysics","123","504251","0.0-7.0-5.0-0.20","6","5","6","3","4","5","4","4","5","5","5","1","0","-1","0","1","2","1","1","4","4","5","5","4","5","4","3","4","5","6","5","7","6","5","6","7","6","5","5","7","6","6","7","3","6","1","5","6","1","4","3","4","2","5","5","5","5","6","6","3","3","2","4","5","6","3","7","5","6","6","4","7","7","4","7","6","7","5","4","735455183198490626","张","507","Male","[""好我"",""好他"",""坏他"",""坏我""]","[""强我"",""强他"",""弱他"",""弱我""]","","","","","","","","0","","","","","","","","","SRET","SRET_math_calculate","","key","0","4.513043478260804","853.3333333333334","529.3333333333334","","","","","1-1= ?","0","1","","","","","","","",""
"2774","","9","psychophysics","124","507026","0.0-7.0-5.0-0.21","6","5","6","3","4","5","4","4","5","5","5","1","0","-1","0","1","2","1","1","4","4","5","5","4","5","4","3","4","5","6","5","7","6","5","6","7","6","5","5","7","6","6","7","3","6","1","5","6","1","4","3","4","2","5","5","5","5","6","6","3","3","2","4","5","6","3","7","5","6","6","4","7","7","4","7","6","7","5","4","735455183198490626","张","507","Male","[""好我"",""好他"",""坏他"",""坏我""]","[""强我"",""强他"",""弱他"",""弱我""]","","","","","","","","9","","","","","","","","","SRET","SRET_math_calculate","","key","9","4.804347826086956","853.3333333333334","529.3333333333334","","","","","3+6= ?","9","1","","","","","","","",""
"1953","","9","psychophysics","125","508984","0.0-7.0-5.0-0.22","6","5","6","3","4","5","4","4","5","5","5","1","0","-1","0","1","2","1","1","4","4","5","5","4","5","4","3","4","5","6","5","7","6","5","6","7","6","5","5","7","6","6","7","3","6","1","5","6","1","4","3","4","2","5","5","5","5","6","6","3","3","2","4","5","6","3","7","5","6","6","4","7","7","4","7","6","7","5","4","735455183198490626","张","507","Male","[""好我"",""好他"",""坏他"",""坏我""]","[""强我"",""强他"",""弱他"",""弱我""]","","","","","","","","9","","","","","","","","","SRET","SRET_math_calculate","","key","9","4.421040723981847","853.3333333333334","529.3333333333334","","","","","4+5= ?","9","1","","","","","","","",""
"2549","","5","psychophysics","126","511539","0.0-7.0-5.0-0.23","6","5","6","3","4","5","4","4","5","5","5","1","0","-1","0","1","2","1","1","4","4","5","5","4","5","4","3","4","5","6","5","7","6","5","6","7","6","5","5","7","6","6","7","3","6","1","5","6","1","4","3","4","2","5","5","5","5","6","6","3","3","2","4","5","6","3","7","5","6","6","4","7","7","4","7","6","7","5","4","735455183198490626","张","507","Male","[""好我"",""好他"",""坏他"",""坏我""]","[""强我"",""强他"",""弱他"",""弱我""]","","","","","","","","5","","","","","","","","","SRET","SRET_math_calculate","","key","5","4.537188612099685","853.3333333333334","529.3333333333334","","","","","10-5= ?","5","1","","","","","","","",""
"3398","","5","psychophysics","127","514943","0.0-7.0-5.0-0.24","6","5","6","3","4","5","4","4","5","5","5","1","0","-1","0","1","2","1","1","4","4","5","5","4","5","4","3","4","5","6","5","7","6","5","6","7","6","5","5","7","6","6","7","3","6","1","5","6","1","4","3","4","2","5","5","5","5","6","6","3","3","2","4","5","6","3","7","5","6","6","4","7","7","4","7","6","7","5","4","735455183198490626","张","507","Male","[""好我"",""好他"",""坏他"",""坏我""]","[""强我"",""强他"",""弱他"",""弱我""]","","","","","","","","5","","","","","","","","","SRET","SRET_math_calculate","","key","5","4.619565217391305","853.3333333333334","529.3333333333334","","","","","14-9= ?","5","1","","","","","","","",""
"2098","","9","psychophysics","128","517042","0.0-7.0-5.0-0.25","6","5","6","3","4","5","4","4","5","5","5","1","0","-1","0","1","2","1","1","4","4","5","5","4","5","4","3","4","5","6","5","7","6","5","6","7","6","5","5","7","6","6","7","3","6","1","5","6","1","4","3","4","2","5","5","5","5","6","6","3","3","2","4","5","6","3","7","5","6","6","4","7","7","4","7","6","7","5","4","735455183198490626","张","507","Male","[""好我"",""好他"",""坏他"",""坏我""]","[""强我"",""强他"",""弱他"",""弱我""]","","","","","","","","9","","","","","","","","","SRET","SRET_math_calculate","","key","9","4.556862745097988","853.3333333333334","529.3333333333334","","","","","8+1= ?","9","1","","","","","","","",""
"1744","","9","psychophysics","129","518787","0.0-7.0-5.0-0.26","6","5","6","3","4","5","4","4","5","5","5","1","0","-1","0","1","2","1","1","4","4","5","5","4","5","4","3","4","5","6","5","7","6","5","6","7","6","5","5","7","6","6","7","3","6","1","5","6","1","4","3","4","2","5","5","5","5","6","6","3","3","2","4","5","6","3","7","5","6","6","4","7","7","4","7","6","7","5","4","735455183198490626","张","507","Male","[""好我"",""好他"",""坏他"",""坏我""]","[""强我"",""强他"",""弱他"",""弱我""]","","","","","","","","9","","","","","","","","","SRET","SRET_math_calculate","","key","9","4.878151260504202","853.3333333333334","529.3333333333334","","","","","5+4= ?","9","1","","","","","","","",""
"2562","","0","psychophysics","130","521354","0.0-7.0-5.0-0.27","6","5","6","3","4","5","4","4","5","5","5","1","0","-1","0","1","2","1","1","4","4","5","5","4","5","4","3","4","5","6","5","7","6","5","6","7","6","5","5","7","6","6","7","3","6","1","5","6","1","4","3","4","2","5","5","5","5","6","6","3","3","2","4","5","6","3","7","5","6","6","4","7","7","4","7","6","7","5","4","735455183198490626","张","507","Male","[""好我"",""好他"",""坏他"",""坏我""]","[""强我"",""强他"",""弱他"",""弱我""]","","","","","","","","0","","","","","","","","","SRET","SRET_math_calculate","","key","0","4.608633093525117","853.3333333333334","529.3333333333334","","","","","6*0= ?","0","1","","","","","","","",""
"2288","","9","psychophysics","131","523643","0.0-7.0-5.0-0.28","6","5","6","3","4","5","4","4","5","5","5","1","0","-1","0","1","2","1","1","4","4","5","5","4","5","4","3","4","5","6","5","7","6","5","6","7","6","5","5","7","6","6","7","3","6","1","5","6","1","4","3","4","2","5","5","5","5","6","6","3","3","2","4","5","6","3","7","5","6","6","4","7","7","4","7","6","7","5","4","735455183198490626","张","507","Male","[""好我"",""好他"",""坏他"",""坏我""]","[""强我"",""强他"",""弱他"",""弱我""]","","","","","","","","9","","","","","","","","","SRET","SRET_math_calculate","","key","9","4.631440162271663","853.3333333333334","529.3333333333334","","","","","3*3= ?","9","1","","","","","","","",""
"2727","","6","psychophysics","132","526376","0.0-7.0-5.0-0.29","6","5","6","3","4","5","4","4","5","5","5","1","0","-1","0","1","2","1","1","4","4","5","5","4","5","4","3","4","5","6","5","7","6","5","6","7","6","5","5","7","6","6","7","3","6","1","5","6","1","4","3","4","2","5","5","5","5","6","6","3","3","2","4","5","6","3","7","5","6","6","4","7","7","4","7","6","7","5","4","735455183198490626","张","507","Male","[""好我"",""好他"",""坏他"",""坏我""]","[""强我"",""强他"",""弱他"",""弱我""]","","","","","","","","6","","","","","","","","","SRET","SRET_math_calculate","","key","6","4.6099662162161765","853.3333333333334","529.3333333333334","","","","","2*3= ?","6","1","","","","","","","",""
"2206","","5","psychophysics","133","528588","0.0-7.0-5.0-0.30","6","5","6","3","4","5","4","4","5","5","5","1","0","-1","0","1","2","1","1","4","4","5","5","4","5","4","3","4","5","6","5","7","6","5","6","7","6","5","5","7","6","6","7","3","6","1","5","6","1","4","3","4","2","5","5","5","5","6","6","3","3","2","4","5","6","3","7","5","6","6","4","7","7","4","7","6","7","5","4","735455183198490626","张","507","Male","[""好我"",""好他"",""坏他"",""坏我""]","[""强我"",""强他"",""弱他"",""弱我""]","","","","","","","","5","","","","","","","","","SRET","SRET_math_calculate","","key","5","4.470040485830101","853.3333333333334","529.3333333333334","","","","","8-4= ?","4","0","","","","","","","",""
"2720","","3","psychophysics","134","531309","0.0-7.0-5.0-0.31","6","5","6","3","4","5","4","4","5","5","5","1","0","-1","0","1","2","1","1","4","4","5","5","4","5","4","3","4","5","6","5","7","6","5","6","7","6","5","5","7","6","6","7","3","6","1","5","6","1","4","3","4","2","5","5","5","5","6","6","3","3","2","4","5","6","3","7","5","6","6","4","7","7","4","7","6","7","5","4","735455183198490626","张","507","Male","[""好我"",""好他"",""坏他"",""坏我""]","[""强我"",""强他"",""弱他"",""弱我""]","","","","","","","","3","","","","","","","","","SRET","SRET_math_calculate","","key","3","4.558221476510185","853.3333333333334","529.3333333333334","","","","","3+0= ?","3","1","","","","","","","",""
"4204","","5","psychophysics","135","535513","0.0-7.0-5.0-0.32","6","5","6","3","4","5","4","4","5","5","5","1","0","-1","0","1","2","1","1","4","4","5","5","4","5","4","3","4","5","6","5","7","6","5","6","7","6","5","5","7","6","6","7","3","6","1","5","6","1","4","3","4","2","5","5","5","5","6","6","3","3","2","4","5","6","3","7","5","6","6","4","7","7","4","7","6","7","5","4","735455183198490626","张","507","Male","[""好我"",""好他"",""坏他"",""坏我""]","[""强我"",""强他"",""弱他"",""弱我""]","","","","","","","","5","","","","","","","","","SRET","SRET_math_calculate","","key","5","4.682812500000052","853.3333333333334","529.3333333333334","","","","","12-7= ?","5","1","","","","","","","",""
"3294","","7","psychophysics","136","538809","0.0-7.0-5.0-0.33","6","5","6","3","4","5","4","4","5","5","5","1","0","-1","0","1","2","1","1","4","4","5","5","4","5","4","3","4","5","6","5","7","6","5","6","7","6","5","5","7","6","6","7","3","6","1","5","6","1","4","3","4","2","5","5","5","5","6","6","3","3","2","4","5","6","3","7","5","6","6","4","7","7","4","7","6","7","5","4","735455183198490626","张","507","Male","[""好我"",""好他"",""坏他"",""坏我""]","[""强我"",""强他"",""弱他"",""弱我""]","","","","","","","","7","","","","","","","","","SRET","SRET_math_calculate","","key","7","4.478367346938744","853.3333333333334","529.3333333333334","","","","","13-6= ?","7","1","","","","","","","",""
"2384","","3","psychophysics","137","541198","0.0-7.0-5.0-0.34","6","5","6","3","4","5","4","4","5","5","5","1","0","-1","0","1","2","1","1","4","4","5","5","4","5","4","3","4","5","6","5","7","6","5","6","7","6","5","5","7","6","6","7","3","6","1","5","6","1","4","3","4","2","5","5","5","5","6","6","3","3","2","4","5","6","3","7","5","6","6","4","7","7","4","7","6","7","5","4","735455183198490626","张","507","Male","[""好我"",""好他"",""坏他"",""坏我""]","[""强我"",""强他"",""弱他"",""弱我""]","","","","","","","","3","","","","","","","","","SRET","SRET_math_calculate","","key","3","4.530360531309298","853.3333333333334","529.3333333333334","","","","","8-5= ?","3","1","","","","","","","",""
