"rt","stimulus","response","trial_type","trial_index","time_elapsed","internal_node_id","swb_1","swb_2","swb_3","swb_4","swb_5","LOT_1","LOT_2","LOT_3","LOT_4","LOT_5","LOT_6","IPC_1","IPC_2","IPC_3","IPC_4","IPC_5","IPC_6","IPC_7","IPC_8","MorIden_1","MorIden_2","MorIden_3","MorIden_4","MorIden_5","MorIden_6","MorIden_7","MorIden_8","MorIden_9","MorIden_10","moralSeImag_1","moralSeImag_2","moralSeImag_3","moralSeImag_4","moralSeImag_5","moralSeImag_6","moralSeImag_7","moralSeImag_8","moralSeImag_9","sde_1","sde_2","sde_3","sde_4","sde_5","sde_6","sde_7","sde_8","sde_9","sde_10","trap2","sde_11","sde_12","sde_13","sde_14","sde_15","sde_16","sde_17","sde_18","sde_19","sde_20","IM_1","IM_2","IM_3","IM_4","IM_5","IM_6","IM_7","IM_8","IM_9","IM_10","IM_11","IM_12","IM_13","IM_14","IM_15","IM_16","IM_17","IM_18","IM_19","IM_20","subj_idx","friend_name","ParticipantID","Sex","Word","Word2","value","success","timeout","failed_images","failed_audio","failed_video","user_agent","responses","item_order","radio_event_ids","radio_event_times","key_event_times","mouse_event_times","straightlining","zigzagging","honeypot","view_history","response_type","key_press","avg_frame_time","center_x","center_y","correct_response","correct","identity","Image","word","condition","task_id","screen_id","time_stamp","person","valence","domain","math","status","duration","question_order","trap2_item"
"5088","
   <p><div style='color:white; font-size: 25px'>您好，欢迎参加本次实验。</div></p>
   <p><div style='color:white; font-size: 25px'>为充分保障您的权利，请确保您已经知晓并同意《参与实验同意书》以及《数据公开知情同意书》。</div></p>
   <p><div style='color:white; font-size: 25px'>如果您未见过上述内容，请咨询实验员。</div></p>
   <p style='color:white; font-size: 25px'>如果您选择继续实验，则表示您已经清楚两份知情同意书的内容并同意。</p>
   <p><div style = ""color: pink;font-size:30px;"">请确保您记得day0的实验编号，您将在本次实验输入该编号，若您忘记，请咨询实验员后作答。</div></p>
   <p><div style = ""color:lightblue;font-size:25px;"">请您尽可能认真地作答，我们将依据您在各问卷和按键任务中的作答质量发放报酬。</div></p>
   <p> <div style = ""color: green""><按空格键至下页></div> </p>
   "," ","html-keyboard-response","0","5092","0.0-0.0","6","5","7","5","7","5","5","4","4","5","5","-3","-1","0","0","-3","2","1","2","4","5","4","5","4","5","4","5","4","5","5","5","4","5","4","4","4","4","5","5","2","6","5","5","3","6","2","4","3","1","5","2","5","2","3","6","5","4","5","4","3","6","6","5","3","6","5","5","7","6","5","7","5","5","6","6","5","5","3","6","793060622811144193","林","691","Male","[""坏他"",""好我"",""好他"",""坏我""]","[""弱他"",""强我"",""强他"",""弱我""]","","","","","","","","","","","","","","","","","","","","","","","","","","","","","","","","","","","","","","",""
"","","","call-function","1","5095","0.0-1.0-0.0","6","5","7","5","7","5","5","4","4","5","5","-3","-1","0","0","-3","2","1","2","4","5","4","5","4","5","4","5","4","5","5","5","4","5","4","4","4","4","5","5","2","6","5","5","3","6","2","4","3","1","5","2","5","2","3","6","5","4","5","4","3","6","6","5","3","6","5","5","7","6","5","7","5","5","6","6","5","5","3","6","793060622811144193","林","691","Male","[""坏他"",""好我"",""好他"",""坏我""]","[""弱他"",""强我"",""强他"",""弱我""]","","","","","","","","","","","","","","","","","","","","","","","","","","","","","","","","","","","","","","",""
"41865","","[{""name"":""Sex"",""value"":""0""},{""name"":""friend_name"",""value"":""林""},{""name"":""ParticipantID"",""value"":""691""}]","survey-html-form","2","46963","0.0-1.0-1.0","6","5","7","5","7","5","5","4","4","5","5","-3","-1","0","0","-3","2","1","2","4","5","4","5","4","5","4","5","4","5","5","5","4","5","4","4","4","4","5","5","2","6","5","5","3","6","2","4","3","1","5","2","5","2","3","6","5","4","5","4","3","6","6","5","3","6","5","5","7","6","5","7","5","5","6","6","5","5","3","6","793060622811144193","林","691","Male","[""坏他"",""好我"",""好他"",""坏我""]","[""弱他"",""强我"",""强他"",""弱我""]","","","","","","","","","","","","","","","","","","","","","","","","","","","","","","","","","","","","","","",""
"","","","preload","3","47721","0.0-2.0","6","5","7","5","7","5","5","4","4","5","5","-3","-1","0","0","-3","2","1","2","4","5","4","5","4","5","4","5","4","5","5","5","4","5","4","4","4","4","5","5","2","6","5","5","3","6","2","4","3","1","5","2","5","2","3","6","5","4","5","4","3","6","6","5","3","6","5","5","7","6","5","7","5","5","6","6","5","5","3","6","793060622811144193","林","691","Male","[""坏他"",""好我"",""好他"",""坏我""]","[""弱他"",""强我"",""强他"",""弱我""]","","true","false","[]","[]","[]","","","","","","","","","","","","","","","","","","","","","","","","","","","","","","","","",""
"","","","fullscreen","4","48892","0.0-3.0","6","5","7","5","7","5","5","4","4","5","5","-3","-1","0","0","-3","2","1","2","4","5","4","5","4","5","4","5","4","5","5","5","4","5","4","4","4","4","5","5","2","6","5","5","3","6","2","4","3","1","5","2","5","2","3","6","5","4","5","4","3","6","6","5","3","6","5","5","7","6","5","7","5","5","6","6","5","5","3","6","793060622811144193","林","691","Male","[""坏他"",""好我"",""好他"",""坏我""]","[""弱他"",""强我"",""强他"",""弱我""]","","true","","","","","{}","","","","","","","","","","","","","","","","","","","","","","","","","","","","","","","",""
"44723.40000000596","","{""Q01"":""6"",""Q02"":""5"",""Q03"":""7"",""Q04"":""5"",""Q05"":""7""}","survey-template","5","93623","0.0-4.0","6","5","7","5","7","5","5","4","4","5","5","-3","-1","0","0","-3","2","1","2","4","5","4","5","4","5","4","5","4","5","5","5","4","5","4","4","4","4","5","5","2","6","5","5","3","6","2","4","3","1","5","2","5","2","3","6","5","4","5","4","3","6","6","5","3","6","5","5","7","6","5","7","5","5","6","6","5","5","3","6","793060622811144193","林","691","Male","[""坏他"",""好我"",""好他"",""坏我""]","[""弱他"",""强我"",""强他"",""弱我""]","","","","","","","","{""Q01"":""6"",""Q02"":""5"",""Q03"":""7"",""Q04"":""5"",""Q05"":""7""}","[0,1,2,3,4]","[""Q01"",""Q02"",""Q03"",""Q04"",""Q05""]","[22471.40000000596,24135.5,25223.5,27271.70000000298,28743.70000000298]","[]","[22471.40000000596,24135.5,25223.5,27271.70000000298,28743.70000000298,44719.5]","0.4","0.25","0","","","","","","","","","","","","","","","","","","","","","","",""
"16150.89999999851","","{""Q01"":""5"",""Q02"":""5"",""Q03"":""4"",""Q04"":""4"",""Q05"":""5"",""Q06"":""5""}","survey-template","6","109789","0.0-5.0","6","5","7","5","7","5","5","4","4","5","5","-3","-1","0","0","-3","2","1","2","4","5","4","5","4","5","4","5","4","5","5","5","4","5","4","4","4","4","5","5","2","6","5","5","3","6","2","4","3","1","5","2","5","2","3","6","5","4","5","4","3","6","6","5","3","6","5","5","7","6","5","7","5","5","6","6","5","5","3","6","793060622811144193","林","691","Male","[""坏他"",""好我"",""好他"",""坏我""]","[""弱他"",""强我"",""强他"",""弱我""]","","","","","","","","{""Q01"":""5"",""Q02"":""5"",""Q03"":""4"",""Q04"":""4"",""Q05"":""5"",""Q06"":""5""}","[0,1,2,3,4,5]","[""Q01"",""Q02"",""Q03"",""Q04"",""Q05"",""Q06""]","[3036.1999999955297,5068.19999999553,5940.0999999940395,8156,9363.19999999553,10731.89999999851]","[]","[3036.1999999955297,4484.29999999702,5068.19999999553,5940.0999999940395,8156,9363.19999999553,10731.89999999851,16148.39999999851]","0.3333333333333333","0.6","0","","","","","","","","","","","","","","","","","","","","","","",""
"27508","","{""Q01"":""-3"",""Q02"":""-1"",""Q03"":""0"",""Q04"":""0"",""Q05"":""-3"",""Q06"":""2"",""Q07"":""1"",""Q08"":""2""}","survey-template","7","137311","0.0-6.0","6","5","7","5","7","5","5","4","4","5","5","-3","-1","0","0","-3","2","1","2","4","5","4","5","4","5","4","5","4","5","5","5","4","5","4","4","4","4","5","5","2","6","5","5","3","6","2","4","3","1","5","2","5","2","3","6","5","4","5","4","3","6","6","5","3","6","5","5","7","6","5","7","5","5","6","6","5","5","3","6","793060622811144193","林","691","Male","[""坏他"",""好我"",""好他"",""坏我""]","[""弱他"",""强我"",""强他"",""弱我""]","","","","","","","","{""Q01"":""-3"",""Q02"":""-1"",""Q03"":""0"",""Q04"":""0"",""Q05"":""-3"",""Q06"":""2"",""Q07"":""1"",""Q08"":""2""}","[0,1,2,3,4,5,6,7]","[""Q01"",""Q02"",""Q03"",""Q04"",""Q05"",""Q06"",""Q07"",""Q08""]","[2664.60000000149,4552.89999999851,6696.69999999553,8776.60000000149,9704.60000000149,11200.39999999851,12760.39999999851,13728.29999999702]","[]","[2664.60000000149,4552.89999999851,6696.69999999553,8776.60000000149,9704.60000000149,11200.39999999851,12760.39999999851,13728.29999999702,27504.5]","0.25","0.5714285714285714","0","","","","","","","","","","","","","","","","","","","","","","",""
"17249","","","instructions","8","154570","0.0-7.0","6","5","7","5","7","5","5","4","4","5","5","-3","-1","0","0","-3","2","1","2","4","5","4","5","4","5","4","5","4","5","5","5","4","5","4","4","4","4","5","5","2","6","5","5","3","6","2","4","3","1","5","2","5","2","3","6","5","4","5","4","3","6","6","5","3","6","5","5","7","6","5","7","5","5","6","6","5","5","3","6","793060622811144193","林","691","Male","[""坏他"",""好我"",""好他"",""坏我""]","[""弱他"",""强我"",""强他"",""弱我""]","","","","","","","","","","","","","","","","","[{""page_index"":0,""viewing_time"":17248}]","","","","","","","","","","","","","","","","","","","","","",""
"46458","","","instructions","9","201034","0.0-8.0-1.0-0.0","6","5","7","5","7","5","5","4","4","5","5","-3","-1","0","0","-3","2","1","2","4","5","4","5","4","5","4","5","4","5","5","5","4","5","4","4","4","4","5","5","2","6","5","5","3","6","2","4","3","1","5","2","5","2","3","6","5","4","5","4","3","6","6","5","3","6","5","5","7","6","5","7","5","5","6","6","5","5","3","6","793060622811144193","林","691","Male","[""坏他"",""好我"",""好他"",""坏我""]","[""弱他"",""强我"",""强他"",""弱我""]","","","","","","","","","","","","","","","","","[{""page_index"":0,""viewing_time"":1442},{""page_index"":1,""viewing_time"":43032},{""page_index"":2,""viewing_time"":1000},{""page_index"":3,""viewing_time"":984}]","","","","","","","","","","","","","","","","","","","","","",""
"1142","","j","psychophysics","10","203189","0.0-8.0-1.0-1.0-0.0-0.0","6","5","7","5","7","5","5","4","4","5","5","-3","-1","0","0","-3","2","1","2","4","5","4","5","4","5","4","5","4","5","5","5","4","5","4","4","4","4","5","5","2","6","5","5","3","6","2","4","3","1","5","2","5","2","3","6","5","4","5","4","3","6","6","5","3","6","5","5","7","6","5","7","5","5","6","6","5","5","3","6","793060622811144193","林","691","Male","[""坏他"",""好我"",""好他"",""坏我""]","[""弱他"",""强我"",""强他"",""弱我""]","","","","","","","","match","","","","","","","","","","key","j","17.34404065040635","683","380","f","false","nonmatch","img/circle.png","强我","弱我","prac_ALT2_ability","practice_ability","","","","","","","","",""
"null","<span style='color:red; font-size: 70px;'>错误! </span>","null","html-keyboard-response","11","203693","0.0-8.0-1.0-1.0-0.0-1.0","6","5","7","5","7","5","5","4","4","5","5","-3","-1","0","0","-3","2","1","2","4","5","4","5","4","5","4","5","4","5","5","5","4","5","4","4","4","4","5","5","2","6","5","5","3","6","2","4","3","1","5","2","5","2","3","6","5","4","5","4","3","6","6","5","3","6","5","5","7","6","5","7","5","5","6","6","5","5","3","6","793060622811144193","林","691","Male","[""坏他"",""好我"",""好他"",""坏我""]","[""弱他"",""强我"",""强他"",""弱我""]","","","","","","","","","","","","","","","","","","","","","","","","","","","","","","feedback_test","","","","","","","","",""
"925","","f","psychophysics","12","205624","0.0-8.0-1.0-1.0-0.0-0.1","6","5","7","5","7","5","5","4","4","5","5","-3","-1","0","0","-3","2","1","2","4","5","4","5","4","5","4","5","4","5","5","5","4","5","4","4","4","4","5","5","2","6","5","5","3","6","2","4","3","1","5","2","5","2","3","6","5","4","5","4","3","6","6","5","3","6","5","5","7","6","5","7","5","5","6","6","5","5","3","6","793060622811144193","林","691","Male","[""坏他"",""好我"",""好他"",""坏我""]","[""弱他"",""强我"",""强他"",""弱我""]","","","","","","","","nonmatch","","","","","","","","","","key","f","16.659304347826147","683","380","f","true","nonmatch","img/hexagon.png","强我","强他","prac_ALT2_ability","practice_ability","","","","","","","","",""
"null","<span style='color:GreenYellow; font-size: 70px;'>正确! </span>","null","html-keyboard-response","13","206125","0.0-8.0-1.0-1.0-0.0-1.1","6","5","7","5","7","5","5","4","4","5","5","-3","-1","0","0","-3","2","1","2","4","5","4","5","4","5","4","5","4","5","5","5","4","5","4","4","4","4","5","5","2","6","5","5","3","6","2","4","3","1","5","2","5","2","3","6","5","4","5","4","3","6","6","5","3","6","5","5","7","6","5","7","5","5","6","6","5","5","3","6","793060622811144193","林","691","Male","[""坏他"",""好我"",""好他"",""坏我""]","[""弱他"",""强我"",""强他"",""弱我""]","","","","","","","","","","","","","","","","","","","","","","","","","","","","","","feedback_test","","","","","","","","",""
"null","","null","psychophysics","14","208334","0.0-8.0-1.0-1.0-0.0-0.2","6","5","7","5","7","5","5","4","4","5","5","-3","-1","0","0","-3","2","1","2","4","5","4","5","4","5","4","5","4","5","5","5","4","5","4","4","4","4","5","5","2","6","5","5","3","6","2","4","3","1","5","2","5","2","3","6","5","4","5","4","3","6","6","5","3","6","5","5","7","6","5","7","5","5","6","6","5","5","3","6","793060622811144193","林","691","Male","[""坏他"",""好我"",""好他"",""坏我""]","[""弱他"",""强我"",""强他"",""弱我""]","","","","","","","","null","","","","","","","","","","key","null","16.787684615384652","683","380","j","false","match","img/hexagon.png","强他","强他","prac_ALT2_ability","practice_ability","","","","","","","","",""
"null","<span class='add_' style='color:yellow; font-size: 70px;'> 太慢! </span>","null","html-keyboard-response","15","208836","0.0-8.0-1.0-1.0-0.0-1.2","6","5","7","5","7","5","5","4","4","5","5","-3","-1","0","0","-3","2","1","2","4","5","4","5","4","5","4","5","4","5","5","5","4","5","4","4","4","4","5","5","2","6","5","5","3","6","2","4","3","1","5","2","5","2","3","6","5","4","5","4","3","6","6","5","3","6","5","5","7","6","5","7","5","5","6","6","5","5","3","6","793060622811144193","林","691","Male","[""坏他"",""好我"",""好他"",""坏我""]","[""弱他"",""强我"",""强他"",""弱我""]","","","","","","","","","","","","","","","","","","","","","","","","","","","","","","feedback_test","","","","","","","","",""
"790","","f","psychophysics","16","210635","0.0-8.0-1.0-1.0-0.0-0.3","6","5","7","5","7","5","5","4","4","5","5","-3","-1","0","0","-3","2","1","2","4","5","4","5","4","5","4","5","4","5","5","5","4","5","4","4","4","4","5","5","2","6","5","5","3","6","2","4","3","1","5","2","5","2","3","6","5","4","5","4","3","6","6","5","3","6","5","5","7","6","5","7","5","5","6","6","5","5","3","6","793060622811144193","林","691","Male","[""坏他"",""好我"",""好他"",""坏我""]","[""弱他"",""强我"",""强他"",""弱我""]","","","","","","","","nonmatch","","","","","","","","","","key","f","16.661367924528125","683","380","f","true","nonmatch","img/hexagon.png","弱我","强他","prac_ALT2_ability","practice_ability","","","","","","","","",""
"null","<span style='color:GreenYellow; font-size: 70px;'>正确! </span>","null","html-keyboard-response","17","211141","0.0-8.0-1.0-1.0-0.0-1.3","6","5","7","5","7","5","5","4","4","5","5","-3","-1","0","0","-3","2","1","2","4","5","4","5","4","5","4","5","4","5","5","5","4","5","4","4","4","4","5","5","2","6","5","5","3","6","2","4","3","1","5","2","5","2","3","6","5","4","5","4","3","6","6","5","3","6","5","5","7","6","5","7","5","5","6","6","5","5","3","6","793060622811144193","林","691","Male","[""坏他"",""好我"",""好他"",""坏我""]","[""弱他"",""强我"",""强他"",""弱我""]","","","","","","","","","","","","","","","","","","","","","","","","","","","","","","feedback_test","","","","","","","","",""
"885","","j","psychophysics","18","213035","0.0-8.0-1.0-1.0-0.0-0.4","6","5","7","5","7","5","5","4","4","5","5","-3","-1","0","0","-3","2","1","2","4","5","4","5","4","5","4","5","4","5","5","5","4","5","4","4","4","4","5","5","2","6","5","5","3","6","2","4","3","1","5","2","5","2","3","6","5","4","5","4","3","6","6","5","3","6","5","5","7","6","5","7","5","5","6","6","5","5","3","6","793060622811144193","林","691","Male","[""坏他"",""好我"",""好他"",""坏我""]","[""弱他"",""强我"",""强他"",""弱我""]","","","","","","","","match","","","","","","","","","","key","j","16.669535714285562","683","380","j","true","match","img/triangle.png","强我","强我","prac_ALT2_ability","practice_ability","","","","","","","","",""
"null","<span style='color:GreenYellow; font-size: 70px;'>正确! </span>","null","html-keyboard-response","19","213541","0.0-8.0-1.0-1.0-0.0-1.4","6","5","7","5","7","5","5","4","4","5","5","-3","-1","0","0","-3","2","1","2","4","5","4","5","4","5","4","5","4","5","5","5","4","5","4","4","4","4","5","5","2","6","5","5","3","6","2","4","3","1","5","2","5","2","3","6","5","4","5","4","3","6","6","5","3","6","5","5","7","6","5","7","5","5","6","6","5","5","3","6","793060622811144193","林","691","Male","[""坏他"",""好我"",""好他"",""坏我""]","[""弱他"",""强我"",""强他"",""弱我""]","","","","","","","","","","","","","","","","","","","","","","","","","","","","","","feedback_test","","","","","","","","",""
"1164","","f","psychophysics","20","215712","0.0-8.0-1.0-1.0-0.0-0.5","6","5","7","5","7","5","5","4","4","5","5","-3","-1","0","0","-3","2","1","2","4","5","4","5","4","5","4","5","4","5","5","5","4","5","4","4","4","4","5","5","2","6","5","5","3","6","2","4","3","1","5","2","5","2","3","6","5","4","5","4","3","6","6","5","3","6","5","5","7","6","5","7","5","5","6","6","5","5","3","6","793060622811144193","林","691","Male","[""坏他"",""好我"",""好他"",""坏我""]","[""弱他"",""强我"",""强他"",""弱我""]","","","","","","","","nonmatch","","","","","","","","","","key","f","16.66945736434098","683","380","j","false","match","img/square.png","弱他","弱他","prac_ALT2_ability","practice_ability","","","","","","","","",""
"null","<span style='color:red; font-size: 70px;'>错误! </span>","null","html-keyboard-response","21","216221","0.0-8.0-1.0-1.0-0.0-1.5","6","5","7","5","7","5","5","4","4","5","5","-3","-1","0","0","-3","2","1","2","4","5","4","5","4","5","4","5","4","5","5","5","4","5","4","4","4","4","5","5","2","6","5","5","3","6","2","4","3","1","5","2","5","2","3","6","5","4","5","4","3","6","6","5","3","6","5","5","7","6","5","7","5","5","6","6","5","5","3","6","793060622811144193","林","691","Male","[""坏他"",""好我"",""好他"",""坏我""]","[""弱他"",""强我"",""强他"",""弱我""]","","","","","","","","","","","","","","","","","","","","","","","","","","","","","","feedback_test","","","","","","","","",""
"1179","","j","psychophysics","22","218408","0.0-8.0-1.0-1.0-0.0-0.6","6","5","7","5","7","5","5","4","4","5","5","-3","-1","0","0","-3","2","1","2","4","5","4","5","4","5","4","5","4","5","5","5","4","5","4","4","4","4","5","5","2","6","5","5","3","6","2","4","3","1","5","2","5","2","3","6","5","4","5","4","3","6","6","5","3","6","5","5","7","6","5","7","5","5","6","6","5","5","3","6","793060622811144193","林","691","Male","[""坏他"",""好我"",""好他"",""坏我""]","[""弱他"",""强我"",""强他"",""弱我""]","","","","","","","","match","","","","","","","","","","key","j","16.669753846153842","683","380","f","false","nonmatch","img/triangle.png","弱我","强我","prac_ALT2_ability","practice_ability","","","","","","","","",""
"null","<span style='color:red; font-size: 70px;'>错误! </span>","null","html-keyboard-response","23","218909","0.0-8.0-1.0-1.0-0.0-1.6","6","5","7","5","7","5","5","4","4","5","5","-3","-1","0","0","-3","2","1","2","4","5","4","5","4","5","4","5","4","5","5","5","4","5","4","4","4","4","5","5","2","6","5","5","3","6","2","4","3","1","5","2","5","2","3","6","5","4","5","4","3","6","6","5","3","6","5","5","7","6","5","7","5","5","6","6","5","5","3","6","793060622811144193","林","691","Male","[""坏他"",""好我"",""好他"",""坏我""]","[""弱他"",""强我"",""强他"",""弱我""]","","","","","","","","","","","","","","","","","","","","","","","","","","","","","","feedback_test","","","","","","","","",""
"1057","","f","psychophysics","24","220976","0.0-8.0-1.0-1.0-0.0-0.7","6","5","7","5","7","5","5","4","4","5","5","-3","-1","0","0","-3","2","1","2","4","5","4","5","4","5","4","5","4","5","5","5","4","5","4","4","4","4","5","5","2","6","5","5","3","6","2","4","3","1","5","2","5","2","3","6","5","4","5","4","3","6","6","5","3","6","5","5","7","6","5","7","5","5","6","6","5","5","3","6","793060622811144193","林","691","Male","[""坏他"",""好我"",""好他"",""坏我""]","[""弱他"",""强我"",""强他"",""弱我""]","","","","","","","","nonmatch","","","","","","","","","","key","f","16.662414634146213","683","380","f","true","nonmatch","img/hexagon.png","弱他","强他","prac_ALT2_ability","practice_ability","","","","","","","","",""
"null","<span style='color:GreenYellow; font-size: 70px;'>正确! </span>","null","html-keyboard-response","25","221477","0.0-8.0-1.0-1.0-0.0-1.7","6","5","7","5","7","5","5","4","4","5","5","-3","-1","0","0","-3","2","1","2","4","5","4","5","4","5","4","5","4","5","5","5","4","5","4","4","4","4","5","5","2","6","5","5","3","6","2","4","3","1","5","2","5","2","3","6","5","4","5","4","3","6","6","5","3","6","5","5","7","6","5","7","5","5","6","6","5","5","3","6","793060622811144193","林","691","Male","[""坏他"",""好我"",""好他"",""坏我""]","[""弱他"",""强我"",""强他"",""弱我""]","","","","","","","","","","","","","","","","","","","","","","","","","","","","","","feedback_test","","","","","","","","",""
"770","","j","psychophysics","26","223256","0.0-8.0-1.0-1.0-0.0-0.8","6","5","7","5","7","5","5","4","4","5","5","-3","-1","0","0","-3","2","1","2","4","5","4","5","4","5","4","5","4","5","5","5","4","5","4","4","4","4","5","5","2","6","5","5","3","6","2","4","3","1","5","2","5","2","3","6","5","4","5","4","3","6","6","5","3","6","5","5","7","6","5","7","5","5","6","6","5","5","3","6","793060622811144193","林","691","Male","[""坏他"",""好我"",""好他"",""坏我""]","[""弱他"",""强我"",""强他"",""弱我""]","","","","","","","","match","","","","","","","","","","key","j","16.66426415094323","683","380","j","true","match","img/hexagon.png","强他","强他","prac_ALT2_ability","practice_ability","","","","","","","","",""
"null","<span style='color:GreenYellow; font-size: 70px;'>正确! </span>","null","html-keyboard-response","27","223757","0.0-8.0-1.0-1.0-0.0-1.8","6","5","7","5","7","5","5","4","4","5","5","-3","-1","0","0","-3","2","1","2","4","5","4","5","4","5","4","5","4","5","5","5","4","5","4","4","4","4","5","5","2","6","5","5","3","6","2","4","3","1","5","2","5","2","3","6","5","4","5","4","3","6","6","5","3","6","5","5","7","6","5","7","5","5","6","6","5","5","3","6","793060622811144193","林","691","Male","[""坏他"",""好我"",""好他"",""坏我""]","[""弱他"",""强我"",""强他"",""弱我""]","","","","","","","","","","","","","","","","","","","","","","","","","","","","","","feedback_test","","","","","","","","",""
"898","","j","psychophysics","28","225664","0.0-8.0-1.0-1.0-0.0-0.9","6","5","7","5","7","5","5","4","4","5","5","-3","-1","0","0","-3","2","1","2","4","5","4","5","4","5","4","5","4","5","5","5","4","5","4","4","4","4","5","5","2","6","5","5","3","6","2","4","3","1","5","2","5","2","3","6","5","4","5","4","3","6","6","5","3","6","5","5","7","6","5","7","5","5","6","6","5","5","3","6","793060622811144193","林","691","Male","[""坏他"",""好我"",""好他"",""坏我""]","[""弱他"",""强我"",""强他"",""弱我""]","","","","","","","","match","","","","","","","","","","key","j","16.664752212389367","683","380","j","true","match","img/square.png","弱他","弱他","prac_ALT2_ability","practice_ability","","","","","","","","",""
"null","<span style='color:GreenYellow; font-size: 70px;'>正确! </span>","null","html-keyboard-response","29","226173","0.0-8.0-1.0-1.0-0.0-1.9","6","5","7","5","7","5","5","4","4","5","5","-3","-1","0","0","-3","2","1","2","4","5","4","5","4","5","4","5","4","5","5","5","4","5","4","4","4","4","5","5","2","6","5","5","3","6","2","4","3","1","5","2","5","2","3","6","5","4","5","4","3","6","6","5","3","6","5","5","7","6","5","7","5","5","6","6","5","5","3","6","793060622811144193","林","691","Male","[""坏他"",""好我"",""好他"",""坏我""]","[""弱他"",""强我"",""强他"",""弱我""]","","","","","","","","","","","","","","","","","","","","","","","","","","","","","","feedback_test","","","","","","","","",""
"1123","","f","psychophysics","30","228305","0.0-8.0-1.0-1.0-0.0-0.10","6","5","7","5","7","5","5","4","4","5","5","-3","-1","0","0","-3","2","1","2","4","5","4","5","4","5","4","5","4","5","5","5","4","5","4","4","4","4","5","5","2","6","5","5","3","6","2","4","3","1","5","2","5","2","3","6","5","4","5","4","3","6","6","5","3","6","5","5","7","6","5","7","5","5","6","6","5","5","3","6","793060622811144193","林","691","Male","[""坏他"",""好我"",""好他"",""坏我""]","[""弱他"",""强我"",""强他"",""弱我""]","","","","","","","","nonmatch","","","","","","","","","","key","f","16.668724409448703","683","380","f","true","nonmatch","img/square.png","强他","弱他","prac_ALT2_ability","practice_ability","","","","","","","","",""
"null","<span style='color:GreenYellow; font-size: 70px;'>正确! </span>","null","html-keyboard-response","31","228813","0.0-8.0-1.0-1.0-0.0-1.10","6","5","7","5","7","5","5","4","4","5","5","-3","-1","0","0","-3","2","1","2","4","5","4","5","4","5","4","5","4","5","5","5","4","5","4","4","4","4","5","5","2","6","5","5","3","6","2","4","3","1","5","2","5","2","3","6","5","4","5","4","3","6","6","5","3","6","5","5","7","6","5","7","5","5","6","6","5","5","3","6","793060622811144193","林","691","Male","[""坏他"",""好我"",""好他"",""坏我""]","[""弱他"",""强我"",""强他"",""弱我""]","","","","","","","","","","","","","","","","","","","","","","","","","","","","","","feedback_test","","","","","","","","",""
"1069","","f","psychophysics","32","230888","0.0-8.0-1.0-1.0-0.0-0.11","6","5","7","5","7","5","5","4","4","5","5","-3","-1","0","0","-3","2","1","2","4","5","4","5","4","5","4","5","4","5","5","5","4","5","4","4","4","4","5","5","2","6","5","5","3","6","2","4","3","1","5","2","5","2","3","6","5","4","5","4","3","6","6","5","3","6","5","5","7","6","5","7","5","5","6","6","5","5","3","6","793060622811144193","林","691","Male","[""坏他"",""好我"",""好他"",""坏我""]","[""弱他"",""强我"",""强他"",""弱我""]","","","","","","","","nonmatch","","","","","","","","","","key","f","16.65863709677421","683","380","f","true","nonmatch","img/triangle.png","强他","强我","prac_ALT2_ability","practice_ability","","","","","","","","",""
"null","<span style='color:GreenYellow; font-size: 70px;'>正确! </span>","null","html-keyboard-response","33","231389","0.0-8.0-1.0-1.0-0.0-1.11","6","5","7","5","7","5","5","4","4","5","5","-3","-1","0","0","-3","2","1","2","4","5","4","5","4","5","4","5","4","5","5","5","4","5","4","4","4","4","5","5","2","6","5","5","3","6","2","4","3","1","5","2","5","2","3","6","5","4","5","4","3","6","6","5","3","6","5","5","7","6","5","7","5","5","6","6","5","5","3","6","793060622811144193","林","691","Male","[""坏他"",""好我"",""好他"",""坏我""]","[""弱他"",""强我"",""强他"",""弱我""]","","","","","","","","","","","","","","","","","","","","","","","","","","","","","","feedback_test","","","","","","","","",""
"1100","","f","psychophysics","34","233497","0.0-8.0-1.0-1.0-0.0-0.12","6","5","7","5","7","5","5","4","4","5","5","-3","-1","0","0","-3","2","1","2","4","5","4","5","4","5","4","5","4","5","5","5","4","5","4","4","4","4","5","5","2","6","5","5","3","6","2","4","3","1","5","2","5","2","3","6","5","4","5","4","3","6","6","5","3","6","5","5","7","6","5","7","5","5","6","6","5","5","3","6","793060622811144193","林","691","Male","[""坏他"",""好我"",""好他"",""坏我""]","[""弱他"",""强我"",""强他"",""弱我""]","","","","","","","","nonmatch","","","","","","","","","","key","f","16.674263999999965","683","380","f","true","nonmatch","img/square.png","强我","弱他","prac_ALT2_ability","practice_ability","","","","","","","","",""
"null","<span style='color:GreenYellow; font-size: 70px;'>正确! </span>","null","html-keyboard-response","35","234005","0.0-8.0-1.0-1.0-0.0-1.12","6","5","7","5","7","5","5","4","4","5","5","-3","-1","0","0","-3","2","1","2","4","5","4","5","4","5","4","5","4","5","5","5","4","5","4","4","4","4","5","5","2","6","5","5","3","6","2","4","3","1","5","2","5","2","3","6","5","4","5","4","3","6","6","5","3","6","5","5","7","6","5","7","5","5","6","6","5","5","3","6","793060622811144193","林","691","Male","[""坏他"",""好我"",""好他"",""坏我""]","[""弱他"",""强我"",""强他"",""弱我""]","","","","","","","","","","","","","","","","","","","","","","","","","","","","","","feedback_test","","","","","","","","",""
"1125","","j","psychophysics","36","236137","0.0-8.0-1.0-1.0-0.0-0.13","6","5","7","5","7","5","5","4","4","5","5","-3","-1","0","0","-3","2","1","2","4","5","4","5","4","5","4","5","4","5","5","5","4","5","4","4","4","4","5","5","2","6","5","5","3","6","2","4","3","1","5","2","5","2","3","6","5","4","5","4","3","6","6","5","3","6","5","5","7","6","5","7","5","5","6","6","5","5","3","6","793060622811144193","林","691","Male","[""坏他"",""好我"",""好他"",""坏我""]","[""弱他"",""强我"",""强他"",""弱我""]","","","","","","","","match","","","","","","","","","","key","j","16.65885039370078","683","380","j","true","match","img/circle.png","弱我","弱我","prac_ALT2_ability","practice_ability","","","","","","","","",""
"null","<span style='color:GreenYellow; font-size: 70px;'>正确! </span>","null","html-keyboard-response","37","236645","0.0-8.0-1.0-1.0-0.0-1.13","6","5","7","5","7","5","5","4","4","5","5","-3","-1","0","0","-3","2","1","2","4","5","4","5","4","5","4","5","4","5","5","5","4","5","4","4","4","4","5","5","2","6","5","5","3","6","2","4","3","1","5","2","5","2","3","6","5","4","5","4","3","6","6","5","3","6","5","5","7","6","5","7","5","5","6","6","5","5","3","6","793060622811144193","林","691","Male","[""坏他"",""好我"",""好他"",""坏我""]","[""弱他"",""强我"",""强他"",""弱我""]","","","","","","","","","","","","","","","","","","","","","","","","","","","","","","feedback_test","","","","","","","","",""
"1134","","j","psychophysics","38","238787","0.0-8.0-1.0-1.0-0.0-0.14","6","5","7","5","7","5","5","4","4","5","5","-3","-1","0","0","-3","2","1","2","4","5","4","5","4","5","4","5","4","5","5","5","4","5","4","4","4","4","5","5","2","6","5","5","3","6","2","4","3","1","5","2","5","2","3","6","5","4","5","4","3","6","6","5","3","6","5","5","7","6","5","7","5","5","6","6","5","5","3","6","793060622811144193","林","691","Male","[""坏他"",""好我"",""好他"",""坏我""]","[""弱他"",""强我"",""强他"",""弱我""]","","","","","","","","match","","","","","","","","","","key","j","16.663664062499947","683","380","j","true","match","img/triangle.png","强我","强我","prac_ALT2_ability","practice_ability","","","","","","","","",""
"null","<span style='color:GreenYellow; font-size: 70px;'>正确! </span>","null","html-keyboard-response","39","239293","0.0-8.0-1.0-1.0-0.0-1.14","6","5","7","5","7","5","5","4","4","5","5","-3","-1","0","0","-3","2","1","2","4","5","4","5","4","5","4","5","4","5","5","5","4","5","4","4","4","4","5","5","2","6","5","5","3","6","2","4","3","1","5","2","5","2","3","6","5","4","5","4","3","6","6","5","3","6","5","5","7","6","5","7","5","5","6","6","5","5","3","6","793060622811144193","林","691","Male","[""坏他"",""好我"",""好他"",""坏我""]","[""弱他"",""强我"",""强他"",""弱我""]","","","","","","","","","","","","","","","","","","","","","","","","","","","","","","feedback_test","","","","","","","","",""
"877","","f","psychophysics","40","241176","0.0-8.0-1.0-1.0-0.0-0.15","6","5","7","5","7","5","5","4","4","5","5","-3","-1","0","0","-3","2","1","2","4","5","4","5","4","5","4","5","4","5","5","5","4","5","4","4","4","4","5","5","2","6","5","5","3","6","2","4","3","1","5","2","5","2","3","6","5","4","5","4","3","6","6","5","3","6","5","5","7","6","5","7","5","5","6","6","5","5","3","6","793060622811144193","林","691","Male","[""坏他"",""好我"",""好他"",""坏我""]","[""弱他"",""强我"",""强他"",""弱我""]","","","","","","","","nonmatch","","","","","","","","","","key","f","16.816117117117184","683","380","f","true","nonmatch","img/circle.png","强他","弱我","prac_ALT2_ability","practice_ability","","","","","","","","",""
"null","<span style='color:GreenYellow; font-size: 70px;'>正确! </span>","null","html-keyboard-response","41","241685","0.0-8.0-1.0-1.0-0.0-1.15","6","5","7","5","7","5","5","4","4","5","5","-3","-1","0","0","-3","2","1","2","4","5","4","5","4","5","4","5","4","5","5","5","4","5","4","4","4","4","5","5","2","6","5","5","3","6","2","4","3","1","5","2","5","2","3","6","5","4","5","4","3","6","6","5","3","6","5","5","7","6","5","7","5","5","6","6","5","5","3","6","793060622811144193","林","691","Male","[""坏他"",""好我"",""好他"",""坏我""]","[""弱他"",""强我"",""强他"",""弱我""]","","","","","","","","","","","","","","","","","","","","","","","","","","","","","","feedback_test","","","","","","","","",""
"836","","f","psychophysics","42","243529","0.0-8.0-1.0-1.0-0.0-0.16","6","5","7","5","7","5","5","4","4","5","5","-3","-1","0","0","-3","2","1","2","4","5","4","5","4","5","4","5","4","5","5","5","4","5","4","4","4","4","5","5","2","6","5","5","3","6","2","4","3","1","5","2","5","2","3","6","5","4","5","4","3","6","6","5","3","6","5","5","7","6","5","7","5","5","6","6","5","5","3","6","793060622811144193","林","691","Male","[""坏他"",""好我"",""好他"",""坏我""]","[""弱他"",""强我"",""强他"",""弱我""]","","","","","","","","nonmatch","","","","","","","","","","key","f","16.668577981651374","683","380","j","false","match","img/square.png","弱他","弱他","prac_ALT2_ability","practice_ability","","","","","","","","",""
"null","<span style='color:red; font-size: 70px;'>错误! </span>","null","html-keyboard-response","43","244037","0.0-8.0-1.0-1.0-0.0-1.16","6","5","7","5","7","5","5","4","4","5","5","-3","-1","0","0","-3","2","1","2","4","5","4","5","4","5","4","5","4","5","5","5","4","5","4","4","4","4","5","5","2","6","5","5","3","6","2","4","3","1","5","2","5","2","3","6","5","4","5","4","3","6","6","5","3","6","5","5","7","6","5","7","5","5","6","6","5","5","3","6","793060622811144193","林","691","Male","[""坏他"",""好我"",""好他"",""坏我""]","[""弱他"",""强我"",""强他"",""弱我""]","","","","","","","","","","","","","","","","","","","","","","","","","","","","","","feedback_test","","","","","","","","",""
"1190","","f","psychophysics","44","246235","0.0-8.0-1.0-1.0-0.0-0.17","6","5","7","5","7","5","5","4","4","5","5","-3","-1","0","0","-3","2","1","2","4","5","4","5","4","5","4","5","4","5","5","5","4","5","4","4","4","4","5","5","2","6","5","5","3","6","2","4","3","1","5","2","5","2","3","6","5","4","5","4","3","6","6","5","3","6","5","5","7","6","5","7","5","5","6","6","5","5","3","6","793060622811144193","林","691","Male","[""坏他"",""好我"",""好他"",""坏我""]","[""弱他"",""强我"",""强他"",""弱我""]","","","","","","","","nonmatch","","","","","","","","","","key","f","16.67145038167955","683","380","j","false","match","img/hexagon.png","强他","强他","prac_ALT2_ability","practice_ability","","","","","","","","",""
"null","<span style='color:red; font-size: 70px;'>错误! </span>","null","html-keyboard-response","45","246741","0.0-8.0-1.0-1.0-0.0-1.17","6","5","7","5","7","5","5","4","4","5","5","-3","-1","0","0","-3","2","1","2","4","5","4","5","4","5","4","5","4","5","5","5","4","5","4","4","4","4","5","5","2","6","5","5","3","6","2","4","3","1","5","2","5","2","3","6","5","4","5","4","3","6","6","5","3","6","5","5","7","6","5","7","5","5","6","6","5","5","3","6","793060622811144193","林","691","Male","[""坏他"",""好我"",""好他"",""坏我""]","[""弱他"",""强我"",""强他"",""弱我""]","","","","","","","","","","","","","","","","","","","","","","","","","","","","","","feedback_test","","","","","","","","",""
"988","","f","psychophysics","46","248736","0.0-8.0-1.0-1.0-0.0-0.18","6","5","7","5","7","5","5","4","4","5","5","-3","-1","0","0","-3","2","1","2","4","5","4","5","4","5","4","5","4","5","5","5","4","5","4","4","4","4","5","5","2","6","5","5","3","6","2","4","3","1","5","2","5","2","3","6","5","4","5","4","3","6","6","5","3","6","5","5","7","6","5","7","5","5","6","6","5","5","3","6","793060622811144193","林","691","Male","[""坏他"",""好我"",""好他"",""坏我""]","[""弱他"",""强我"",""强他"",""弱我""]","","","","","","","","nonmatch","","","","","","","","","","key","f","16.809016949152358","683","380","f","true","nonmatch","img/square.png","弱我","弱他","prac_ALT2_ability","practice_ability","","","","","","","","",""
"null","<span style='color:GreenYellow; font-size: 70px;'>正确! </span>","null","html-keyboard-response","47","249237","0.0-8.0-1.0-1.0-0.0-1.18","6","5","7","5","7","5","5","4","4","5","5","-3","-1","0","0","-3","2","1","2","4","5","4","5","4","5","4","5","4","5","5","5","4","5","4","4","4","4","5","5","2","6","5","5","3","6","2","4","3","1","5","2","5","2","3","6","5","4","5","4","3","6","6","5","3","6","5","5","7","6","5","7","5","5","6","6","5","5","3","6","793060622811144193","林","691","Male","[""坏他"",""好我"",""好他"",""坏我""]","[""弱他"",""强我"",""强他"",""弱我""]","","","","","","","","","","","","","","","","","","","","","","","","","","","","","","feedback_test","","","","","","","","",""
"1037","","j","psychophysics","48","251282","0.0-8.0-1.0-1.0-0.0-0.19","6","5","7","5","7","5","5","4","4","5","5","-3","-1","0","0","-3","2","1","2","4","5","4","5","4","5","4","5","4","5","5","5","4","5","4","4","4","4","5","5","2","6","5","5","3","6","2","4","3","1","5","2","5","2","3","6","5","4","5","4","3","6","6","5","3","6","5","5","7","6","5","7","5","5","6","6","5","5","3","6","793060622811144193","林","691","Male","[""坏他"",""好我"",""好他"",""坏我""]","[""弱他"",""强我"",""强他"",""弱我""]","","","","","","","","match","","","","","","","","","","key","j","16.803550000000055","683","380","j","true","match","img/triangle.png","强我","强我","prac_ALT2_ability","practice_ability","","","","","","","","",""
"null","<span style='color:GreenYellow; font-size: 70px;'>正确! </span>","null","html-keyboard-response","49","251789","0.0-8.0-1.0-1.0-0.0-1.19","6","5","7","5","7","5","5","4","4","5","5","-3","-1","0","0","-3","2","1","2","4","5","4","5","4","5","4","5","4","5","5","5","4","5","4","4","4","4","5","5","2","6","5","5","3","6","2","4","3","1","5","2","5","2","3","6","5","4","5","4","3","6","6","5","3","6","5","5","7","6","5","7","5","5","6","6","5","5","3","6","793060622811144193","林","691","Male","[""坏他"",""好我"",""好他"",""坏我""]","[""弱他"",""强我"",""强他"",""弱我""]","","","","","","","","","","","","","","","","","","","","","","","","","","","","","","feedback_test","","","","","","","","",""
"1028","","f","psychophysics","50","253825","0.0-8.0-1.0-1.0-0.0-0.20","6","5","7","5","7","5","5","4","4","5","5","-3","-1","0","0","-3","2","1","2","4","5","4","5","4","5","4","5","4","5","5","5","4","5","4","4","4","4","5","5","2","6","5","5","3","6","2","4","3","1","5","2","5","2","3","6","5","4","5","4","3","6","6","5","3","6","5","5","7","6","5","7","5","5","6","6","5","5","3","6","793060622811144193","林","691","Male","[""坏他"",""好我"",""好他"",""坏我""]","[""弱他"",""强我"",""强他"",""弱我""]","","","","","","","","nonmatch","","","","","","","","","","key","f","16.808483333333182","683","380","f","true","nonmatch","img/triangle.png","弱他","强我","prac_ALT2_ability","practice_ability","","","","","","","","",""
"null","<span style='color:GreenYellow; font-size: 70px;'>正确! </span>","null","html-keyboard-response","51","254333","0.0-8.0-1.0-1.0-0.0-1.20","6","5","7","5","7","5","5","4","4","5","5","-3","-1","0","0","-3","2","1","2","4","5","4","5","4","5","4","5","4","5","5","5","4","5","4","4","4","4","5","5","2","6","5","5","3","6","2","4","3","1","5","2","5","2","3","6","5","4","5","4","3","6","6","5","3","6","5","5","7","6","5","7","5","5","6","6","5","5","3","6","793060622811144193","林","691","Male","[""坏他"",""好我"",""好他"",""坏我""]","[""弱他"",""强我"",""强他"",""弱我""]","","","","","","","","","","","","","","","","","","","","","","","","","","","","","","feedback_test","","","","","","","","",""
"756","","f","psychophysics","52","256097","0.0-8.0-1.0-1.0-0.0-0.21","6","5","7","5","7","5","5","4","4","5","5","-3","-1","0","0","-3","2","1","2","4","5","4","5","4","5","4","5","4","5","5","5","4","5","4","4","4","4","5","5","2","6","5","5","3","6","2","4","3","1","5","2","5","2","3","6","5","4","5","4","3","6","6","5","3","6","5","5","7","6","5","7","5","5","6","6","5","5","3","6","793060622811144193","林","691","Male","[""坏他"",""好我"",""好他"",""坏我""]","[""弱他"",""强我"",""强他"",""弱我""]","","","","","","","","nonmatch","","","","","","","","","","key","f","16.821359223301027","683","380","j","false","match","img/circle.png","弱我","弱我","prac_ALT2_ability","practice_ability","","","","","","","","",""
"null","<span style='color:red; font-size: 70px;'>错误! </span>","null","html-keyboard-response","53","256605","0.0-8.0-1.0-1.0-0.0-1.21","6","5","7","5","7","5","5","4","4","5","5","-3","-1","0","0","-3","2","1","2","4","5","4","5","4","5","4","5","4","5","5","5","4","5","4","4","4","4","5","5","2","6","5","5","3","6","2","4","3","1","5","2","5","2","3","6","5","4","5","4","3","6","6","5","3","6","5","5","7","6","5","7","5","5","6","6","5","5","3","6","793060622811144193","林","691","Male","[""坏他"",""好我"",""好他"",""坏我""]","[""弱他"",""强我"",""强他"",""弱我""]","","","","","","","","","","","","","","","","","","","","","","","","","","","","","","feedback_test","","","","","","","","",""
"1075","","j","psychophysics","54","258688","0.0-8.0-1.0-1.0-0.0-0.22","6","5","7","5","7","5","5","4","4","5","5","-3","-1","0","0","-3","2","1","2","4","5","4","5","4","5","4","5","4","5","5","5","4","5","4","4","4","4","5","5","2","6","5","5","3","6","2","4","3","1","5","2","5","2","3","6","5","4","5","4","3","6","6","5","3","6","5","5","7","6","5","7","5","5","6","6","5","5","3","6","793060622811144193","林","691","Male","[""坏他"",""好我"",""好他"",""坏我""]","[""弱他"",""强我"",""强他"",""弱我""]","","","","","","","","match","","","","","","","","","","key","j","16.664382113821233","683","380","j","true","match","img/circle.png","弱我","弱我","prac_ALT2_ability","practice_ability","","","","","","","","",""
"null","<span style='color:GreenYellow; font-size: 70px;'>正确! </span>","null","html-keyboard-response","55","259197","0.0-8.0-1.0-1.0-0.0-1.22","6","5","7","5","7","5","5","4","4","5","5","-3","-1","0","0","-3","2","1","2","4","5","4","5","4","5","4","5","4","5","5","5","4","5","4","4","4","4","5","5","2","6","5","5","3","6","2","4","3","1","5","2","5","2","3","6","5","4","5","4","3","6","6","5","3","6","5","5","7","6","5","7","5","5","6","6","5","5","3","6","793060622811144193","林","691","Male","[""坏他"",""好我"",""好他"",""坏我""]","[""弱他"",""强我"",""强他"",""弱我""]","","","","","","","","","","","","","","","","","","","","","","","","","","","","","","feedback_test","","","","","","","","",""
"1120","","f","psychophysics","56","261320","0.0-8.0-1.0-1.0-0.0-0.23","6","5","7","5","7","5","5","4","4","5","5","-3","-1","0","0","-3","2","1","2","4","5","4","5","4","5","4","5","4","5","5","5","4","5","4","4","4","4","5","5","2","6","5","5","3","6","2","4","3","1","5","2","5","2","3","6","5","4","5","4","3","6","6","5","3","6","5","5","7","6","5","7","5","5","6","6","5","5","3","6","793060622811144193","林","691","Male","[""坏他"",""好我"",""好他"",""坏我""]","[""弱他"",""强我"",""强他"",""弱我""]","","","","","","","","nonmatch","","","","","","","","","","key","f","16.669452380952343","683","380","f","true","nonmatch","img/circle.png","弱他","弱我","prac_ALT2_ability","practice_ability","","","","","","","","",""
"null","<span style='color:GreenYellow; font-size: 70px;'>正确! </span>","null","html-keyboard-response","57","261829","0.0-8.0-1.0-1.0-0.0-1.23","6","5","7","5","7","5","5","4","4","5","5","-3","-1","0","0","-3","2","1","2","4","5","4","5","4","5","4","5","4","5","5","5","4","5","4","4","4","4","5","5","2","6","5","5","3","6","2","4","3","1","5","2","5","2","3","6","5","4","5","4","3","6","6","5","3","6","5","5","7","6","5","7","5","5","6","6","5","5","3","6","793060622811144193","林","691","Male","[""坏他"",""好我"",""好他"",""坏我""]","[""弱他"",""强我"",""强他"",""弱我""]","","","","","","","","","","","","","","","","","","","","","","","","","","","","","","feedback_test","","","","","","","","",""
"1197","","f","psychophysics","58","264034","0.0-8.0-1.0-1.0-0.0-0.24","6","5","7","5","7","5","5","4","4","5","5","-3","-1","0","0","-3","2","1","2","4","5","4","5","4","5","4","5","4","5","5","5","4","5","4","4","4","4","5","5","2","6","5","5","3","6","2","4","3","1","5","2","5","2","3","6","5","4","5","4","3","6","6","5","3","6","5","5","7","6","5","7","5","5","6","6","5","5","3","6","793060622811144193","林","691","Male","[""坏他"",""好我"",""好他"",""坏我""]","[""弱他"",""强我"",""强他"",""弱我""]","","","","","","","","nonmatch","","","","","","","","","","key","f","16.671106870228847","683","380","f","true","nonmatch","img/triangle.png","弱他","强我","prac_ALT2_ability","practice_ability","","","","","","","","",""
"null","<span style='color:GreenYellow; font-size: 70px;'>正确! </span>","null","html-keyboard-response","59","264541","0.0-8.0-1.0-1.0-0.0-1.24","6","5","7","5","7","5","5","4","4","5","5","-3","-1","0","0","-3","2","1","2","4","5","4","5","4","5","4","5","4","5","5","5","4","5","4","4","4","4","5","5","2","6","5","5","3","6","2","4","3","1","5","2","5","2","3","6","5","4","5","4","3","6","6","5","3","6","5","5","7","6","5","7","5","5","6","6","5","5","3","6","793060622811144193","林","691","Male","[""坏他"",""好我"",""好他"",""坏我""]","[""弱他"",""强我"",""强他"",""弱我""]","","","","","","","","","","","","","","","","","","","","","","","","","","","","","","feedback_test","","","","","","","","",""
"1115","","j","psychophysics","60","266667","0.0-8.0-1.0-1.0-0.0-0.25","6","5","7","5","7","5","5","4","4","5","5","-3","-1","0","0","-3","2","1","2","4","5","4","5","4","5","4","5","4","5","5","5","4","5","4","4","4","4","5","5","2","6","5","5","3","6","2","4","3","1","5","2","5","2","3","6","5","4","5","4","3","6","6","5","3","6","5","5","7","6","5","7","5","5","6","6","5","5","3","6","793060622811144193","林","691","Male","[""坏他"",""好我"",""好他"",""坏我""]","[""弱他"",""强我"",""强他"",""弱我""]","","","","","","","","match","","","","","","","","","","key","j","16.670755905511708","683","380","j","true","match","img/hexagon.png","强他","强他","prac_ALT2_ability","practice_ability","","","","","","","","",""
"null","<span style='color:GreenYellow; font-size: 70px;'>正确! </span>","null","html-keyboard-response","61","267173","0.0-8.0-1.0-1.0-0.0-1.25","6","5","7","5","7","5","5","4","4","5","5","-3","-1","0","0","-3","2","1","2","4","5","4","5","4","5","4","5","4","5","5","5","4","5","4","4","4","4","5","5","2","6","5","5","3","6","2","4","3","1","5","2","5","2","3","6","5","4","5","4","3","6","6","5","3","6","5","5","7","6","5","7","5","5","6","6","5","5","3","6","793060622811144193","林","691","Male","[""坏他"",""好我"",""好他"",""坏我""]","[""弱他"",""强我"",""强他"",""弱我""]","","","","","","","","","","","","","","","","","","","","","","","","","","","","","","feedback_test","","","","","","","","",""
"1033","","j","psychophysics","62","269217","0.0-8.0-1.0-1.0-0.0-0.26","6","5","7","5","7","5","5","4","4","5","5","-3","-1","0","0","-3","2","1","2","4","5","4","5","4","5","4","5","4","5","5","5","4","5","4","4","4","4","5","5","2","6","5","5","3","6","2","4","3","1","5","2","5","2","3","6","5","4","5","4","3","6","6","5","3","6","5","5","7","6","5","7","5","5","6","6","5","5","3","6","793060622811144193","林","691","Male","[""坏他"",""好我"",""好他"",""坏我""]","[""弱他"",""强我"",""强他"",""弱我""]","","","","","","","","match","","","","","","","","","","key","j","16.664852459016103","683","380","j","true","match","img/triangle.png","强我","强我","prac_ALT2_ability","practice_ability","","","","","","","","",""
"null","<span style='color:GreenYellow; font-size: 70px;'>正确! </span>","null","html-keyboard-response","63","269726","0.0-8.0-1.0-1.0-0.0-1.26","6","5","7","5","7","5","5","4","4","5","5","-3","-1","0","0","-3","2","1","2","4","5","4","5","4","5","4","5","4","5","5","5","4","5","4","4","4","4","5","5","2","6","5","5","3","6","2","4","3","1","5","2","5","2","3","6","5","4","5","4","3","6","6","5","3","6","5","5","7","6","5","7","5","5","6","6","5","5","3","6","793060622811144193","林","691","Male","[""坏他"",""好我"",""好他"",""坏我""]","[""弱他"",""强我"",""强他"",""弱我""]","","","","","","","","","","","","","","","","","","","","","","","","","","","","","","feedback_test","","","","","","","","",""
"null","","null","psychophysics","64","271934","0.0-8.0-1.0-1.0-0.0-0.27","6","5","7","5","7","5","5","4","4","5","5","-3","-1","0","0","-3","2","1","2","4","5","4","5","4","5","4","5","4","5","5","5","4","5","4","4","4","4","5","5","2","6","5","5","3","6","2","4","3","1","5","2","5","2","3","6","5","4","5","4","3","6","6","5","3","6","5","5","7","6","5","7","5","5","6","6","5","5","3","6","793060622811144193","林","691","Male","[""坏他"",""好我"",""好他"",""坏我""]","[""弱他"",""强我"",""强他"",""弱我""]","","","","","","","","null","","","","","","","","","","key","null","16.655575757575484","683","380","f","false","nonmatch","img/square.png","强他","弱他","prac_ALT2_ability","practice_ability","","","","","","","","",""
"null","<span class='add_' style='color:yellow; font-size: 70px;'> 太慢! </span>","null","html-keyboard-response","65","272437","0.0-8.0-1.0-1.0-0.0-1.27","6","5","7","5","7","5","5","4","4","5","5","-3","-1","0","0","-3","2","1","2","4","5","4","5","4","5","4","5","4","5","5","5","4","5","4","4","4","4","5","5","2","6","5","5","3","6","2","4","3","1","5","2","5","2","3","6","5","4","5","4","3","6","6","5","3","6","5","5","7","6","5","7","5","5","6","6","5","5","3","6","793060622811144193","林","691","Male","[""坏他"",""好我"",""好他"",""坏我""]","[""弱他"",""强我"",""强他"",""弱我""]","","","","","","","","","","","","","","","","","","","","","","","","","","","","","","feedback_test","","","","","","","","",""
"1022","","j","psychophysics","66","274466","0.0-8.0-1.0-1.0-0.0-0.28","6","5","7","5","7","5","5","4","4","5","5","-3","-1","0","0","-3","2","1","2","4","5","4","5","4","5","4","5","4","5","5","5","4","5","4","4","4","4","5","5","2","6","5","5","3","6","2","4","3","1","5","2","5","2","3","6","5","4","5","4","3","6","6","5","3","6","5","5","7","6","5","7","5","5","6","6","5","5","3","6","793060622811144193","林","691","Male","[""坏他"",""好我"",""好他"",""坏我""]","[""弱他"",""强我"",""强他"",""弱我""]","","","","","","","","match","","","","","","","","","","key","j","16.668074380165287","683","380","j","true","match","img/hexagon.png","强他","强他","prac_ALT2_ability","practice_ability","","","","","","","","",""
"null","<span style='color:GreenYellow; font-size: 70px;'>正确! </span>","null","html-keyboard-response","67","274973","0.0-8.0-1.0-1.0-0.0-1.28","6","5","7","5","7","5","5","4","4","5","5","-3","-1","0","0","-3","2","1","2","4","5","4","5","4","5","4","5","4","5","5","5","4","5","4","4","4","4","5","5","2","6","5","5","3","6","2","4","3","1","5","2","5","2","3","6","5","4","5","4","3","6","6","5","3","6","5","5","7","6","5","7","5","5","6","6","5","5","3","6","793060622811144193","林","691","Male","[""坏他"",""好我"",""好他"",""坏我""]","[""弱他"",""强我"",""强他"",""弱我""]","","","","","","","","","","","","","","","","","","","","","","","","","","","","","","feedback_test","","","","","","","","",""
"null","","null","psychophysics","68","277183","0.0-8.0-1.0-1.0-0.0-0.29","6","5","7","5","7","5","5","4","4","5","5","-3","-1","0","0","-3","2","1","2","4","5","4","5","4","5","4","5","4","5","5","5","4","5","4","4","4","4","5","5","2","6","5","5","3","6","2","4","3","1","5","2","5","2","3","6","5","4","5","4","3","6","6","5","3","6","5","5","7","6","5","7","5","5","6","6","5","5","3","6","793060622811144193","林","691","Male","[""坏他"",""好我"",""好他"",""坏我""]","[""弱他"",""强我"",""强他"",""弱我""]","","","","","","","","null","","","","","","","","","","key","null","16.789809160305538","683","380","f","false","nonmatch","img/circle.png","强我","弱我","prac_ALT2_ability","practice_ability","","","","","","","","",""
"null","<span class='add_' style='color:yellow; font-size: 70px;'> 太慢! </span>","null","html-keyboard-response","69","277693","0.0-8.0-1.0-1.0-0.0-1.29","6","5","7","5","7","5","5","4","4","5","5","-3","-1","0","0","-3","2","1","2","4","5","4","5","4","5","4","5","4","5","5","5","4","5","4","4","4","4","5","5","2","6","5","5","3","6","2","4","3","1","5","2","5","2","3","6","5","4","5","4","3","6","6","5","3","6","5","5","7","6","5","7","5","5","6","6","5","5","3","6","793060622811144193","林","691","Male","[""坏他"",""好我"",""好他"",""坏我""]","[""弱他"",""强我"",""强他"",""弱我""]","","","","","","","","","","","","","","","","","","","","","","","","","","","","","","feedback_test","","","","","","","","",""
"816","","j","psychophysics","70","279514","0.0-8.0-1.0-1.0-0.0-0.30","6","5","7","5","7","5","5","4","4","5","5","-3","-1","0","0","-3","2","1","2","4","5","4","5","4","5","4","5","4","5","5","5","4","5","4","4","4","4","5","5","2","6","5","5","3","6","2","4","3","1","5","2","5","2","3","6","5","4","5","4","3","6","6","5","3","6","5","5","7","6","5","7","5","5","6","6","5","5","3","6","793060622811144193","林","691","Male","[""坏他"",""好我"",""好他"",""坏我""]","[""弱他"",""强我"",""强他"",""弱我""]","","","","","","","","match","","","","","","","","","","key","j","16.98286792452838","683","380","j","true","match","img/hexagon.png","强他","强他","prac_ALT2_ability","practice_ability","","","","","","","","",""
"null","<span style='color:GreenYellow; font-size: 70px;'>正确! </span>","null","html-keyboard-response","71","280021","0.0-8.0-1.0-1.0-0.0-1.30","6","5","7","5","7","5","5","4","4","5","5","-3","-1","0","0","-3","2","1","2","4","5","4","5","4","5","4","5","4","5","5","5","4","5","4","4","4","4","5","5","2","6","5","5","3","6","2","4","3","1","5","2","5","2","3","6","5","4","5","4","3","6","6","5","3","6","5","5","7","6","5","7","5","5","6","6","5","5","3","6","793060622811144193","林","691","Male","[""坏他"",""好我"",""好他"",""坏我""]","[""弱他"",""强我"",""强他"",""弱我""]","","","","","","","","","","","","","","","","","","","","","","","","","","","","","","feedback_test","","","","","","","","",""
"null","","null","psychophysics","72","282230","0.0-8.0-1.0-1.0-0.0-0.31","6","5","7","5","7","5","5","4","4","5","5","-3","-1","0","0","-3","2","1","2","4","5","4","5","4","5","4","5","4","5","5","5","4","5","4","4","4","4","5","5","2","6","5","5","3","6","2","4","3","1","5","2","5","2","3","6","5","4","5","4","3","6","6","5","3","6","5","5","7","6","5","7","5","5","6","6","5","5","3","6","793060622811144193","林","691","Male","[""坏他"",""好我"",""好他"",""坏我""]","[""弱他"",""强我"",""强他"",""弱我""]","","","","","","","","null","","","","","","","","","","key","null","16.795076923077264","683","380","j","false","match","img/circle.png","弱我","弱我","prac_ALT2_ability","practice_ability","","","","","","","","",""
"null","<span class='add_' style='color:yellow; font-size: 70px;'> 太慢! </span>","null","html-keyboard-response","73","282733","0.0-8.0-1.0-1.0-0.0-1.31","6","5","7","5","7","5","5","4","4","5","5","-3","-1","0","0","-3","2","1","2","4","5","4","5","4","5","4","5","4","5","5","5","4","5","4","4","4","4","5","5","2","6","5","5","3","6","2","4","3","1","5","2","5","2","3","6","5","4","5","4","3","6","6","5","3","6","5","5","7","6","5","7","5","5","6","6","5","5","3","6","793060622811144193","林","691","Male","[""坏他"",""好我"",""好他"",""坏我""]","[""弱他"",""强我"",""强他"",""弱我""]","","","","","","","","","","","","","","","","","","","","","","","","","","","","","","feedback_test","","","","","","","","",""
"931","","f","psychophysics","74","284672","0.0-8.0-1.0-1.0-0.0-0.32","6","5","7","5","7","5","5","4","4","5","5","-3","-1","0","0","-3","2","1","2","4","5","4","5","4","5","4","5","4","5","5","5","4","5","4","4","4","4","5","5","2","6","5","5","3","6","2","4","3","1","5","2","5","2","3","6","5","4","5","4","3","6","6","5","3","6","5","5","7","6","5","7","5","5","6","6","5","5","3","6","793060622811144193","林","691","Male","[""坏他"",""好我"",""好他"",""坏我""]","[""弱他"",""强我"",""强他"",""弱我""]","","","","","","","","nonmatch","","","","","","","","","","key","f","16.67330701754422","683","380","f","true","nonmatch","img/hexagon.png","强我","强他","prac_ALT2_ability","practice_ability","","","","","","","","",""
"null","<span style='color:GreenYellow; font-size: 70px;'>正确! </span>","null","html-keyboard-response","75","285181","0.0-8.0-1.0-1.0-0.0-1.32","6","5","7","5","7","5","5","4","4","5","5","-3","-1","0","0","-3","2","1","2","4","5","4","5","4","5","4","5","4","5","5","5","4","5","4","4","4","4","5","5","2","6","5","5","3","6","2","4","3","1","5","2","5","2","3","6","5","4","5","4","3","6","6","5","3","6","5","5","7","6","5","7","5","5","6","6","5","5","3","6","793060622811144193","林","691","Male","[""坏他"",""好我"",""好他"",""坏我""]","[""弱他"",""强我"",""强他"",""弱我""]","","","","","","","","","","","","","","","","","","","","","","","","","","","","","","feedback_test","","","","","","","","",""
"995","","f","psychophysics","76","287184","0.0-8.0-1.0-1.0-0.0-0.33","6","5","7","5","7","5","5","4","4","5","5","-3","-1","0","0","-3","2","1","2","4","5","4","5","4","5","4","5","4","5","5","5","4","5","4","4","4","4","5","5","2","6","5","5","3","6","2","4","3","1","5","2","5","2","3","6","5","4","5","4","3","6","6","5","3","6","5","5","7","6","5","7","5","5","6","6","5","5","3","6","793060622811144193","林","691","Male","[""坏他"",""好我"",""好他"",""坏我""]","[""弱他"",""强我"",""强他"",""弱我""]","","","","","","","","nonmatch","","","","","","","","","","key","f","16.66602521008438","683","380","f","true","nonmatch","img/square.png","弱我","弱他","prac_ALT2_ability","practice_ability","","","","","","","","",""
"null","<span style='color:GreenYellow; font-size: 70px;'>正确! </span>","null","html-keyboard-response","77","287685","0.0-8.0-1.0-1.0-0.0-1.33","6","5","7","5","7","5","5","4","4","5","5","-3","-1","0","0","-3","2","1","2","4","5","4","5","4","5","4","5","4","5","5","5","4","5","4","4","4","4","5","5","2","6","5","5","3","6","2","4","3","1","5","2","5","2","3","6","5","4","5","4","3","6","6","5","3","6","5","5","7","6","5","7","5","5","6","6","5","5","3","6","793060622811144193","林","691","Male","[""坏他"",""好我"",""好他"",""坏我""]","[""弱他"",""强我"",""强他"",""弱我""]","","","","","","","","","","","","","","","","","","","","","","","","","","","","","","feedback_test","","","","","","","","",""
"931","","j","psychophysics","78","289624","0.0-8.0-1.0-1.0-0.0-0.34","6","5","7","5","7","5","5","4","4","5","5","-3","-1","0","0","-3","2","1","2","4","5","4","5","4","5","4","5","4","5","5","5","4","5","4","4","4","4","5","5","2","6","5","5","3","6","2","4","3","1","5","2","5","2","3","6","5","4","5","4","3","6","6","5","3","6","5","5","7","6","5","7","5","5","6","6","5","5","3","6","793060622811144193","林","691","Male","[""坏他"",""好我"",""好他"",""坏我""]","[""弱他"",""强我"",""强他"",""弱我""]","","","","","","","","match","","","","","","","","","","key","j","16.666570175438608","683","380","j","true","match","img/triangle.png","强我","强我","prac_ALT2_ability","practice_ability","","","","","","","","",""
"null","<span style='color:GreenYellow; font-size: 70px;'>正确! </span>","null","html-keyboard-response","79","290125","0.0-8.0-1.0-1.0-0.0-1.34","6","5","7","5","7","5","5","4","4","5","5","-3","-1","0","0","-3","2","1","2","4","5","4","5","4","5","4","5","4","5","5","5","4","5","4","4","4","4","5","5","2","6","5","5","3","6","2","4","3","1","5","2","5","2","3","6","5","4","5","4","3","6","6","5","3","6","5","5","7","6","5","7","5","5","6","6","5","5","3","6","793060622811144193","林","691","Male","[""坏他"",""好我"",""好他"",""坏我""]","[""弱他"",""强我"",""强他"",""弱我""]","","","","","","","","","","","","","","","","","","","","","","","","","","","","","","feedback_test","","","","","","","","",""
"1051","","f","psychophysics","80","292184","0.0-8.0-1.0-1.0-0.0-0.35","6","5","7","5","7","5","5","4","4","5","5","-3","-1","0","0","-3","2","1","2","4","5","4","5","4","5","4","5","4","5","5","5","4","5","4","4","4","4","5","5","2","6","5","5","3","6","2","4","3","1","5","2","5","2","3","6","5","4","5","4","3","6","6","5","3","6","5","5","7","6","5","7","5","5","6","6","5","5","3","6","793060622811144193","林","691","Male","[""坏他"",""好我"",""好他"",""坏我""]","[""弱他"",""强我"",""强他"",""弱我""]","","","","","","","","nonmatch","","","","","","","","","","key","f","16.807508196721336","683","380","f","true","nonmatch","img/hexagon.png","弱他","强他","prac_ALT2_ability","practice_ability","","","","","","","","",""
"null","<span style='color:GreenYellow; font-size: 70px;'>正确! </span>","null","html-keyboard-response","81","292693","0.0-8.0-1.0-1.0-0.0-1.35","6","5","7","5","7","5","5","4","4","5","5","-3","-1","0","0","-3","2","1","2","4","5","4","5","4","5","4","5","4","5","5","5","4","5","4","4","4","4","5","5","2","6","5","5","3","6","2","4","3","1","5","2","5","2","3","6","5","4","5","4","3","6","6","5","3","6","5","5","7","6","5","7","5","5","6","6","5","5","3","6","793060622811144193","林","691","Male","[""坏他"",""好我"",""好他"",""坏我""]","[""弱他"",""强我"",""强他"",""弱我""]","","","","","","","","","","","","","","","","","","","","","","","","","","","","","","feedback_test","","","","","","","","",""
"977","","j","psychophysics","82","294672","0.0-8.0-1.0-1.0-0.0-0.36","6","5","7","5","7","5","5","4","4","5","5","-3","-1","0","0","-3","2","1","2","4","5","4","5","4","5","4","5","4","5","5","5","4","5","4","4","4","4","5","5","2","6","5","5","3","6","2","4","3","1","5","2","5","2","3","6","5","4","5","4","3","6","6","5","3","6","5","5","7","6","5","7","5","5","6","6","5","5","3","6","793060622811144193","林","691","Male","[""坏他"",""好我"",""好他"",""坏我""]","[""弱他"",""强我"",""强他"",""弱我""]","","","","","","","","match","","","","","","","","","","key","j","16.659788135593555","683","380","j","true","match","img/triangle.png","强我","强我","prac_ALT2_ability","practice_ability","","","","","","","","",""
"null","<span style='color:GreenYellow; font-size: 70px;'>正确! </span>","null","html-keyboard-response","83","295181","0.0-8.0-1.0-1.0-0.0-1.36","6","5","7","5","7","5","5","4","4","5","5","-3","-1","0","0","-3","2","1","2","4","5","4","5","4","5","4","5","4","5","5","5","4","5","4","4","4","4","5","5","2","6","5","5","3","6","2","4","3","1","5","2","5","2","3","6","5","4","5","4","3","6","6","5","3","6","5","5","7","6","5","7","5","5","6","6","5","5","3","6","793060622811144193","林","691","Male","[""坏他"",""好我"",""好他"",""坏我""]","[""弱他"",""强我"",""强他"",""弱我""]","","","","","","","","","","","","","","","","","","","","","","","","","","","","","","feedback_test","","","","","","","","",""
"1036","","j","psychophysics","84","297224","0.0-8.0-1.0-1.0-0.0-0.37","6","5","7","5","7","5","5","4","4","5","5","-3","-1","0","0","-3","2","1","2","4","5","4","5","4","5","4","5","4","5","5","5","4","5","4","4","4","4","5","5","2","6","5","5","3","6","2","4","3","1","5","2","5","2","3","6","5","4","5","4","3","6","6","5","3","6","5","5","7","6","5","7","5","5","6","6","5","5","3","6","793060622811144193","林","691","Male","[""坏他"",""好我"",""好他"",""坏我""]","[""弱他"",""强我"",""强他"",""弱我""]","","","","","","","","match","","","","","","","","","","key","j","16.802716666666676","683","380","j","true","match","img/square.png","弱他","弱他","prac_ALT2_ability","practice_ability","","","","","","","","",""
"null","<span style='color:GreenYellow; font-size: 70px;'>正确! </span>","null","html-keyboard-response","85","297733","0.0-8.0-1.0-1.0-0.0-1.37","6","5","7","5","7","5","5","4","4","5","5","-3","-1","0","0","-3","2","1","2","4","5","4","5","4","5","4","5","4","5","5","5","4","5","4","4","4","4","5","5","2","6","5","5","3","6","2","4","3","1","5","2","5","2","3","6","5","4","5","4","3","6","6","5","3","6","5","5","7","6","5","7","5","5","6","6","5","5","3","6","793060622811144193","林","691","Male","[""坏他"",""好我"",""好他"",""坏我""]","[""弱他"",""强我"",""强他"",""弱我""]","","","","","","","","","","","","","","","","","","","","","","","","","","","","","","feedback_test","","","","","","","","",""
"1083","","j","psychophysics","86","299824","0.0-8.0-1.0-1.0-0.0-0.38","6","5","7","5","7","5","5","4","4","5","5","-3","-1","0","0","-3","2","1","2","4","5","4","5","4","5","4","5","4","5","5","5","4","5","4","4","4","4","5","5","2","6","5","5","3","6","2","4","3","1","5","2","5","2","3","6","5","4","5","4","3","6","6","5","3","6","5","5","7","6","5","7","5","5","6","6","5","5","3","6","793060622811144193","林","691","Male","[""坏他"",""好我"",""好他"",""坏我""]","[""弱他"",""强我"",""强他"",""弱我""]","","","","","","","","match","","","","","","","","","","key","j","16.798560975609742","683","380","j","true","match","img/square.png","弱他","弱他","prac_ALT2_ability","practice_ability","","","","","","","","",""
"null","<span style='color:GreenYellow; font-size: 70px;'>正确! </span>","null","html-keyboard-response","87","300333","0.0-8.0-1.0-1.0-0.0-1.38","6","5","7","5","7","5","5","4","4","5","5","-3","-1","0","0","-3","2","1","2","4","5","4","5","4","5","4","5","4","5","5","5","4","5","4","4","4","4","5","5","2","6","5","5","3","6","2","4","3","1","5","2","5","2","3","6","5","4","5","4","3","6","6","5","3","6","5","5","7","6","5","7","5","5","6","6","5","5","3","6","793060622811144193","林","691","Male","[""坏他"",""好我"",""好他"",""坏我""]","[""弱他"",""强我"",""强他"",""弱我""]","","","","","","","","","","","","","","","","","","","","","","","","","","","","","","feedback_test","","","","","","","","",""
"979","","f","psychophysics","88","302320","0.0-8.0-1.0-1.0-0.0-0.39","6","5","7","5","7","5","5","4","4","5","5","-3","-1","0","0","-3","2","1","2","4","5","4","5","4","5","4","5","4","5","5","5","4","5","4","4","4","4","5","5","2","6","5","5","3","6","2","4","3","1","5","2","5","2","3","6","5","4","5","4","3","6","6","5","3","6","5","5","7","6","5","7","5","5","6","6","5","5","3","6","793060622811144193","林","691","Male","[""坏他"",""好我"",""好他"",""坏我""]","[""弱他"",""强我"",""强他"",""弱我""]","","","","","","","","nonmatch","","","","","","","","","","key","f","16.669838983050578","683","380","f","true","nonmatch","img/circle.png","弱他","弱我","prac_ALT2_ability","practice_ability","","","","","","","","",""
"null","<span style='color:GreenYellow; font-size: 70px;'>正确! </span>","null","html-keyboard-response","89","302829","0.0-8.0-1.0-1.0-0.0-1.39","6","5","7","5","7","5","5","4","4","5","5","-3","-1","0","0","-3","2","1","2","4","5","4","5","4","5","4","5","4","5","5","5","4","5","4","4","4","4","5","5","2","6","5","5","3","6","2","4","3","1","5","2","5","2","3","6","5","4","5","4","3","6","6","5","3","6","5","5","7","6","5","7","5","5","6","6","5","5","3","6","793060622811144193","林","691","Male","[""坏他"",""好我"",""好他"",""坏我""]","[""弱他"",""强我"",""强他"",""弱我""]","","","","","","","","","","","","","","","","","","","","","","","","","","","","","","feedback_test","","","","","","","","",""
"1113","","f","psychophysics","90","304944","0.0-8.0-1.0-1.0-0.0-0.40","6","5","7","5","7","5","5","4","4","5","5","-3","-1","0","0","-3","2","1","2","4","5","4","5","4","5","4","5","4","5","5","5","4","5","4","4","4","4","5","5","2","6","5","5","3","6","2","4","3","1","5","2","5","2","3","6","5","4","5","4","3","6","6","5","3","6","5","5","7","6","5","7","5","5","6","6","5","5","3","6","793060622811144193","林","691","Male","[""坏他"",""好我"",""好他"",""坏我""]","[""弱他"",""强我"",""强他"",""弱我""]","","","","","","","","nonmatch","","","","","","","","","","key","f","16.661240000000223","683","380","f","true","nonmatch","img/hexagon.png","弱我","强他","prac_ALT2_ability","practice_ability","","","","","","","","",""
"null","<span style='color:GreenYellow; font-size: 70px;'>正确! </span>","null","html-keyboard-response","91","305453","0.0-8.0-1.0-1.0-0.0-1.40","6","5","7","5","7","5","5","4","4","5","5","-3","-1","0","0","-3","2","1","2","4","5","4","5","4","5","4","5","4","5","5","5","4","5","4","4","4","4","5","5","2","6","5","5","3","6","2","4","3","1","5","2","5","2","3","6","5","4","5","4","3","6","6","5","3","6","5","5","7","6","5","7","5","5","6","6","5","5","3","6","793060622811144193","林","691","Male","[""坏他"",""好我"",""好他"",""坏我""]","[""弱他"",""强我"",""强他"",""弱我""]","","","","","","","","","","","","","","","","","","","","","","","","","","","","","","feedback_test","","","","","","","","",""
"907","","j","psychophysics","92","307368","0.0-8.0-1.0-1.0-0.0-0.41","6","5","7","5","7","5","5","4","4","5","5","-3","-1","0","0","-3","2","1","2","4","5","4","5","4","5","4","5","4","5","5","5","4","5","4","4","4","4","5","5","2","6","5","5","3","6","2","4","3","1","5","2","5","2","3","6","5","4","5","4","3","6","6","5","3","6","5","5","7","6","5","7","5","5","6","6","5","5","3","6","793060622811144193","林","691","Male","[""坏他"",""好我"",""好他"",""坏我""]","[""弱他"",""强我"",""强他"",""弱我""]","","","","","","","","match","","","","","","","","","","key","j","16.66442105263163","683","380","j","true","match","img/square.png","弱他","弱他","prac_ALT2_ability","practice_ability","","","","","","","","",""
"null","<span style='color:GreenYellow; font-size: 70px;'>正确! </span>","null","html-keyboard-response","93","307877","0.0-8.0-1.0-1.0-0.0-1.41","6","5","7","5","7","5","5","4","4","5","5","-3","-1","0","0","-3","2","1","2","4","5","4","5","4","5","4","5","4","5","5","5","4","5","4","4","4","4","5","5","2","6","5","5","3","6","2","4","3","1","5","2","5","2","3","6","5","4","5","4","3","6","6","5","3","6","5","5","7","6","5","7","5","5","6","6","5","5","3","6","793060622811144193","林","691","Male","[""坏他"",""好我"",""好他"",""坏我""]","[""弱他"",""强我"",""强他"",""弱我""]","","","","","","","","","","","","","","","","","","","","","","","","","","","","","","feedback_test","","","","","","","","",""
"null","","null","psychophysics","94","310083","0.0-8.0-1.0-1.0-0.0-0.42","6","5","7","5","7","5","5","4","4","5","5","-3","-1","0","0","-3","2","1","2","4","5","4","5","4","5","4","5","4","5","5","5","4","5","4","4","4","4","5","5","2","6","5","5","3","6","2","4","3","1","5","2","5","2","3","6","5","4","5","4","3","6","6","5","3","6","5","5","7","6","5","7","5","5","6","6","5","5","3","6","793060622811144193","林","691","Male","[""坏他"",""好我"",""好他"",""坏我""]","[""弱他"",""强我"",""强他"",""弱我""]","","","","","","","","null","","","","","","","","","","key","null","16.65756060606068","683","380","f","false","nonmatch","img/triangle.png","弱我","强我","prac_ALT2_ability","practice_ability","","","","","","","","",""
"null","<span class='add_' style='color:yellow; font-size: 70px;'> 太慢! </span>","null","html-keyboard-response","95","310589","0.0-8.0-1.0-1.0-0.0-1.42","6","5","7","5","7","5","5","4","4","5","5","-3","-1","0","0","-3","2","1","2","4","5","4","5","4","5","4","5","4","5","5","5","4","5","4","4","4","4","5","5","2","6","5","5","3","6","2","4","3","1","5","2","5","2","3","6","5","4","5","4","3","6","6","5","3","6","5","5","7","6","5","7","5","5","6","6","5","5","3","6","793060622811144193","林","691","Male","[""坏他"",""好我"",""好他"",""坏我""]","[""弱他"",""强我"",""强他"",""弱我""]","","","","","","","","","","","","","","","","","","","","","","","","","","","","","","feedback_test","","","","","","","","",""
"906","","f","psychophysics","96","312504","0.0-8.0-1.0-1.0-0.0-0.43","6","5","7","5","7","5","5","4","4","5","5","-3","-1","0","0","-3","2","1","2","4","5","4","5","4","5","4","5","4","5","5","5","4","5","4","4","4","4","5","5","2","6","5","5","3","6","2","4","3","1","5","2","5","2","3","6","5","4","5","4","3","6","6","5","3","6","5","5","7","6","5","7","5","5","6","6","5","5","3","6","793060622811144193","林","691","Male","[""坏他"",""好我"",""好他"",""坏我""]","[""弱他"",""强我"",""强他"",""弱我""]","","","","","","","","nonmatch","","","","","","","","","","key","f","16.67057017543866","683","380","f","true","nonmatch","img/triangle.png","强他","强我","prac_ALT2_ability","practice_ability","","","","","","","","",""
"null","<span style='color:GreenYellow; font-size: 70px;'>正确! </span>","null","html-keyboard-response","97","313014","0.0-8.0-1.0-1.0-0.0-1.43","6","5","7","5","7","5","5","4","4","5","5","-3","-1","0","0","-3","2","1","2","4","5","4","5","4","5","4","5","4","5","5","5","4","5","4","4","4","4","5","5","2","6","5","5","3","6","2","4","3","1","5","2","5","2","3","6","5","4","5","4","3","6","6","5","3","6","5","5","7","6","5","7","5","5","6","6","5","5","3","6","793060622811144193","林","691","Male","[""坏他"",""好我"",""好他"",""坏我""]","[""弱他"",""强我"",""强他"",""弱我""]","","","","","","","","","","","","","","","","","","","","","","","","","","","","","","feedback_test","","","","","","","","",""
"819","","f","psychophysics","98","314840","0.0-8.0-1.0-1.0-0.0-0.44","6","5","7","5","7","5","5","4","4","5","5","-3","-1","0","0","-3","2","1","2","4","5","4","5","4","5","4","5","4","5","5","5","4","5","4","4","4","4","5","5","2","6","5","5","3","6","2","4","3","1","5","2","5","2","3","6","5","4","5","4","3","6","6","5","3","6","5","5","7","6","5","7","5","5","6","6","5","5","3","6","793060622811144193","林","691","Male","[""坏他"",""好我"",""好他"",""坏我""]","[""弱他"",""强我"",""强他"",""弱我""]","","","","","","","","nonmatch","","","","","","","","","","key","f","16.824700934579596","683","380","f","true","nonmatch","img/circle.png","强他","弱我","prac_ALT2_ability","practice_ability","","","","","","","","",""
"null","<span style='color:GreenYellow; font-size: 70px;'>正确! </span>","null","html-keyboard-response","99","315349","0.0-8.0-1.0-1.0-0.0-1.44","6","5","7","5","7","5","5","4","4","5","5","-3","-1","0","0","-3","2","1","2","4","5","4","5","4","5","4","5","4","5","5","5","4","5","4","4","4","4","5","5","2","6","5","5","3","6","2","4","3","1","5","2","5","2","3","6","5","4","5","4","3","6","6","5","3","6","5","5","7","6","5","7","5","5","6","6","5","5","3","6","793060622811144193","林","691","Male","[""坏他"",""好我"",""好他"",""坏我""]","[""弱他"",""强我"",""强他"",""弱我""]","","","","","","","","","","","","","","","","","","","","","","","","","","","","","","feedback_test","","","","","","","","",""
"835","","j","psychophysics","100","317192","0.0-8.0-1.0-1.0-0.0-0.45","6","5","7","5","7","5","5","4","4","5","5","-3","-1","0","0","-3","2","1","2","4","5","4","5","4","5","4","5","4","5","5","5","4","5","4","4","4","4","5","5","2","6","5","5","3","6","2","4","3","1","5","2","5","2","3","6","5","4","5","4","3","6","6","5","3","6","5","5","7","6","5","7","5","5","6","6","5","5","3","6","793060622811144193","林","691","Male","[""坏他"",""好我"",""好他"",""坏我""]","[""弱他"",""强我"",""强他"",""弱我""]","","","","","","","","match","","","","","","","","","","key","j","16.66684403669766","683","380","j","true","match","img/circle.png","弱我","弱我","prac_ALT2_ability","practice_ability","","","","","","","","",""
"null","<span style='color:GreenYellow; font-size: 70px;'>正确! </span>","null","html-keyboard-response","101","317701","0.0-8.0-1.0-1.0-0.0-1.45","6","5","7","5","7","5","5","4","4","5","5","-3","-1","0","0","-3","2","1","2","4","5","4","5","4","5","4","5","4","5","5","5","4","5","4","4","4","4","5","5","2","6","5","5","3","6","2","4","3","1","5","2","5","2","3","6","5","4","5","4","3","6","6","5","3","6","5","5","7","6","5","7","5","5","6","6","5","5","3","6","793060622811144193","林","691","Male","[""坏他"",""好我"",""好他"",""坏我""]","[""弱他"",""强我"",""强他"",""弱我""]","","","","","","","","","","","","","","","","","","","","","","","","","","","","","","feedback_test","","","","","","","","",""
"843","","f","psychophysics","102","319553","0.0-8.0-1.0-1.0-0.0-0.46","6","5","7","5","7","5","5","4","4","5","5","-3","-1","0","0","-3","2","1","2","4","5","4","5","4","5","4","5","4","5","5","5","4","5","4","4","4","4","5","5","2","6","5","5","3","6","2","4","3","1","5","2","5","2","3","6","5","4","5","4","3","6","6","5","3","6","5","5","7","6","5","7","5","5","6","6","5","5","3","6","793060622811144193","林","691","Male","[""坏他"",""好我"",""好他"",""坏我""]","[""弱他"",""强我"",""强他"",""弱我""]","","","","","","","","nonmatch","","","","","","","","","","key","f","16.669327272727177","683","380","f","true","nonmatch","img/square.png","强我","弱他","prac_ALT2_ability","practice_ability","","","","","","","","",""
"null","<span style='color:GreenYellow; font-size: 70px;'>正确! </span>","null","html-keyboard-response","103","320061","0.0-8.0-1.0-1.0-0.0-1.46","6","5","7","5","7","5","5","4","4","5","5","-3","-1","0","0","-3","2","1","2","4","5","4","5","4","5","4","5","4","5","5","5","4","5","4","4","4","4","5","5","2","6","5","5","3","6","2","4","3","1","5","2","5","2","3","6","5","4","5","4","3","6","6","5","3","6","5","5","7","6","5","7","5","5","6","6","5","5","3","6","793060622811144193","林","691","Male","[""坏他"",""好我"",""好他"",""坏我""]","[""弱他"",""强我"",""强他"",""弱我""]","","","","","","","","","","","","","","","","","","","","","","","","","","","","","","feedback_test","","","","","","","","",""
"1099","","j","psychophysics","104","322168","0.0-8.0-1.0-1.0-0.0-0.47","6","5","7","5","7","5","5","4","4","5","5","-3","-1","0","0","-3","2","1","2","4","5","4","5","4","5","4","5","4","5","5","5","4","5","4","4","4","4","5","5","2","6","5","5","3","6","2","4","3","1","5","2","5","2","3","6","5","4","5","4","3","6","6","5","3","6","5","5","7","6","5","7","5","5","6","6","5","5","3","6","793060622811144193","林","691","Male","[""坏他"",""好我"",""好他"",""坏我""]","[""弱他"",""强我"",""强他"",""弱我""]","","","","","","","","match","","","","","","","","","","key","j","16.662743999999947","683","380","j","true","match","img/circle.png","弱我","弱我","prac_ALT2_ability","practice_ability","","","","","","","","",""
"null","<span style='color:GreenYellow; font-size: 70px;'>正确! </span>","null","html-keyboard-response","105","322677","0.0-8.0-1.0-1.0-0.0-1.47","6","5","7","5","7","5","5","4","4","5","5","-3","-1","0","0","-3","2","1","2","4","5","4","5","4","5","4","5","4","5","5","5","4","5","4","4","4","4","5","5","2","6","5","5","3","6","2","4","3","1","5","2","5","2","3","6","5","4","5","4","3","6","6","5","3","6","5","5","7","6","5","7","5","5","6","6","5","5","3","6","793060622811144193","林","691","Male","[""坏他"",""好我"",""好他"",""坏我""]","[""弱他"",""强我"",""强他"",""弱我""]","","","","","","","","","","","","","","","","","","","","","","","","","","","","","","feedback_test","","","","","","","","",""
"1451","<style>.context{color:white; font-size: 35px; line-height:40px}</style>                          <div><p class='context'>您正确回答了77% 的试次。</p><p class='context'>您的平均反应时为992毫秒。</p><p class='context'>恭喜您完成练习。按空格键进入正式实验。</p><p class='footer' style='color:white;font-size: 35px; line-height:40px;'>请在进入正式实验实验之前将您的<span style='color: lightgreen;'>食指</span>放在电脑键盘的相应键位上进行按键。</p>"," ","html-keyboard-response","106","324136","0.0-8.0-1.0-2.0","6","5","7","5","7","5","5","4","4","5","5","-3","-1","0","0","-3","2","1","2","4","5","4","5","4","5","4","5","4","5","5","5","4","5","4","4","4","4","5","5","2","6","5","5","3","6","2","4","3","1","5","2","5","2","3","6","5","4","5","4","3","6","6","5","3","6","5","5","7","6","5","7","5","5","6","6","5","5","3","6","793060622811144193","林","691","Male","[""坏他"",""好我"",""好他"",""坏我""]","[""弱他"",""强我"",""强他"",""弱我""]","","","","","","","","","","","","","","","","","","","","","","","","","","","","","","","","","","","","","","",""
"586","
  <p style='color: white; font-size: 22px'>请您将手指放在按键上，准备进入正式的匹配任务。</p>
  <p> <div style = ""color: green""><按空格键进入下一阶段的匹配任务></div></p>
  "," ","html-keyboard-response","107","324736","0.0-8.0-1.0-3.0","6","5","7","5","7","5","5","4","4","5","5","-3","-1","0","0","-3","2","1","2","4","5","4","5","4","5","4","5","4","5","5","5","4","5","4","4","4","4","5","5","2","6","5","5","3","6","2","4","3","1","5","2","5","2","3","6","5","4","5","4","3","6","6","5","3","6","5","5","7","6","5","7","5","5","6","6","5","5","3","6","793060622811144193","林","691","Male","[""坏他"",""好我"",""好他"",""坏我""]","[""弱他"",""强我"",""强他"",""弱我""]","","","","","","","","","","","","","","","","","","","","","","","","","","","","","","","","","","","","","","",""
"773","","f","psychophysics","108","326515","0.0-8.0-1.0-4.0-0.0-0.0","6","5","7","5","7","5","5","4","4","5","5","-3","-1","0","0","-3","2","1","2","4","5","4","5","4","5","4","5","4","5","5","5","4","5","4","4","4","4","5","5","2","6","5","5","3","6","2","4","3","1","5","2","5","2","3","6","5","4","5","4","3","6","6","5","3","6","5","5","7","6","5","7","5","5","6","6","5","5","3","6","793060622811144193","林","691","Male","[""坏他"",""好我"",""好他"",""坏我""]","[""弱他"",""强我"",""强他"",""弱我""]","","","","","","","","nonmatch","","","","","","","","","","key","f","16.667660377359013","683","380","f","true","nonmatch","img/hexagon.png","弱我","强他","ALT2","ability","","","","","","","","",""
"null","<span style='color:GreenYellow; font-size: 70px;'>正确! </span>","null","html-keyboard-response","109","327022","0.0-8.0-1.0-4.0-0.0-1.0","6","5","7","5","7","5","5","4","4","5","5","-3","-1","0","0","-3","2","1","2","4","5","4","5","4","5","4","5","4","5","5","5","4","5","4","4","4","4","5","5","2","6","5","5","3","6","2","4","3","1","5","2","5","2","3","6","5","4","5","4","3","6","6","5","3","6","5","5","7","6","5","7","5","5","6","6","5","5","3","6","793060622811144193","林","691","Male","[""坏他"",""好我"",""好他"",""坏我""]","[""弱他"",""强我"",""强他"",""弱我""]","","","","","","","","","","","","","","","","","","","","","","","","","","","","","","feedback_test","","","","","","","","",""
"952","","j","psychophysics","110","328984","0.0-8.0-1.0-4.0-0.0-0.1","6","5","7","5","7","5","5","4","4","5","5","-3","-1","0","0","-3","2","1","2","4","5","4","5","4","5","4","5","4","5","5","5","4","5","4","4","4","4","5","5","2","6","5","5","3","6","2","4","3","1","5","2","5","2","3","6","5","4","5","4","3","6","6","5","3","6","5","5","7","6","5","7","5","5","6","6","5","5","3","6","793060622811144193","林","691","Male","[""坏他"",""好我"",""好他"",""坏我""]","[""弱他"",""强我"",""强他"",""弱我""]","","","","","","","","match","","","","","","","","","","key","j","16.661623931623712","683","380","j","true","match","img/square.png","弱他","弱他","ALT2","ability","","","","","","","","",""
"null","<span style='color:GreenYellow; font-size: 70px;'>正确! </span>","null","html-keyboard-response","111","329486","0.0-8.0-1.0-4.0-0.0-1.1","6","5","7","5","7","5","5","4","4","5","5","-3","-1","0","0","-3","2","1","2","4","5","4","5","4","5","4","5","4","5","5","5","4","5","4","4","4","4","5","5","2","6","5","5","3","6","2","4","3","1","5","2","5","2","3","6","5","4","5","4","3","6","6","5","3","6","5","5","7","6","5","7","5","5","6","6","5","5","3","6","793060622811144193","林","691","Male","[""坏他"",""好我"",""好他"",""坏我""]","[""弱他"",""强我"",""强他"",""弱我""]","","","","","","","","","","","","","","","","","","","","","","","","","","","","","","feedback_test","","","","","","","","",""
"866","","f","psychophysics","112","331364","0.0-8.0-1.0-4.0-0.0-0.2","6","5","7","5","7","5","5","4","4","5","5","-3","-1","0","0","-3","2","1","2","4","5","4","5","4","5","4","5","4","5","5","5","4","5","4","4","4","4","5","5","2","6","5","5","3","6","2","4","3","1","5","2","5","2","3","6","5","4","5","4","3","6","6","5","3","6","5","5","7","6","5","7","5","5","6","6","5","5","3","6","793060622811144193","林","691","Male","[""坏他"",""好我"",""好他"",""坏我""]","[""弱他"",""强我"",""强他"",""弱我""]","","","","","","","","nonmatch","","","","","","","","","","key","f","16.66952678571397","683","380","f","true","nonmatch","img/triangle.png","弱他","强我","ALT2","ability","","","","","","","","",""
"null","<span style='color:GreenYellow; font-size: 70px;'>正确! </span>","null","html-keyboard-response","113","331870","0.0-8.0-1.0-4.0-0.0-1.2","6","5","7","5","7","5","5","4","4","5","5","-3","-1","0","0","-3","2","1","2","4","5","4","5","4","5","4","5","4","5","5","5","4","5","4","4","4","4","5","5","2","6","5","5","3","6","2","4","3","1","5","2","5","2","3","6","5","4","5","4","3","6","6","5","3","6","5","5","7","6","5","7","5","5","6","6","5","5","3","6","793060622811144193","林","691","Male","[""坏他"",""好我"",""好他"",""坏我""]","[""弱他"",""强我"",""强他"",""弱我""]","","","","","","","","","","","","","","","","","","","","","","","","","","","","","","feedback_test","","","","","","","","",""
"936","","f","psychophysics","114","333816","0.0-8.0-1.0-4.0-0.0-0.3","6","5","7","5","7","5","5","4","4","5","5","-3","-1","0","0","-3","2","1","2","4","5","4","5","4","5","4","5","4","5","5","5","4","5","4","4","4","4","5","5","2","6","5","5","3","6","2","4","3","1","5","2","5","2","3","6","5","4","5","4","3","6","6","5","3","6","5","5","7","6","5","7","5","5","6","6","5","5","3","6","793060622811144193","林","691","Male","[""坏他"",""好我"",""好他"",""坏我""]","[""弱他"",""强我"",""强他"",""弱我""]","","","","","","","","nonmatch","","","","","","","","","","key","f","16.806365217390955","683","380","f","true","nonmatch","img/circle.png","强他","弱我","ALT2","ability","","","","","","","","",""
"null","<span style='color:GreenYellow; font-size: 70px;'>正确! </span>","null","html-keyboard-response","115","334325","0.0-8.0-1.0-4.0-0.0-1.3","6","5","7","5","7","5","5","4","4","5","5","-3","-1","0","0","-3","2","1","2","4","5","4","5","4","5","4","5","4","5","5","5","4","5","4","4","4","4","5","5","2","6","5","5","3","6","2","4","3","1","5","2","5","2","3","6","5","4","5","4","3","6","6","5","3","6","5","5","7","6","5","7","5","5","6","6","5","5","3","6","793060622811144193","林","691","Male","[""坏他"",""好我"",""好他"",""坏我""]","[""弱他"",""强我"",""强他"",""弱我""]","","","","","","","","","","","","","","","","","","","","","","","","","","","","","","feedback_test","","","","","","","","",""
"816","","j","psychophysics","116","336146","0.0-8.0-1.0-4.0-0.0-0.4","6","5","7","5","7","5","5","4","4","5","5","-3","-1","0","0","-3","2","1","2","4","5","4","5","4","5","4","5","4","5","5","5","4","5","4","4","4","4","5","5","2","6","5","5","3","6","2","4","3","1","5","2","5","2","3","6","5","4","5","4","3","6","6","5","3","6","5","5","7","6","5","7","5","5","6","6","5","5","3","6","793060622811144193","林","691","Male","[""坏他"",""好我"",""好他"",""坏我""]","[""弱他"",""强我"",""强他"",""弱我""]","","","","","","","","match","","","","","","","","","","key","j","16.814028037383405","683","380","j","true","match","img/square.png","弱他","弱他","ALT2","ability","","","","","","","","",""
"null","<span style='color:GreenYellow; font-size: 70px;'>正确! </span>","null","html-keyboard-response","117","336653","0.0-8.0-1.0-4.0-0.0-1.4","6","5","7","5","7","5","5","4","4","5","5","-3","-1","0","0","-3","2","1","2","4","5","4","5","4","5","4","5","4","5","5","5","4","5","4","4","4","4","5","5","2","6","5","5","3","6","2","4","3","1","5","2","5","2","3","6","5","4","5","4","3","6","6","5","3","6","5","5","7","6","5","7","5","5","6","6","5","5","3","6","793060622811144193","林","691","Male","[""坏他"",""好我"",""好他"",""坏我""]","[""弱他"",""强我"",""强他"",""弱我""]","","","","","","","","","","","","","","","","","","","","","","","","","","","","","","feedback_test","","","","","","","","",""
"719","","j","psychophysics","118","338384","0.0-8.0-1.0-4.0-0.0-0.5","6","5","7","5","7","5","5","4","4","5","5","-3","-1","0","0","-3","2","1","2","4","5","4","5","4","5","4","5","4","5","5","5","4","5","4","4","4","4","5","5","2","6","5","5","3","6","2","4","3","1","5","2","5","2","3","6","5","4","5","4","3","6","6","5","3","6","5","5","7","6","5","7","5","5","6","6","5","5","3","6","793060622811144193","林","691","Male","[""坏他"",""好我"",""好他"",""坏我""]","[""弱他"",""强我"",""强他"",""弱我""]","","","","","","","","match","","","","","","","","","","key","j","16.831862745097812","683","380","j","true","match","img/square.png","弱他","弱他","ALT2","ability","","","","","","","","",""
"null","<span style='color:GreenYellow; font-size: 70px;'>正确! </span>","null","html-keyboard-response","119","338893","0.0-8.0-1.0-4.0-0.0-1.5","6","5","7","5","7","5","5","4","4","5","5","-3","-1","0","0","-3","2","1","2","4","5","4","5","4","5","4","5","4","5","5","5","4","5","4","4","4","4","5","5","2","6","5","5","3","6","2","4","3","1","5","2","5","2","3","6","5","4","5","4","3","6","6","5","3","6","5","5","7","6","5","7","5","5","6","6","5","5","3","6","793060622811144193","林","691","Male","[""坏他"",""好我"",""好他"",""坏我""]","[""弱他"",""强我"",""强他"",""弱我""]","","","","","","","","","","","","","","","","","","","","","","","","","","","","","","feedback_test","","","","","","","","",""
"1081","","f","psychophysics","120","340978","0.0-8.0-1.0-4.0-0.0-0.6","6","5","7","5","7","5","5","4","4","5","5","-3","-1","0","0","-3","2","1","2","4","5","4","5","4","5","4","5","4","5","5","5","4","5","4","4","4","4","5","5","2","6","5","5","3","6","2","4","3","1","5","2","5","2","3","6","5","4","5","4","3","6","6","5","3","6","5","5","7","6","5","7","5","5","6","6","5","5","3","6","793060622811144193","林","691","Male","[""坏他"",""好我"",""好他"",""坏我""]","[""弱他"",""强我"",""强他"",""弱我""]","","","","","","","","nonmatch","","","","","","","","","","key","f","16.796278688524655","683","380","f","true","nonmatch","img/circle.png","弱他","弱我","ALT2","ability","","","","","","","","",""
"null","<span style='color:GreenYellow; font-size: 70px;'>正确! </span>","null","html-keyboard-response","121","341486","0.0-8.0-1.0-4.0-0.0-1.6","6","5","7","5","7","5","5","4","4","5","5","-3","-1","0","0","-3","2","1","2","4","5","4","5","4","5","4","5","4","5","5","5","4","5","4","4","4","4","5","5","2","6","5","5","3","6","2","4","3","1","5","2","5","2","3","6","5","4","5","4","3","6","6","5","3","6","5","5","7","6","5","7","5","5","6","6","5","5","3","6","793060622811144193","林","691","Male","[""坏他"",""好我"",""好他"",""坏我""]","[""弱他"",""强我"",""强他"",""弱我""]","","","","","","","","","","","","","","","","","","","","","","","","","","","","","","feedback_test","","","","","","","","",""
"956","","j","psychophysics","122","343449","0.0-8.0-1.0-4.0-0.0-0.7","6","5","7","5","7","5","5","4","4","5","5","-3","-1","0","0","-3","2","1","2","4","5","4","5","4","5","4","5","4","5","5","5","4","5","4","4","4","4","5","5","2","6","5","5","3","6","2","4","3","1","5","2","5","2","3","6","5","4","5","4","3","6","6","5","3","6","5","5","7","6","5","7","5","5","6","6","5","5","3","6","793060622811144193","林","691","Male","[""坏他"",""好我"",""好他"",""坏我""]","[""弱他"",""强我"",""强他"",""弱我""]","","","","","","","","match","","","","","","","","","","key","j","17.10496491228083","683","380","j","true","match","img/triangle.png","强我","强我","ALT2","ability","","","","","","","","",""
"null","<span style='color:GreenYellow; font-size: 70px;'>正确! </span>","null","html-keyboard-response","123","343957","0.0-8.0-1.0-4.0-0.0-1.7","6","5","7","5","7","5","5","4","4","5","5","-3","-1","0","0","-3","2","1","2","4","5","4","5","4","5","4","5","4","5","5","5","4","5","4","4","4","4","5","5","2","6","5","5","3","6","2","4","3","1","5","2","5","2","3","6","5","4","5","4","3","6","6","5","3","6","5","5","7","6","5","7","5","5","6","6","5","5","3","6","793060622811144193","林","691","Male","[""坏他"",""好我"",""好他"",""坏我""]","[""弱他"",""强我"",""强他"",""弱我""]","","","","","","","","","","","","","","","","","","","","","","","","","","","","","","feedback_test","","","","","","","","",""
"1069","","f","psychophysics","124","346031","0.0-8.0-1.0-4.0-0.0-0.8","6","5","7","5","7","5","5","4","4","5","5","-3","-1","0","0","-3","2","1","2","4","5","4","5","4","5","4","5","4","5","5","5","4","5","4","4","4","4","5","5","2","6","5","5","3","6","2","4","3","1","5","2","5","2","3","6","5","4","5","4","3","6","6","5","3","6","5","5","7","6","5","7","5","5","6","6","5","5","3","6","793060622811144193","林","691","Male","[""坏他"",""好我"",""好他"",""坏我""]","[""弱他"",""强我"",""强他"",""弱我""]","","","","","","","","nonmatch","","","","","","","","","","key","f","16.667201612903288","683","380","f","true","nonmatch","img/square.png","强他","弱他","ALT2","ability","","","","","","","","",""
"null","<span style='color:GreenYellow; font-size: 70px;'>正确! </span>","null","html-keyboard-response","125","346534","0.0-8.0-1.0-4.0-0.0-1.8","6","5","7","5","7","5","5","4","4","5","5","-3","-1","0","0","-3","2","1","2","4","5","4","5","4","5","4","5","4","5","5","5","4","5","4","4","4","4","5","5","2","6","5","5","3","6","2","4","3","1","5","2","5","2","3","6","5","4","5","4","3","6","6","5","3","6","5","5","7","6","5","7","5","5","6","6","5","5","3","6","793060622811144193","林","691","Male","[""坏他"",""好我"",""好他"",""坏我""]","[""弱他"",""强我"",""强他"",""弱我""]","","","","","","","","","","","","","","","","","","","","","","","","","","","","","","feedback_test","","","","","","","","",""
"968","","f","psychophysics","126","348513","0.0-8.0-1.0-4.0-0.0-0.9","6","5","7","5","7","5","5","4","4","5","5","-3","-1","0","0","-3","2","1","2","4","5","4","5","4","5","4","5","4","5","5","5","4","5","4","4","4","4","5","5","2","6","5","5","3","6","2","4","3","1","5","2","5","2","3","6","5","4","5","4","3","6","6","5","3","6","5","5","7","6","5","7","5","5","6","6","5","5","3","6","793060622811144193","林","691","Male","[""坏他"",""好我"",""好他"",""坏我""]","[""弱他"",""强我"",""强他"",""弱我""]","","","","","","","","nonmatch","","","","","","","","","","key","f","16.808666666666678","683","380","f","true","nonmatch","img/hexagon.png","强我","强他","ALT2","ability","","","","","","","","",""
"null","<span style='color:GreenYellow; font-size: 70px;'>正确! </span>","null","html-keyboard-response","127","349022","0.0-8.0-1.0-4.0-0.0-1.9","6","5","7","5","7","5","5","4","4","5","5","-3","-1","0","0","-3","2","1","2","4","5","4","5","4","5","4","5","4","5","5","5","4","5","4","4","4","4","5","5","2","6","5","5","3","6","2","4","3","1","5","2","5","2","3","6","5","4","5","4","3","6","6","5","3","6","5","5","7","6","5","7","5","5","6","6","5","5","3","6","793060622811144193","林","691","Male","[""坏他"",""好我"",""好他"",""坏我""]","[""弱他"",""强我"",""强他"",""弱我""]","","","","","","","","","","","","","","","","","","","","","","","","","","","","","","feedback_test","","","","","","","","",""
"1163","","j","psychophysics","128","351192","0.0-8.0-1.0-4.0-0.0-0.10","6","5","7","5","7","5","5","4","4","5","5","-3","-1","0","0","-3","2","1","2","4","5","4","5","4","5","4","5","4","5","5","5","4","5","4","4","4","4","5","5","2","6","5","5","3","6","2","4","3","1","5","2","5","2","3","6","5","4","5","4","3","6","6","5","3","6","5","5","7","6","5","7","5","5","6","6","5","5","3","6","793060622811144193","林","691","Male","[""坏他"",""好我"",""好他"",""坏我""]","[""弱他"",""强我"",""强他"",""弱我""]","","","","","","","","match","","","","","","","","","","key","j","16.667244094488574","683","380","j","true","match","img/hexagon.png","强他","强他","ALT2","ability","","","","","","","","",""
"null","<span style='color:GreenYellow; font-size: 70px;'>正确! </span>","null","html-keyboard-response","129","351702","0.0-8.0-1.0-4.0-0.0-1.10","6","5","7","5","7","5","5","4","4","5","5","-3","-1","0","0","-3","2","1","2","4","5","4","5","4","5","4","5","4","5","5","5","4","5","4","4","4","4","5","5","2","6","5","5","3","6","2","4","3","1","5","2","5","2","3","6","5","4","5","4","3","6","6","5","3","6","5","5","7","6","5","7","5","5","6","6","5","5","3","6","793060622811144193","林","691","Male","[""坏他"",""好我"",""好他"",""坏我""]","[""弱他"",""强我"",""强他"",""弱我""]","","","","","","","","","","","","","","","","","","","","","","","","","","","","","","feedback_test","","","","","","","","",""
"1122","","f","psychophysics","130","353832","0.0-8.0-1.0-4.0-0.0-0.11","6","5","7","5","7","5","5","4","4","5","5","-3","-1","0","0","-3","2","1","2","4","5","4","5","4","5","4","5","4","5","5","5","4","5","4","4","4","4","5","5","2","6","5","5","3","6","2","4","3","1","5","2","5","2","3","6","5","4","5","4","3","6","6","5","3","6","5","5","7","6","5","7","5","5","6","6","5","5","3","6","793060622811144193","林","691","Male","[""坏他"",""好我"",""好他"",""坏我""]","[""弱他"",""强我"",""强他"",""弱我""]","","","","","","","","nonmatch","","","","","","","","","","key","f","16.794087301587247","683","380","f","true","nonmatch","img/circle.png","强我","弱我","ALT2","ability","","","","","","","","",""
"null","<span style='color:GreenYellow; font-size: 70px;'>正确! </span>","null","html-keyboard-response","131","354342","0.0-8.0-1.0-4.0-0.0-1.11","6","5","7","5","7","5","5","4","4","5","5","-3","-1","0","0","-3","2","1","2","4","5","4","5","4","5","4","5","4","5","5","5","4","5","4","4","4","4","5","5","2","6","5","5","3","6","2","4","3","1","5","2","5","2","3","6","5","4","5","4","3","6","6","5","3","6","5","5","7","6","5","7","5","5","6","6","5","5","3","6","793060622811144193","林","691","Male","[""坏他"",""好我"",""好他"",""坏我""]","[""弱他"",""强我"",""强他"",""弱我""]","","","","","","","","","","","","","","","","","","","","","","","","","","","","","","feedback_test","","","","","","","","",""
"960","","j","psychophysics","132","356304","0.0-8.0-1.0-4.0-0.0-0.12","6","5","7","5","7","5","5","4","4","5","5","-3","-1","0","0","-3","2","1","2","4","5","4","5","4","5","4","5","4","5","5","5","4","5","4","4","4","4","5","5","2","6","5","5","3","6","2","4","3","1","5","2","5","2","3","6","5","4","5","4","3","6","6","5","3","6","5","5","7","6","5","7","5","5","6","6","5","5","3","6","793060622811144193","林","691","Male","[""坏他"",""好我"",""好他"",""坏我""]","[""弱他"",""强我"",""强他"",""弱我""]","","","","","","","","match","","","","","","","","","","key","j","16.66916666666644","683","380","j","true","match","img/triangle.png","强我","强我","ALT2","ability","","","","","","","","",""
"null","<span style='color:GreenYellow; font-size: 70px;'>正确! </span>","null","html-keyboard-response","133","356813","0.0-8.0-1.0-4.0-0.0-1.12","6","5","7","5","7","5","5","4","4","5","5","-3","-1","0","0","-3","2","1","2","4","5","4","5","4","5","4","5","4","5","5","5","4","5","4","4","4","4","5","5","2","6","5","5","3","6","2","4","3","1","5","2","5","2","3","6","5","4","5","4","3","6","6","5","3","6","5","5","7","6","5","7","5","5","6","6","5","5","3","6","793060622811144193","林","691","Male","[""坏他"",""好我"",""好他"",""坏我""]","[""弱他"",""强我"",""强他"",""弱我""]","","","","","","","","","","","","","","","","","","","","","","","","","","","","","","feedback_test","","","","","","","","",""
"null","","null","psychophysics","134","359022","0.0-8.0-1.0-4.0-0.0-0.13","6","5","7","5","7","5","5","4","4","5","5","-3","-1","0","0","-3","2","1","2","4","5","4","5","4","5","4","5","4","5","5","5","4","5","4","4","4","4","5","5","2","6","5","5","3","6","2","4","3","1","5","2","5","2","3","6","5","4","5","4","3","6","6","5","3","6","5","5","7","6","5","7","5","5","6","6","5","5","3","6","793060622811144193","林","691","Male","[""坏他"",""好我"",""好他"",""坏我""]","[""弱他"",""强我"",""强他"",""弱我""]","","","","","","","","null","","","","","","","","","","key","null","16.794146153846164","683","380","f","false","nonmatch","img/square.png","弱我","弱他","ALT2","ability","","","","","","","","",""
"null","<span class='add_' style='color:yellow; font-size: 70px;'> 太慢! </span>","null","html-keyboard-response","135","359525","0.0-8.0-1.0-4.0-0.0-1.13","6","5","7","5","7","5","5","4","4","5","5","-3","-1","0","0","-3","2","1","2","4","5","4","5","4","5","4","5","4","5","5","5","4","5","4","4","4","4","5","5","2","6","5","5","3","6","2","4","3","1","5","2","5","2","3","6","5","4","5","4","3","6","6","5","3","6","5","5","7","6","5","7","5","5","6","6","5","5","3","6","793060622811144193","林","691","Male","[""坏他"",""好我"",""好他"",""坏我""]","[""弱他"",""强我"",""强他"",""弱我""]","","","","","","","","","","","","","","","","","","","","","","","","","","","","","","feedback_test","","","","","","","","",""
"960","","j","psychophysics","136","361487","0.0-8.0-1.0-4.0-0.0-0.14","6","5","7","5","7","5","5","4","4","5","5","-3","-1","0","0","-3","2","1","2","4","5","4","5","4","5","4","5","4","5","5","5","4","5","4","4","4","4","5","5","2","6","5","5","3","6","2","4","3","1","5","2","5","2","3","6","5","4","5","4","3","6","6","5","3","6","5","5","7","6","5","7","5","5","6","6","5","5","3","6","793060622811144193","林","691","Male","[""坏他"",""好我"",""好他"",""坏我""]","[""弱他"",""强我"",""强他"",""弱我""]","","","","","","","","match","","","","","","","","","","key","j","16.674568965517242","683","380","j","true","match","img/circle.png","弱我","弱我","ALT2","ability","","","","","","","","",""
"null","<span style='color:GreenYellow; font-size: 70px;'>正确! </span>","null","html-keyboard-response","137","361990","0.0-8.0-1.0-4.0-0.0-1.14","6","5","7","5","7","5","5","4","4","5","5","-3","-1","0","0","-3","2","1","2","4","5","4","5","4","5","4","5","4","5","5","5","4","5","4","4","4","4","5","5","2","6","5","5","3","6","2","4","3","1","5","2","5","2","3","6","5","4","5","4","3","6","6","5","3","6","5","5","7","6","5","7","5","5","6","6","5","5","3","6","793060622811144193","林","691","Male","[""坏他"",""好我"",""好他"",""坏我""]","[""弱他"",""强我"",""强他"",""弱我""]","","","","","","","","","","","","","","","","","","","","","","","","","","","","","","feedback_test","","","","","","","","",""
