"rt","stimulus","response","trial_type","trial_index","time_elapsed","internal_node_id","swb_1","swb_2","swb_3","swb_4","swb_5","LOT_1","LOT_2","LOT_3","LOT_4","LOT_5","LOT_6","IPC_1","IPC_2","IPC_3","IPC_4","IPC_5","IPC_6","IPC_7","IPC_8","MorIden_1","MorIden_2","MorIden_3","MorIden_4","MorIden_5","MorIden_6","MorIden_7","MorIden_8","MorIden_9","MorIden_10","moralSeImag_1","moralSeImag_2","moralSeImag_3","moralSeImag_4","moralSeImag_5","moralSeImag_6","moralSeImag_7","moralSeImag_8","moralSeImag_9","sde_1","sde_2","sde_3","sde_4","sde_5","sde_6","sde_7","sde_8","sde_9","sde_10","trap2","sde_11","sde_12","sde_13","sde_14","sde_15","sde_16","sde_17","sde_18","sde_19","sde_20","IM_1","IM_2","IM_3","IM_4","IM_5","IM_6","IM_7","IM_8","IM_9","IM_10","IM_11","IM_12","IM_13","IM_14","IM_15","IM_16","IM_17","IM_18","IM_19","IM_20","subj_idx","friend_name","ParticipantID","Sex","Word","Word2","value","success","timeout","failed_images","failed_audio","failed_video","user_agent","responses","item_order","radio_event_ids","radio_event_times","key_event_times","mouse_event_times","straightlining","zigzagging","honeypot","task_id","screen_id","time_stamp","response_type","key_press","avg_frame_time","center_x","center_y","person","word","valence","domain","math","correct_response","correct","status","view_history","identity","duration","Image","condition","question_order","trap2_item"
"3848","
   <p><div style='color:white; font-size: 25px'>您好，欢迎参加本次实验。</div></p>
   <p><div style='color:white; font-size: 25px'>为充分保障您的权利，请确保您已经知晓并同意《参与实验同意书》以及《数据公开知情同意书》。</div></p>
   <p><div style='color:white; font-size: 25px'>如果您未见过上述内容，请咨询实验员。</div></p>
   <p style='color:white; font-size: 25px'>如果您选择继续实验，则表示您已经清楚两份知情同意书的内容并同意。</p>
   <p><div style = ""color: pink;font-size:30px;"">请确保您记得day0的实验编号，您将在本次实验输入该编号，若您忘记，请咨询实验员后作答。</div></p>
   <p><div style = ""color:lightblue;font-size:25px;"">请您尽可能认真地作答，我们将依据您在各问卷和按键任务中的作答质量发放报酬。</div></p>
   <p> <div style = ""color: green""><按空格键至下页></div> </p>
   "," ","html-keyboard-response","0","3855","0.0-0.0","4","4","3","3","2","4","4","4","5","5","4","0","-1","-1","0","-3","0","1","1","4","4","5","5","4","4","5","4","4","3","5","6","5","5","5","6","5","6","7","4","5","5","6","4","4","3","6","4","4","1","3","3","5","4","3","6","3","4","5","6","3","3","3","6","4","6","5","5","6","5","5","5","5","5","3","6","3","5","2","6","781449352643350529","姜","201","Male","[""坏我"",""好他"",""坏他"",""好我""]","[""弱我"",""强他"",""弱他"",""强我""]","","","","","","","","","","","","","","","","","","","","","","","","","","","","","","","","","","","","","","",""
"","","","call-function","1","3858","0.0-1.0-0.0","4","4","3","3","2","4","4","4","5","5","4","0","-1","-1","0","-3","0","1","1","4","4","5","5","4","4","5","4","4","3","5","6","5","5","5","6","5","6","7","4","5","5","6","4","4","3","6","4","4","1","3","3","5","4","3","6","3","4","5","6","3","3","3","6","4","6","5","5","6","5","5","5","5","5","3","6","3","5","2","6","781449352643350529","姜","201","Male","[""坏我"",""好他"",""坏他"",""好我""]","[""弱我"",""强他"",""弱他"",""强我""]","","","","","","","","","","","","","","","","","","","","","","","","","","","","","","","","","","","","","","",""
"21744","","[{""name"":""Sex"",""value"":""0""},{""name"":""friend_name"",""value"":""姜""},{""name"":""ParticipantID"",""value"":""201""}]","survey-html-form","2","25631","0.0-1.0-1.0","4","4","3","3","2","4","4","4","5","5","4","0","-1","-1","0","-3","0","1","1","4","4","5","5","4","4","5","4","4","3","5","6","5","5","5","6","5","6","7","4","5","5","6","4","4","3","6","4","4","1","3","3","5","4","3","6","3","4","5","6","3","3","3","6","4","6","5","5","6","5","5","5","5","5","3","6","3","5","2","6","781449352643350529","姜","201","Male","[""坏我"",""好他"",""坏他"",""好我""]","[""弱我"",""强他"",""弱他"",""强我""]","","","","","","","","","","","","","","","","","","","","","","","","","","","","","","","","","","","","","","",""
"","","","preload","3","26024","0.0-2.0","4","4","3","3","2","4","4","4","5","5","4","0","-1","-1","0","-3","0","1","1","4","4","5","5","4","4","5","4","4","3","5","6","5","5","5","6","5","6","7","4","5","5","6","4","4","3","6","4","4","1","3","3","5","4","3","6","3","4","5","6","3","3","3","6","4","6","5","5","6","5","5","5","5","5","3","6","3","5","2","6","781449352643350529","姜","201","Male","[""坏我"",""好他"",""坏他"",""好我""]","[""弱我"",""强他"",""弱他"",""强我""]","","true","false","[]","[]","[]","","","","","","","","","","","","","","","","","","","","","","","","","","","","","","","","",""
"","","","fullscreen","4","27394","0.0-3.0","4","4","3","3","2","4","4","4","5","5","4","0","-1","-1","0","-3","0","1","1","4","4","5","5","4","4","5","4","4","3","5","6","5","5","5","6","5","6","7","4","5","5","6","4","4","3","6","4","4","1","3","3","5","4","3","6","3","4","5","6","3","3","3","6","4","6","5","5","6","5","5","5","5","5","3","6","3","5","2","6","781449352643350529","姜","201","Male","[""坏我"",""好他"",""坏他"",""好我""]","[""弱我"",""强他"",""弱他"",""强我""]","","true","","","","","{}","","","","","","","","","","","","","","","","","","","","","","","","","","","","","","","",""
"11659.700000047684","","{""Q01"":""4"",""Q02"":""4"",""Q03"":""3"",""Q04"":""3"",""Q05"":""2""}","survey-template","5","39061","0.0-4.0","4","4","3","3","2","4","4","4","5","5","4","0","-1","-1","0","-3","0","1","1","4","4","5","5","4","4","5","4","4","3","5","6","5","5","5","6","5","6","7","4","5","5","6","4","4","3","6","4","4","1","3","3","5","4","3","6","3","4","5","6","3","3","3","6","4","6","5","5","6","5","5","5","5","5","3","6","3","5","2","6","781449352643350529","姜","201","Male","[""坏我"",""好他"",""坏他"",""好我""]","[""弱我"",""强他"",""弱他"",""强我""]","","","","","","","","{""Q01"":""4"",""Q02"":""4"",""Q03"":""3"",""Q04"":""3"",""Q05"":""2""}","[0,1,2,3,4]","[""Q01"",""Q02"",""Q03"",""Q04"",""Q05""]","[2289,3826.300000190735,7082.200000047684,8856.400000095367,10836.200000047684]","[]","[2289,3826.300000190735,7082.200000047684,8856.400000095367,10276.400000095367,10836.200000047684,11656.5]","0.4","0.5","0","","","","","","","","","","","","","","","","","","","","","","",""
"19007.099999904633","","{""Q01"":""4"",""Q02"":""4"",""Q03"":""4"",""Q04"":""5"",""Q05"":""5"",""Q06"":""4""}","survey-template","6","58075","0.0-5.0","4","4","3","3","2","4","4","4","5","5","4","0","-1","-1","0","-3","0","1","1","4","4","5","5","4","4","5","4","4","3","5","6","5","5","5","6","5","6","7","4","5","5","6","4","4","3","6","4","4","1","3","3","5","4","3","6","3","4","5","6","3","3","3","6","4","6","5","5","6","5","5","5","5","5","3","6","3","5","2","6","781449352643350529","姜","201","Male","[""坏我"",""好他"",""坏他"",""好我""]","[""弱我"",""强他"",""弱他"",""强我""]","","","","","","","","{""Q01"":""4"",""Q02"":""4"",""Q03"":""4"",""Q04"":""5"",""Q05"":""5"",""Q06"":""4""}","[0,1,2,3,4,5]","[""Q01"",""Q02"",""Q03"",""Q03"",""Q04"",""Q05"",""Q06""]","[2051.7999999523163,5947.799999952316,7675.799999952316,9385.900000095367,12815.700000047684,13765.5,17595.700000047684]","[]","[2051.7999999523163,5947.799999952316,7675.799999952316,9032.099999904633,9385.900000095367,12280.200000047684,12815.700000047684,13765.5,17595.700000047684,19005.799999952316]","0.5","0","0","","","","","","","","","","","","","","","","","","","","","","",""
"20291.599999904633","","{""Q01"":""0"",""Q02"":""-1"",""Q03"":""-1"",""Q04"":""0"",""Q05"":""-3"",""Q06"":""0"",""Q07"":""1"",""Q08"":""1""}","survey-template","7","78374","0.0-6.0","4","4","3","3","2","4","4","4","5","5","4","0","-1","-1","0","-3","0","1","1","4","4","5","5","4","4","5","4","4","3","5","6","5","5","5","6","5","6","7","4","5","5","6","4","4","3","6","4","4","1","3","3","5","4","3","6","3","4","5","6","3","3","3","6","4","6","5","5","6","5","5","5","5","5","3","6","3","5","2","6","781449352643350529","姜","201","Male","[""坏我"",""好他"",""坏他"",""好我""]","[""弱我"",""强他"",""弱他"",""强我""]","","","","","","","","{""Q01"":""0"",""Q02"":""-1"",""Q03"":""-1"",""Q04"":""0"",""Q05"":""-3"",""Q06"":""0"",""Q07"":""1"",""Q08"":""1""}","[0,1,2,3,4,5,6,7]","[""Q01"",""Q01"",""Q02"",""Q03"",""Q04"",""Q05"",""Q06"",""Q07"",""Q08""]","[2942,3051.5999999046326,5811.900000095367,7971.799999952316,10668.599999904633,12237.700000047684,14309.799999952316,17897.700000047684,19626.200000047684]","[]","[2633.7000000476837,2942,3051.5999999046326,5811.900000095367,7971.799999952316,10116.799999952316,10668.599999904633,12237.700000047684,14004,14309.799999952316,17897.700000047684,19626.200000047684,20287.900000095367]","0.375","0.42857142857142855","0","","","","","","","","","","","","","","","","","","","","","","",""
"16896","
    <p><div style='color:white;font-size:35px; line-height:20px;'>词汇评估任务</div></p><br>
    <p><div style='color:white;font-size:25px; line-height:20px;'>请再次回忆该亲密的朋友，你们至少2年前就认识了，并且最近2年经常见面。</div></p>
    <p><div style='color:white;font-size:25px; line-height:20px;'>在本实验中，您将会看到一些形容词。</div></p>
    <p><div style='color:yellow;font-size:25px; line-height:20px;'>您的任务是判断这些形容词是否符合对您自己或您的朋友的描述。</div></p><p style='font-size:35px'>符合按<span style=""color:lightgreen""> j 键</span>，不符合按<span style=""color:red""> f 键</span></p>","0","html-button-response","8","95276","0.0-7.0-0.0","4","4","3","3","2","4","4","4","5","5","4","0","-1","-1","0","-3","0","1","1","4","4","5","5","4","4","5","4","4","3","5","6","5","5","5","6","5","6","7","4","5","5","6","4","4","3","6","4","4","1","3","3","5","4","3","6","3","4","5","6","3","3","3","6","4","6","5","5","6","5","5","5","5","5","3","6","3","5","2","6","781449352643350529","姜","201","Male","[""坏我"",""好他"",""坏他"",""好我""]","[""弱我"",""强他"",""弱他"",""强我""]","","","","","","","","","","","","","","","","","SRET_EW","EW_instructions","Mon Jan 29 2024 20:28:46 GMT+0800 (中国标准时间)","","","","","","","","","","","","","","","","","","","",""
"1383","","j","psychophysics","9","97690","0.0-7.0-1.0-0.0","4","4","3","3","2","4","4","4","5","5","4","0","-1","-1","0","-3","0","1","1","4","4","5","5","4","4","5","4","4","3","5","6","5","5","5","6","5","6","7","4","5","5","6","4","4","3","6","4","4","1","3","3","5","4","3","6","3","4","5","6","3","3","3","6","4","6","5","5","6","5","5","5","5","5","3","6","3","5","2","6","781449352643350529","姜","201","Male","[""坏我"",""好他"",""坏他"",""好我""]","[""弱我"",""强他"",""弱他"",""强我""]","","","","","","","","yes","","","","","","","","","SRET_EW","EW_practice","","key","j","16.80189510489512","640","356","朋友","徇私","Negative","morality","","","","","","","","","","",""
"null","","null","psychophysics","10","100693","0.0-7.0-1.0-0.1","4","4","3","3","2","4","4","4","5","5","4","0","-1","-1","0","-3","0","1","1","4","4","5","5","4","4","5","4","4","3","5","6","5","5","5","6","5","6","7","4","5","5","6","4","4","3","6","4","4","1","3","3","5","4","3","6","3","4","5","6","3","3","3","6","4","6","5","5","6","5","5","5","5","5","3","6","3","5","2","6","781449352643350529","姜","201","Male","[""坏我"",""好他"",""坏他"",""好我""]","[""弱我"",""强他"",""弱他"",""强我""]","","","","","","","","","","","","","","","","","SRET_EW","EW_practice","","key","null","16.685206703910627","640","356","朋友","忠实","Positive","morality","","","","","","","","","","",""
"927","","j","psychophysics","11","102623","0.0-7.0-1.0-0.2","4","4","3","3","2","4","4","4","5","5","4","0","-1","-1","0","-3","0","1","1","4","4","5","5","4","4","5","4","4","3","5","6","5","5","5","6","5","6","7","4","5","5","6","4","4","3","6","4","4","1","3","3","5","4","3","6","3","4","5","6","3","3","3","6","4","6","5","5","6","5","5","5","5","5","3","6","3","5","2","6","781449352643350529","姜","201","Male","[""坏我"",""好他"",""坏他"",""好我""]","[""弱我"",""强他"",""弱他"",""强我""]","","","","","","","","yes","","","","","","","","","SRET_EW","EW_practice","","key","j","16.685052173913068","640","356","自己","严谨","Positive","ability","","","","","","","","","","",""
"956","","f","psychophysics","12","104583","0.0-7.0-1.0-0.3","4","4","3","3","2","4","4","4","5","5","4","0","-1","-1","0","-3","0","1","1","4","4","5","5","4","4","5","4","4","3","5","6","5","5","5","6","5","6","7","4","5","5","6","4","4","3","6","4","4","1","3","3","5","4","3","6","3","4","5","6","3","3","3","6","4","6","5","5","6","5","5","5","5","5","3","6","3","5","2","6","781449352643350529","姜","201","Male","[""坏我"",""好他"",""坏他"",""好我""]","[""弱我"",""强他"",""弱他"",""强我""]","","","","","","","","no","","","","","","","","","SRET_EW","EW_practice","","key","f","16.685051724137935","640","356","自己","刻板","Negative","ability","","","","","","","","","","",""
"6388","
    <p><div style='color:white;font-size:35px; line-height:20px;'>请您再次阅读实验要求</div></p><br>
    <p><div style='color:white;font-size:25px; line-height:20px;'>请回忆某一个亲密的朋友，你们至少2年前就认识了，并且最近2年经常见面。</div></p>
    <p><div style='color:white;font-size:25px; line-height:20px;'>在本实验中，您将会看到一些形容词。</div></p>
    <p><div style='color:yellow;font-size:25px; line-height:20px;'>您的任务是判断这些形容词是否符合对您自己或您的朋友的描述。</div></p>
    <p><div class='footer' style='font-size:25px; line-height:20px;'>如果对本实验还有不清楚之处，请立即向实验员咨询。</p><p style='font-size:25px; line-height:20px;'>如果您明白了规则：</p><p style='font-size:22px; line-height:20px;'>请按 继续 进入正式实验</p>
    </div>
    <p style='font-size:35px'>符合按<span style=""color:lightgreen""> j 键</span>，不符合按<span style=""color:red""> f 键</span></p>","0","html-button-response","13","110973","0.0-7.0-2.0","4","4","3","3","2","4","4","4","5","5","4","0","-1","-1","0","-3","0","1","1","4","4","5","5","4","4","5","4","4","3","5","6","5","5","5","6","5","6","7","4","5","5","6","4","4","3","6","4","4","1","3","3","5","4","3","6","3","4","5","6","3","3","3","6","4","6","5","5","6","5","5","5","5","5","3","6","3","5","2","6","781449352643350529","姜","201","Male","[""坏我"",""好他"",""坏他"",""好我""]","[""弱我"",""强他"",""弱他"",""强我""]","","","","","","","","","","","","","","","","","SRET_EW","prac_instructions","Mon Jan 29 2024 20:28:46 GMT+0800 (中国标准时间)","","","","","","","","","","","","","","","","","","","",""
"632","","f","psychophysics","14","112608","0.0-7.0-3.0-0.0","4","4","3","3","2","4","4","4","5","5","4","0","-1","-1","0","-3","0","1","1","4","4","5","5","4","4","5","4","4","3","5","6","5","5","5","6","5","6","7","4","5","5","6","4","4","3","6","4","4","1","3","3","5","4","3","6","3","4","5","6","3","3","3","6","4","6","5","5","6","5","5","5","5","5","3","6","3","5","2","6","781449352643350529","姜","201","Male","[""坏我"",""好他"",""坏他"",""好我""]","[""弱我"",""强他"",""弱他"",""强我""]","","","","","","","","no","","","","","","","","","SRET","EW_formal","","key","f","16.628561224489815","640","356","自己","说谎","Negative","morality","","","","","","","","","","",""
"1013","","j","psychophysics","15","114623","0.0-7.0-3.0-0.1","4","4","3","3","2","4","4","4","5","5","4","0","-1","-1","0","-3","0","1","1","4","4","5","5","4","4","5","4","4","3","5","6","5","5","5","6","5","6","7","4","5","5","6","4","4","3","6","4","4","1","3","3","5","4","3","6","3","4","5","6","3","3","3","6","4","6","5","5","6","5","5","5","5","5","3","6","3","5","2","6","781449352643350529","姜","201","Male","[""坏我"",""好他"",""坏他"",""好我""]","[""弱我"",""强他"",""弱他"",""强我""]","","","","","","","","yes","","","","","","","","","SRET","EW_formal","","key","j","16.685050000000047","640","356","朋友","迷糊","Negative","ability","","","","","","","","","","",""
"1074","","j","psychophysics","16","116700","0.0-7.0-3.0-0.2","4","4","3","3","2","4","4","4","5","5","4","0","-1","-1","0","-3","0","1","1","4","4","5","5","4","4","5","4","4","3","5","6","5","5","5","6","5","6","7","4","5","5","6","4","4","3","6","4","4","1","3","3","5","4","3","6","3","4","5","6","3","3","3","6","4","6","5","5","6","5","5","5","5","5","3","6","3","5","2","6","781449352643350529","姜","201","Male","[""坏我"",""好他"",""坏他"",""好我""]","[""弱我"",""强他"",""弱他"",""强我""]","","","","","","","","yes","","","","","","","","","SRET","EW_formal","","key","j","16.685121951219546","640","356","自己","坚贞","Positive","morality","","","","","","","","","","",""
"1301","","f","psychophysics","17","119012","0.0-7.0-3.0-0.3","4","4","3","3","2","4","4","4","5","5","4","0","-1","-1","0","-3","0","1","1","4","4","5","5","4","4","5","4","4","3","5","6","5","5","5","6","5","6","7","4","5","5","6","4","4","3","6","4","4","1","3","3","5","4","3","6","3","4","5","6","3","3","3","6","4","6","5","5","6","5","5","5","5","5","3","6","3","5","2","6","781449352643350529","姜","201","Male","[""坏我"",""好他"",""坏他"",""好我""]","[""弱我"",""强他"",""弱他"",""强我""]","","","","","","","","no","","","","","","","","","SRET","EW_formal","","key","f","16.684985507246417","640","356","朋友","务实","Positive","ability","","","","","","","","","","",""
"1702","","j","psychophysics","18","121715","0.0-7.0-3.0-0.4","4","4","3","3","2","4","4","4","5","5","4","0","-1","-1","0","-3","0","1","1","4","4","5","5","4","4","5","4","4","3","5","6","5","5","5","6","5","6","7","4","5","5","6","4","4","3","6","4","4","1","3","3","5","4","3","6","3","4","5","6","3","3","3","6","4","6","5","5","6","5","5","5","5","5","3","6","3","5","2","6","781449352643350529","姜","201","Male","[""坏我"",""好他"",""坏他"",""好我""]","[""弱我"",""强他"",""弱他"",""强我""]","","","","","","","","yes","","","","","","","","","SRET","EW_formal","","key","j","16.68500000000002","640","356","自己","屈才","Negative","ability","","","","","","","","","","",""
"1069","","f","psychophysics","19","123786","0.0-7.0-3.0-0.5","4","4","3","3","2","4","4","4","5","5","4","0","-1","-1","0","-3","0","1","1","4","4","5","5","4","4","5","4","4","3","5","6","5","5","5","6","5","6","7","4","5","5","6","4","4","3","6","4","4","1","3","3","5","4","3","6","3","4","5","6","3","3","3","6","4","6","5","5","6","5","5","5","5","5","3","6","3","5","2","6","781449352643350529","姜","201","Male","[""坏我"",""好他"",""坏他"",""好我""]","[""弱我"",""强他"",""弱他"",""强我""]","","","","","","","","no","","","","","","","","","SRET","EW_formal","","key","f","16.68497560975604","640","356","朋友","虚假","Negative","morality","","","","","","","","","","",""
"1128","","j","psychophysics","20","125916","0.0-7.0-3.0-0.6","4","4","3","3","2","4","4","4","5","5","4","0","-1","-1","0","-3","0","1","1","4","4","5","5","4","4","5","4","4","3","5","6","5","5","5","6","5","6","7","4","5","5","6","4","4","3","6","4","4","1","3","3","5","4","3","6","3","4","5","6","3","3","3","6","4","6","5","5","6","5","5","5","5","5","3","6","3","5","2","6","781449352643350529","姜","201","Male","[""坏我"",""好他"",""坏他"",""好我""]","[""弱我"",""强他"",""弱他"",""强我""]","","","","","","","","yes","","","","","","","","","SRET","EW_formal","","key","j","16.684897637795306","640","356","自己","侠义","Positive","morality","","","","","","","","","","",""
"903","","f","psychophysics","21","127821","0.0-7.0-3.0-0.7","4","4","3","3","2","4","4","4","5","5","4","0","-1","-1","0","-3","0","1","1","4","4","5","5","4","4","5","4","4","3","5","6","5","5","5","6","5","6","7","4","5","5","6","4","4","3","6","4","4","1","3","3","5","4","3","6","3","4","5","6","3","3","3","6","4","6","5","5","6","5","5","5","5","5","3","6","3","5","2","6","781449352643350529","姜","201","Male","[""坏我"",""好他"",""坏他"",""好我""]","[""弱我"",""强他"",""弱他"",""强我""]","","","","","","","","no","","","","","","","","","SRET","EW_formal","","key","f","16.685061946902625","640","356","朋友","毅力","Positive","ability","","","","","","","","","","",""
"857","","f","psychophysics","22","129680","0.0-7.0-3.0-0.8","4","4","3","3","2","4","4","4","5","5","4","0","-1","-1","0","-3","0","1","1","4","4","5","5","4","4","5","4","4","3","5","6","5","5","5","6","5","6","7","4","5","5","6","4","4","3","6","4","4","1","3","3","5","4","3","6","3","4","5","6","3","3","3","6","4","6","5","5","6","5","5","5","5","5","3","6","3","5","2","6","781449352643350529","姜","201","Male","[""坏我"",""好他"",""坏他"",""好我""]","[""弱我"",""强他"",""弱他"",""强我""]","","","","","","","","no","","","","","","","","","SRET","EW_formal","","key","f","16.684900000000066","640","356","朋友","勤奋","Positive","ability","","","","","","","","","","",""
"702","","j","psychophysics","23","131393","0.0-7.0-3.0-0.9","4","4","3","3","2","4","4","4","5","5","4","0","-1","-1","0","-3","0","1","1","4","4","5","5","4","4","5","4","4","3","5","6","5","5","5","6","5","6","7","4","5","5","6","4","4","3","6","4","4","1","3","3","5","4","3","6","3","4","5","6","3","3","3","6","4","6","5","5","6","5","5","5","5","5","3","6","3","5","2","6","781449352643350529","姜","201","Male","[""坏我"",""好他"",""坏他"",""好我""]","[""弱我"",""强他"",""弱他"",""强我""]","","","","","","","","yes","","","","","","","","","SRET","EW_formal","","key","j","16.68513725490187","640","356","自己","高尚","Positive","morality","","","","","","","","","","",""
"771","","f","psychophysics","24","133167","0.0-7.0-3.0-0.10","4","4","3","3","2","4","4","4","5","5","4","0","-1","-1","0","-3","0","1","1","4","4","5","5","4","4","5","4","4","3","5","6","5","5","5","6","5","6","7","4","5","5","6","4","4","3","6","4","4","1","3","3","5","4","3","6","3","4","5","6","3","3","3","6","4","6","5","5","6","5","5","5","5","5","3","6","3","5","2","6","781449352643350529","姜","201","Male","[""坏我"",""好他"",""坏他"",""好我""]","[""弱我"",""强他"",""弱他"",""强我""]","","","","","","","","no","","","","","","","","","SRET","EW_formal","","key","f","16.684876190476295","640","356","自己","弱智","Negative","ability","","","","","","","","","","",""
"705","","f","psychophysics","25","134876","0.0-7.0-3.0-0.11","4","4","3","3","2","4","4","4","5","5","4","0","-1","-1","0","-3","0","1","1","4","4","5","5","4","4","5","4","4","3","5","6","5","5","5","6","5","6","7","4","5","5","6","4","4","3","6","4","4","1","3","3","5","4","3","6","3","4","5","6","3","3","3","6","4","6","5","5","6","5","5","5","5","5","3","6","3","5","2","6","781449352643350529","姜","201","Male","[""坏我"",""好他"",""坏他"",""好我""]","[""弱我"",""强他"",""弱他"",""强我""]","","","","","","","","no","","","","","","","","","SRET","EW_formal","","key","f","16.684960784313528","640","356","自己","邪恶","Negative","morality","","","","","","","","","","",""
"856","","f","psychophysics","26","136733","0.0-7.0-3.0-0.12","4","4","3","3","2","4","4","4","5","5","4","0","-1","-1","0","-3","0","1","1","4","4","5","5","4","4","5","4","4","3","5","6","5","5","5","6","5","6","7","4","5","5","6","4","4","3","6","4","4","1","3","3","5","4","3","6","3","4","5","6","3","3","3","6","4","6","5","5","6","5","5","5","5","5","3","6","3","5","2","6","781449352643350529","姜","201","Male","[""坏我"",""好他"",""坏他"",""好我""]","[""弱我"",""强他"",""弱他"",""强我""]","","","","","","","","no","","","","","","","","","SRET","EW_formal","","key","f","16.684900000000066","640","356","自己","新手","Negative","ability","","","","","","","","","","",""
"1445","","j","psychophysics","27","139181","0.0-7.0-3.0-0.13","4","4","3","3","2","4","4","4","5","5","4","0","-1","-1","0","-3","0","1","1","4","4","5","5","4","4","5","4","4","3","5","6","5","5","5","6","5","6","7","4","5","5","6","4","4","3","6","4","4","1","3","3","5","4","3","6","3","4","5","6","3","3","3","6","4","6","5","5","6","5","5","5","5","5","3","6","3","5","2","6","781449352643350529","姜","201","Male","[""坏我"",""好他"",""坏他"",""好我""]","[""弱我"",""强他"",""弱他"",""强我""]","","","","","","","","yes","","","","","","","","","SRET","EW_formal","","key","j","16.684986301369875","640","356","朋友","拜金","Negative","morality","","","","","","","","","","",""
"809","","j","psychophysics","28","140993","0.0-7.0-3.0-0.14","4","4","3","3","2","4","4","4","5","5","4","0","-1","-1","0","-3","0","1","1","4","4","5","5","4","4","5","4","4","3","5","6","5","5","5","6","5","6","7","4","5","5","6","4","4","3","6","4","4","1","3","3","5","4","3","6","3","4","5","6","3","3","3","6","4","6","5","5","6","5","5","5","5","5","3","6","3","5","2","6","781449352643350529","姜","201","Male","[""坏我"",""好他"",""坏他"",""好我""]","[""弱我"",""强他"",""弱他"",""强我""]","","","","","","","","yes","","","","","","","","","SRET","EW_formal","","key","j","16.684859813084103","640","356","朋友","迂拙","Negative","ability","","","","","","","","","","",""
"716","","f","psychophysics","29","142736","0.0-7.0-3.0-0.15","4","4","3","3","2","4","4","4","5","5","4","0","-1","-1","0","-3","0","1","1","4","4","5","5","4","4","5","4","4","3","5","6","5","5","5","6","5","6","7","4","5","5","6","4","4","3","6","4","4","1","3","3","5","4","3","6","3","4","5","6","3","3","3","6","4","6","5","5","6","5","5","5","5","5","3","6","3","5","2","6","781449352643350529","姜","201","Male","[""坏我"",""好他"",""坏他"",""好我""]","[""弱我"",""强他"",""弱他"",""强我""]","","","","","","","","no","","","","","","","","","SRET","EW_formal","","key","f","16.68504807692303","640","356","朋友","守信","Positive","morality","","","","","","","","","","",""
"833","","j","psychophysics","30","144570","0.0-7.0-3.0-0.16","4","4","3","3","2","4","4","4","5","5","4","0","-1","-1","0","-3","0","1","1","4","4","5","5","4","4","5","4","4","3","5","6","5","5","5","6","5","6","7","4","5","5","6","4","4","3","6","4","4","1","3","3","5","4","3","6","3","4","5","6","3","3","3","6","4","6","5","5","6","5","5","5","5","5","3","6","3","5","2","6","781449352643350529","姜","201","Male","[""坏我"",""好他"",""坏他"",""好我""]","[""弱我"",""强他"",""弱他"",""强我""]","","","","","","","","yes","","","","","","","","","SRET","EW_formal","","key","j","16.684963302752493","640","356","朋友","不仁","Negative","morality","","","","","","","","","","",""
"1184","","j","psychophysics","31","146756","0.0-7.0-3.0-0.17","4","4","3","3","2","4","4","4","5","5","4","0","-1","-1","0","-3","0","1","1","4","4","5","5","4","4","5","4","4","3","5","6","5","5","5","6","5","6","7","4","5","5","6","4","4","3","6","4","4","1","3","3","5","4","3","6","3","4","5","6","3","3","3","6","4","6","5","5","6","5","5","5","5","5","3","6","3","5","2","6","781449352643350529","姜","201","Male","[""坏我"",""好他"",""坏他"",""好我""]","[""弱我"",""强他"",""弱他"",""强我""]","","","","","","","","yes","","","","","","","","","SRET","EW_formal","","key","j","16.684976923076857","640","356","自己","细心","Positive","ability","","","","","","","","","","",""
"1315","","f","psychophysics","32","149074","0.0-7.0-3.0-0.18","4","4","3","3","2","4","4","4","5","5","4","0","-1","-1","0","-3","0","1","1","4","4","5","5","4","4","5","4","4","3","5","6","5","5","5","6","5","6","7","4","5","5","6","4","4","3","6","4","4","1","3","3","5","4","3","6","3","4","5","6","3","3","3","6","4","6","5","5","6","5","5","5","5","5","3","6","3","5","2","6","781449352643350529","姜","201","Male","[""坏我"",""好他"",""坏他"",""好我""]","[""弱我"",""强他"",""弱他"",""强我""]","","","","","","","","no","","","","","","","","","SRET","EW_formal","","key","f","16.684671532846842","640","356","自己","迟钝","Negative","ability","","","","","","","","","","",""
"1736","","j","psychophysics","33","151814","0.0-7.0-3.0-0.19","4","4","3","3","2","4","4","4","5","5","4","0","-1","-1","0","-3","0","1","1","4","4","5","5","4","4","5","4","4","3","5","6","5","5","5","6","5","6","7","4","5","5","6","4","4","3","6","4","4","1","3","3","5","4","3","6","3","4","5","6","3","3","3","6","4","6","5","5","6","5","5","5","5","5","3","6","3","5","2","6","781449352643350529","姜","201","Male","[""坏我"",""好他"",""坏他"",""好我""]","[""弱我"",""强他"",""弱他"",""强我""]","","","","","","","","yes","","","","","","","","","SRET","EW_formal","","key","j","16.685054878048703","640","356","朋友","无助","Negative","ability","","","","","","","","","","",""
"898","","f","psychophysics","34","153715","0.0-7.0-3.0-0.20","4","4","3","3","2","4","4","4","5","5","4","0","-1","-1","0","-3","0","1","1","4","4","5","5","4","4","5","4","4","3","5","6","5","5","5","6","5","6","7","4","5","5","6","4","4","3","6","4","4","1","3","3","5","4","3","6","3","4","5","6","3","3","3","6","4","6","5","5","6","5","5","5","5","5","3","6","3","5","2","6","781449352643350529","姜","201","Male","[""坏我"",""好他"",""坏他"",""好我""]","[""弱我"",""强他"",""弱他"",""强我""]","","","","","","","","no","","","","","","","","","SRET","EW_formal","","key","f","16.685106194690405","640","356","朋友","高洁","Positive","morality","","","","","","","","","","",""
"619","","f","psychophysics","35","155337","0.0-7.0-3.0-0.21","4","4","3","3","2","4","4","4","5","5","4","0","-1","-1","0","-3","0","1","1","4","4","5","5","4","4","5","4","4","3","5","6","5","5","5","6","5","6","7","4","5","5","6","4","4","3","6","4","4","1","3","3","5","4","3","6","3","4","5","6","3","3","3","6","4","6","5","5","6","5","5","5","5","5","3","6","3","5","2","6","781449352643350529","姜","201","Male","[""坏我"",""好他"",""坏他"",""好我""]","[""弱我"",""强他"",""弱他"",""强我""]","","","","","","","","no","","","","","","","","","SRET","EW_formal","","key","f","16.684979166666682","640","356","自己","小人","Negative","morality","","","","","","","","","","",""
"761","","j","psychophysics","36","157101","0.0-7.0-3.0-0.22","4","4","3","3","2","4","4","4","5","5","4","0","-1","-1","0","-3","0","1","1","4","4","5","5","4","4","5","4","4","3","5","6","5","5","5","6","5","6","7","4","5","5","6","4","4","3","6","4","4","1","3","3","5","4","3","6","3","4","5","6","3","3","3","6","4","6","5","5","6","5","5","5","5","5","3","6","3","5","2","6","781449352643350529","姜","201","Male","[""坏我"",""好他"",""坏他"",""好我""]","[""弱我"",""强他"",""弱他"",""强我""]","","","","","","","","yes","","","","","","","","","SRET","EW_formal","","key","j","16.685380952380918","640","356","自己","孝顺","Positive","morality","","","","","","","","","","",""
"766","","f","psychophysics","37","158869","0.0-7.0-3.0-0.23","4","4","3","3","2","4","4","4","5","5","4","0","-1","-1","0","-3","0","1","1","4","4","5","5","4","4","5","4","4","3","5","6","5","5","5","6","5","6","7","4","5","5","6","4","4","3","6","4","4","1","3","3","5","4","3","6","3","4","5","6","3","3","3","6","4","6","5","5","6","5","5","5","5","5","3","6","3","5","2","6","781449352643350529","姜","201","Male","[""坏我"",""好他"",""坏他"",""好我""]","[""弱我"",""强他"",""弱他"",""强我""]","","","","","","","","no","","","","","","","","","SRET","EW_formal","","key","f","16.68499999999989","640","356","自己","昏庸","Negative","ability","","","","","","","","","","",""
"799","","f","psychophysics","38","160671","0.0-7.0-3.0-0.24","4","4","3","3","2","4","4","4","5","5","4","0","-1","-1","0","-3","0","1","1","4","4","5","5","4","4","5","4","4","3","5","6","5","5","5","6","5","6","7","4","5","5","6","4","4","3","6","4","4","1","3","3","5","4","3","6","3","4","5","6","3","3","3","6","4","6","5","5","6","5","5","5","5","5","3","6","3","5","2","6","781449352643350529","姜","201","Male","[""坏我"",""好他"",""坏他"",""好我""]","[""弱我"",""强他"",""弱他"",""强我""]","","","","","","","","no","","","","","","","","","SRET","EW_formal","","key","f","16.684962616822407","640","356","自己","不孝","Negative","morality","","","","","","","","","","",""
"677","","j","psychophysics","39","162350","0.0-7.0-3.0-0.25","4","4","3","3","2","4","4","4","5","5","4","0","-1","-1","0","-3","0","1","1","4","4","5","5","4","4","5","4","4","3","5","6","5","5","5","6","5","6","7","4","5","5","6","4","4","3","6","4","4","1","3","3","5","4","3","6","3","4","5","6","3","3","3","6","4","6","5","5","6","5","5","5","5","5","3","6","3","5","2","6","781449352643350529","姜","201","Male","[""坏我"",""好他"",""坏他"",""好我""]","[""弱我"",""强他"",""弱他"",""强我""]","","","","","","","","yes","","","","","","","","","SRET","EW_formal","","key","j","16.685181818181952","640","356","自己","奉献","Positive","morality","","","","","","","","","","",""
"1121","","f","psychophysics","40","164484","0.0-7.0-3.0-0.26","4","4","3","3","2","4","4","4","5","5","4","0","-1","-1","0","-3","0","1","1","4","4","5","5","4","4","5","4","4","3","5","6","5","5","5","6","5","6","7","4","5","5","6","4","4","3","6","4","4","1","3","3","5","4","3","6","3","4","5","6","3","3","3","6","4","6","5","5","6","5","5","5","5","5","3","6","3","5","2","6","781449352643350529","姜","201","Male","[""坏我"",""好他"",""坏他"",""好我""]","[""弱我"",""强他"",""弱他"",""强我""]","","","","","","","","no","","","","","","","","","SRET","EW_formal","","key","f","16.68497637795297","640","356","朋友","犹豫","Negative","ability","","","","","","","","","","",""
"694","","j","psychophysics","41","166181","0.0-7.0-3.0-0.27","4","4","3","3","2","4","4","4","5","5","4","0","-1","-1","0","-3","0","1","1","4","4","5","5","4","4","5","4","4","3","5","6","5","5","5","6","5","6","7","4","5","5","6","4","4","3","6","4","4","1","3","3","5","4","3","6","3","4","5","6","3","3","3","6","4","6","5","5","6","5","5","5","5","5","3","6","3","5","2","6","781449352643350529","姜","201","Male","[""坏我"",""好他"",""坏他"",""好我""]","[""弱我"",""强他"",""弱他"",""强我""]","","","","","","","","yes","","","","","","","","","SRET","EW_formal","","key","j","16.684960396039717","640","356","朋友","拙笨","Negative","ability","","","","","","","","","","",""
"879","","f","psychophysics","42","168063","0.0-7.0-3.0-0.28","4","4","3","3","2","4","4","4","5","5","4","0","-1","-1","0","-3","0","1","1","4","4","5","5","4","4","5","4","4","3","5","6","5","5","5","6","5","6","7","4","5","5","6","4","4","3","6","4","4","1","3","3","5","4","3","6","3","4","5","6","3","3","3","6","4","6","5","5","6","5","5","5","5","5","3","6","3","5","2","6","781449352643350529","姜","201","Male","[""坏我"",""好他"",""坏他"",""好我""]","[""弱我"",""强他"",""弱他"",""强我""]","","","","","","","","no","","","","","","","","","SRET","EW_formal","","key","f","16.68484821428579","640","356","自己","无知","Negative","ability","","","","","","","","","","",""
"695","","j","psychophysics","43","169762","0.0-7.0-3.0-0.29","4","4","3","3","2","4","4","4","5","5","4","0","-1","-1","0","-3","0","1","1","4","4","5","5","4","4","5","4","4","3","5","6","5","5","5","6","5","6","7","4","5","5","6","4","4","3","6","4","4","1","3","3","5","4","3","6","3","4","5","6","3","3","3","6","4","6","5","5","6","5","5","5","5","5","3","6","3","5","2","6","781449352643350529","姜","201","Male","[""坏我"",""好他"",""坏他"",""好我""]","[""弱我"",""强他"",""弱他"",""强我""]","","","","","","","","yes","","","","","","","","","SRET","EW_formal","","key","j","16.685070000000124","640","356","自己","忠诚","Positive","morality","","","","","","","","","","",""
"753","","j","psychophysics","44","171521","0.0-7.0-3.0-0.30","4","4","3","3","2","4","4","4","5","5","4","0","-1","-1","0","-3","0","1","1","4","4","5","5","4","4","5","4","4","3","5","6","5","5","5","6","5","6","7","4","5","5","6","4","4","3","6","4","4","1","3","3","5","4","3","6","3","4","5","6","3","3","3","6","4","6","5","5","6","5","5","5","5","5","3","6","3","5","2","6","781449352643350529","姜","201","Male","[""坏我"",""好他"",""坏他"",""好我""]","[""弱我"",""强他"",""弱他"",""强我""]","","","","","","","","yes","","","","","","","","","SRET","EW_formal","","key","j","16.684857142857176","640","356","自己","能干","Positive","ability","","","","","","","","","","",""
"884","","f","psychophysics","45","173407","0.0-7.0-3.0-0.31","4","4","3","3","2","4","4","4","5","5","4","0","-1","-1","0","-3","0","1","1","4","4","5","5","4","4","5","4","4","3","5","6","5","5","5","6","5","6","7","4","5","5","6","4","4","3","6","4","4","1","3","3","5","4","3","6","3","4","5","6","3","3","3","6","4","6","5","5","6","5","5","5","5","5","3","6","3","5","2","6","781449352643350529","姜","201","Male","[""坏我"",""好他"",""坏他"",""好我""]","[""弱我"",""强他"",""弱他"",""强我""]","","","","","","","","no","","","","","","","","","SRET","EW_formal","","key","f","16.685080357142787","640","356","朋友","稳健","Positive","ability","","","","","","","","","","",""
"902","","j","psychophysics","46","175311","0.0-7.0-3.0-0.32","4","4","3","3","2","4","4","4","5","5","4","0","-1","-1","0","-3","0","1","1","4","4","5","5","4","4","5","4","4","3","5","6","5","5","5","6","5","6","7","4","5","5","6","4","4","3","6","4","4","1","3","3","5","4","3","6","3","4","5","6","3","3","3","6","4","6","5","5","6","5","5","5","5","5","3","6","3","5","2","6","781449352643350529","姜","201","Male","[""坏我"",""好他"",""坏他"",""好我""]","[""弱我"",""强他"",""弱他"",""强我""]","","","","","","","","yes","","","","","","","","","SRET","EW_formal","","key","j","16.68492035398237","640","356","朋友","罪恶","Negative","morality","","","","","","","","","","",""
"942","","f","psychophysics","47","177256","0.0-7.0-3.0-0.33","4","4","3","3","2","4","4","4","5","5","4","0","-1","-1","0","-3","0","1","1","4","4","5","5","4","4","5","4","4","3","5","6","5","5","5","6","5","6","7","4","5","5","6","4","4","3","6","4","4","1","3","3","5","4","3","6","3","4","5","6","3","3","3","6","4","6","5","5","6","5","5","5","5","5","3","6","3","5","2","6","781449352643350529","姜","201","Male","[""坏我"",""好他"",""坏他"",""好我""]","[""弱我"",""强他"",""弱他"",""强我""]","","","","","","","","no","","","","","","","","","SRET","EW_formal","","key","f","17.92106481481487","640","356","自己","背叛","Negative","morality","","","","","","","","","","",""
"820","","f","psychophysics","48","179079","0.0-7.0-3.0-0.34","4","4","3","3","2","4","4","4","5","5","4","0","-1","-1","0","-3","0","1","1","4","4","5","5","4","4","5","4","4","3","5","6","5","5","5","6","5","6","7","4","5","5","6","4","4","3","6","4","4","1","3","3","5","4","3","6","3","4","5","6","3","3","3","6","4","6","5","5","6","5","5","5","5","5","3","6","3","5","2","6","781449352643350529","姜","201","Male","[""坏我"",""好他"",""坏他"",""好我""]","[""弱我"",""强他"",""弱他"",""强我""]","","","","","","","","no","","","","","","","","","SRET","EW_formal","","key","f","16.685111111111095","640","356","朋友","愚蠢","Negative","ability","","","","","","","","","","",""
"965","","f","psychophysics","49","181047","0.0-7.0-3.0-0.35","4","4","3","3","2","4","4","4","5","5","4","0","-1","-1","0","-3","0","1","1","4","4","5","5","4","4","5","4","4","3","5","6","5","5","5","6","5","6","7","4","5","5","6","4","4","3","6","4","4","1","3","3","5","4","3","6","3","4","5","6","3","3","3","6","4","6","5","5","6","5","5","5","5","5","3","6","3","5","2","6","781449352643350529","姜","201","Male","[""坏我"",""好他"",""坏他"",""好我""]","[""弱我"",""强他"",""弱他"",""强我""]","","","","","","","","no","","","","","","","","","SRET","EW_formal","","key","f","16.68488034188029","640","356","朋友","仗义","Positive","morality","","","","","","","","","","",""
"763","","f","psychophysics","50","182812","0.0-7.0-3.0-0.36","4","4","3","3","2","4","4","4","5","5","4","0","-1","-1","0","-3","0","1","1","4","4","5","5","4","4","5","4","4","3","5","6","5","5","5","6","5","6","7","4","5","5","6","4","4","3","6","4","4","1","3","3","5","4","3","6","3","4","5","6","3","3","3","6","4","6","5","5","6","5","5","5","5","5","3","6","3","5","2","6","781449352643350529","姜","201","Male","[""坏我"",""好他"",""坏他"",""好我""]","[""弱我"",""强他"",""弱他"",""强我""]","","","","","","","","no","","","","","","","","","SRET","EW_formal","","key","f","16.684980952381046","640","356","朋友","宽容","Positive","morality","","","","","","","","","","",""
"630","","j","psychophysics","51","184447","0.0-7.0-3.0-0.37","4","4","3","3","2","4","4","4","5","5","4","0","-1","-1","0","-3","0","1","1","4","4","5","5","4","4","5","4","4","3","5","6","5","5","5","6","5","6","7","4","5","5","6","4","4","3","6","4","4","1","3","3","5","4","3","6","3","4","5","6","3","3","3","6","4","6","5","5","6","5","5","5","5","5","3","6","3","5","2","6","781449352643350529","姜","201","Male","[""坏我"",""好他"",""坏他"",""好我""]","[""弱我"",""强他"",""弱他"",""强我""]","","","","","","","","yes","","","","","","","","","SRET","EW_formal","","key","j","16.685082474226594","640","356","朋友","诡诈","Negative","morality","","","","","","","","","","",""
"883","","f","psychophysics","52","186334","0.0-7.0-3.0-0.38","4","4","3","3","2","4","4","4","5","5","4","0","-1","-1","0","-3","0","1","1","4","4","5","5","4","4","5","4","4","3","5","6","5","5","5","6","5","6","7","4","5","5","6","4","4","3","6","4","4","1","3","3","5","4","3","6","3","4","5","6","3","3","3","6","4","6","5","5","6","5","5","5","5","5","3","6","3","5","2","6","781449352643350529","姜","201","Male","[""坏我"",""好他"",""坏他"",""好我""]","[""弱我"",""强他"",""弱他"",""强我""]","","","","","","","","no","","","","","","","","","SRET","EW_formal","","key","f","16.6858392857144","640","356","自己","愚钝","Negative","ability","","","","","","","","","","",""
"1284","","j","psychophysics","53","188620","0.0-7.0-3.0-0.39","4","4","3","3","2","4","4","4","5","5","4","0","-1","-1","0","-3","0","1","1","4","4","5","5","4","4","5","4","4","3","5","6","5","5","5","6","5","6","7","4","5","5","6","4","4","3","6","4","4","1","3","3","5","4","3","6","3","4","5","6","3","3","3","6","4","6","5","5","6","5","5","5","5","5","3","6","3","5","2","6","781449352643350529","姜","201","Male","[""坏我"",""好他"",""坏他"",""好我""]","[""弱我"",""强他"",""弱他"",""强我""]","","","","","","","","yes","","","","","","","","","SRET","EW_formal","","key","j","16.685000000000027","640","356","自己","不端","Negative","morality","","","","","","","","","","",""
"951","","f","psychophysics","54","190572","0.0-7.0-3.0-0.40","4","4","3","3","2","4","4","4","5","5","4","0","-1","-1","0","-3","0","1","1","4","4","5","5","4","4","5","4","4","3","5","6","5","5","5","6","5","6","7","4","5","5","6","4","4","3","6","4","4","1","3","3","5","4","3","6","3","4","5","6","3","3","3","6","4","6","5","5","6","5","5","5","5","5","3","6","3","5","2","6","781449352643350529","姜","201","Male","[""坏我"",""好他"",""坏他"",""好我""]","[""弱我"",""强他"",""弱他"",""强我""]","","","","","","","","no","","","","","","","","","SRET","EW_formal","","key","f","16.685129310344877","640","356","朋友","学霸","Positive","ability","","","","","","","","","","",""
"1018","","f","psychophysics","55","192593","0.0-7.0-3.0-0.41","4","4","3","3","2","4","4","4","5","5","4","0","-1","-1","0","-3","0","1","1","4","4","5","5","4","4","5","4","4","3","5","6","5","5","5","6","5","6","7","4","5","5","6","4","4","3","6","4","4","1","3","3","5","4","3","6","3","4","5","6","3","3","3","6","4","6","5","5","6","5","5","5","5","5","3","6","3","5","2","6","781449352643350529","姜","201","Male","[""坏我"",""好他"",""坏他"",""好我""]","[""弱我"",""强他"",""弱他"",""强我""]","","","","","","","","no","","","","","","","","","SRET","EW_formal","","key","f","16.685125000000212","640","356","朋友","下流","Negative","morality","","","","","","","","","","",""
"1014","","j","psychophysics","56","194609","0.0-7.0-3.0-0.42","4","4","3","3","2","4","4","4","5","5","4","0","-1","-1","0","-3","0","1","1","4","4","5","5","4","4","5","4","4","3","5","6","5","5","5","6","5","6","7","4","5","5","6","4","4","3","6","4","4","1","3","3","5","4","3","6","3","4","5","6","3","3","3","6","4","6","5","5","6","5","5","5","5","5","3","6","3","5","2","6","781449352643350529","姜","201","Male","[""坏我"",""好他"",""坏他"",""好我""]","[""弱我"",""强他"",""弱他"",""强我""]","","","","","","","","yes","","","","","","","","","SRET","EW_formal","","key","j","16.684933333333415","640","356","自己","利落","Positive","ability","","","","","","","","","","",""
"780","","f","psychophysics","57","196393","0.0-7.0-3.0-0.43","4","4","3","3","2","4","4","4","5","5","4","0","-1","-1","0","-3","0","1","1","4","4","5","5","4","4","5","4","4","3","5","6","5","5","5","6","5","6","7","4","5","5","6","4","4","3","6","4","4","1","3","3","5","4","3","6","3","4","5","6","3","3","3","6","4","6","5","5","6","5","5","5","5","5","3","6","3","5","2","6","781449352643350529","姜","201","Male","[""坏我"",""好他"",""坏他"",""好我""]","[""弱我"",""强他"",""弱他"",""强我""]","","","","","","","","no","","","","","","","","","SRET","EW_formal","","key","f","16.685028301886632","640","356","朋友","诚信","Positive","morality","","","","","","","","","","",""
"808","","f","psychophysics","58","198204","0.0-7.0-3.0-0.44","4","4","3","3","2","4","4","4","5","5","4","0","-1","-1","0","-3","0","1","1","4","4","5","5","4","4","5","4","4","3","5","6","5","5","5","6","5","6","7","4","5","5","6","4","4","3","6","4","4","1","3","3","5","4","3","6","3","4","5","6","3","3","3","6","4","6","5","5","6","5","5","5","5","5","3","6","3","5","2","6","781449352643350529","姜","201","Male","[""坏我"",""好他"",""坏他"",""好我""]","[""弱我"",""强他"",""弱他"",""强我""]","","","","","","","","no","","","","","","","","","SRET","EW_formal","","key","f","16.685074766355005","640","356","自己","愚痴","Negative","ability","","","","","","","","","","",""
"634","","f","psychophysics","59","199840","0.0-7.0-3.0-0.45","4","4","3","3","2","4","4","4","5","5","4","0","-1","-1","0","-3","0","1","1","4","4","5","5","4","4","5","4","4","3","5","6","5","5","5","6","5","6","7","4","5","5","6","4","4","3","6","4","4","1","3","3","5","4","3","6","3","4","5","6","3","3","3","6","4","6","5","5","6","5","5","5","5","5","3","6","3","5","2","6","781449352643350529","姜","201","Male","[""坏我"",""好他"",""坏他"",""好我""]","[""弱我"",""强他"",""弱他"",""强我""]","","","","","","","","no","","","","","","","","","SRET","EW_formal","","key","f","16.68502061855685","640","356","朋友","智慧","Positive","ability","","","","","","","","","","",""
"732","","f","psychophysics","60","201576","0.0-7.0-3.0-0.46","4","4","3","3","2","4","4","4","5","5","4","0","-1","-1","0","-3","0","1","1","4","4","5","5","4","4","5","4","4","3","5","6","5","5","5","6","5","6","7","4","5","5","6","4","4","3","6","4","4","1","3","3","5","4","3","6","3","4","5","6","3","3","3","6","4","6","5","5","6","5","5","5","5","5","3","6","3","5","2","6","781449352643350529","姜","201","Male","[""坏我"",""好他"",""坏他"",""好我""]","[""弱我"",""强他"",""弱他"",""强我""]","","","","","","","","no","","","","","","","","","SRET","EW_formal","","key","f","16.685009708737976","640","356","自己","拖延","Negative","ability","","","","","","","","","","",""
"1128","","f","psychophysics","61","203706","0.0-7.0-3.0-0.47","4","4","3","3","2","4","4","4","5","5","4","0","-1","-1","0","-3","0","1","1","4","4","5","5","4","4","5","4","4","3","5","6","5","5","5","6","5","6","7","4","5","5","6","4","4","3","6","4","4","1","3","3","5","4","3","6","3","4","5","6","3","3","3","6","4","6","5","5","6","5","5","5","5","5","3","6","3","5","2","6","781449352643350529","姜","201","Male","[""坏我"",""好他"",""坏他"",""好我""]","[""弱我"",""强他"",""弱他"",""强我""]","","","","","","","","no","","","","","","","","","SRET","EW_formal","","key","f","17.22749593495926","640","356","朋友","礼貌","Positive","morality","","","","","","","","","","",""
"1016","","f","psychophysics","62","205725","0.0-7.0-3.0-0.48","4","4","3","3","2","4","4","4","5","5","4","0","-1","-1","0","-3","0","1","1","4","4","5","5","4","4","5","4","4","3","5","6","5","5","5","6","5","6","7","4","5","5","6","4","4","3","6","4","4","1","3","3","5","4","3","6","3","4","5","6","3","3","3","6","4","6","5","5","6","5","5","5","5","5","3","6","3","5","2","6","781449352643350529","姜","201","Male","[""坏我"",""好他"",""坏他"",""好我""]","[""弱我"",""强他"",""弱他"",""强我""]","","","","","","","","no","","","","","","","","","SRET","EW_formal","","key","f","16.68504166666656","640","356","自己","虚伪","Negative","morality","","","","","","","","","","",""
"644","","j","psychophysics","63","207373","0.0-7.0-3.0-0.49","4","4","3","3","2","4","4","4","5","5","4","0","-1","-1","0","-3","0","1","1","4","4","5","5","4","4","5","4","4","3","5","6","5","5","5","6","5","6","7","4","5","5","6","4","4","3","6","4","4","1","3","3","5","4","3","6","3","4","5","6","3","3","3","6","4","6","5","5","6","5","5","5","5","5","3","6","3","5","2","6","781449352643350529","姜","201","Male","[""坏我"",""好他"",""坏他"",""好我""]","[""弱我"",""强他"",""弱他"",""强我""]","","","","","","","","yes","","","","","","","","","SRET","EW_formal","","key","j","16.684897959183925","640","356","自己","清廉","Positive","morality","","","","","","","","","","",""
"992","","j","psychophysics","64","209367","0.0-7.0-3.0-0.50","4","4","3","3","2","4","4","4","5","5","4","0","-1","-1","0","-3","0","1","1","4","4","5","5","4","4","5","4","4","3","5","6","5","5","5","6","5","6","7","4","5","5","6","4","4","3","6","4","4","1","3","3","5","4","3","6","3","4","5","6","3","3","3","6","4","6","5","5","6","5","5","5","5","5","3","6","3","5","2","6","781449352643350529","姜","201","Male","[""坏我"",""好他"",""坏他"",""好我""]","[""弱我"",""强他"",""弱他"",""强我""]","","","","","","","","yes","","","","","","","","","SRET","EW_formal","","key","j","16.68498305084753","640","356","朋友","势利","Negative","morality","","","","","","","","","","",""
"675","","f","psychophysics","65","211044","0.0-7.0-3.0-0.51","4","4","3","3","2","4","4","4","5","5","4","0","-1","-1","0","-3","0","1","1","4","4","5","5","4","4","5","4","4","3","5","6","5","5","5","6","5","6","7","4","5","5","6","4","4","3","6","4","4","1","3","3","5","4","3","6","3","4","5","6","3","3","3","6","4","6","5","5","6","5","5","5","5","5","3","6","3","5","2","6","781449352643350529","姜","201","Male","[""坏我"",""好他"",""坏他"",""好我""]","[""弱我"",""强他"",""弱他"",""强我""]","","","","","","","","no","","","","","","","","","SRET","EW_formal","","key","f","16.684900000000198","640","356","朋友","沉着","Positive","ability","","","","","","","","","","",""
"874","","j","psychophysics","66","212920","0.0-7.0-3.0-0.52","4","4","3","3","2","4","4","4","5","5","4","0","-1","-1","0","-3","0","1","1","4","4","5","5","4","4","5","4","4","3","5","6","5","5","5","6","5","6","7","4","5","5","6","4","4","3","6","4","4","1","3","3","5","4","3","6","3","4","5","6","3","3","3","6","4","6","5","5","6","5","5","5","5","5","3","6","3","5","2","6","781449352643350529","姜","201","Male","[""坏我"",""好他"",""坏他"",""好我""]","[""弱我"",""强他"",""弱他"",""强我""]","","","","","","","","yes","","","","","","","","","SRET","EW_formal","","key","j","16.685027027027033","640","356","自己","顶事","Positive","ability","","","","","","","","","","",""
"645","","j","psychophysics","67","214567","0.0-7.0-3.0-0.53","4","4","3","3","2","4","4","4","5","5","4","0","-1","-1","0","-3","0","1","1","4","4","5","5","4","4","5","4","4","3","5","6","5","5","5","6","5","6","7","4","5","5","6","4","4","3","6","4","4","1","3","3","5","4","3","6","3","4","5","6","3","3","3","6","4","6","5","5","6","5","5","5","5","5","3","6","3","5","2","6","781449352643350529","姜","201","Male","[""坏我"",""好他"",""坏他"",""好我""]","[""弱我"",""强他"",""弱他"",""强我""]","","","","","","","","yes","","","","","","","","","SRET","EW_formal","","key","j","16.684857142857236","640","356","自己","专注","Positive","ability","","","","","","","","","","",""
"666","","j","psychophysics","68","216236","0.0-7.0-3.0-0.54","4","4","3","3","2","4","4","4","5","5","4","0","-1","-1","0","-3","0","1","1","4","4","5","5","4","4","5","4","4","3","5","6","5","5","5","6","5","6","7","4","5","5","6","4","4","3","6","4","4","1","3","3","5","4","3","6","3","4","5","6","3","3","3","6","4","6","5","5","6","5","5","5","5","5","3","6","3","5","2","6","781449352643350529","姜","201","Male","[""坏我"",""好他"",""坏他"",""好我""]","[""弱我"",""强他"",""弱他"",""强我""]","","","","","","","","yes","","","","","","","","","SRET","EW_formal","","key","j","16.684959595959757","640","356","自己","仁爱","Positive","morality","","","","","","","","","","",""
"631","","j","psychophysics","69","217870","0.0-7.0-3.0-0.55","4","4","3","3","2","4","4","4","5","5","4","0","-1","-1","0","-3","0","1","1","4","4","5","5","4","4","5","4","4","3","5","6","5","5","5","6","5","6","7","4","5","5","6","4","4","3","6","4","4","1","3","3","5","4","3","6","3","4","5","6","3","3","3","6","4","6","5","5","6","5","5","5","5","5","3","6","3","5","2","6","781449352643350529","姜","201","Male","[""坏我"",""好他"",""坏他"",""好我""]","[""弱我"",""强他"",""弱他"",""强我""]","","","","","","","","yes","","","","","","","","","SRET","EW_formal","","key","j","16.684597938144506","640","356","自己","坦荡","Positive","morality","","","","","","","","","","",""
"697","","f","psychophysics","70","219570","0.0-7.0-3.0-0.56","4","4","3","3","2","4","4","4","5","5","4","0","-1","-1","0","-3","0","1","1","4","4","5","5","4","4","5","4","4","3","5","6","5","5","5","6","5","6","7","4","5","5","6","4","4","3","6","4","4","1","3","3","5","4","3","6","3","4","5","6","3","3","3","6","4","6","5","5","6","5","5","5","5","5","3","6","3","5","2","6","781449352643350529","姜","201","Male","[""坏我"",""好他"",""坏他"",""好我""]","[""弱我"",""强他"",""弱他"",""强我""]","","","","","","","","no","","","","","","","","","SRET","EW_formal","","key","f","16.685178217821868","640","356","自己","歹毒","Negative","morality","","","","","","","","","","",""
"858","","f","psychophysics","71","221430","0.0-7.0-3.0-0.57","4","4","3","3","2","4","4","4","5","5","4","0","-1","-1","0","-3","0","1","1","4","4","5","5","4","4","5","4","4","3","5","6","5","5","5","6","5","6","7","4","5","5","6","4","4","3","6","4","4","1","3","3","5","4","3","6","3","4","5","6","3","3","3","6","4","6","5","5","6","5","5","5","5","5","3","6","3","5","2","6","781449352643350529","姜","201","Male","[""坏我"",""好他"",""坏他"",""好我""]","[""弱我"",""强他"",""弱他"",""强我""]","","","","","","","","no","","","","","","","","","SRET","EW_formal","","key","f","16.685063636363537","640","356","朋友","狡诈","Negative","morality","","","","","","","","","","",""
"1053","","f","psychophysics","72","223487","0.0-7.0-3.0-0.58","4","4","3","3","2","4","4","4","5","5","4","0","-1","-1","0","-3","0","1","1","4","4","5","5","4","4","5","4","4","3","5","6","5","5","5","6","5","6","7","4","5","5","6","4","4","3","6","4","4","1","3","3","5","4","3","6","3","4","5","6","3","3","3","6","4","6","5","5","6","5","5","5","5","5","3","6","3","5","2","6","781449352643350529","姜","201","Male","[""坏我"",""好他"",""坏他"",""好我""]","[""弱我"",""强他"",""弱他"",""强我""]","","","","","","","","no","","","","","","","","","SRET","EW_formal","","key","f","16.684967213114685","640","356","朋友","文明","Positive","morality","","","","","","","","","","",""
"765","","f","psychophysics","73","225259","0.0-7.0-3.0-0.59","4","4","3","3","2","4","4","4","5","5","4","0","-1","-1","0","-3","0","1","1","4","4","5","5","4","4","5","4","4","3","5","6","5","5","5","6","5","6","7","4","5","5","6","4","4","3","6","4","4","1","3","3","5","4","3","6","3","4","5","6","3","3","3","6","4","6","5","5","6","5","5","5","5","5","3","6","3","5","2","6","781449352643350529","姜","201","Male","[""坏我"",""好他"",""坏他"",""好我""]","[""弱我"",""强他"",""弱他"",""强我""]","","","","","","","","no","","","","","","","","","SRET","EW_formal","","key","f","16.684896226414974","640","356","自己","外行","Negative","ability","","","","","","","","","","",""
"773","","j","psychophysics","74","227033","0.0-7.0-3.0-0.60","4","4","3","3","2","4","4","4","5","5","4","0","-1","-1","0","-3","0","1","1","4","4","5","5","4","4","5","4","4","3","5","6","5","5","5","6","5","6","7","4","5","5","6","4","4","3","6","4","4","1","3","3","5","4","3","6","3","4","5","6","3","3","3","6","4","6","5","5","6","5","5","5","5","5","3","6","3","5","2","6","781449352643350529","姜","201","Male","[""坏我"",""好他"",""坏他"",""好我""]","[""弱我"",""强他"",""弱他"",""强我""]","","","","","","","","yes","","","","","","","","","SRET","EW_formal","","key","j","16.68501904761901","640","356","朋友","伪善","Negative","morality","","","","","","","","","","",""
"754","","j","psychophysics","75","228789","0.0-7.0-3.0-0.61","4","4","3","3","2","4","4","4","5","5","4","0","-1","-1","0","-3","0","1","1","4","4","5","5","4","4","5","4","4","3","5","6","5","5","5","6","5","6","7","4","5","5","6","4","4","3","6","4","4","1","3","3","5","4","3","6","3","4","5","6","3","3","3","6","4","6","5","5","6","5","5","5","5","5","3","6","3","5","2","6","781449352643350529","姜","201","Male","[""坏我"",""好他"",""坏他"",""好我""]","[""弱我"",""强他"",""弱他"",""强我""]","","","","","","","","yes","","","","","","","","","SRET","EW_formal","","key","j","16.684961538461582","640","356","朋友","不良","Negative","morality","","","","","","","","","","",""
"758","","j","psychophysics","76","230548","0.0-7.0-3.0-0.62","4","4","3","3","2","4","4","4","5","5","4","0","-1","-1","0","-3","0","1","1","4","4","5","5","4","4","5","4","4","3","5","6","5","5","5","6","5","6","7","4","5","5","6","4","4","3","6","4","4","1","3","3","5","4","3","6","3","4","5","6","3","3","3","6","4","6","5","5","6","5","5","5","5","5","3","6","3","5","2","6","781449352643350529","姜","201","Male","[""坏我"",""好他"",""坏他"",""好我""]","[""弱我"",""强他"",""弱他"",""强我""]","","","","","","","","yes","","","","","","","","","SRET","EW_formal","","key","j","16.685104761904636","640","356","朋友","无为","Negative","ability","","","","","","","","","","",""
"640","","f","psychophysics","77","232191","0.0-7.0-3.0-0.63","4","4","3","3","2","4","4","4","5","5","4","0","-1","-1","0","-3","0","1","1","4","4","5","5","4","4","5","4","4","3","5","6","5","5","5","6","5","6","7","4","5","5","6","4","4","3","6","4","4","1","3","3","5","4","3","6","3","4","5","6","3","3","3","6","4","6","5","5","6","5","5","5","5","5","3","6","3","5","2","6","781449352643350529","姜","201","Male","[""坏我"",""好他"",""坏他"",""好我""]","[""弱我"",""强他"",""弱他"",""强我""]","","","","","","","","no","","","","","","","","","SRET","EW_formal","","key","f","16.68491752577325","640","356","朋友","精干","Positive","ability","","","","","","","","","","",""
"767","","f","psychophysics","78","233961","0.0-7.0-3.0-0.64","4","4","3","3","2","4","4","4","5","5","4","0","-1","-1","0","-3","0","1","1","4","4","5","5","4","4","5","4","4","3","5","6","5","5","5","6","5","6","7","4","5","5","6","4","4","3","6","4","4","1","3","3","5","4","3","6","3","4","5","6","3","3","3","6","4","6","5","5","6","5","5","5","5","5","3","6","3","5","2","6","781449352643350529","姜","201","Male","[""坏我"",""好他"",""坏他"",""好我""]","[""弱我"",""强他"",""弱他"",""强我""]","","","","","","","","no","","","","","","","","","SRET","EW_formal","","key","f","16.685095238095215","640","356","朋友","刻苦","Positive","ability","","","","","","","","","","",""
"691","","f","psychophysics","79","235654","0.0-7.0-3.0-0.65","4","4","3","3","2","4","4","4","5","5","4","0","-1","-1","0","-3","0","1","1","4","4","5","5","4","4","5","4","4","3","5","6","5","5","5","6","5","6","7","4","5","5","6","4","4","3","6","4","4","1","3","3","5","4","3","6","3","4","5","6","3","3","3","6","4","6","5","5","6","5","5","5","5","5","3","6","3","5","2","6","781449352643350529","姜","201","Male","[""坏我"",""好他"",""坏他"",""好我""]","[""弱我"",""强他"",""弱他"",""强我""]","","","","","","","","no","","","","","","","","","SRET","EW_formal","","key","f","16.68501980198025","640","356","自己","偏私","Negative","morality","","","","","","","","","","",""
"925","","j","psychophysics","80","237582","0.0-7.0-3.0-0.66","4","4","3","3","2","4","4","4","5","5","4","0","-1","-1","0","-3","0","1","1","4","4","5","5","4","4","5","4","4","3","5","6","5","5","5","6","5","6","7","4","5","5","6","4","4","3","6","4","4","1","3","3","5","4","3","6","3","4","5","6","3","3","3","6","4","6","5","5","6","5","5","5","5","5","3","6","3","5","2","6","781449352643350529","姜","201","Male","[""坏我"",""好他"",""坏他"",""好我""]","[""弱我"",""强他"",""弱他"",""强我""]","","","","","","","","yes","","","","","","","","","SRET","EW_formal","","key","j","16.684947368421074","640","356","自己","变通","Positive","ability","","","","","","","","","","",""
"724","","f","psychophysics","81","239309","0.0-7.0-3.0-0.67","4","4","3","3","2","4","4","4","5","5","4","0","-1","-1","0","-3","0","1","1","4","4","5","5","4","4","5","4","4","3","5","6","5","5","5","6","5","6","7","4","5","5","6","4","4","3","6","4","4","1","3","3","5","4","3","6","3","4","5","6","3","3","3","6","4","6","5","5","6","5","5","5","5","5","3","6","3","5","2","6","781449352643350529","姜","201","Male","[""坏我"",""好他"",""坏他"",""好我""]","[""弱我"",""强他"",""弱他"",""强我""]","","","","","","","","no","","","","","","","","","SRET","EW_formal","","key","f","16.684718446602062","640","356","朋友","无能","Negative","ability","","","","","","","","","","",""
"809","","j","psychophysics","82","241120","0.0-7.0-3.0-0.68","4","4","3","3","2","4","4","4","5","5","4","0","-1","-1","0","-3","0","1","1","4","4","5","5","4","4","5","4","4","3","5","6","5","5","5","6","5","6","7","4","5","5","6","4","4","3","6","4","4","1","3","3","5","4","3","6","3","4","5","6","3","3","3","6","4","6","5","5","6","5","5","5","5","5","3","6","3","5","2","6","781449352643350529","姜","201","Male","[""坏我"",""好他"",""坏他"",""好我""]","[""弱我"",""强他"",""弱他"",""强我""]","","","","","","","","yes","","","","","","","","","SRET","EW_formal","","key","j","16.68506542056071","640","356","朋友","差生","Negative","ability","","","","","","","","","","",""
"850","","j","psychophysics","83","242973","0.0-7.0-3.0-0.69","4","4","3","3","2","4","4","4","5","5","4","0","-1","-1","0","-3","0","1","1","4","4","5","5","4","4","5","4","4","3","5","6","5","5","5","6","5","6","7","4","5","5","6","4","4","3","6","4","4","1","3","3","5","4","3","6","3","4","5","6","3","3","3","6","4","6","5","5","6","5","5","5","5","5","3","6","3","5","2","6","781449352643350529","姜","201","Male","[""坏我"",""好他"",""坏他"",""好我""]","[""弱我"",""强他"",""弱他"",""强我""]","","","","","","","","yes","","","","","","","","","SRET","EW_formal","","key","j","16.68598181818194","640","356","自己","果决","Positive","ability","","","","","","","","","","",""
"782","","f","psychophysics","84","244764","0.0-7.0-3.0-0.70","4","4","3","3","2","4","4","4","5","5","4","0","-1","-1","0","-3","0","1","1","4","4","5","5","4","4","5","4","4","3","5","6","5","5","5","6","5","6","7","4","5","5","6","4","4","3","6","4","4","1","3","3","5","4","3","6","3","4","5","6","3","3","3","6","4","6","5","5","6","5","5","5","5","5","3","6","3","5","2","6","781449352643350529","姜","201","Male","[""坏我"",""好他"",""坏他"",""好我""]","[""弱我"",""强他"",""弱他"",""强我""]","","","","","","","","no","","","","","","","","","SRET","EW_formal","","key","f","16.685018691588976","640","356","朋友","厚道","Positive","morality","","","","","","","","","","",""
"819","","j","psychophysics","85","246585","0.0-7.0-3.0-0.71","4","4","3","3","2","4","4","4","5","5","4","0","-1","-1","0","-3","0","1","1","4","4","5","5","4","4","5","4","4","3","5","6","5","5","5","6","5","6","7","4","5","5","6","4","4","3","6","4","4","1","3","3","5","4","3","6","3","4","5","6","3","3","3","6","4","6","5","5","6","5","5","5","5","5","3","6","3","5","2","6","781449352643350529","姜","201","Male","[""坏我"",""好他"",""坏他"",""好我""]","[""弱我"",""强他"",""弱他"",""强我""]","","","","","","","","yes","","","","","","","","","SRET","EW_formal","","key","j","16.685185185185187","640","356","自己","蛇蝎","Negative","morality","","","","","","","","","","",""
"790","","j","psychophysics","86","248377","0.0-7.0-3.0-0.72","4","4","3","3","2","4","4","4","5","5","4","0","-1","-1","0","-3","0","1","1","4","4","5","5","4","4","5","4","4","3","5","6","5","5","5","6","5","6","7","4","5","5","6","4","4","3","6","4","4","1","3","3","5","4","3","6","3","4","5","6","3","3","3","6","4","6","5","5","6","5","5","5","5","5","3","6","3","5","2","6","781449352643350529","姜","201","Male","[""坏我"",""好他"",""坏他"",""好我""]","[""弱我"",""强他"",""弱他"",""强我""]","","","","","","","","yes","","","","","","","","","SRET","EW_formal","","key","j","16.68487735849065","640","356","自己","热心","Positive","morality","","","","","","","","","","",""
"941","","f","psychophysics","87","250320","0.0-7.0-3.0-0.73","4","4","3","3","2","4","4","4","5","5","4","0","-1","-1","0","-3","0","1","1","4","4","5","5","4","4","5","4","4","3","5","6","5","5","5","6","5","6","7","4","5","5","6","4","4","3","6","4","4","1","3","3","5","4","3","6","3","4","5","6","3","3","3","6","4","6","5","5","6","5","5","5","5","5","3","6","3","5","2","6","781449352643350529","姜","201","Male","[""坏我"",""好他"",""坏他"",""好我""]","[""弱我"",""强他"",""弱他"",""强我""]","","","","","","","","no","","","","","","","","","SRET","EW_formal","","key","f","16.684491379310202","640","356","朋友","忠勇","Positive","morality","","","","","","","","","","",""
"886","","f","psychophysics","88","252208","0.0-7.0-3.0-0.74","4","4","3","3","2","4","4","4","5","5","4","0","-1","-1","0","-3","0","1","1","4","4","5","5","4","4","5","4","4","3","5","6","5","5","5","6","5","6","7","4","5","5","6","4","4","3","6","4","4","1","3","3","5","4","3","6","3","4","5","6","3","3","3","6","4","6","5","5","6","5","5","5","5","5","3","6","3","5","2","6","781449352643350529","姜","201","Male","[""坏我"",""好他"",""坏他"",""好我""]","[""弱我"",""强他"",""弱他"",""强我""]","","","","","","","","no","","","","","","","","","SRET","EW_formal","","key","f","16.684919642857235","640","356","朋友","中用","Positive","ability","","","","","","","","","","",""
"967","","j","psychophysics","89","254178","0.0-7.0-3.0-0.75","4","4","3","3","2","4","4","4","5","5","4","0","-1","-1","0","-3","0","1","1","4","4","5","5","4","4","5","4","4","3","5","6","5","5","5","6","5","6","7","4","5","5","6","4","4","3","6","4","4","1","3","3","5","4","3","6","3","4","5","6","3","3","3","6","4","6","5","5","6","5","5","5","5","5","3","6","3","5","2","6","781449352643350529","姜","201","Male","[""坏我"",""好他"",""坏他"",""好我""]","[""弱我"",""强他"",""弱他"",""强我""]","","","","","","","","yes","","","","","","","","","SRET","EW_formal","","key","j","16.685008547008614","640","356","自己","有力","Positive","ability","","","","","","","","","","",""
"864","","j","psychophysics","90","256044","0.0-7.0-3.0-0.76","4","4","3","3","2","4","4","4","5","5","4","0","-1","-1","0","-3","0","1","1","4","4","5","5","4","4","5","4","4","3","5","6","5","5","5","6","5","6","7","4","5","5","6","4","4","3","6","4","4","1","3","3","5","4","3","6","3","4","5","6","3","3","3","6","4","6","5","5","6","5","5","5","5","5","3","6","3","5","2","6","781449352643350529","姜","201","Male","[""坏我"",""好他"",""坏他"",""好我""]","[""弱我"",""强他"",""弱他"",""强我""]","","","","","","","","yes","","","","","","","","","SRET","EW_formal","","key","j","16.68500000000003","640","356","自己","高明","Positive","ability","","","","","","","","","","",""
"684","","f","psychophysics","91","257729","0.0-7.0-3.0-0.77","4","4","3","3","2","4","4","4","5","5","4","0","-1","-1","0","-3","0","1","1","4","4","5","5","4","4","5","4","4","3","5","6","5","5","5","6","5","6","7","4","5","5","6","4","4","3","6","4","4","1","3","3","5","4","3","6","3","4","5","6","3","3","3","6","4","6","5","5","6","5","5","5","5","5","3","6","3","5","2","6","781449352643350529","姜","201","Male","[""坏我"",""好他"",""坏他"",""好我""]","[""弱我"",""强他"",""弱他"",""强我""]","","","","","","","","no","","","","","","","","","SRET","EW_formal","","key","f","16.68493000000017","640","356","朋友","义气","Positive","morality","","","","","","","","","","",""
"773","","f","psychophysics","92","259514","0.0-7.0-3.0-0.78","4","4","3","3","2","4","4","4","5","5","4","0","-1","-1","0","-3","0","1","1","4","4","5","5","4","4","5","4","4","3","5","6","5","5","5","6","5","6","7","4","5","5","6","4","4","3","6","4","4","1","3","3","5","4","3","6","3","4","5","6","3","3","3","6","4","6","5","5","6","5","5","5","5","5","3","6","3","5","2","6","781449352643350529","姜","201","Male","[""坏我"",""好他"",""坏他"",""好我""]","[""弱我"",""强他"",""弱他"",""强我""]","","","","","","","","no","","","","","","","","","SRET","EW_formal","","key","f","16.68501886792447","640","356","朋友","懂行","Positive","ability","","","","","","","","","","",""
"882","","j","psychophysics","93","261399","0.0-7.0-3.0-0.79","4","4","3","3","2","4","4","4","5","5","4","0","-1","-1","0","-3","0","1","1","4","4","5","5","4","4","5","4","4","3","5","6","5","5","5","6","5","6","7","4","5","5","6","4","4","3","6","4","4","1","3","3","5","4","3","6","3","4","5","6","3","3","3","6","4","6","5","5","6","5","5","5","5","5","3","6","3","5","2","6","781449352643350529","姜","201","Male","[""坏我"",""好他"",""坏他"",""好我""]","[""弱我"",""强他"",""弱他"",""强我""]","","","","","","","","yes","","","","","","","","","SRET","EW_formal","","key","j","16.685080357143047","640","356","自己","高效","Positive","ability","","","","","","","","","","",""
"750","","j","psychophysics","94","263152","0.0-7.0-3.0-0.80","4","4","3","3","2","4","4","4","5","5","4","0","-1","-1","0","-3","0","1","1","4","4","5","5","4","4","5","4","4","3","5","6","5","5","5","6","5","6","7","4","5","5","6","4","4","3","6","4","4","1","3","3","5","4","3","6","3","4","5","6","3","3","3","6","4","6","5","5","6","5","5","5","5","5","3","6","3","5","2","6","781449352643350529","姜","201","Male","[""坏我"",""好他"",""坏他"",""好我""]","[""弱我"",""强他"",""弱他"",""强我""]","","","","","","","","yes","","","","","","","","","SRET","EW_formal","","key","j","16.685067307692616","640","356","自己","好心","Positive","morality","","","","","","","","","","",""
"1088","","f","psychophysics","95","265242","0.0-7.0-3.0-0.81","4","4","3","3","2","4","4","4","5","5","4","0","-1","-1","0","-3","0","1","1","4","4","5","5","4","4","5","4","4","3","5","6","5","5","5","6","5","6","7","4","5","5","6","4","4","3","6","4","4","1","3","3","5","4","3","6","3","4","5","6","3","3","3","6","4","6","5","5","6","5","5","5","5","5","3","6","3","5","2","6","781449352643350529","姜","201","Male","[""坏我"",""好他"",""坏他"",""好我""]","[""弱我"",""强他"",""弱他"",""强我""]","","","","","","","","no","","","","","","","","","SRET","EW_formal","","key","f","16.68503225806466","640","356","朋友","拖拉","Negative","ability","","","","","","","","","","",""
"714","","j","psychophysics","96","266959","0.0-7.0-3.0-0.82","4","4","3","3","2","4","4","4","5","5","4","0","-1","-1","0","-3","0","1","1","4","4","5","5","4","4","5","4","4","3","5","6","5","5","5","6","5","6","7","4","5","5","6","4","4","3","6","4","4","1","3","3","5","4","3","6","3","4","5","6","3","3","3","6","4","6","5","5","6","5","5","5","5","5","3","6","3","5","2","6","781449352643350529","姜","201","Male","[""坏我"",""好他"",""坏他"",""好我""]","[""弱我"",""强他"",""弱他"",""强我""]","","","","","","","","yes","","","","","","","","","SRET","EW_formal","","key","j","16.685343137255177","640","356","朋友","笨蛋","Negative","ability","","","","","","","","","","",""
"798","","f","psychophysics","97","268759","0.0-7.0-3.0-0.83","4","4","3","3","2","4","4","4","5","5","4","0","-1","-1","0","-3","0","1","1","4","4","5","5","4","4","5","4","4","3","5","6","5","5","5","6","5","6","7","4","5","5","6","4","4","3","6","4","4","1","3","3","5","4","3","6","3","4","5","6","3","3","3","6","4","6","5","5","6","5","5","5","5","5","3","6","3","5","2","6","781449352643350529","姜","201","Male","[""坏我"",""好他"",""坏他"",""好我""]","[""弱我"",""强他"",""弱他"",""强我""]","","","","","","","","no","","","","","","","","","SRET","EW_formal","","key","f","16.684934579439258","640","356","自己","低劣","Negative","morality","","","","","","","","","","",""
"782","","j","psychophysics","98","270543","0.0-7.0-3.0-0.84","4","4","3","3","2","4","4","4","5","5","4","0","-1","-1","0","-3","0","1","1","4","4","5","5","4","4","5","4","4","3","5","6","5","5","5","6","5","6","7","4","5","5","6","4","4","3","6","4","4","1","3","3","5","4","3","6","3","4","5","6","3","3","3","6","4","6","5","5","6","5","5","5","5","5","3","6","3","5","2","6","781449352643350529","姜","201","Male","[""坏我"",""好他"",""坏他"",""好我""]","[""弱我"",""强他"",""弱他"",""强我""]","","","","","","","","yes","","","","","","","","","SRET","EW_formal","","key","j","16.685122641509636","640","356","自己","主见","Positive","ability","","","","","","","","","","",""
"786","","f","psychophysics","99","272331","0.0-7.0-3.0-0.85","4","4","3","3","2","4","4","4","5","5","4","0","-1","-1","0","-3","0","1","1","4","4","5","5","4","4","5","4","4","3","5","6","5","5","5","6","5","6","7","4","5","5","6","4","4","3","6","4","4","1","3","3","5","4","3","6","3","4","5","6","3","3","3","6","4","6","5","5","6","5","5","5","5","5","3","6","3","5","2","6","781449352643350529","姜","201","Male","[""坏我"",""好他"",""坏他"",""好我""]","[""弱我"",""强他"",""弱他"",""强我""]","","","","","","","","no","","","","","","","","","SRET","EW_formal","","key","f","16.684915094339303","640","356","自己","缓慢","Negative","ability","","","","","","","","","","",""
"899","","f","psychophysics","100","274232","0.0-7.0-3.0-0.86","4","4","3","3","2","4","4","4","5","5","4","0","-1","-1","0","-3","0","1","1","4","4","5","5","4","4","5","4","4","3","5","6","5","5","5","6","5","6","7","4","5","5","6","4","4","3","6","4","4","1","3","3","5","4","3","6","3","4","5","6","3","3","3","6","4","6","5","5","6","5","5","5","5","5","3","6","3","5","2","6","781449352643350529","姜","201","Male","[""坏我"",""好他"",""坏他"",""好我""]","[""弱我"",""强他"",""弱他"",""强我""]","","","","","","","","no","","","","","","","","","SRET","EW_formal","","key","f","16.68510619468989","640","356","朋友","素养","Positive","morality","","","","","","","","","","",""
"749","","j","psychophysics","101","275983","0.0-7.0-3.0-0.87","4","4","3","3","2","4","4","4","5","5","4","0","-1","-1","0","-3","0","1","1","4","4","5","5","4","4","5","4","4","3","5","6","5","5","5","6","5","6","7","4","5","5","6","4","4","3","6","4","4","1","3","3","5","4","3","6","3","4","5","6","3","3","3","6","4","6","5","5","6","5","5","5","5","5","3","6","3","5","2","6","781449352643350529","姜","201","Male","[""坏我"",""好他"",""坏他"",""好我""]","[""弱我"",""强他"",""弱他"",""强我""]","","","","","","","","yes","","","","","","","","","SRET","EW_formal","","key","j","16.6849615384613","640","356","朋友","低俗","Negative","morality","","","","","","","","","","",""
"60407","
    <p><div style='color:white;font-size:35px; line-height:20px;'>计算任务</div></p><br>
    <p><div style='color:red;font-size:25px; line-height:20px;'>接下来，您将看到一些四则运算题，<b>请从键盘选择 0-9 进行反应。</b></div></p>
    <p><div style='color:red;font-size:25px; line-height:20px;'>请尽可能快地进行计算，计算的速度和正确率将影响报酬的发放。</div></p>
    <p><div class='footer' style='color:white;font-size:25px; line-height:20px;'>如果对本实验还有不清楚之处，请立即向实验员咨询。</p><p style='color:white;font-size:25px; line-height:20px;'>如果您明白了规则：</p><p style='color:white;font-size:22px; line-height:20px;'>请按 继续 进入练习</p>
    </div>
    ","0","html-button-response","102","336392","0.0-7.0-4.0","4","4","3","3","2","4","4","4","5","5","4","0","-1","-1","0","-3","0","1","1","4","4","5","5","4","4","5","4","4","3","5","6","5","5","5","6","5","6","7","4","5","5","6","4","4","3","6","4","4","1","3","3","5","4","3","6","3","4","5","6","3","3","3","6","4","6","5","5","6","5","5","5","5","5","3","6","3","5","2","6","781449352643350529","姜","201","Male","[""坏我"",""好他"",""坏他"",""好我""]","[""弱我"",""强他"",""弱他"",""强我""]","","","","","","","","","","","","","","","","","SRET_math","math_instructions","Mon Jan 29 2024 20:28:46 GMT+0800 (中国标准时间)","","","","","","","","","","","","","","","","","","","",""
"2062","","7","psychophysics","103","338460","0.0-7.0-5.0-0.0","4","4","3","3","2","4","4","4","5","5","4","0","-1","-1","0","-3","0","1","1","4","4","5","5","4","4","5","4","4","3","5","6","5","5","5","6","5","6","7","4","5","5","6","4","4","3","6","4","4","1","3","3","5","4","3","6","3","4","5","6","3","3","3","6","4","6","5","5","6","5","5","5","5","5","3","6","3","5","2","6","781449352643350529","姜","201","Male","[""坏我"",""好他"",""坏他"",""好我""]","[""弱我"",""强他"",""弱他"",""强我""]","","","","","","","","7","","","","","","","","","SRET","SRET_math_calculate","","key","7","16.64035483870952","640","356","","","","","4+3= ?","7","1","","","","","","","",""
"2025","","4","psychophysics","104","340492","0.0-7.0-5.0-0.1","4","4","3","3","2","4","4","4","5","5","4","0","-1","-1","0","-3","0","1","1","4","4","5","5","4","4","5","4","4","3","5","6","5","5","5","6","5","6","7","4","5","5","6","4","4","3","6","4","4","1","3","3","5","4","3","6","3","4","5","6","3","3","3","6","4","6","5","5","6","5","5","5","5","5","3","6","3","5","2","6","781449352643350529","姜","201","Male","[""坏我"",""好他"",""坏他"",""好我""]","[""弱我"",""强他"",""弱他"",""强我""]","","","","","","","","4","","","","","","","","","SRET","SRET_math_calculate","","key","4","16.68502479338824","640","356","","","","","20/5= ?","4","1","","","","","","","",""
"2233","","8","psychophysics","105","342756","0.0-7.0-5.0-0.2","4","4","3","3","2","4","4","4","5","5","4","0","-1","-1","0","-3","0","1","1","4","4","5","5","4","4","5","4","4","3","5","6","5","5","5","6","5","6","7","4","5","5","6","4","4","3","6","4","4","1","3","3","5","4","3","6","3","4","5","6","3","3","3","6","4","6","5","5","6","5","5","5","5","5","3","6","3","5","2","6","781449352643350529","姜","201","Male","[""坏我"",""好他"",""坏他"",""好我""]","[""弱我"",""强他"",""弱他"",""强我""]","","","","","","","","8","","","","","","","","","SRET","SRET_math_calculate","","key","8","16.68511111111104","640","356","","","","","56/7= ?","8","1","","","","","","","",""
"1999","","0","psychophysics","106","344758","0.0-7.0-5.0-0.3","4","4","3","3","2","4","4","4","5","5","4","0","-1","-1","0","-3","0","1","1","4","4","5","5","4","4","5","4","4","3","5","6","5","5","5","6","5","6","7","4","5","5","6","4","4","3","6","4","4","1","3","3","5","4","3","6","3","4","5","6","3","3","3","6","4","6","5","5","6","5","5","5","5","5","3","6","3","5","2","6","781449352643350529","姜","201","Male","[""坏我"",""好他"",""坏他"",""好我""]","[""弱我"",""强他"",""弱他"",""强我""]","","","","","","","","0","","","","","","","","","SRET","SRET_math_calculate","","key","0","16.685109243697404","640","356","","","","","9-9= ?","0","1","","","","","","","",""
"1917","","1","psychophysics","107","346677","0.0-7.0-5.0-0.4","4","4","3","3","2","4","4","4","5","5","4","0","-1","-1","0","-3","0","1","1","4","4","5","5","4","4","5","4","4","3","5","6","5","5","5","6","5","6","7","4","5","5","6","4","4","3","6","4","4","1","3","3","5","4","3","6","3","4","5","6","3","3","3","6","4","6","5","5","6","5","5","5","5","5","3","6","3","5","2","6","781449352643350529","姜","201","Male","[""坏我"",""好他"",""坏他"",""好我""]","[""弱我"",""强他"",""弱他"",""强我""]","","","","","","","","1","","","","","","","","","SRET","SRET_math_calculate","","key","1","16.685026315789415","640","356","","","","","9-8= ?","1","1","","","","","","","",""
"2007","","8","psychophysics","108","348686","0.0-7.0-5.0-0.5","4","4","3","3","2","4","4","4","5","5","4","0","-1","-1","0","-3","0","1","1","4","4","5","5","4","4","5","4","4","3","5","6","5","5","5","6","5","6","7","4","5","5","6","4","4","3","6","4","4","1","3","3","5","4","3","6","3","4","5","6","3","3","3","6","4","6","5","5","6","5","5","5","5","5","3","6","3","5","2","6","781449352643350529","姜","201","Male","[""坏我"",""好他"",""坏他"",""好我""]","[""弱我"",""强他"",""弱他"",""强我""]","","","","","","","","8","","","","","","","","","SRET","SRET_math_calculate","","key","8","16.684840336134325","640","356","","","","","9-1= ?","8","1","","","","","","","",""
"1981","","5","psychophysics","109","350682","0.0-7.0-5.0-0.6","4","4","3","3","2","4","4","4","5","5","4","0","-1","-1","0","-3","0","1","1","4","4","5","5","4","4","5","4","4","3","5","6","5","5","5","6","5","6","7","4","5","5","6","4","4","3","6","4","4","1","3","3","5","4","3","6","3","4","5","6","3","3","3","6","4","6","5","5","6","5","5","5","5","5","3","6","3","5","2","6","781449352643350529","姜","201","Male","[""坏我"",""好他"",""坏他"",""好我""]","[""弱我"",""强他"",""弱他"",""强我""]","","","","","","","","5","","","","","","","","","SRET","SRET_math_calculate","","key","5","16.685025210083882","640","356","","","","","5/1= ?","5","1","","","","","","","",""
"1957","","9","psychophysics","110","352659","0.0-7.0-5.0-0.7","4","4","3","3","2","4","4","4","5","5","4","0","-1","-1","0","-3","0","1","1","4","4","5","5","4","4","5","4","4","3","5","6","5","5","5","6","5","6","7","4","5","5","6","4","4","3","6","4","4","1","3","3","5","4","3","6","3","4","5","6","3","3","3","6","4","6","5","5","6","5","5","5","5","5","3","6","3","5","2","6","781449352643350529","姜","201","Male","[""坏我"",""好他"",""坏他"",""好我""]","[""弱我"",""强他"",""弱他"",""强我""]","","","","","","","","9","","","","","","","","","SRET","SRET_math_calculate","","key","9","16.6850683760683","640","356","","","","","1+8= ?","9","1","","","","","","","",""
"1976","","9","psychophysics","111","354644","0.0-7.0-5.0-0.8","4","4","3","3","2","4","4","4","5","5","4","0","-1","-1","0","-3","0","1","1","4","4","5","5","4","4","5","4","4","3","5","6","5","5","5","6","5","6","7","4","5","5","6","4","4","3","6","4","4","1","3","3","5","4","3","6","3","4","5","6","3","3","3","6","4","6","5","5","6","5","5","5","5","5","3","6","3","5","2","6","781449352643350529","姜","201","Male","[""坏我"",""好他"",""坏他"",""好我""]","[""弱我"",""强他"",""弱他"",""强我""]","","","","","","","","9","","","","","","","","","SRET","SRET_math_calculate","","key","9","16.68486440677977","640","356","","","","","4+5= ?","9","1","","","","","","","",""
"2148","","3","psychophysics","112","356825","0.0-7.0-5.0-0.9","4","4","3","3","2","4","4","4","5","5","4","0","-1","-1","0","-3","0","1","1","4","4","5","5","4","4","5","4","4","3","5","6","5","5","5","6","5","6","7","4","5","5","6","4","4","3","6","4","4","1","3","3","5","4","3","6","3","4","5","6","3","3","3","6","4","6","5","5","6","5","5","5","5","5","3","6","3","5","2","6","781449352643350529","姜","201","Male","[""坏我"",""好他"",""坏他"",""好我""]","[""弱我"",""强他"",""弱他"",""强我""]","","","","","","","","3","","","","","","","","","SRET","SRET_math_calculate","","key","3","16.68498461538469","640","356","","","","","21/7=  ?","3","1","","","","","","","",""
"2201","","0","psychophysics","113","359028","0.0-7.0-5.0-0.10","4","4","3","3","2","4","4","4","5","5","4","0","-1","-1","0","-3","0","1","1","4","4","5","5","4","4","5","4","4","3","5","6","5","5","5","6","5","6","7","4","5","5","6","4","4","3","6","4","4","1","3","3","5","4","3","6","3","4","5","6","3","3","3","6","4","6","5","5","6","5","5","5","5","5","3","6","3","5","2","6","781449352643350529","姜","201","Male","[""坏我"",""好他"",""坏他"",""好我""]","[""弱我"",""强他"",""弱他"",""强我""]","","","","","","","","0","","","","","","","","","SRET","SRET_math_calculate","","key","0","16.684946564885518","640","356","","","","","5*0= ?","0","1","","","","","","","",""
"2581","","8","psychophysics","114","361612","0.0-7.0-5.0-0.11","4","4","3","3","2","4","4","4","5","5","4","0","-1","-1","0","-3","0","1","1","4","4","5","5","4","4","5","4","4","3","5","6","5","5","5","6","5","6","7","4","5","5","6","4","4","3","6","4","4","1","3","3","5","4","3","6","3","4","5","6","3","3","3","6","4","6","5","5","6","5","5","5","5","5","3","6","3","5","2","6","781449352643350529","姜","201","Male","[""坏我"",""好他"",""坏他"",""好我""]","[""弱我"",""强他"",""弱他"",""强我""]","","","","","","","","8","","","","","","","","","SRET","SRET_math_calculate","","key","8","16.684980519480668","640","356","","","","","11-3= ?","8","1","","","","","","","",""
"2080","","7","psychophysics","115","363695","0.0-7.0-5.0-0.12","4","4","3","3","2","4","4","4","5","5","4","0","-1","-1","0","-3","0","1","1","4","4","5","5","4","4","5","4","4","3","5","6","5","5","5","6","5","6","7","4","5","5","6","4","4","3","6","4","4","1","3","3","5","4","3","6","3","4","5","6","3","3","3","6","4","6","5","5","6","5","5","5","5","5","3","6","3","5","2","6","781449352643350529","姜","201","Male","[""坏我"",""好他"",""坏他"",""好我""]","[""弱我"",""强他"",""弱他"",""强我""]","","","","","","","","7","","","","","","","","","SRET","SRET_math_calculate","","key","7","16.68500806451606","640","356","","","","","49/7 = ?","7","1","","","","","","","",""
"2051","","2","psychophysics","116","365748","0.0-7.0-5.0-0.13","4","4","3","3","2","4","4","4","5","5","4","0","-1","-1","0","-3","0","1","1","4","4","5","5","4","4","5","4","4","3","5","6","5","5","5","6","5","6","7","4","5","5","6","4","4","3","6","4","4","1","3","3","5","4","3","6","3","4","5","6","3","3","3","6","4","6","5","5","6","5","5","5","5","5","3","6","3","5","2","6","781449352643350529","姜","201","Male","[""坏我"",""好他"",""坏他"",""好我""]","[""弱我"",""强他"",""弱他"",""强我""]","","","","","","","","2","","","","","","","","","SRET","SRET_math_calculate","","key","2","16.685139344262293","640","356","","","","","18/9= ?","2","1","","","","","","","",""
"2651","","6","psychophysics","117","368402","0.0-7.0-5.0-0.14","4","4","3","3","2","4","4","4","5","5","4","0","-1","-1","0","-3","0","1","1","4","4","5","5","4","4","5","4","4","3","5","6","5","5","5","6","5","6","7","4","5","5","6","4","4","3","6","4","4","1","3","3","5","4","3","6","3","4","5","6","3","3","3","6","4","6","5","5","6","5","5","5","5","5","3","6","3","5","2","6","781449352643350529","姜","201","Male","[""坏我"",""好他"",""坏他"",""好我""]","[""弱我"",""强他"",""弱他"",""强我""]","","","","","","","","6","","","","","","","","","SRET","SRET_math_calculate","","key","6","16.68505063291147","640","356","","","","","2+4= ?","6","1","","","","","","","",""
"1883","","2","psychophysics","118","370288","0.0-7.0-5.0-0.15","4","4","3","3","2","4","4","4","5","5","4","0","-1","-1","0","-3","0","1","1","4","4","5","5","4","4","5","4","4","3","5","6","5","5","5","6","5","6","7","4","5","5","6","4","4","3","6","4","4","1","3","3","5","4","3","6","3","4","5","6","3","3","3","6","4","6","5","5","6","5","5","5","5","5","3","6","3","5","2","6","781449352643350529","姜","201","Male","[""坏我"",""好他"",""坏他"",""好我""]","[""弱我"",""强他"",""弱他"",""强我""]","","","","","","","","2","","","","","","","","","SRET","SRET_math_calculate","","key","2","16.683991071428732","640","356","","","","","9-7= ?","2","1","","","","","","","",""
"2066","","0","psychophysics","119","372356","0.0-7.0-5.0-0.16","4","4","3","3","2","4","4","4","5","5","4","0","-1","-1","0","-3","0","1","1","4","4","5","5","4","4","5","4","4","3","5","6","5","5","5","6","5","6","7","4","5","5","6","4","4","3","6","4","4","1","3","3","5","4","3","6","3","4","5","6","3","3","3","6","4","6","5","5","6","5","5","5","5","5","3","6","3","5","2","6","781449352643350529","姜","201","Male","[""坏我"",""好他"",""坏他"",""好我""]","[""弱我"",""强他"",""弱他"",""强我""]","","","","","","","","0","","","","","","","","","SRET","SRET_math_calculate","","key","0","16.684861788617983","640","356","","","","","22-22= ?","0","1","","","","","","","",""
"2259","","6","psychophysics","120","374657","0.0-7.0-5.0-0.17","4","4","3","3","2","4","4","4","5","5","4","0","-1","-1","0","-3","0","1","1","4","4","5","5","4","4","5","4","4","3","5","6","5","5","5","6","5","6","7","4","5","5","6","4","4","3","6","4","4","1","3","3","5","4","3","6","3","4","5","6","3","3","3","6","4","6","5","5","6","5","5","5","5","5","3","6","3","5","2","6","781449352643350529","姜","201","Male","[""坏我"",""好他"",""坏他"",""好我""]","[""弱我"",""强他"",""弱他"",""强我""]","","","","","","","","6","","","","","","","","","SRET","SRET_math_calculate","","key","6","16.68505109489061","640","356","","","","","14-9= ?","5","0","","","","","","","",""
"2217","","5","psychophysics","121","376875","0.0-7.0-5.0-0.18","4","4","3","3","2","4","4","4","5","5","4","0","-1","-1","0","-3","0","1","1","4","4","5","5","4","4","5","4","4","3","5","6","5","5","5","6","5","6","7","4","5","5","6","4","4","3","6","4","4","1","3","3","5","4","3","6","3","4","5","6","3","3","3","6","4","6","5","5","6","5","5","5","5","5","3","6","3","5","2","6","781449352643350529","姜","201","Male","[""坏我"",""好他"",""坏他"",""好我""]","[""弱我"",""强他"",""弱他"",""强我""]","","","","","","","","5","","","","","","","","","SRET","SRET_math_calculate","","key","5","16.684962121212404","640","356","","","","","4+1= ?","5","1","","","","","","","",""
"2092","","3","psychophysics","122","378969","0.0-7.0-5.0-0.19","4","4","3","3","2","4","4","4","5","5","4","0","-1","-1","0","-3","0","1","1","4","4","5","5","4","4","5","4","4","3","5","6","5","5","5","6","5","6","7","4","5","5","6","4","4","3","6","4","4","1","3","3","5","4","3","6","3","4","5","6","3","3","3","6","4","6","5","5","6","5","5","5","5","5","3","6","3","5","2","6","781449352643350529","姜","201","Male","[""坏我"",""好他"",""坏他"",""好我""]","[""弱我"",""强他"",""弱他"",""强我""]","","","","","","","","3","","","","","","","","","SRET","SRET_math_calculate","","key","3","16.685048387096746","640","356","","","","","12/4= ?","3","1","","","","","","","",""
"2180","","6","psychophysics","123","381152","0.0-7.0-5.0-0.20","4","4","3","3","2","4","4","4","5","5","4","0","-1","-1","0","-3","0","1","1","4","4","5","5","4","4","5","4","4","3","5","6","5","5","5","6","5","6","7","4","5","5","6","4","4","3","6","4","4","1","3","3","5","4","3","6","3","4","5","6","3","3","3","6","4","6","5","5","6","5","5","5","5","5","3","6","3","5","2","6","781449352643350529","姜","201","Male","[""坏我"",""好他"",""坏他"",""好我""]","[""弱我"",""强他"",""弱他"",""强我""]","","","","","","","","6","","","","","","","","","SRET","SRET_math_calculate","","key","6","16.685107692307792","640","356","","","","","9-3= ?","6","1","","","","","","","",""
"2079","","9","psychophysics","124","383233","0.0-7.0-5.0-0.21","4","4","3","3","2","4","4","4","5","5","4","0","-1","-1","0","-3","0","1","1","4","4","5","5","4","4","5","4","4","3","5","6","5","5","5","6","5","6","7","4","5","5","6","4","4","3","6","4","4","1","3","3","5","4","3","6","3","4","5","6","3","3","3","6","4","6","5","5","6","5","5","5","5","5","3","6","3","5","2","6","781449352643350529","姜","201","Male","[""坏我"",""好他"",""坏他"",""好我""]","[""弱我"",""强他"",""弱他"",""强我""]","","","","","","","","9","","","","","","","","","SRET","SRET_math_calculate","","key","9","16.8206585365853","640","356","","","","","1*9= ?","9","1","","","","","","","",""
"1838","","3","psychophysics","125","385074","0.0-7.0-5.0-0.22","4","4","3","3","2","4","4","4","5","5","4","0","-1","-1","0","-3","0","1","1","4","4","5","5","4","4","5","4","4","3","5","6","5","5","5","6","5","6","7","4","5","5","6","4","4","3","6","4","4","1","3","3","5","4","3","6","3","4","5","6","3","3","3","6","4","6","5","5","6","5","5","5","5","5","3","6","3","5","2","6","781449352643350529","姜","201","Male","[""坏我"",""好他"",""坏他"",""好我""]","[""弱我"",""强他"",""弱他"",""强我""]","","","","","","","","3","","","","","","","","","SRET","SRET_math_calculate","","key","3","16.685045871560018","640","356","","","","","1+2= ?","3","1","","","","","","","",""
"1967","","3","psychophysics","126","387044","0.0-7.0-5.0-0.23","4","4","3","3","2","4","4","4","5","5","4","0","-1","-1","0","-3","0","1","1","4","4","5","5","4","4","5","4","4","3","5","6","5","5","5","6","5","6","7","4","5","5","6","4","4","3","6","4","4","1","3","3","5","4","3","6","3","4","5","6","3","3","3","6","4","6","5","5","6","5","5","5","5","5","3","6","3","5","2","6","781449352643350529","姜","201","Male","[""坏我"",""好他"",""坏他"",""好我""]","[""弱我"",""强他"",""弱他"",""强我""]","","","","","","","","3","","","","","","","","","SRET","SRET_math_calculate","","key","3","18.41656603773601","640","356","","","","","2+1= ?","3","1","","","","","","","",""
"2093","","0","psychophysics","127","389140","0.0-7.0-5.0-0.24","4","4","3","3","2","4","4","4","5","5","4","0","-1","-1","0","-3","0","1","1","4","4","5","5","4","4","5","4","4","3","5","6","5","5","5","6","5","6","7","4","5","5","6","4","4","3","6","4","4","1","3","3","5","4","3","6","3","4","5","6","3","3","3","6","4","6","5","5","6","5","5","5","5","5","3","6","3","5","2","6","781449352643350529","姜","201","Male","[""坏我"",""好他"",""坏他"",""好我""]","[""弱我"",""强他"",""弱他"",""强我""]","","","","","","","","0","","","","","","","","","SRET","SRET_math_calculate","","key","0","16.68514400000032","640","356","","","","","6*0= ?","0","1","","","","","","","",""
"2205","","8","psychophysics","128","391347","0.0-7.0-5.0-0.25","4","4","3","3","2","4","4","4","5","5","4","0","-1","-1","0","-3","0","1","1","4","4","5","5","4","4","5","4","4","3","5","6","5","5","5","6","5","6","7","4","5","5","6","4","4","3","6","4","4","1","3","3","5","4","3","6","3","4","5","6","3","3","3","6","4","6","5","5","6","5","5","5","5","5","3","6","3","5","2","6","781449352643350529","姜","201","Male","[""坏我"",""好他"",""坏他"",""好我""]","[""弱我"",""强他"",""弱他"",""强我""]","","","","","","","","8","","","","","","","","","SRET","SRET_math_calculate","","key","8","16.68498473282404","640","356","","","","","1+7= ?","8","1","","","","","","","",""
"1953","","2","psychophysics","129","393303","0.0-7.0-5.0-0.26","4","4","3","3","2","4","4","4","5","5","4","0","-1","-1","0","-3","0","1","1","4","4","5","5","4","4","5","4","4","3","5","6","5","5","5","6","5","6","7","4","5","5","6","4","4","3","6","4","4","1","3","3","5","4","3","6","3","4","5","6","3","3","3","6","4","6","5","5","6","5","5","5","5","5","3","6","3","5","2","6","781449352643350529","姜","201","Male","[""坏我"",""好他"",""坏他"",""好我""]","[""弱我"",""强他"",""弱他"",""强我""]","","","","","","","","2","","","","","","","","","SRET","SRET_math_calculate","","key","2","16.830252173912974","640","356","","","","","8-6= ?","2","1","","","","","","","",""
"1834","","5","psychophysics","130","395146","0.0-7.0-5.0-0.27","4","4","3","3","2","4","4","4","5","5","4","0","-1","-1","0","-3","0","1","1","4","4","5","5","4","4","5","4","4","3","5","6","5","5","5","6","5","6","7","4","5","5","6","4","4","3","6","4","4","1","3","3","5","4","3","6","3","4","5","6","3","3","3","6","4","6","5","5","6","5","5","5","5","5","3","6","3","5","2","6","781449352643350529","姜","201","Male","[""坏我"",""好他"",""坏他"",""好我""]","[""弱我"",""强他"",""弱他"",""强我""]","","","","","","","","5","","","","","","","","","SRET","SRET_math_calculate","","key","5","16.684954545454822","640","356","","","","","10-5= ?","5","1","","","","","","","",""
"2032","","0","psychophysics","131","397182","0.0-7.0-5.0-0.28","4","4","3","3","2","4","4","4","5","5","4","0","-1","-1","0","-3","0","1","1","4","4","5","5","4","4","5","4","4","3","5","6","5","5","5","6","5","6","7","4","5","5","6","4","4","3","6","4","4","1","3","3","5","4","3","6","3","4","5","6","3","3","3","6","4","6","5","5","6","5","5","5","5","5","3","6","3","5","2","6","781449352643350529","姜","201","Male","[""坏我"",""好他"",""坏他"",""好我""]","[""弱我"",""强他"",""弱他"",""强我""]","","","","","","","","0","","","","","","","","","SRET","SRET_math_calculate","","key","0","16.684925619834623","640","356","","","","","32-32= ?","0","1","","","","","","","",""
"1911","","5","psychophysics","132","399097","0.0-7.0-5.0-0.29","4","4","3","3","2","4","4","4","5","5","4","0","-1","-1","0","-3","0","1","1","4","4","5","5","4","4","5","4","4","3","5","6","5","5","5","6","5","6","7","4","5","5","6","4","4","3","6","4","4","1","3","3","5","4","3","6","3","4","5","6","3","3","3","6","4","6","5","5","6","5","5","5","5","5","3","6","3","5","2","6","781449352643350529","姜","201","Male","[""坏我"",""好他"",""坏他"",""好我""]","[""弱我"",""强他"",""弱他"",""强我""]","","","","","","","","5","","","","","","","","","SRET","SRET_math_calculate","","key","5","16.685150442477543","640","356","","","","","9-4= ?","5","1","","","","","","","",""
"2169","","9","psychophysics","133","401274","0.0-7.0-5.0-0.30","4","4","3","3","2","4","4","4","5","5","4","0","-1","-1","0","-3","0","1","1","4","4","5","5","4","4","5","4","4","3","5","6","5","5","5","6","5","6","7","4","5","5","6","4","4","3","6","4","4","1","3","3","5","4","3","6","3","4","5","6","3","3","3","6","4","6","5","5","6","5","5","5","5","5","3","6","3","5","2","6","781449352643350529","姜","201","Male","[""坏我"",""好他"",""坏他"",""好我""]","[""弱我"",""强他"",""弱他"",""强我""]","","","","","","","","9","","","","","","","","","SRET","SRET_math_calculate","","key","9","16.68719230769247","640","356","","","","","3*3= ?","9","1","","","","","","","",""
"2913","","8","psychophysics","134","404190","0.0-7.0-5.0-0.31","4","4","3","3","2","4","4","4","5","5","4","0","-1","-1","0","-3","0","1","1","4","4","5","5","4","4","5","4","4","3","5","6","5","5","5","6","5","6","7","4","5","5","6","4","4","3","6","4","4","1","3","3","5","4","3","6","3","4","5","6","3","3","3","6","4","6","5","5","6","5","5","5","5","5","3","6","3","5","2","6","781449352643350529","姜","201","Male","[""坏我"",""好他"",""坏他"",""好我""]","[""弱我"",""强他"",""弱他"",""强我""]","","","","","","","","8","","","","","","","","","SRET","SRET_math_calculate","","key","8","16.6850574712641","640","356","","","","","13-5= ?","8","1","","","","","","","",""
"2022","","7","psychophysics","135","406232","0.0-7.0-5.0-0.32","4","4","3","3","2","4","4","4","5","5","4","0","-1","-1","0","-3","0","1","1","4","4","5","5","4","4","5","4","4","3","5","6","5","5","5","6","5","6","7","4","5","5","6","4","4","3","6","4","4","1","3","3","5","4","3","6","3","4","5","6","3","3","3","6","4","6","5","5","6","5","5","5","5","5","3","6","3","5","2","6","781449352643350529","姜","201","Male","[""坏我"",""好他"",""坏他"",""好我""]","[""弱我"",""强他"",""弱他"",""强我""]","","","","","","","","7","","","","","","","","","SRET","SRET_math_calculate","","key","7","16.685024793388724","640","356","","","","","1+6= ?","7","1","","","","","","","",""
"1997","","6","psychophysics","136","408230","0.0-7.0-5.0-0.33","4","4","3","3","2","4","4","4","5","5","4","0","-1","-1","0","-3","0","1","1","4","4","5","5","4","4","5","4","4","3","5","6","5","5","5","6","5","6","7","4","5","5","6","4","4","3","6","4","4","1","3","3","5","4","3","6","3","4","5","6","3","3","3","6","4","6","5","5","6","5","5","5","5","5","3","6","3","5","2","6","781449352643350529","姜","201","Male","[""坏我"",""好他"",""坏他"",""好我""]","[""弱我"",""强他"",""弱他"",""强我""]","","","","","","","","6","","","","","","","","","SRET","SRET_math_calculate","","key","6","16.68508403361315","640","356","","","","","5+1= ?","6","1","","","","","","","",""
"2473","","7","psychophysics","137","410708","0.0-7.0-5.0-0.34","4","4","3","3","2","4","4","4","5","5","4","0","-1","-1","0","-3","0","1","1","4","4","5","5","4","4","5","4","4","3","5","6","5","5","5","6","5","6","7","4","5","5","6","4","4","3","6","4","4","1","3","3","5","4","3","6","3","4","5","6","3","3","3","6","4","6","5","5","6","5","5","5","5","5","3","6","3","5","2","6","781449352643350529","姜","201","Male","[""坏我"",""好他"",""坏他"",""好我""]","[""弱我"",""强他"",""弱他"",""强我""]","","","","","","","","7","","","","","","","","","SRET","SRET_math_calculate","","key","7","16.6849482758618","640","356","","","","","21/3= ? ","7","1","","","","","","","",""
"1397","","7","psychophysics","138","412109","0.0-7.0-5.0-0.35","4","4","3","3","2","4","4","4","5","5","4","0","-1","-1","0","-3","0","1","1","4","4","5","5","4","4","5","4","4","3","5","6","5","5","5","6","5","6","7","4","5","5","6","4","4","3","6","4","4","1","3","3","5","4","3","6","3","4","5","6","3","3","3","6","4","6","5","5","6","5","5","5","5","5","3","6","3","5","2","6","781449352643350529","姜","201","Male","[""坏我"",""好他"",""坏他"",""好我""]","[""弱我"",""强他"",""弱他"",""强我""]","","","","","","","","7","","","","","","","","","SRET","SRET_math_calculate","","key","7","NaN","640","356","","","","","19-17= ?","2","0","","","","","","","",""
"3466","","9","psychophysics","139","415577","0.0-7.0-5.0-0.36","4","4","3","3","2","4","4","4","5","5","4","0","-1","-1","0","-3","0","1","1","4","4","5","5","4","4","5","4","4","3","5","6","5","5","5","6","5","6","7","4","5","5","6","4","4","3","6","4","4","1","3","3","5","4","3","6","3","4","5","6","3","3","3","6","4","6","5","5","6","5","5","5","5","5","3","6","3","5","2","6","781449352643350529","姜","201","Male","[""坏我"",""好他"",""坏他"",""好我""]","[""弱我"",""强他"",""弱他"",""强我""]","","","","","","","","9","","","","","","","","","SRET","SRET_math_calculate","","key","9","16.68093989071019","640","356","","","","","32-23= ?","9","1","","","","","","","",""
"2193","","7","psychophysics","140","417772","0.0-7.0-5.0-0.37","4","4","3","3","2","4","4","4","5","5","4","0","-1","-1","0","-3","0","1","1","4","4","5","5","4","4","5","4","4","3","5","6","5","5","5","6","5","6","7","4","5","5","6","4","4","3","6","4","4","1","3","3","5","4","3","6","3","4","5","6","3","3","3","6","4","6","5","5","6","5","5","5","5","5","3","6","3","5","2","6","781449352643350529","姜","201","Male","[""坏我"",""好他"",""坏他"",""好我""]","[""弱我"",""强他"",""弱他"",""强我""]","","","","","","","","7","","","","","","","","","SRET","SRET_math_calculate","","key","7","16.685038167939304","640","356","","","","","13-6= ?","7","1","","","","","","","",""
"1873","","6","psychophysics","141","419647","0.0-7.0-5.0-0.38","4","4","3","3","2","4","4","4","5","5","4","0","-1","-1","0","-3","0","1","1","4","4","5","5","4","4","5","4","4","3","5","6","5","5","5","6","5","6","7","4","5","5","6","4","4","3","6","4","4","1","3","3","5","4","3","6","3","4","5","6","3","3","3","6","4","6","5","5","6","5","5","5","5","5","3","6","3","5","2","6","781449352643350529","姜","201","Male","[""坏我"",""好他"",""坏他"",""好我""]","[""弱我"",""强他"",""弱他"",""强我""]","","","","","","","","6","","","","","","","","","SRET","SRET_math_calculate","","key","6","16.685072072072117","640","356","","","","","3+3= ?","6","1","","","","","","","",""
"1856","","7","psychophysics","142","421507","0.0-7.0-5.0-0.39","4","4","3","3","2","4","4","4","5","5","4","0","-1","-1","0","-3","0","1","1","4","4","5","5","4","4","5","4","4","3","5","6","5","5","5","6","5","6","7","4","5","5","6","4","4","3","6","4","4","1","3","3","5","4","3","6","3","4","5","6","3","3","3","6","4","6","5","5","6","5","5","5","5","5","3","6","3","5","2","6","781449352643350529","姜","201","Male","[""坏我"",""好他"",""坏他"",""好我""]","[""弱我"",""强他"",""弱他"",""强我""]","","","","","","","","7","","","","","","","","","SRET","SRET_math_calculate","","key","7","16.68492727272678","640","356","","","","","5+2= ?","7","1","","","","","","","",""
