"rt","stimulus","response","trial_type","trial_index","time_elapsed","internal_node_id","swb_1","swb_2","swb_3","swb_4","swb_5","LOT_1","LOT_2","LOT_3","LOT_4","LOT_5","LOT_6","IPC_1","IPC_2","IPC_3","IPC_4","IPC_5","IPC_6","IPC_7","IPC_8","MorIden_1","MorIden_2","MorIden_3","MorIden_4","MorIden_5","MorIden_6","MorIden_7","MorIden_8","MorIden_9","MorIden_10","moralSeImag_1","moralSeImag_2","moralSeImag_3","moralSeImag_4","moralSeImag_5","moralSeImag_6","moralSeImag_7","moralSeImag_8","moralSeImag_9","sde_1","sde_2","sde_3","sde_4","sde_5","sde_6","sde_7","sde_8","sde_9","sde_10","trap2","sde_11","sde_12","sde_13","sde_14","sde_15","sde_16","sde_17","sde_18","sde_19","sde_20","IM_1","IM_2","IM_3","IM_4","IM_5","IM_6","IM_7","IM_8","IM_9","IM_10","IM_11","IM_12","IM_13","IM_14","IM_15","IM_16","IM_17","IM_18","IM_19","IM_20","subj_idx","friend_name","ParticipantID","Sex","Word","Word2","value","success","timeout","failed_images","failed_audio","failed_video","user_agent","responses","item_order","radio_event_ids","radio_event_times","key_event_times","mouse_event_times","straightlining","zigzagging","honeypot","view_history","response_type","key_press","avg_frame_time","center_x","center_y","correct_response","correct","identity","Image","word","condition","task_id","screen_id","time_stamp","person","valence","domain","math","status","duration","question_order","trap2_item"
"2164","
   <p><div style='color:white; font-size: 25px'>您好，欢迎参加本次实验。</div></p>
   <p><div style='color:white; font-size: 25px'>为充分保障您的权利，请确保您已经知晓并同意《参与实验同意书》以及《数据公开知情同意书》。</div></p>
   <p><div style='color:white; font-size: 25px'>如果您未见过上述内容，请咨询实验员。</div></p>
   <p style='color:white; font-size: 25px'>如果您选择继续实验，则表示您已经清楚两份知情同意书的内容并同意。</p>
   <p><div style = ""color: pink;font-size:30px;"">请确保您记得day0的实验编号，您将在本次实验输入该编号，若您忘记，请咨询实验员后作答。</div></p>
   <p><div style = ""color:lightblue;font-size:25px;"">请您尽可能认真地作答，我们将依据您在各问卷和按键任务中的作答质量发放报酬。</div></p>
   <p> <div style = ""color: green""><按空格键至下页></div> </p>
   "," ","html-keyboard-response","0","2172","0.0-0.0","6","5","6","4","3","4","3","4","4","5","4","2","-1","1","0","1","1","2","1","5","4","5","4","4","3","4","3","4","4","6","8","7","7","6","6","7","6","7","4","5","4","6","5","3","6","3","6","5","1","5","3","6","4","5","4","5","5","5","6","3","5","5","5","5","7","5","6","6","5","5","5","5","3","3","5","2","5","3","6","802197026057101313","张","568","Female","[""好她"",""坏她"",""好我"",""坏我""]","[""强她"",""弱她"",""强我"",""弱我""]","","","","","","","","","","","","","","","","","","","","","","","","","","","","","","","","","","","","","","",""
"","","","call-function","1","2175","0.0-1.0-0.0","6","5","6","4","3","4","3","4","4","5","4","2","-1","1","0","1","1","2","1","5","4","5","4","4","3","4","3","4","4","6","8","7","7","6","6","7","6","7","4","5","4","6","5","3","6","3","6","5","1","5","3","6","4","5","4","5","5","5","6","3","5","5","5","5","7","5","6","6","5","5","5","5","3","3","5","2","5","3","6","802197026057101313","张","568","Female","[""好她"",""坏她"",""好我"",""坏我""]","[""强她"",""弱她"",""强我"",""弱我""]","","","","","","","","","","","","","","","","","","","","","","","","","","","","","","","","","","","","","","",""
"23527","","[{""name"":""Sex"",""value"":""1""},{""name"":""friend_name"",""value"":""张""},{""name"":""ParticipantID"",""value"":""568""}]","survey-html-form","2","25707","0.0-1.0-1.0","6","5","6","4","3","4","3","4","4","5","4","2","-1","1","0","1","1","2","1","5","4","5","4","4","3","4","3","4","4","6","8","7","7","6","6","7","6","7","4","5","4","6","5","3","6","3","6","5","1","5","3","6","4","5","4","5","5","5","6","3","5","5","5","5","7","5","6","6","5","5","5","5","3","3","5","2","5","3","6","802197026057101313","张","568","Female","[""好她"",""坏她"",""好我"",""坏我""]","[""强她"",""弱她"",""强我"",""弱我""]","","","","","","","","","","","","","","","","","","","","","","","","","","","","","","","","","","","","","","",""
"","","","preload","3","26032","0.0-2.0","6","5","6","4","3","4","3","4","4","5","4","2","-1","1","0","1","1","2","1","5","4","5","4","4","3","4","3","4","4","6","8","7","7","6","6","7","6","7","4","5","4","6","5","3","6","3","6","5","1","5","3","6","4","5","4","5","5","5","6","3","5","5","5","5","7","5","6","6","5","5","5","5","3","3","5","2","5","3","6","802197026057101313","张","568","Female","[""好她"",""坏她"",""好我"",""坏我""]","[""强她"",""弱她"",""强我"",""弱我""]","","true","false","[]","[]","[]","","","","","","","","","","","","","","","","","","","","","","","","","","","","","","","","",""
"","","","fullscreen","4","27764","0.0-3.0","6","5","6","4","3","4","3","4","4","5","4","2","-1","1","0","1","1","2","1","5","4","5","4","4","3","4","3","4","4","6","8","7","7","6","6","7","6","7","4","5","4","6","5","3","6","3","6","5","1","5","3","6","4","5","4","5","5","5","6","3","5","5","5","5","7","5","6","6","5","5","5","5","3","3","5","2","5","3","6","802197026057101313","张","568","Female","[""好她"",""坏她"",""好我"",""坏我""]","[""强她"",""弱她"",""强我"",""弱我""]","","true","","","","","","","","","","","","","","","","","","","","","","","","","","","","","","","","","","","","",""
"80605.73999999996","","{""Q01"":""6"",""Q02"":""5"",""Q03"":""6"",""Q04"":""4"",""Q05"":""3""}","survey-template","5","107999","0.0-4.0","6","5","6","4","3","4","3","4","4","5","4","2","-1","1","0","1","1","2","1","5","4","5","4","4","3","4","3","4","4","6","8","7","7","6","6","7","6","7","4","5","4","6","5","3","6","3","6","5","1","5","3","6","4","5","4","5","5","5","6","3","5","5","5","5","7","5","6","6","5","5","5","5","3","3","5","2","5","3","6","802197026057101313","张","568","Female","[""好她"",""坏她"",""好我"",""坏我""]","[""强她"",""弱她"",""强我"",""弱我""]","","","","","","","","{""Q01"":""6"",""Q02"":""5"",""Q03"":""6"",""Q04"":""4"",""Q05"":""3""}","[0,1,2,3,4]","[""Q01"",""Q02"",""Q03"",""Q04"",""Q03"",""Q05""]","[2531.774999999925,3778.849999999922,4930.349999999973,7521.909999999934,8418.144999999979,9986.324999999964]","[]","[2531.774999999925,3778.849999999922,4930.349999999973,7521.909999999934,8418.144999999979,9986.324999999964,80601.97499999992]","0.4","0.75","0","","","","","","","","","","","","","","","","","","","","","","",""
"9775.244999999923","","{""Q01"":""4"",""Q02"":""3"",""Q03"":""4"",""Q04"":""4"",""Q05"":""5"",""Q06"":""4""}","survey-template","6","117788","0.0-5.0","6","5","6","4","3","4","3","4","4","5","4","2","-1","1","0","1","1","2","1","5","4","5","4","4","3","4","3","4","4","6","8","7","7","6","6","7","6","7","4","5","4","6","5","3","6","3","6","5","1","5","3","6","4","5","4","5","5","5","6","3","5","5","5","5","7","5","6","6","5","5","5","5","3","3","5","2","5","3","6","802197026057101313","张","568","Female","[""好她"",""坏她"",""好我"",""坏我""]","[""强她"",""弱她"",""强我"",""弱我""]","","","","","","","","{""Q01"":""4"",""Q02"":""3"",""Q03"":""4"",""Q04"":""4"",""Q05"":""5"",""Q06"":""4""}","[0,1,2,3,4,5]","[""Q01"",""Q02"",""Q03"",""Q04"",""Q05"",""Q06""]","[1837.1099999999278,3956.384999999951,5172.235000000001,6608.04999999993,7832.959999999948,9139.839999999924]","[]","[1837.1099999999278,3956.384999999951,5172.235000000001,6608.04999999993,7832.959999999948,9139.839999999924,9772.420000000013]","0.5","0.6","0","","","","","","","","","","","","","","","","","","","","","","",""
"13843.574999999968","","{""Q01"":""2"",""Q02"":""-1"",""Q03"":""1"",""Q04"":""0"",""Q05"":""1"",""Q06"":""1"",""Q07"":""2"",""Q08"":""1""}","survey-template","7","131643","0.0-6.0","6","5","6","4","3","4","3","4","4","5","4","2","-1","1","0","1","1","2","1","5","4","5","4","4","3","4","3","4","4","6","8","7","7","6","6","7","6","7","4","5","4","6","5","3","6","3","6","5","1","5","3","6","4","5","4","5","5","5","6","3","5","5","5","5","7","5","6","6","5","5","5","5","3","3","5","2","5","3","6","802197026057101313","张","568","Female","[""好她"",""坏她"",""好我"",""坏我""]","[""强她"",""弱她"",""强我"",""弱我""]","","","","","","","","{""Q01"":""2"",""Q02"":""-1"",""Q03"":""1"",""Q04"":""0"",""Q05"":""1"",""Q06"":""1"",""Q07"":""2"",""Q08"":""1""}","[0,1,2,3,4,5,6,7]","[""Q02"",""Q01"",""Q03"",""Q04"",""Q05"",""Q06"",""Q07"",""Q08""]","[3168.8299999999435,5872.619999999981,6800.449999999953,8361.300000000017,9352.840000000011,10361.41999999994,11993.050000000032,12945.02499999998]","[]","[1843.8300000000163,3168.8299999999435,5872.619999999981,6800.449999999953,8361.300000000017,9352.840000000011,10361.41999999994,11993.050000000032,12945.02499999998,13840.914999999994]","0.5","0.5714285714285714","0","","","","","","","","","","","","","","","","","","","","","","",""
"44137","","","instructions","8","175546","0.0-7.0","6","5","6","4","3","4","3","4","4","5","4","2","-1","1","0","1","1","2","1","5","4","5","4","4","3","4","3","4","4","6","8","7","7","6","6","7","6","7","4","5","4","6","5","3","6","3","6","5","1","5","3","6","4","5","4","5","5","5","6","3","5","5","5","5","7","5","6","6","5","5","5","5","3","3","5","2","5","3","6","802197026057101313","张","568","Female","[""好她"",""坏她"",""好我"",""坏我""]","[""强她"",""弱她"",""强我"",""弱我""]","","","","","","","","","","","","","","","","","[{""page_index"":0,""viewing_time"":44136}]","","","","","","","","","","","","","","","","","","","","","",""
"245083","","","instructions","9","420037","0.0-8.0-0.0-0.0","6","5","6","4","3","4","3","4","4","5","4","2","-1","1","0","1","1","2","1","5","4","5","4","4","3","4","3","4","4","6","8","7","7","6","6","7","6","7","4","5","4","6","5","3","6","3","6","5","1","5","3","6","4","5","4","5","5","5","6","3","5","5","5","5","7","5","6","6","5","5","5","5","3","3","5","2","5","3","6","802197026057101313","张","568","Female","[""好她"",""坏她"",""好我"",""坏我""]","[""强她"",""弱她"",""强我"",""弱我""]","","","","","","","","","","","","","","","","","[{""page_index"":0,""viewing_time"":2397},{""page_index"":1,""viewing_time"":237980},{""page_index"":2,""viewing_time"":2480},{""page_index"":3,""viewing_time"":2225}]","","","","","","","","","","","","","","","","","","","","","",""
"1168","","j","psychophysics","10","422219","0.0-8.0-0.0-1.0-0.0-0.0","6","5","6","4","3","4","3","4","4","5","4","2","-1","1","0","1","1","2","1","5","4","5","4","4","3","4","3","4","4","6","8","7","7","6","6","7","6","7","4","5","4","6","5","3","6","3","6","5","1","5","3","6","4","5","4","5","5","5","6","3","5","5","5","5","7","5","6","6","5","5","5","5","3","3","5","2","5","3","6","802197026057101313","张","568","Female","[""好她"",""坏她"",""好我"",""坏我""]","[""强她"",""弱她"",""强我"",""弱我""]","","","","","","","","nonmatch","","","","","","","","","","key","j","24.88095238095238","960","536","j","true","nonmatch","img/pentagon.png","好她","好我","prac_ALT2_moral","practice_moral","","","","","","","","",""
"null","<span style='color:GreenYellow; font-size: 70px;'>正确! </span>","null","html-keyboard-response","11","422724","0.0-8.0-0.0-1.0-0.0-1.0","6","5","6","4","3","4","3","4","4","5","4","2","-1","1","0","1","1","2","1","5","4","5","4","4","3","4","3","4","4","6","8","7","7","6","6","7","6","7","4","5","4","6","5","3","6","3","6","5","1","5","3","6","4","5","4","5","5","5","6","3","5","5","5","5","7","5","6","6","5","5","5","5","3","3","5","2","5","3","6","802197026057101313","张","568","Female","[""好她"",""坏她"",""好我"",""坏我""]","[""强她"",""弱她"",""强我"",""弱我""]","","","","","","","","","","","","","","","","","","","","","","","","","","","","","","feedback_test","","","","","","","","",""
"null","","null","psychophysics","12","424946","0.0-8.0-0.0-1.0-0.0-0.1","6","5","6","4","3","4","3","4","4","5","4","2","-1","1","0","1","1","2","1","5","4","5","4","4","3","4","3","4","4","6","8","7","7","6","6","7","6","7","4","5","4","6","5","3","6","3","6","5","1","5","3","6","4","5","4","5","5","5","6","3","5","5","5","5","7","5","6","6","5","5","5","5","3","3","5","2","5","3","6","802197026057101313","张","568","Female","[""好她"",""坏她"",""好我"",""坏我""]","[""强她"",""弱她"",""强我"",""弱我""]","","","","","","","","null","","","","","","","","","","key","null","21.8","960","536","j","false","nonmatch","img/pentagon.png","坏我","好我","prac_ALT2_moral","practice_moral","","","","","","","","",""
"null","<span class='add_' style='color:yellow; font-size: 70px;'> 太慢! </span>","null","html-keyboard-response","13","425449","0.0-8.0-0.0-1.0-0.0-1.1","6","5","6","4","3","4","3","4","4","5","4","2","-1","1","0","1","1","2","1","5","4","5","4","4","3","4","3","4","4","6","8","7","7","6","6","7","6","7","4","5","4","6","5","3","6","3","6","5","1","5","3","6","4","5","4","5","5","5","6","3","5","5","5","5","7","5","6","6","5","5","5","5","3","3","5","2","5","3","6","802197026057101313","张","568","Female","[""好她"",""坏她"",""好我"",""坏我""]","[""强她"",""弱她"",""强我"",""弱我""]","","","","","","","","","","","","","","","","","","","","","","","","","","","","","","feedback_test","","","","","","","","",""
"1201","","j","psychophysics","14","427660","0.0-8.0-0.0-1.0-0.0-0.2","6","5","6","4","3","4","3","4","4","5","4","2","-1","1","0","1","1","2","1","5","4","5","4","4","3","4","3","4","4","6","8","7","7","6","6","7","6","7","4","5","4","6","5","3","6","3","6","5","1","5","3","6","4","5","4","5","5","5","6","3","5","5","5","5","7","5","6","6","5","5","5","5","3","3","5","2","5","3","6","802197026057101313","张","568","Female","[""好她"",""坏她"",""好我"",""坏我""]","[""强她"",""弱她"",""强我"",""弱我""]","","","","","","","","nonmatch","","","","","","","","","","key","j","22.371134020618555","960","536","j","true","nonmatch","img/square.png","好她","坏我","prac_ALT2_moral","practice_moral","","","","","","","","",""
"null","<span class='add_' style='color:yellow; font-size: 70px;'> 太慢! </span>","null","html-keyboard-response","15","428163","0.0-8.0-0.0-1.0-0.0-1.2","6","5","6","4","3","4","3","4","4","5","4","2","-1","1","0","1","1","2","1","5","4","5","4","4","3","4","3","4","4","6","8","7","7","6","6","7","6","7","4","5","4","6","5","3","6","3","6","5","1","5","3","6","4","5","4","5","5","5","6","3","5","5","5","5","7","5","6","6","5","5","5","5","3","3","5","2","5","3","6","802197026057101313","张","568","Female","[""好她"",""坏她"",""好我"",""坏我""]","[""强她"",""弱她"",""强我"",""弱我""]","","","","","","","","","","","","","","","","","","","","","","","","","","","","","","feedback_test","","","","","","","","",""
"null","","null","psychophysics","16","430374","0.0-8.0-0.0-1.0-0.0-0.3","6","5","6","4","3","4","3","4","4","5","4","2","-1","1","0","1","1","2","1","5","4","5","4","4","3","4","3","4","4","6","8","7","7","6","6","7","6","7","4","5","4","6","5","3","6","3","6","5","1","5","3","6","4","5","4","5","5","5","6","3","5","5","5","5","7","5","6","6","5","5","5","5","3","3","5","2","5","3","6","802197026057101313","张","568","Female","[""好她"",""坏她"",""好我"",""坏我""]","[""强她"",""弱她"",""强我"",""弱我""]","","","","","","","","null","","","","","","","","","","key","null","21.91919191919192","960","536","j","false","nonmatch","img/circle.png","好她","坏她","prac_ALT2_moral","practice_moral","","","","","","","","",""
"null","<span class='add_' style='color:yellow; font-size: 70px;'> 太慢! </span>","null","html-keyboard-response","17","430876","0.0-8.0-0.0-1.0-0.0-1.3","6","5","6","4","3","4","3","4","4","5","4","2","-1","1","0","1","1","2","1","5","4","5","4","4","3","4","3","4","4","6","8","7","7","6","6","7","6","7","4","5","4","6","5","3","6","3","6","5","1","5","3","6","4","5","4","5","5","5","6","3","5","5","5","5","7","5","6","6","5","5","5","5","3","3","5","2","5","3","6","802197026057101313","张","568","Female","[""好她"",""坏她"",""好我"",""坏我""]","[""强她"",""弱她"",""强我"",""弱我""]","","","","","","","","","","","","","","","","","","","","","","","","","","","","","","feedback_test","","","","","","","","",""
"1005","","j","psychophysics","18","432899","0.0-8.0-0.0-1.0-0.0-0.4","6","5","6","4","3","4","3","4","4","5","4","2","-1","1","0","1","1","2","1","5","4","5","4","4","3","4","3","4","4","6","8","7","7","6","6","7","6","7","4","5","4","6","5","3","6","3","6","5","1","5","3","6","4","5","4","5","5","5","6","3","5","5","5","5","7","5","6","6","5","5","5","5","3","3","5","2","5","3","6","802197026057101313","张","568","Female","[""好她"",""坏她"",""好我"",""坏我""]","[""强她"",""弱她"",""强我"",""弱我""]","","","","","","","","nonmatch","","","","","","","","","","key","j","23.571428571428573","960","536","j","true","nonmatch","img/square.png","好我","坏我","prac_ALT2_moral","practice_moral","","","","","","","","",""
"null","<span style='color:GreenYellow; font-size: 70px;'>正确! </span>","null","html-keyboard-response","19","433402","0.0-8.0-0.0-1.0-0.0-1.4","6","5","6","4","3","4","3","4","4","5","4","2","-1","1","0","1","1","2","1","5","4","5","4","4","3","4","3","4","4","6","8","7","7","6","6","7","6","7","4","5","4","6","5","3","6","3","6","5","1","5","3","6","4","5","4","5","5","5","6","3","5","5","5","5","7","5","6","6","5","5","5","5","3","3","5","2","5","3","6","802197026057101313","张","568","Female","[""好她"",""坏她"",""好我"",""坏我""]","[""强她"",""弱她"",""强我"",""弱我""]","","","","","","","","","","","","","","","","","","","","","","","","","","","","","","feedback_test","","","","","","","","",""
"1126","","j","psychophysics","20","435546","0.0-8.0-0.0-1.0-0.0-0.5","6","5","6","4","3","4","3","4","4","5","4","2","-1","1","0","1","1","2","1","5","4","5","4","4","3","4","3","4","4","6","8","7","7","6","6","7","6","7","4","5","4","6","5","3","6","3","6","5","1","5","3","6","4","5","4","5","5","5","6","3","5","5","5","5","7","5","6","6","5","5","5","5","3","3","5","2","5","3","6","802197026057101313","张","568","Female","[""好她"",""坏她"",""好我"",""坏我""]","[""强她"",""弱她"",""强我"",""弱我""]","","","","","","","","nonmatch","","","","","","","","","","key","j","23.48314606741573","960","536","j","true","nonmatch","img/pentagon.png","坏她","好我","prac_ALT2_moral","practice_moral","","","","","","","","",""
"null","<span style='color:GreenYellow; font-size: 70px;'>正确! </span>","null","html-keyboard-response","21","436049","0.0-8.0-0.0-1.0-0.0-1.5","6","5","6","4","3","4","3","4","4","5","4","2","-1","1","0","1","1","2","1","5","4","5","4","4","3","4","3","4","4","6","8","7","7","6","6","7","6","7","4","5","4","6","5","3","6","3","6","5","1","5","3","6","4","5","4","5","5","5","6","3","5","5","5","5","7","5","6","6","5","5","5","5","3","3","5","2","5","3","6","802197026057101313","张","568","Female","[""好她"",""坏她"",""好我"",""坏我""]","[""强她"",""弱她"",""强我"",""弱我""]","","","","","","","","","","","","","","","","","","","","","","","","","","","","","","feedback_test","","","","","","","","",""
"null","","null","psychophysics","22","438263","0.0-8.0-0.0-1.0-0.0-0.6","6","5","6","4","3","4","3","4","4","5","4","2","-1","1","0","1","1","2","1","5","4","5","4","4","3","4","3","4","4","6","8","7","7","6","6","7","6","7","4","5","4","6","5","3","6","3","6","5","1","5","3","6","4","5","4","5","5","5","6","3","5","5","5","5","7","5","6","6","5","5","5","5","3","3","5","2","5","3","6","802197026057101313","张","568","Female","[""好她"",""坏她"",""好我"",""坏我""]","[""强她"",""弱她"",""强我"",""弱我""]","","","","","","","","null","","","","","","","","","","key","null","22.02020202020202","960","536","f","false","match","img/square.png","坏我","坏我","prac_ALT2_moral","practice_moral","","","","","","","","",""
"null","<span class='add_' style='color:yellow; font-size: 70px;'> 太慢! </span>","null","html-keyboard-response","23","438765","0.0-8.0-0.0-1.0-0.0-1.6","6","5","6","4","3","4","3","4","4","5","4","2","-1","1","0","1","1","2","1","5","4","5","4","4","3","4","3","4","4","6","8","7","7","6","6","7","6","7","4","5","4","6","5","3","6","3","6","5","1","5","3","6","4","5","4","5","5","5","6","3","5","5","5","5","7","5","6","6","5","5","5","5","3","3","5","2","5","3","6","802197026057101313","张","568","Female","[""好她"",""坏她"",""好我"",""坏我""]","[""强她"",""弱她"",""强我"",""弱我""]","","","","","","","","","","","","","","","","","","","","","","","","","","","","","","feedback_test","","","","","","","","",""
"1125","","j","psychophysics","24","440894","0.0-8.0-0.0-1.0-0.0-0.7","6","5","6","4","3","4","3","4","4","5","4","2","-1","1","0","1","1","2","1","5","4","5","4","4","3","4","3","4","4","6","8","7","7","6","6","7","6","7","4","5","4","6","5","3","6","3","6","5","1","5","3","6","4","5","4","5","5","5","6","3","5","5","5","5","7","5","6","6","5","5","5","5","3","3","5","2","5","3","6","802197026057101313","张","568","Female","[""好她"",""坏她"",""好我"",""坏我""]","[""强她"",""弱她"",""强我"",""弱我""]","","","","","","","","nonmatch","","","","","","","","","","key","j","21.894736842105264","960","536","j","true","nonmatch","img/trapezoid.png","坏她","好她","prac_ALT2_moral","practice_moral","","","","","","","","",""
"null","<span style='color:GreenYellow; font-size: 70px;'>正确! </span>","null","html-keyboard-response","25","441396","0.0-8.0-0.0-1.0-0.0-1.7","6","5","6","4","3","4","3","4","4","5","4","2","-1","1","0","1","1","2","1","5","4","5","4","4","3","4","3","4","4","6","8","7","7","6","6","7","6","7","4","5","4","6","5","3","6","3","6","5","1","5","3","6","4","5","4","5","5","5","6","3","5","5","5","5","7","5","6","6","5","5","5","5","3","3","5","2","5","3","6","802197026057101313","张","568","Female","[""好她"",""坏她"",""好我"",""坏我""]","[""强她"",""弱她"",""强我"",""弱我""]","","","","","","","","","","","","","","","","","","","","","","","","","","","","","","feedback_test","","","","","","","","",""
"1070","","j","psychophysics","26","443490","0.0-8.0-0.0-1.0-0.0-0.8","6","5","6","4","3","4","3","4","4","5","4","2","-1","1","0","1","1","2","1","5","4","5","4","4","3","4","3","4","4","6","8","7","7","6","6","7","6","7","4","5","4","6","5","3","6","3","6","5","1","5","3","6","4","5","4","5","5","5","6","3","5","5","5","5","7","5","6","6","5","5","5","5","3","3","5","2","5","3","6","802197026057101313","张","568","Female","[""好她"",""坏她"",""好我"",""坏我""]","[""强她"",""弱她"",""强我"",""弱我""]","","","","","","","","nonmatch","","","","","","","","","","key","j","22.282608695652176","960","536","f","false","match","img/pentagon.png","好我","好我","prac_ALT2_moral","practice_moral","","","","","","","","",""
"null","<span style='color:red; font-size: 70px;'>错误! </span>","null","html-keyboard-response","27","443993","0.0-8.0-0.0-1.0-0.0-1.8","6","5","6","4","3","4","3","4","4","5","4","2","-1","1","0","1","1","2","1","5","4","5","4","4","3","4","3","4","4","6","8","7","7","6","6","7","6","7","4","5","4","6","5","3","6","3","6","5","1","5","3","6","4","5","4","5","5","5","6","3","5","5","5","5","7","5","6","6","5","5","5","5","3","3","5","2","5","3","6","802197026057101313","张","568","Female","[""好她"",""坏她"",""好我"",""坏我""]","[""强她"",""弱她"",""强我"",""弱我""]","","","","","","","","","","","","","","","","","","","","","","","","","","","","","","feedback_test","","","","","","","","",""
"null","","null","psychophysics","28","446207","0.0-8.0-0.0-1.0-0.0-0.9","6","5","6","4","3","4","3","4","4","5","4","2","-1","1","0","1","1","2","1","5","4","5","4","4","3","4","3","4","4","6","8","7","7","6","6","7","6","7","4","5","4","6","5","3","6","3","6","5","1","5","3","6","4","5","4","5","5","5","6","3","5","5","5","5","7","5","6","6","5","5","5","5","3","3","5","2","5","3","6","802197026057101313","张","568","Female","[""好她"",""坏她"",""好我"",""坏我""]","[""强她"",""弱她"",""强我"",""弱我""]","","","","","","","","null","","","","","","","","","","key","null","21.584158415841586","960","536","f","false","match","img/circle.png","坏她","坏她","prac_ALT2_moral","practice_moral","","","","","","","","",""
"null","<span class='add_' style='color:yellow; font-size: 70px;'> 太慢! </span>","null","html-keyboard-response","29","446709","0.0-8.0-0.0-1.0-0.0-1.9","6","5","6","4","3","4","3","4","4","5","4","2","-1","1","0","1","1","2","1","5","4","5","4","4","3","4","3","4","4","6","8","7","7","6","6","7","6","7","4","5","4","6","5","3","6","3","6","5","1","5","3","6","4","5","4","5","5","5","6","3","5","5","5","5","7","5","6","6","5","5","5","5","3","3","5","2","5","3","6","802197026057101313","张","568","Female","[""好她"",""坏她"",""好我"",""坏我""]","[""强她"",""弱她"",""强我"",""弱我""]","","","","","","","","","","","","","","","","","","","","","","","","","","","","","","feedback_test","","","","","","","","",""
"null","","null","psychophysics","30","448924","0.0-8.0-0.0-1.0-0.0-0.10","6","5","6","4","3","4","3","4","4","5","4","2","-1","1","0","1","1","2","1","5","4","5","4","4","3","4","3","4","4","6","8","7","7","6","6","7","6","7","4","5","4","6","5","3","6","3","6","5","1","5","3","6","4","5","4","5","5","5","6","3","5","5","5","5","7","5","6","6","5","5","5","5","3","3","5","2","5","3","6","802197026057101313","张","568","Female","[""好她"",""坏她"",""好我"",""坏我""]","[""强她"",""弱她"",""强我"",""弱我""]","","","","","","","","null","","","","","","","","","","key","null","22.47422680412371","960","536","j","false","nonmatch","img/trapezoid.png","坏我","好她","prac_ALT2_moral","practice_moral","","","","","","","","",""
"null","<span class='add_' style='color:yellow; font-size: 70px;'> 太慢! </span>","null","html-keyboard-response","31","449431","0.0-8.0-0.0-1.0-0.0-1.10","6","5","6","4","3","4","3","4","4","5","4","2","-1","1","0","1","1","2","1","5","4","5","4","4","3","4","3","4","4","6","8","7","7","6","6","7","6","7","4","5","4","6","5","3","6","3","6","5","1","5","3","6","4","5","4","5","5","5","6","3","5","5","5","5","7","5","6","6","5","5","5","5","3","3","5","2","5","3","6","802197026057101313","张","568","Female","[""好她"",""坏她"",""好我"",""坏我""]","[""强她"",""弱她"",""强我"",""弱我""]","","","","","","","","","","","","","","","","","","","","","","","","","","","","","","feedback_test","","","","","","","","",""
"null","","null","psychophysics","32","451643","0.0-8.0-0.0-1.0-0.0-0.11","6","5","6","4","3","4","3","4","4","5","4","2","-1","1","0","1","1","2","1","5","4","5","4","4","3","4","3","4","4","6","8","7","7","6","6","7","6","7","4","5","4","6","5","3","6","3","6","5","1","5","3","6","4","5","4","5","5","5","6","3","5","5","5","5","7","5","6","6","5","5","5","5","3","3","5","2","5","3","6","802197026057101313","张","568","Female","[""好她"",""坏她"",""好我"",""坏我""]","[""强她"",""弱她"",""强我"",""弱我""]","","","","","","","","null","","","","","","","","","","key","null","22.2680412371134","960","536","f","false","match","img/trapezoid.png","好她","好她","prac_ALT2_moral","practice_moral","","","","","","","","",""
"null","<span class='add_' style='color:yellow; font-size: 70px;'> 太慢! </span>","null","html-keyboard-response","33","452146","0.0-8.0-0.0-1.0-0.0-1.11","6","5","6","4","3","4","3","4","4","5","4","2","-1","1","0","1","1","2","1","5","4","5","4","4","3","4","3","4","4","6","8","7","7","6","6","7","6","7","4","5","4","6","5","3","6","3","6","5","1","5","3","6","4","5","4","5","5","5","6","3","5","5","5","5","7","5","6","6","5","5","5","5","3","3","5","2","5","3","6","802197026057101313","张","568","Female","[""好她"",""坏她"",""好我"",""坏我""]","[""强她"",""弱她"",""强我"",""弱我""]","","","","","","","","","","","","","","","","","","","","","","","","","","","","","","feedback_test","","","","","","","","",""
"1030","","j","psychophysics","34","454179","0.0-8.0-0.0-1.0-0.0-0.12","6","5","6","4","3","4","3","4","4","5","4","2","-1","1","0","1","1","2","1","5","4","5","4","4","3","4","3","4","4","6","8","7","7","6","6","7","6","7","4","5","4","6","5","3","6","3","6","5","1","5","3","6","4","5","4","5","5","5","6","3","5","5","5","5","7","5","6","6","5","5","5","5","3","3","5","2","5","3","6","802197026057101313","张","568","Female","[""好她"",""坏她"",""好我"",""坏我""]","[""强她"",""弱她"",""强我"",""弱我""]","","","","","","","","nonmatch","","","","","","","","","","key","j","21.27659574468085","960","536","j","true","nonmatch","img/trapezoid.png","好我","好她","prac_ALT2_moral","practice_moral","","","","","","","","",""
"null","<span style='color:GreenYellow; font-size: 70px;'>正确! </span>","null","html-keyboard-response","35","454684","0.0-8.0-0.0-1.0-0.0-1.12","6","5","6","4","3","4","3","4","4","5","4","2","-1","1","0","1","1","2","1","5","4","5","4","4","3","4","3","4","4","6","8","7","7","6","6","7","6","7","4","5","4","6","5","3","6","3","6","5","1","5","3","6","4","5","4","5","5","5","6","3","5","5","5","5","7","5","6","6","5","5","5","5","3","3","5","2","5","3","6","802197026057101313","张","568","Female","[""好她"",""坏她"",""好我"",""坏我""]","[""强她"",""弱她"",""强我"",""弱我""]","","","","","","","","","","","","","","","","","","","","","","","","","","","","","","feedback_test","","","","","","","","",""
"null","","null","psychophysics","36","456942","0.0-8.0-0.0-1.0-0.0-0.13","6","5","6","4","3","4","3","4","4","5","4","2","-1","1","0","1","1","2","1","5","4","5","4","4","3","4","3","4","4","6","8","7","7","6","6","7","6","7","4","5","4","6","5","3","6","3","6","5","1","5","3","6","4","5","4","5","5","5","6","3","5","5","5","5","7","5","6","6","5","5","5","5","3","3","5","2","5","3","6","802197026057101313","张","568","Female","[""好她"",""坏她"",""好我"",""坏我""]","[""强她"",""弱她"",""强我"",""弱我""]","","","","","","","","null","","","","","","","","","","key","null","22.12121212121212","960","536","f","false","match","img/square.png","坏我","坏我","prac_ALT2_moral","practice_moral","","","","","","","","",""
"null","<span class='add_' style='color:yellow; font-size: 70px;'> 太慢! </span>","null","html-keyboard-response","37","457445","0.0-8.0-0.0-1.0-0.0-1.13","6","5","6","4","3","4","3","4","4","5","4","2","-1","1","0","1","1","2","1","5","4","5","4","4","3","4","3","4","4","6","8","7","7","6","6","7","6","7","4","5","4","6","5","3","6","3","6","5","1","5","3","6","4","5","4","5","5","5","6","3","5","5","5","5","7","5","6","6","5","5","5","5","3","3","5","2","5","3","6","802197026057101313","张","568","Female","[""好她"",""坏她"",""好我"",""坏我""]","[""强她"",""弱她"",""强我"",""弱我""]","","","","","","","","","","","","","","","","","","","","","","","","","","","","","","feedback_test","","","","","","","","",""
"968","","j","psychophysics","38","459423","0.0-8.0-0.0-1.0-0.0-0.14","6","5","6","4","3","4","3","4","4","5","4","2","-1","1","0","1","1","2","1","5","4","5","4","4","3","4","3","4","4","6","8","7","7","6","6","7","6","7","4","5","4","6","5","3","6","3","6","5","1","5","3","6","4","5","4","5","5","5","6","3","5","5","5","5","7","5","6","6","5","5","5","5","3","3","5","2","5","3","6","802197026057101313","张","568","Female","[""好她"",""坏她"",""好我"",""坏我""]","[""强她"",""弱她"",""强我"",""弱我""]","","","","","","","","nonmatch","","","","","","","","","","key","j","22.823529411764707","960","536","j","true","nonmatch","img/circle.png","好我","坏她","prac_ALT2_moral","practice_moral","","","","","","","","",""
"null","<span style='color:GreenYellow; font-size: 70px;'>正确! </span>","null","html-keyboard-response","39","459925","0.0-8.0-0.0-1.0-0.0-1.14","6","5","6","4","3","4","3","4","4","5","4","2","-1","1","0","1","1","2","1","5","4","5","4","4","3","4","3","4","4","6","8","7","7","6","6","7","6","7","4","5","4","6","5","3","6","3","6","5","1","5","3","6","4","5","4","5","5","5","6","3","5","5","5","5","7","5","6","6","5","5","5","5","3","3","5","2","5","3","6","802197026057101313","张","568","Female","[""好她"",""坏她"",""好我"",""坏我""]","[""强她"",""弱她"",""强我"",""弱我""]","","","","","","","","","","","","","","","","","","","","","","","","","","","","","","feedback_test","","","","","","","","",""
"1083","","f","psychophysics","40","462027","0.0-8.0-0.0-1.0-0.0-0.15","6","5","6","4","3","4","3","4","4","5","4","2","-1","1","0","1","1","2","1","5","4","5","4","4","3","4","3","4","4","6","8","7","7","6","6","7","6","7","4","5","4","6","5","3","6","3","6","5","1","5","3","6","4","5","4","5","5","5","6","3","5","5","5","5","7","5","6","6","5","5","5","5","3","3","5","2","5","3","6","802197026057101313","张","568","Female","[""好她"",""坏她"",""好我"",""坏我""]","[""强她"",""弱她"",""强我"",""弱我""]","","","","","","","","match","","","","","","","","","","key","f","22.88888888888889","960","536","f","true","match","img/pentagon.png","好我","好我","prac_ALT2_moral","practice_moral","","","","","","","","",""
"null","<span style='color:GreenYellow; font-size: 70px;'>正确! </span>","null","html-keyboard-response","41","462529","0.0-8.0-0.0-1.0-0.0-1.15","6","5","6","4","3","4","3","4","4","5","4","2","-1","1","0","1","1","2","1","5","4","5","4","4","3","4","3","4","4","6","8","7","7","6","6","7","6","7","4","5","4","6","5","3","6","3","6","5","1","5","3","6","4","5","4","5","5","5","6","3","5","5","5","5","7","5","6","6","5","5","5","5","3","3","5","2","5","3","6","802197026057101313","张","568","Female","[""好她"",""坏她"",""好我"",""坏我""]","[""强她"",""弱她"",""强我"",""弱我""]","","","","","","","","","","","","","","","","","","","","","","","","","","","","","","feedback_test","","","","","","","","",""
"957","","f","psychophysics","42","464489","0.0-8.0-0.0-1.0-0.0-0.16","6","5","6","4","3","4","3","4","4","5","4","2","-1","1","0","1","1","2","1","5","4","5","4","4","3","4","3","4","4","6","8","7","7","6","6","7","6","7","4","5","4","6","5","3","6","3","6","5","1","5","3","6","4","5","4","5","5","5","6","3","5","5","5","5","7","5","6","6","5","5","5","5","3","3","5","2","5","3","6","802197026057101313","张","568","Female","[""好她"",""坏她"",""好我"",""坏我""]","[""强她"",""弱她"",""强我"",""弱我""]","","","","","","","","match","","","","","","","","","","key","f","22.470588235294116","960","536","f","true","match","img/pentagon.png","好我","好我","prac_ALT2_moral","practice_moral","","","","","","","","",""
"null","<span style='color:GreenYellow; font-size: 70px;'>正确! </span>","null","html-keyboard-response","43","464778","0.0-8.0-0.0-1.0-0.0-1.16","6","5","6","4","3","4","3","4","4","5","4","2","-1","1","0","1","1","2","1","5","4","5","4","4","3","4","3","4","4","6","8","7","7","6","6","7","6","7","4","5","4","6","5","3","6","3","6","5","1","5","3","6","4","5","4","5","5","5","6","3","5","5","5","5","7","5","6","6","5","5","5","5","3","3","5","2","5","3","6","802197026057101313","张","568","Female","[""好她"",""坏她"",""好我"",""坏我""]","[""强她"",""弱她"",""强我"",""弱我""]","","","","","","","","","","","","","","","","","","","","","","","","","","","","","","feedback_test","","","","","","","","",""
"996","","j","psychophysics","44","466777","0.0-8.0-0.0-1.0-0.0-0.17","6","5","6","4","3","4","3","4","4","5","4","2","-1","1","0","1","1","2","1","5","4","5","4","4","3","4","3","4","4","6","8","7","7","6","6","7","6","7","4","5","4","6","5","3","6","3","6","5","1","5","3","6","4","5","4","5","5","5","6","3","5","5","5","5","7","5","6","6","5","5","5","5","3","3","5","2","5","3","6","802197026057101313","张","568","Female","[""好她"",""坏她"",""好我"",""坏我""]","[""强她"",""弱她"",""强我"",""弱我""]","","","","","","","","nonmatch","","","","","","","","","","key","j","21.666666666666668","960","536","f","false","match","img/trapezoid.png","好她","好她","prac_ALT2_moral","practice_moral","","","","","","","","",""
"null","<span style='color:red; font-size: 70px;'>错误! </span>","null","html-keyboard-response","45","467280","0.0-8.0-0.0-1.0-0.0-1.17","6","5","6","4","3","4","3","4","4","5","4","2","-1","1","0","1","1","2","1","5","4","5","4","4","3","4","3","4","4","6","8","7","7","6","6","7","6","7","4","5","4","6","5","3","6","3","6","5","1","5","3","6","4","5","4","5","5","5","6","3","5","5","5","5","7","5","6","6","5","5","5","5","3","3","5","2","5","3","6","802197026057101313","张","568","Female","[""好她"",""坏她"",""好我"",""坏我""]","[""强她"",""弱她"",""强我"",""弱我""]","","","","","","","","","","","","","","","","","","","","","","","","","","","","","","feedback_test","","","","","","","","",""
"null","","null","psychophysics","46","469492","0.0-8.0-0.0-1.0-0.0-0.18","6","5","6","4","3","4","3","4","4","5","4","2","-1","1","0","1","1","2","1","5","4","5","4","4","3","4","3","4","4","6","8","7","7","6","6","7","6","7","4","5","4","6","5","3","6","3","6","5","1","5","3","6","4","5","4","5","5","5","6","3","5","5","5","5","7","5","6","6","5","5","5","5","3","3","5","2","5","3","6","802197026057101313","张","568","Female","[""好她"",""坏她"",""好我"",""坏我""]","[""强她"",""弱她"",""强我"",""弱我""]","","","","","","","","null","","","","","","","","","","key","null","21.372549019607842","960","536","f","false","match","img/trapezoid.png","好她","好她","prac_ALT2_moral","practice_moral","","","","","","","","",""
"null","<span class='add_' style='color:yellow; font-size: 70px;'> 太慢! </span>","null","html-keyboard-response","47","469995","0.0-8.0-0.0-1.0-0.0-1.18","6","5","6","4","3","4","3","4","4","5","4","2","-1","1","0","1","1","2","1","5","4","5","4","4","3","4","3","4","4","6","8","7","7","6","6","7","6","7","4","5","4","6","5","3","6","3","6","5","1","5","3","6","4","5","4","5","5","5","6","3","5","5","5","5","7","5","6","6","5","5","5","5","3","3","5","2","5","3","6","802197026057101313","张","568","Female","[""好她"",""坏她"",""好我"",""坏我""]","[""强她"",""弱她"",""强我"",""弱我""]","","","","","","","","","","","","","","","","","","","","","","","","","","","","","","feedback_test","","","","","","","","",""
"null","","null","psychophysics","48","472206","0.0-8.0-0.0-1.0-0.0-0.19","6","5","6","4","3","4","3","4","4","5","4","2","-1","1","0","1","1","2","1","5","4","5","4","4","3","4","3","4","4","6","8","7","7","6","6","7","6","7","4","5","4","6","5","3","6","3","6","5","1","5","3","6","4","5","4","5","5","5","6","3","5","5","5","5","7","5","6","6","5","5","5","5","3","3","5","2","5","3","6","802197026057101313","张","568","Female","[""好她"",""坏她"",""好我"",""坏我""]","[""强她"",""弱她"",""强我"",""弱我""]","","","","","","","","null","","","","","","","","","","key","null","21.372549019607842","960","536","f","false","match","img/circle.png","坏她","坏她","prac_ALT2_moral","practice_moral","","","","","","","","",""
"null","<span class='add_' style='color:yellow; font-size: 70px;'> 太慢! </span>","null","html-keyboard-response","49","472709","0.0-8.0-0.0-1.0-0.0-1.19","6","5","6","4","3","4","3","4","4","5","4","2","-1","1","0","1","1","2","1","5","4","5","4","4","3","4","3","4","4","6","8","7","7","6","6","7","6","7","4","5","4","6","5","3","6","3","6","5","1","5","3","6","4","5","4","5","5","5","6","3","5","5","5","5","7","5","6","6","5","5","5","5","3","3","5","2","5","3","6","802197026057101313","张","568","Female","[""好她"",""坏她"",""好我"",""坏我""]","[""强她"",""弱她"",""强我"",""弱我""]","","","","","","","","","","","","","","","","","","","","","","","","","","","","","","feedback_test","","","","","","","","",""
"933","","f","psychophysics","50","474648","0.0-8.0-0.0-1.0-0.0-0.20","6","5","6","4","3","4","3","4","4","5","4","2","-1","1","0","1","1","2","1","5","4","5","4","4","3","4","3","4","4","6","8","7","7","6","6","7","6","7","4","5","4","6","5","3","6","3","6","5","1","5","3","6","4","5","4","5","5","5","6","3","5","5","5","5","7","5","6","6","5","5","5","5","3","3","5","2","5","3","6","802197026057101313","张","568","Female","[""好她"",""坏她"",""好我"",""坏我""]","[""强她"",""弱她"",""强我"",""弱我""]","","","","","","","","match","","","","","","","","","","key","f","21.363636363636363","960","536","f","true","match","img/square.png","坏我","坏我","prac_ALT2_moral","practice_moral","","","","","","","","",""
"null","<span style='color:GreenYellow; font-size: 70px;'>正确! </span>","null","html-keyboard-response","51","475149","0.0-8.0-0.0-1.0-0.0-1.20","6","5","6","4","3","4","3","4","4","5","4","2","-1","1","0","1","1","2","1","5","4","5","4","4","3","4","3","4","4","6","8","7","7","6","6","7","6","7","4","5","4","6","5","3","6","3","6","5","1","5","3","6","4","5","4","5","5","5","6","3","5","5","5","5","7","5","6","6","5","5","5","5","3","3","5","2","5","3","6","802197026057101313","张","568","Female","[""好她"",""坏她"",""好我"",""坏我""]","[""强她"",""弱她"",""强我"",""弱我""]","","","","","","","","","","","","","","","","","","","","","","","","","","","","","","feedback_test","","","","","","","","",""
"786","","f","psychophysics","52","476937","0.0-8.0-0.0-1.0-0.0-0.21","6","5","6","4","3","4","3","4","4","5","4","2","-1","1","0","1","1","2","1","5","4","5","4","4","3","4","3","4","4","6","8","7","7","6","6","7","6","7","4","5","4","6","5","3","6","3","6","5","1","5","3","6","4","5","4","5","5","5","6","3","5","5","5","5","7","5","6","6","5","5","5","5","3","3","5","2","5","3","6","802197026057101313","张","568","Female","[""好她"",""坏她"",""好我"",""坏我""]","[""强她"",""弱她"",""强我"",""弱我""]","","","","","","","","match","","","","","","","","","","key","f","21.875","960","536","f","true","match","img/circle.png","坏她","坏她","prac_ALT2_moral","practice_moral","","","","","","","","",""
"null","<span style='color:GreenYellow; font-size: 70px;'>正确! </span>","null","html-keyboard-response","53","477442","0.0-8.0-0.0-1.0-0.0-1.21","6","5","6","4","3","4","3","4","4","5","4","2","-1","1","0","1","1","2","1","5","4","5","4","4","3","4","3","4","4","6","8","7","7","6","6","7","6","7","4","5","4","6","5","3","6","3","6","5","1","5","3","6","4","5","4","5","5","5","6","3","5","5","5","5","7","5","6","6","5","5","5","5","3","3","5","2","5","3","6","802197026057101313","张","568","Female","[""好她"",""坏她"",""好我"",""坏我""]","[""强她"",""弱她"",""强我"",""弱我""]","","","","","","","","","","","","","","","","","","","","","","","","","","","","","","feedback_test","","","","","","","","",""
"1153","","j","psychophysics","54","479614","0.0-8.0-0.0-1.0-0.0-0.22","6","5","6","4","3","4","3","4","4","5","4","2","-1","1","0","1","1","2","1","5","4","5","4","4","3","4","3","4","4","6","8","7","7","6","6","7","6","7","4","5","4","6","5","3","6","3","6","5","1","5","3","6","4","5","4","5","5","5","6","3","5","5","5","5","7","5","6","6","5","5","5","5","3","3","5","2","5","3","6","802197026057101313","张","568","Female","[""好她"",""坏她"",""好我"",""坏我""]","[""强她"",""弱她"",""强我"",""弱我""]","","","","","","","","nonmatch","","","","","","","","","","key","j","22.1875","960","536","j","true","nonmatch","img/square.png","坏她","坏我","prac_ALT2_moral","practice_moral","","","","","","","","",""
"null","<span style='color:GreenYellow; font-size: 70px;'>正确! </span>","null","html-keyboard-response","55","480117","0.0-8.0-0.0-1.0-0.0-1.22","6","5","6","4","3","4","3","4","4","5","4","2","-1","1","0","1","1","2","1","5","4","5","4","4","3","4","3","4","4","6","8","7","7","6","6","7","6","7","4","5","4","6","5","3","6","3","6","5","1","5","3","6","4","5","4","5","5","5","6","3","5","5","5","5","7","5","6","6","5","5","5","5","3","3","5","2","5","3","6","802197026057101313","张","568","Female","[""好她"",""坏她"",""好我"",""坏我""]","[""强她"",""弱她"",""强我"",""弱我""]","","","","","","","","","","","","","","","","","","","","","","","","","","","","","","feedback_test","","","","","","","","",""
"912","","j","psychophysics","56","482031","0.0-8.0-0.0-1.0-0.0-0.23","6","5","6","4","3","4","3","4","4","5","4","2","-1","1","0","1","1","2","1","5","4","5","4","4","3","4","3","4","4","6","8","7","7","6","6","7","6","7","4","5","4","6","5","3","6","3","6","5","1","5","3","6","4","5","4","5","5","5","6","3","5","5","5","5","7","5","6","6","5","5","5","5","3","3","5","2","5","3","6","802197026057101313","张","568","Female","[""好她"",""坏她"",""好我"",""坏我""]","[""强她"",""弱她"",""强我"",""弱我""]","","","","","","","","nonmatch","","","","","","","","","","key","j","21.123595505617978","960","536","j","true","nonmatch","img/circle.png","坏我","坏她","prac_ALT2_moral","practice_moral","","","","","","","","",""
"null","<span style='color:GreenYellow; font-size: 70px;'>正确! </span>","null","html-keyboard-response","57","482534","0.0-8.0-0.0-1.0-0.0-1.23","6","5","6","4","3","4","3","4","4","5","4","2","-1","1","0","1","1","2","1","5","4","5","4","4","3","4","3","4","4","6","8","7","7","6","6","7","6","7","4","5","4","6","5","3","6","3","6","5","1","5","3","6","4","5","4","5","5","5","6","3","5","5","5","5","7","5","6","6","5","5","5","5","3","3","5","2","5","3","6","802197026057101313","张","568","Female","[""好她"",""坏她"",""好我"",""坏我""]","[""强她"",""弱她"",""强我"",""弱我""]","","","","","","","","","","","","","","","","","","","","","","","","","","","","","","feedback_test","","","","","","","","",""
"1050","","f","psychophysics","58","484588","0.0-8.0-0.0-1.0-0.0-0.24","6","5","6","4","3","4","3","4","4","5","4","2","-1","1","0","1","1","2","1","5","4","5","4","4","3","4","3","4","4","6","8","7","7","6","6","7","6","7","4","5","4","6","5","3","6","3","6","5","1","5","3","6","4","5","4","5","5","5","6","3","5","5","5","5","7","5","6","6","5","5","5","5","3","3","5","2","5","3","6","802197026057101313","张","568","Female","[""好她"",""坏她"",""好我"",""坏我""]","[""强她"",""弱她"",""强我"",""弱我""]","","","","","","","","match","","","","","","","","","","key","f","21.612903225806452","960","536","f","true","match","img/pentagon.png","好我","好我","prac_ALT2_moral","practice_moral","","","","","","","","",""
"null","<span style='color:GreenYellow; font-size: 70px;'>正确! </span>","null","html-keyboard-response","59","485091","0.0-8.0-0.0-1.0-0.0-1.24","6","5","6","4","3","4","3","4","4","5","4","2","-1","1","0","1","1","2","1","5","4","5","4","4","3","4","3","4","4","6","8","7","7","6","6","7","6","7","4","5","4","6","5","3","6","3","6","5","1","5","3","6","4","5","4","5","5","5","6","3","5","5","5","5","7","5","6","6","5","5","5","5","3","3","5","2","5","3","6","802197026057101313","张","568","Female","[""好她"",""坏她"",""好我"",""坏我""]","[""强她"",""弱她"",""强我"",""弱我""]","","","","","","","","","","","","","","","","","","","","","","","","","","","","","","feedback_test","","","","","","","","",""
"892","","f","psychophysics","60","486986","0.0-8.0-0.0-1.0-0.0-0.25","6","5","6","4","3","4","3","4","4","5","4","2","-1","1","0","1","1","2","1","5","4","5","4","4","3","4","3","4","4","6","8","7","7","6","6","7","6","7","4","5","4","6","5","3","6","3","6","5","1","5","3","6","4","5","4","5","5","5","6","3","5","5","5","5","7","5","6","6","5","5","5","5","3","3","5","2","5","3","6","802197026057101313","张","568","Female","[""好她"",""坏她"",""好我"",""坏我""]","[""强她"",""弱她"",""强我"",""弱我""]","","","","","","","","match","","","","","","","","","","key","f","21.88235294117647","960","536","f","true","match","img/square.png","坏我","坏我","prac_ALT2_moral","practice_moral","","","","","","","","",""
"null","<span style='color:GreenYellow; font-size: 70px;'>正确! </span>","null","html-keyboard-response","61","487488","0.0-8.0-0.0-1.0-0.0-1.25","6","5","6","4","3","4","3","4","4","5","4","2","-1","1","0","1","1","2","1","5","4","5","4","4","3","4","3","4","4","6","8","7","7","6","6","7","6","7","4","5","4","6","5","3","6","3","6","5","1","5","3","6","4","5","4","5","5","5","6","3","5","5","5","5","7","5","6","6","5","5","5","5","3","3","5","2","5","3","6","802197026057101313","张","568","Female","[""好她"",""坏她"",""好我"",""坏我""]","[""强她"",""弱她"",""强我"",""弱我""]","","","","","","","","","","","","","","","","","","","","","","","","","","","","","","feedback_test","","","","","","","","",""
"800","","j","psychophysics","62","489313","0.0-8.0-0.0-1.0-0.0-0.26","6","5","6","4","3","4","3","4","4","5","4","2","-1","1","0","1","1","2","1","5","4","5","4","4","3","4","3","4","4","6","8","7","7","6","6","7","6","7","4","5","4","6","5","3","6","3","6","5","1","5","3","6","4","5","4","5","5","5","6","3","5","5","5","5","7","5","6","6","5","5","5","5","3","3","5","2","5","3","6","802197026057101313","张","568","Female","[""好她"",""坏她"",""好我"",""坏我""]","[""强她"",""弱她"",""强我"",""弱我""]","","","","","","","","nonmatch","","","","","","","","","","key","j","21.19047619047619","960","536","j","true","nonmatch","img/circle.png","好我","坏她","prac_ALT2_moral","practice_moral","","","","","","","","",""
"null","<span style='color:GreenYellow; font-size: 70px;'>正确! </span>","null","html-keyboard-response","63","489816","0.0-8.0-0.0-1.0-0.0-1.26","6","5","6","4","3","4","3","4","4","5","4","2","-1","1","0","1","1","2","1","5","4","5","4","4","3","4","3","4","4","6","8","7","7","6","6","7","6","7","4","5","4","6","5","3","6","3","6","5","1","5","3","6","4","5","4","5","5","5","6","3","5","5","5","5","7","5","6","6","5","5","5","5","3","3","5","2","5","3","6","802197026057101313","张","568","Female","[""好她"",""坏她"",""好我"",""坏我""]","[""强她"",""弱她"",""强我"",""弱我""]","","","","","","","","","","","","","","","","","","","","","","","","","","","","","","feedback_test","","","","","","","","",""
"913","","j","psychophysics","64","491732","0.0-8.0-0.0-1.0-0.0-0.27","6","5","6","4","3","4","3","4","4","5","4","2","-1","1","0","1","1","2","1","5","4","5","4","4","3","4","3","4","4","6","8","7","7","6","6","7","6","7","4","5","4","6","5","3","6","3","6","5","1","5","3","6","4","5","4","5","5","5","6","3","5","5","5","5","7","5","6","6","5","5","5","5","3","3","5","2","5","3","6","802197026057101313","张","568","Female","[""好她"",""坏她"",""好我"",""坏我""]","[""强她"",""弱她"",""强我"",""弱我""]","","","","","","","","nonmatch","","","","","","","","","","key","j","21.149425287356323","960","536","j","true","nonmatch","img/circle.png","坏我","坏她","prac_ALT2_moral","practice_moral","","","","","","","","",""
"null","<span style='color:GreenYellow; font-size: 70px;'>正确! </span>","null","html-keyboard-response","65","492235","0.0-8.0-0.0-1.0-0.0-1.27","6","5","6","4","3","4","3","4","4","5","4","2","-1","1","0","1","1","2","1","5","4","5","4","4","3","4","3","4","4","6","8","7","7","6","6","7","6","7","4","5","4","6","5","3","6","3","6","5","1","5","3","6","4","5","4","5","5","5","6","3","5","5","5","5","7","5","6","6","5","5","5","5","3","3","5","2","5","3","6","802197026057101313","张","568","Female","[""好她"",""坏她"",""好我"",""坏我""]","[""强她"",""弱她"",""强我"",""弱我""]","","","","","","","","","","","","","","","","","","","","","","","","","","","","","","feedback_test","","","","","","","","",""
"1000","","j","psychophysics","66","494240","0.0-8.0-0.0-1.0-0.0-0.28","6","5","6","4","3","4","3","4","4","5","4","2","-1","1","0","1","1","2","1","5","4","5","4","4","3","4","3","4","4","6","8","7","7","6","6","7","6","7","4","5","4","6","5","3","6","3","6","5","1","5","3","6","4","5","4","5","5","5","6","3","5","5","5","5","7","5","6","6","5","5","5","5","3","3","5","2","5","3","6","802197026057101313","张","568","Female","[""好她"",""坏她"",""好我"",""坏我""]","[""强她"",""弱她"",""强我"",""弱我""]","","","","","","","","nonmatch","","","","","","","","","","key","j","20.63157894736842","960","536","f","false","match","img/circle.png","坏她","坏她","prac_ALT2_moral","practice_moral","","","","","","","","",""
"null","<span style='color:red; font-size: 70px;'>错误! </span>","null","html-keyboard-response","67","494743","0.0-8.0-0.0-1.0-0.0-1.28","6","5","6","4","3","4","3","4","4","5","4","2","-1","1","0","1","1","2","1","5","4","5","4","4","3","4","3","4","4","6","8","7","7","6","6","7","6","7","4","5","4","6","5","3","6","3","6","5","1","5","3","6","4","5","4","5","5","5","6","3","5","5","5","5","7","5","6","6","5","5","5","5","3","3","5","2","5","3","6","802197026057101313","张","568","Female","[""好她"",""坏她"",""好我"",""坏我""]","[""强她"",""弱她"",""强我"",""弱我""]","","","","","","","","","","","","","","","","","","","","","","","","","","","","","","feedback_test","","","","","","","","",""
"1151","","j","psychophysics","68","496899","0.0-8.0-0.0-1.0-0.0-0.29","6","5","6","4","3","4","3","4","4","5","4","2","-1","1","0","1","1","2","1","5","4","5","4","4","3","4","3","4","4","6","8","7","7","6","6","7","6","7","4","5","4","6","5","3","6","3","6","5","1","5","3","6","4","5","4","5","5","5","6","3","5","5","5","5","7","5","6","6","5","5","5","5","3","3","5","2","5","3","6","802197026057101313","张","568","Female","[""好她"",""坏她"",""好我"",""坏我""]","[""强她"",""弱她"",""强我"",""弱我""]","","","","","","","","nonmatch","","","","","","","","","","key","j","22","960","536","j","true","nonmatch","img/circle.png","好她","坏她","prac_ALT2_moral","practice_moral","","","","","","","","",""
"null","<span style='color:GreenYellow; font-size: 70px;'>正确! </span>","null","html-keyboard-response","69","497402","0.0-8.0-0.0-1.0-0.0-1.29","6","5","6","4","3","4","3","4","4","5","4","2","-1","1","0","1","1","2","1","5","4","5","4","4","3","4","3","4","4","6","8","7","7","6","6","7","6","7","4","5","4","6","5","3","6","3","6","5","1","5","3","6","4","5","4","5","5","5","6","3","5","5","5","5","7","5","6","6","5","5","5","5","3","3","5","2","5","3","6","802197026057101313","张","568","Female","[""好她"",""坏她"",""好我"",""坏我""]","[""强她"",""弱她"",""强我"",""弱我""]","","","","","","","","","","","","","","","","","","","","","","","","","","","","","","feedback_test","","","","","","","","",""
"1051","","f","psychophysics","70","499462","0.0-8.0-0.0-1.0-0.0-0.30","6","5","6","4","3","4","3","4","4","5","4","2","-1","1","0","1","1","2","1","5","4","5","4","4","3","4","3","4","4","6","8","7","7","6","6","7","6","7","4","5","4","6","5","3","6","3","6","5","1","5","3","6","4","5","4","5","5","5","6","3","5","5","5","5","7","5","6","6","5","5","5","5","3","3","5","2","5","3","6","802197026057101313","张","568","Female","[""好她"",""坏她"",""好我"",""坏我""]","[""强她"",""弱她"",""强我"",""弱我""]","","","","","","","","match","","","","","","","","","","key","f","23.488372093023255","960","536","j","false","nonmatch","img/pentagon.png","坏我","好我","prac_ALT2_moral","practice_moral","","","","","","","","",""
"null","<span style='color:red; font-size: 70px;'>错误! </span>","null","html-keyboard-response","71","499964","0.0-8.0-0.0-1.0-0.0-1.30","6","5","6","4","3","4","3","4","4","5","4","2","-1","1","0","1","1","2","1","5","4","5","4","4","3","4","3","4","4","6","8","7","7","6","6","7","6","7","4","5","4","6","5","3","6","3","6","5","1","5","3","6","4","5","4","5","5","5","6","3","5","5","5","5","7","5","6","6","5","5","5","5","3","3","5","2","5","3","6","802197026057101313","张","568","Female","[""好她"",""坏她"",""好我"",""坏我""]","[""强她"",""弱她"",""强我"",""弱我""]","","","","","","","","","","","","","","","","","","","","","","","","","","","","","","feedback_test","","","","","","","","",""
"989","","j","psychophysics","72","501957","0.0-8.0-0.0-1.0-0.0-0.31","6","5","6","4","3","4","3","4","4","5","4","2","-1","1","0","1","1","2","1","5","4","5","4","4","3","4","3","4","4","6","8","7","7","6","6","7","6","7","4","5","4","6","5","3","6","3","6","5","1","5","3","6","4","5","4","5","5","5","6","3","5","5","5","5","7","5","6","6","5","5","5","5","3","3","5","2","5","3","6","802197026057101313","张","568","Female","[""好她"",""坏她"",""好我"",""坏我""]","[""强她"",""弱她"",""强我"",""弱我""]","","","","","","","","nonmatch","","","","","","","","","","key","j","21.428571428571427","960","536","f","false","match","img/trapezoid.png","好她","好她","prac_ALT2_moral","practice_moral","","","","","","","","",""
"null","<span style='color:red; font-size: 70px;'>错误! </span>","null","html-keyboard-response","73","502459","0.0-8.0-0.0-1.0-0.0-1.31","6","5","6","4","3","4","3","4","4","5","4","2","-1","1","0","1","1","2","1","5","4","5","4","4","3","4","3","4","4","6","8","7","7","6","6","7","6","7","4","5","4","6","5","3","6","3","6","5","1","5","3","6","4","5","4","5","5","5","6","3","5","5","5","5","7","5","6","6","5","5","5","5","3","3","5","2","5","3","6","802197026057101313","张","568","Female","[""好她"",""坏她"",""好我"",""坏我""]","[""强她"",""弱她"",""强我"",""弱我""]","","","","","","","","","","","","","","","","","","","","","","","","","","","","","","feedback_test","","","","","","","","",""
"1037","","f","psychophysics","74","504505","0.0-8.0-0.0-1.0-0.0-0.32","6","5","6","4","3","4","3","4","4","5","4","2","-1","1","0","1","1","2","1","5","4","5","4","4","3","4","3","4","4","6","8","7","7","6","6","7","6","7","4","5","4","6","5","3","6","3","6","5","1","5","3","6","4","5","4","5","5","5","6","3","5","5","5","5","7","5","6","6","5","5","5","5","3","3","5","2","5","3","6","802197026057101313","张","568","Female","[""好她"",""坏她"",""好我"",""坏我""]","[""强她"",""弱她"",""强我"",""弱我""]","","","","","","","","match","","","","","","","","","","key","f","21.50537634408602","960","536","f","true","match","img/square.png","坏我","坏我","prac_ALT2_moral","practice_moral","","","","","","","","",""
"null","<span style='color:GreenYellow; font-size: 70px;'>正确! </span>","null","html-keyboard-response","75","505007","0.0-8.0-0.0-1.0-0.0-1.32","6","5","6","4","3","4","3","4","4","5","4","2","-1","1","0","1","1","2","1","5","4","5","4","4","3","4","3","4","4","6","8","7","7","6","6","7","6","7","4","5","4","6","5","3","6","3","6","5","1","5","3","6","4","5","4","5","5","5","6","3","5","5","5","5","7","5","6","6","5","5","5","5","3","3","5","2","5","3","6","802197026057101313","张","568","Female","[""好她"",""坏她"",""好我"",""坏我""]","[""强她"",""弱她"",""强我"",""弱我""]","","","","","","","","","","","","","","","","","","","","","","","","","","","","","","feedback_test","","","","","","","","",""
"804","","f","psychophysics","76","506816","0.0-8.0-0.0-1.0-0.0-0.33","6","5","6","4","3","4","3","4","4","5","4","2","-1","1","0","1","1","2","1","5","4","5","4","4","3","4","3","4","4","6","8","7","7","6","6","7","6","7","4","5","4","6","5","3","6","3","6","5","1","5","3","6","4","5","4","5","5","5","6","3","5","5","5","5","7","5","6","6","5","5","5","5","3","3","5","2","5","3","6","802197026057101313","张","568","Female","[""好她"",""坏她"",""好我"",""坏我""]","[""强她"",""弱她"",""强我"",""弱我""]","","","","","","","","match","","","","","","","","","","key","f","22.27848101265823","960","536","f","true","match","img/pentagon.png","好我","好我","prac_ALT2_moral","practice_moral","","","","","","","","",""
"null","<span style='color:GreenYellow; font-size: 70px;'>正确! </span>","null","html-keyboard-response","77","507319","0.0-8.0-0.0-1.0-0.0-1.33","6","5","6","4","3","4","3","4","4","5","4","2","-1","1","0","1","1","2","1","5","4","5","4","4","3","4","3","4","4","6","8","7","7","6","6","7","6","7","4","5","4","6","5","3","6","3","6","5","1","5","3","6","4","5","4","5","5","5","6","3","5","5","5","5","7","5","6","6","5","5","5","5","3","3","5","2","5","3","6","802197026057101313","张","568","Female","[""好她"",""坏她"",""好我"",""坏我""]","[""强她"",""弱她"",""强我"",""弱我""]","","","","","","","","","","","","","","","","","","","","","","","","","","","","","","feedback_test","","","","","","","","",""
"970","","j","psychophysics","78","509291","0.0-8.0-0.0-1.0-0.0-0.34","6","5","6","4","3","4","3","4","4","5","4","2","-1","1","0","1","1","2","1","5","4","5","4","4","3","4","3","4","4","6","8","7","7","6","6","7","6","7","4","5","4","6","5","3","6","3","6","5","1","5","3","6","4","5","4","5","5","5","6","3","5","5","5","5","7","5","6","6","5","5","5","5","3","3","5","2","5","3","6","802197026057101313","张","568","Female","[""好她"",""坏她"",""好我"",""坏我""]","[""强她"",""弱她"",""强我"",""弱我""]","","","","","","","","nonmatch","","","","","","","","","","key","j","22.58823529411765","960","536","j","true","nonmatch","img/square.png","坏她","坏我","prac_ALT2_moral","practice_moral","","","","","","","","",""
"null","<span style='color:GreenYellow; font-size: 70px;'>正确! </span>","null","html-keyboard-response","79","509793","0.0-8.0-0.0-1.0-0.0-1.34","6","5","6","4","3","4","3","4","4","5","4","2","-1","1","0","1","1","2","1","5","4","5","4","4","3","4","3","4","4","6","8","7","7","6","6","7","6","7","4","5","4","6","5","3","6","3","6","5","1","5","3","6","4","5","4","5","5","5","6","3","5","5","5","5","7","5","6","6","5","5","5","5","3","3","5","2","5","3","6","802197026057101313","张","568","Female","[""好她"",""坏她"",""好我"",""坏我""]","[""强她"",""弱她"",""强我"",""弱我""]","","","","","","","","","","","","","","","","","","","","","","","","","","","","","","feedback_test","","","","","","","","",""
"1147","","f","psychophysics","80","511947","0.0-8.0-0.0-1.0-0.0-0.35","6","5","6","4","3","4","3","4","4","5","4","2","-1","1","0","1","1","2","1","5","4","5","4","4","3","4","3","4","4","6","8","7","7","6","6","7","6","7","4","5","4","6","5","3","6","3","6","5","1","5","3","6","4","5","4","5","5","5","6","3","5","5","5","5","7","5","6","6","5","5","5","5","3","3","5","2","5","3","6","802197026057101313","张","568","Female","[""好她"",""坏她"",""好我"",""坏我""]","[""强她"",""弱她"",""强我"",""弱我""]","","","","","","","","match","","","","","","","","","","key","f","21.75257731958763","960","536","f","true","match","img/trapezoid.png","好她","好她","prac_ALT2_moral","practice_moral","","","","","","","","",""
"null","<span style='color:GreenYellow; font-size: 70px;'>正确! </span>","null","html-keyboard-response","81","512448","0.0-8.0-0.0-1.0-0.0-1.35","6","5","6","4","3","4","3","4","4","5","4","2","-1","1","0","1","1","2","1","5","4","5","4","4","3","4","3","4","4","6","8","7","7","6","6","7","6","7","4","5","4","6","5","3","6","3","6","5","1","5","3","6","4","5","4","5","5","5","6","3","5","5","5","5","7","5","6","6","5","5","5","5","3","3","5","2","5","3","6","802197026057101313","张","568","Female","[""好她"",""坏她"",""好我"",""坏我""]","[""强她"",""弱她"",""强我"",""弱我""]","","","","","","","","","","","","","","","","","","","","","","","","","","","","","","feedback_test","","","","","","","","",""
"1134","","j","psychophysics","82","514586","0.0-8.0-0.0-1.0-0.0-0.36","6","5","6","4","3","4","3","4","4","5","4","2","-1","1","0","1","1","2","1","5","4","5","4","4","3","4","3","4","4","6","8","7","7","6","6","7","6","7","4","5","4","6","5","3","6","3","6","5","1","5","3","6","4","5","4","5","5","5","6","3","5","5","5","5","7","5","6","6","5","5","5","5","3","3","5","2","5","3","6","802197026057101313","张","568","Female","[""好她"",""坏她"",""好我"",""坏我""]","[""强她"",""弱她"",""强我"",""弱我""]","","","","","","","","nonmatch","","","","","","","","","","key","j","21.649484536082475","960","536","j","true","nonmatch","img/trapezoid.png","好我","好她","prac_ALT2_moral","practice_moral","","","","","","","","",""
"null","<span style='color:GreenYellow; font-size: 70px;'>正确! </span>","null","html-keyboard-response","83","515090","0.0-8.0-0.0-1.0-0.0-1.36","6","5","6","4","3","4","3","4","4","5","4","2","-1","1","0","1","1","2","1","5","4","5","4","4","3","4","3","4","4","6","8","7","7","6","6","7","6","7","4","5","4","6","5","3","6","3","6","5","1","5","3","6","4","5","4","5","5","5","6","3","5","5","5","5","7","5","6","6","5","5","5","5","3","3","5","2","5","3","6","802197026057101313","张","568","Female","[""好她"",""坏她"",""好我"",""坏我""]","[""强她"",""弱她"",""强我"",""弱我""]","","","","","","","","","","","","","","","","","","","","","","","","","","","","","","feedback_test","","","","","","","","",""
"868","","j","psychophysics","84","516964","0.0-8.0-0.0-1.0-0.0-0.37","6","5","6","4","3","4","3","4","4","5","4","2","-1","1","0","1","1","2","1","5","4","5","4","4","3","4","3","4","4","6","8","7","7","6","6","7","6","7","4","5","4","6","5","3","6","3","6","5","1","5","3","6","4","5","4","5","5","5","6","3","5","5","5","5","7","5","6","6","5","5","5","5","3","3","5","2","5","3","6","802197026057101313","张","568","Female","[""好她"",""坏她"",""好我"",""坏我""]","[""强她"",""弱她"",""强我"",""弱我""]","","","","","","","","nonmatch","","","","","","","","","","key","j","21.529411764705884","960","536","j","true","nonmatch","img/trapezoid.png","坏我","好她","prac_ALT2_moral","practice_moral","","","","","","","","",""
"null","<span style='color:GreenYellow; font-size: 70px;'>正确! </span>","null","html-keyboard-response","85","517466","0.0-8.0-0.0-1.0-0.0-1.37","6","5","6","4","3","4","3","4","4","5","4","2","-1","1","0","1","1","2","1","5","4","5","4","4","3","4","3","4","4","6","8","7","7","6","6","7","6","7","4","5","4","6","5","3","6","3","6","5","1","5","3","6","4","5","4","5","5","5","6","3","5","5","5","5","7","5","6","6","5","5","5","5","3","3","5","2","5","3","6","802197026057101313","张","568","Female","[""好她"",""坏她"",""好我"",""坏我""]","[""强她"",""弱她"",""强我"",""弱我""]","","","","","","","","","","","","","","","","","","","","","","","","","","","","","","feedback_test","","","","","","","","",""
"971","","j","psychophysics","86","519447","0.0-8.0-0.0-1.0-0.0-0.38","6","5","6","4","3","4","3","4","4","5","4","2","-1","1","0","1","1","2","1","5","4","5","4","4","3","4","3","4","4","6","8","7","7","6","6","7","6","7","4","5","4","6","5","3","6","3","6","5","1","5","3","6","4","5","4","5","5","5","6","3","5","5","5","5","7","5","6","6","5","5","5","5","3","3","5","2","5","3","6","802197026057101313","张","568","Female","[""好她"",""坏她"",""好我"",""坏我""]","[""强她"",""弱她"",""强我"",""弱我""]","","","","","","","","nonmatch","","","","","","","","","","key","j","22.325581395348838","960","536","f","false","match","img/circle.png","坏她","坏她","prac_ALT2_moral","practice_moral","","","","","","","","",""
"null","<span style='color:red; font-size: 70px;'>错误! </span>","null","html-keyboard-response","87","519950","0.0-8.0-0.0-1.0-0.0-1.38","6","5","6","4","3","4","3","4","4","5","4","2","-1","1","0","1","1","2","1","5","4","5","4","4","3","4","3","4","4","6","8","7","7","6","6","7","6","7","4","5","4","6","5","3","6","3","6","5","1","5","3","6","4","5","4","5","5","5","6","3","5","5","5","5","7","5","6","6","5","5","5","5","3","3","5","2","5","3","6","802197026057101313","张","568","Female","[""好她"",""坏她"",""好我"",""坏我""]","[""强她"",""弱她"",""强我"",""弱我""]","","","","","","","","","","","","","","","","","","","","","","","","","","","","","","feedback_test","","","","","","","","",""
"null","","null","psychophysics","88","522160","0.0-8.0-0.0-1.0-0.0-0.39","6","5","6","4","3","4","3","4","4","5","4","2","-1","1","0","1","1","2","1","5","4","5","4","4","3","4","3","4","4","6","8","7","7","6","6","7","6","7","4","5","4","6","5","3","6","3","6","5","1","5","3","6","4","5","4","5","5","5","6","3","5","5","5","5","7","5","6","6","5","5","5","5","3","3","5","2","5","3","6","802197026057101313","张","568","Female","[""好她"",""坏她"",""好我"",""坏我""]","[""强她"",""弱她"",""强我"",""弱我""]","","","","","","","","null","","","","","","","","","","key","null","21.7","960","536","f","false","match","img/trapezoid.png","好她","好她","prac_ALT2_moral","practice_moral","","","","","","","","",""
"null","<span class='add_' style='color:yellow; font-size: 70px;'> 太慢! </span>","null","html-keyboard-response","89","522663","0.0-8.0-0.0-1.0-0.0-1.39","6","5","6","4","3","4","3","4","4","5","4","2","-1","1","0","1","1","2","1","5","4","5","4","4","3","4","3","4","4","6","8","7","7","6","6","7","6","7","4","5","4","6","5","3","6","3","6","5","1","5","3","6","4","5","4","5","5","5","6","3","5","5","5","5","7","5","6","6","5","5","5","5","3","3","5","2","5","3","6","802197026057101313","张","568","Female","[""好她"",""坏她"",""好我"",""坏我""]","[""强她"",""弱她"",""强我"",""弱我""]","","","","","","","","","","","","","","","","","","","","","","","","","","","","","","feedback_test","","","","","","","","",""
"944","","j","psychophysics","90","524614","0.0-8.0-0.0-1.0-0.0-0.40","6","5","6","4","3","4","3","4","4","5","4","2","-1","1","0","1","1","2","1","5","4","5","4","4","3","4","3","4","4","6","8","7","7","6","6","7","6","7","4","5","4","6","5","3","6","3","6","5","1","5","3","6","4","5","4","5","5","5","6","3","5","5","5","5","7","5","6","6","5","5","5","5","3","3","5","2","5","3","6","802197026057101313","张","568","Female","[""好她"",""坏她"",""好我"",""坏我""]","[""强她"",""弱她"",""强我"",""弱我""]","","","","","","","","nonmatch","","","","","","","","","","key","j","23.012048192771083","960","536","j","true","nonmatch","img/pentagon.png","坏她","好我","prac_ALT2_moral","practice_moral","","","","","","","","",""
"null","<span style='color:GreenYellow; font-size: 70px;'>正确! </span>","null","html-keyboard-response","91","524791","0.0-8.0-0.0-1.0-0.0-1.40","6","5","6","4","3","4","3","4","4","5","4","2","-1","1","0","1","1","2","1","5","4","5","4","4","3","4","3","4","4","6","8","7","7","6","6","7","6","7","4","5","4","6","5","3","6","3","6","5","1","5","3","6","4","5","4","5","5","5","6","3","5","5","5","5","7","5","6","6","5","5","5","5","3","3","5","2","5","3","6","802197026057101313","张","568","Female","[""好她"",""坏她"",""好我"",""坏我""]","[""强她"",""弱她"",""强我"",""弱我""]","","","","","","","","","","","","","","","","","","","","","","","","","","","","","","feedback_test","","","","","","","","",""
"906","","f","psychophysics","92","526709","0.0-8.0-0.0-1.0-0.0-0.41","6","5","6","4","3","4","3","4","4","5","4","2","-1","1","0","1","1","2","1","5","4","5","4","4","3","4","3","4","4","6","8","7","7","6","6","7","6","7","4","5","4","6","5","3","6","3","6","5","1","5","3","6","4","5","4","5","5","5","6","3","5","5","5","5","7","5","6","6","5","5","5","5","3","3","5","2","5","3","6","802197026057101313","张","568","Female","[""好她"",""坏她"",""好我"",""坏我""]","[""强她"",""弱她"",""强我"",""弱我""]","","","","","","","","match","","","","","","","","","","key","f","22.650602409638555","960","536","f","true","match","img/pentagon.png","好我","好我","prac_ALT2_moral","practice_moral","","","","","","","","",""
"null","<span style='color:GreenYellow; font-size: 70px;'>正确! </span>","null","html-keyboard-response","93","527212","0.0-8.0-0.0-1.0-0.0-1.41","6","5","6","4","3","4","3","4","4","5","4","2","-1","1","0","1","1","2","1","5","4","5","4","4","3","4","3","4","4","6","8","7","7","6","6","7","6","7","4","5","4","6","5","3","6","3","6","5","1","5","3","6","4","5","4","5","5","5","6","3","5","5","5","5","7","5","6","6","5","5","5","5","3","3","5","2","5","3","6","802197026057101313","张","568","Female","[""好她"",""坏她"",""好我"",""坏我""]","[""强她"",""弱她"",""强我"",""弱我""]","","","","","","","","","","","","","","","","","","","","","","","","","","","","","","feedback_test","","","","","","","","",""
"null","","null","psychophysics","94","529427","0.0-8.0-0.0-1.0-0.0-0.42","6","5","6","4","3","4","3","4","4","5","4","2","-1","1","0","1","1","2","1","5","4","5","4","4","3","4","3","4","4","6","8","7","7","6","6","7","6","7","4","5","4","6","5","3","6","3","6","5","1","5","3","6","4","5","4","5","5","5","6","3","5","5","5","5","7","5","6","6","5","5","5","5","3","3","5","2","5","3","6","802197026057101313","张","568","Female","[""好她"",""坏她"",""好我"",""坏我""]","[""强她"",""弱她"",""强我"",""弱我""]","","","","","","","","null","","","","","","","","","","key","null","23.58695652173913","960","536","j","false","nonmatch","img/square.png","好她","坏我","prac_ALT2_moral","practice_moral","","","","","","","","",""
"null","<span class='add_' style='color:yellow; font-size: 70px;'> 太慢! </span>","null","html-keyboard-response","95","529929","0.0-8.0-0.0-1.0-0.0-1.42","6","5","6","4","3","4","3","4","4","5","4","2","-1","1","0","1","1","2","1","5","4","5","4","4","3","4","3","4","4","6","8","7","7","6","6","7","6","7","4","5","4","6","5","3","6","3","6","5","1","5","3","6","4","5","4","5","5","5","6","3","5","5","5","5","7","5","6","6","5","5","5","5","3","3","5","2","5","3","6","802197026057101313","张","568","Female","[""好她"",""坏她"",""好我"",""坏我""]","[""强她"",""弱她"",""强我"",""弱我""]","","","","","","","","","","","","","","","","","","","","","","","","","","","","","","feedback_test","","","","","","","","",""
"1124","","f","psychophysics","96","532058","0.0-8.0-0.0-1.0-0.0-0.43","6","5","6","4","3","4","3","4","4","5","4","2","-1","1","0","1","1","2","1","5","4","5","4","4","3","4","3","4","4","6","8","7","7","6","6","7","6","7","4","5","4","6","5","3","6","3","6","5","1","5","3","6","4","5","4","5","5","5","6","3","5","5","5","5","7","5","6","6","5","5","5","5","3","3","5","2","5","3","6","802197026057101313","张","568","Female","[""好她"",""坏她"",""好我"",""坏我""]","[""强她"",""弱她"",""强我"",""弱我""]","","","","","","","","match","","","","","","","","","","key","f","23.11111111111111","960","536","f","true","match","img/circle.png","坏她","坏她","prac_ALT2_moral","practice_moral","","","","","","","","",""
"null","<span style='color:GreenYellow; font-size: 70px;'>正确! </span>","null","html-keyboard-response","97","532561","0.0-8.0-0.0-1.0-0.0-1.43","6","5","6","4","3","4","3","4","4","5","4","2","-1","1","0","1","1","2","1","5","4","5","4","4","3","4","3","4","4","6","8","7","7","6","6","7","6","7","4","5","4","6","5","3","6","3","6","5","1","5","3","6","4","5","4","5","5","5","6","3","5","5","5","5","7","5","6","6","5","5","5","5","3","3","5","2","5","3","6","802197026057101313","张","568","Female","[""好她"",""坏她"",""好我"",""坏我""]","[""强她"",""弱她"",""强我"",""弱我""]","","","","","","","","","","","","","","","","","","","","","","","","","","","","","","feedback_test","","","","","","","","",""
"1013","","f","psychophysics","98","534577","0.0-8.0-0.0-1.0-0.0-0.44","6","5","6","4","3","4","3","4","4","5","4","2","-1","1","0","1","1","2","1","5","4","5","4","4","3","4","3","4","4","6","8","7","7","6","6","7","6","7","4","5","4","6","5","3","6","3","6","5","1","5","3","6","4","5","4","5","5","5","6","3","5","5","5","5","7","5","6","6","5","5","5","5","3","3","5","2","5","3","6","802197026057101313","张","568","Female","[""好她"",""坏她"",""好我"",""坏我""]","[""强她"",""弱她"",""强我"",""弱我""]","","","","","","","","match","","","","","","","","","","key","f","22.75862068965517","960","536","j","false","nonmatch","img/square.png","好我","坏我","prac_ALT2_moral","practice_moral","","","","","","","","",""
"null","<span style='color:red; font-size: 70px;'>错误! </span>","null","html-keyboard-response","99","535081","0.0-8.0-0.0-1.0-0.0-1.44","6","5","6","4","3","4","3","4","4","5","4","2","-1","1","0","1","1","2","1","5","4","5","4","4","3","4","3","4","4","6","8","7","7","6","6","7","6","7","4","5","4","6","5","3","6","3","6","5","1","5","3","6","4","5","4","5","5","5","6","3","5","5","5","5","7","5","6","6","5","5","5","5","3","3","5","2","5","3","6","802197026057101313","张","568","Female","[""好她"",""坏她"",""好我"",""坏我""]","[""强她"",""弱她"",""强我"",""弱我""]","","","","","","","","","","","","","","","","","","","","","","","","","","","","","","feedback_test","","","","","","","","",""
"997","","j","psychophysics","100","537083","0.0-8.0-0.0-1.0-0.0-0.45","6","5","6","4","3","4","3","4","4","5","4","2","-1","1","0","1","1","2","1","5","4","5","4","4","3","4","3","4","4","6","8","7","7","6","6","7","6","7","4","5","4","6","5","3","6","3","6","5","1","5","3","6","4","5","4","5","5","5","6","3","5","5","5","5","7","5","6","6","5","5","5","5","3","3","5","2","5","3","6","802197026057101313","张","568","Female","[""好她"",""坏她"",""好我"",""坏我""]","[""强她"",""弱她"",""强我"",""弱我""]","","","","","","","","nonmatch","","","","","","","","","","key","j","21.53846153846154","960","536","j","true","nonmatch","img/pentagon.png","好她","好我","prac_ALT2_moral","practice_moral","","","","","","","","",""
"null","<span style='color:GreenYellow; font-size: 70px;'>正确! </span>","null","html-keyboard-response","101","537586","0.0-8.0-0.0-1.0-0.0-1.45","6","5","6","4","3","4","3","4","4","5","4","2","-1","1","0","1","1","2","1","5","4","5","4","4","3","4","3","4","4","6","8","7","7","6","6","7","6","7","4","5","4","6","5","3","6","3","6","5","1","5","3","6","4","5","4","5","5","5","6","3","5","5","5","5","7","5","6","6","5","5","5","5","3","3","5","2","5","3","6","802197026057101313","张","568","Female","[""好她"",""坏她"",""好我"",""坏我""]","[""强她"",""弱她"",""强我"",""弱我""]","","","","","","","","","","","","","","","","","","","","","","","","","","","","","","feedback_test","","","","","","","","",""
"942","","j","psychophysics","102","539532","0.0-8.0-0.0-1.0-0.0-0.46","6","5","6","4","3","4","3","4","4","5","4","2","-1","1","0","1","1","2","1","5","4","5","4","4","3","4","3","4","4","6","8","7","7","6","6","7","6","7","4","5","4","6","5","3","6","3","6","5","1","5","3","6","4","5","4","5","5","5","6","3","5","5","5","5","7","5","6","6","5","5","5","5","3","3","5","2","5","3","6","802197026057101313","张","568","Female","[""好她"",""坏她"",""好我"",""坏我""]","[""强她"",""弱她"",""强我"",""弱我""]","","","","","","","","nonmatch","","","","","","","","","","key","j","23.924050632911392","960","536","j","true","nonmatch","img/trapezoid.png","坏她","好她","prac_ALT2_moral","practice_moral","","","","","","","","",""
"null","<span style='color:GreenYellow; font-size: 70px;'>正确! </span>","null","html-keyboard-response","103","540035","0.0-8.0-0.0-1.0-0.0-1.46","6","5","6","4","3","4","3","4","4","5","4","2","-1","1","0","1","1","2","1","5","4","5","4","4","3","4","3","4","4","6","8","7","7","6","6","7","6","7","4","5","4","6","5","3","6","3","6","5","1","5","3","6","4","5","4","5","5","5","6","3","5","5","5","5","7","5","6","6","5","5","5","5","3","3","5","2","5","3","6","802197026057101313","张","568","Female","[""好她"",""坏她"",""好我"",""坏我""]","[""强她"",""弱她"",""强我"",""弱我""]","","","","","","","","","","","","","","","","","","","","","","","","","","","","","","feedback_test","","","","","","","","",""
"932","","f","psychophysics","104","541975","0.0-8.0-0.0-1.0-0.0-0.47","6","5","6","4","3","4","3","4","4","5","4","2","-1","1","0","1","1","2","1","5","4","5","4","4","3","4","3","4","4","6","8","7","7","6","6","7","6","7","4","5","4","6","5","3","6","3","6","5","1","5","3","6","4","5","4","5","5","5","6","3","5","5","5","5","7","5","6","6","5","5","5","5","3","3","5","2","5","3","6","802197026057101313","张","568","Female","[""好她"",""坏她"",""好我"",""坏我""]","[""强她"",""弱她"",""强我"",""弱我""]","","","","","","","","match","","","","","","","","","","key","f","22.89156626506024","960","536","f","true","match","img/square.png","坏我","坏我","prac_ALT2_moral","practice_moral","","","","","","","","",""
"null","<span style='color:GreenYellow; font-size: 70px;'>正确! </span>","null","html-keyboard-response","105","542478","0.0-8.0-0.0-1.0-0.0-1.47","6","5","6","4","3","4","3","4","4","5","4","2","-1","1","0","1","1","2","1","5","4","5","4","4","3","4","3","4","4","6","8","7","7","6","6","7","6","7","4","5","4","6","5","3","6","3","6","5","1","5","3","6","4","5","4","5","5","5","6","3","5","5","5","5","7","5","6","6","5","5","5","5","3","3","5","2","5","3","6","802197026057101313","张","568","Female","[""好她"",""坏她"",""好我"",""坏我""]","[""强她"",""弱她"",""强我"",""弱我""]","","","","","","","","","","","","","","","","","","","","","","","","","","","","","","feedback_test","","","","","","","","",""
"7061","<style>.context{color:white; font-size: 35px; line-height:40px}</style>                            <div><p class='context'>您正确回答了63% 的试次。</p><p class='context'>您的平均反应时为1002毫秒。</p><p class='context'>恭喜您完成练习。按空格键进入正式实验。</p><p class='footer' style='font-size: 35px; line-height:40px;'>请在进入正式实验实验之前将您的<span style='color: lightgreen;'>食指</span>放在电脑键盘的相应键位上进行按键。</p>"," ","html-keyboard-response","106","549545","0.0-8.0-0.0-2.0","6","5","6","4","3","4","3","4","4","5","4","2","-1","1","0","1","1","2","1","5","4","5","4","4","3","4","3","4","4","6","8","7","7","6","6","7","6","7","4","5","4","6","5","3","6","3","6","5","1","5","3","6","4","5","4","5","5","5","6","3","5","5","5","5","7","5","6","6","5","5","5","5","3","3","5","2","5","3","6","802197026057101313","张","568","Female","[""好她"",""坏她"",""好我"",""坏我""]","[""强她"",""弱她"",""强我"",""弱我""]","","","","","","","","","","","","","","","","","","","","","","","","","","","","","","","","","","","","","","",""
"1440","
    <p style='color: white; font-size: 22px'>请您将手指放在按键上，准备进入正式的匹配任务。</p>
    <p> <div style = ""color: green""><按空格键进入下一阶段的匹配任务></div></p>
    "," ","html-keyboard-response","107","550993","0.0-8.0-0.0-3.0","6","5","6","4","3","4","3","4","4","5","4","2","-1","1","0","1","1","2","1","5","4","5","4","4","3","4","3","4","4","6","8","7","7","6","6","7","6","7","4","5","4","6","5","3","6","3","6","5","1","5","3","6","4","5","4","5","5","5","6","3","5","5","5","5","7","5","6","6","5","5","5","5","3","3","5","2","5","3","6","802197026057101313","张","568","Female","[""好她"",""坏她"",""好我"",""坏我""]","[""强她"",""弱她"",""强我"",""弱我""]","","","","","","","","","","","","","","","","","","","","","","","","","","","","","","","","","","","","","","",""
"936","","j","psychophysics","108","552934","0.0-8.0-0.0-4.0-0.0-0.0","6","5","6","4","3","4","3","4","4","5","4","2","-1","1","0","1","1","2","1","5","4","5","4","4","3","4","3","4","4","6","8","7","7","6","6","7","6","7","4","5","4","6","5","3","6","3","6","5","1","5","3","6","4","5","4","5","5","5","6","3","5","5","5","5","7","5","6","6","5","5","5","5","3","3","5","2","5","3","6","802197026057101313","张","568","Female","[""好她"",""坏她"",""好我"",""坏我""]","[""强她"",""弱她"",""强我"",""弱我""]","","","","","","","","nonmatch","","","","","","","","","","key","j","21.123595505617978","960","536","j","true","nonmatch","img/square.png","好我","坏我","ALT2","moral","","","","","","","","",""
"null","<span style='color:GreenYellow; font-size: 70px;'>正确! </span>","null","html-keyboard-response","109","553437","0.0-8.0-0.0-4.0-0.0-1.0","6","5","6","4","3","4","3","4","4","5","4","2","-1","1","0","1","1","2","1","5","4","5","4","4","3","4","3","4","4","6","8","7","7","6","6","7","6","7","4","5","4","6","5","3","6","3","6","5","1","5","3","6","4","5","4","5","5","5","6","3","5","5","5","5","7","5","6","6","5","5","5","5","3","3","5","2","5","3","6","802197026057101313","张","568","Female","[""好她"",""坏她"",""好我"",""坏我""]","[""强她"",""弱她"",""强我"",""弱我""]","","","","","","","","","","","","","","","","","","","","","","","","","","","","","","feedback_test","","","","","","","","",""
"918","","j","psychophysics","110","555372","0.0-8.0-0.0-4.0-0.0-0.1","6","5","6","4","3","4","3","4","4","5","4","2","-1","1","0","1","1","2","1","5","4","5","4","4","3","4","3","4","4","6","8","7","7","6","6","7","6","7","4","5","4","6","5","3","6","3","6","5","1","5","3","6","4","5","4","5","5","5","6","3","5","5","5","5","7","5","6","6","5","5","5","5","3","3","5","2","5","3","6","802197026057101313","张","568","Female","[""好她"",""坏她"",""好我"",""坏我""]","[""强她"",""弱她"",""强我"",""弱我""]","","","","","","","","nonmatch","","","","","","","","","","key","j","22.352941176470587","960","536","f","false","match","img/circle.png","坏她","坏她","ALT2","moral","","","","","","","","",""
"null","<span style='color:red; font-size: 70px;'>错误! </span>","null","html-keyboard-response","111","555876","0.0-8.0-0.0-4.0-0.0-1.1","6","5","6","4","3","4","3","4","4","5","4","2","-1","1","0","1","1","2","1","5","4","5","4","4","3","4","3","4","4","6","8","7","7","6","6","7","6","7","4","5","4","6","5","3","6","3","6","5","1","5","3","6","4","5","4","5","5","5","6","3","5","5","5","5","7","5","6","6","5","5","5","5","3","3","5","2","5","3","6","802197026057101313","张","568","Female","[""好她"",""坏她"",""好我"",""坏我""]","[""强她"",""弱她"",""强我"",""弱我""]","","","","","","","","","","","","","","","","","","","","","","","","","","","","","","feedback_test","","","","","","","","",""
"null","","null","psychophysics","112","558090","0.0-8.0-0.0-4.0-0.0-0.2","6","5","6","4","3","4","3","4","4","5","4","2","-1","1","0","1","1","2","1","5","4","5","4","4","3","4","3","4","4","6","8","7","7","6","6","7","6","7","4","5","4","6","5","3","6","3","6","5","1","5","3","6","4","5","4","5","5","5","6","3","5","5","5","5","7","5","6","6","5","5","5","5","3","3","5","2","5","3","6","802197026057101313","张","568","Female","[""好她"",""坏她"",""好我"",""坏我""]","[""强她"",""弱她"",""强我"",""弱我""]","","","","","","","","null","","","","","","","","","","key","null","22.244897959183675","960","536","f","false","match","img/trapezoid.png","好她","好她","ALT2","moral","","","","","","","","",""
"null","<span class='add_' style='color:yellow; font-size: 70px;'> 太慢! </span>","null","html-keyboard-response","113","558591","0.0-8.0-0.0-4.0-0.0-1.2","6","5","6","4","3","4","3","4","4","5","4","2","-1","1","0","1","1","2","1","5","4","5","4","4","3","4","3","4","4","6","8","7","7","6","6","7","6","7","4","5","4","6","5","3","6","3","6","5","1","5","3","6","4","5","4","5","5","5","6","3","5","5","5","5","7","5","6","6","5","5","5","5","3","3","5","2","5","3","6","802197026057101313","张","568","Female","[""好她"",""坏她"",""好我"",""坏我""]","[""强她"",""弱她"",""强我"",""弱我""]","","","","","","","","","","","","","","","","","","","","","","","","","","","","","","feedback_test","","","","","","","","",""
"822","","f","psychophysics","114","560428","0.0-8.0-0.0-4.0-0.0-0.3","6","5","6","4","3","4","3","4","4","5","4","2","-1","1","0","1","1","2","1","5","4","5","4","4","3","4","3","4","4","6","8","7","7","6","6","7","6","7","4","5","4","6","5","3","6","3","6","5","1","5","3","6","4","5","4","5","5","5","6","3","5","5","5","5","7","5","6","6","5","5","5","5","3","3","5","2","5","3","6","802197026057101313","张","568","Female","[""好她"",""坏她"",""好我"",""坏我""]","[""强她"",""弱她"",""强我"",""弱我""]","","","","","","","","match","","","","","","","","","","key","f","22.098765432098766","960","536","f","true","match","img/pentagon.png","好我","好我","ALT2","moral","","","","","","","","",""
"null","<span style='color:GreenYellow; font-size: 70px;'>正确! </span>","null","html-keyboard-response","115","560931","0.0-8.0-0.0-4.0-0.0-1.3","6","5","6","4","3","4","3","4","4","5","4","2","-1","1","0","1","1","2","1","5","4","5","4","4","3","4","3","4","4","6","8","7","7","6","6","7","6","7","4","5","4","6","5","3","6","3","6","5","1","5","3","6","4","5","4","5","5","5","6","3","5","5","5","5","7","5","6","6","5","5","5","5","3","3","5","2","5","3","6","802197026057101313","张","568","Female","[""好她"",""坏她"",""好我"",""坏我""]","[""强她"",""弱她"",""强我"",""弱我""]","","","","","","","","","","","","","","","","","","","","","","","","","","","","","","feedback_test","","","","","","","","",""
"1055","","j","psychophysics","116","563001","0.0-8.0-0.0-4.0-0.0-0.4","6","5","6","4","3","4","3","4","4","5","4","2","-1","1","0","1","1","2","1","5","4","5","4","4","3","4","3","4","4","6","8","7","7","6","6","7","6","7","4","5","4","6","5","3","6","3","6","5","1","5","3","6","4","5","4","5","5","5","6","3","5","5","5","5","7","5","6","6","5","5","5","5","3","3","5","2","5","3","6","802197026057101313","张","568","Female","[""好她"",""坏她"",""好我"",""坏我""]","[""强她"",""弱她"",""强我"",""弱我""]","","","","","","","","nonmatch","","","","","","","","","","key","j","22.808988764044944","960","536","j","true","nonmatch","img/pentagon.png","坏我","好我","ALT2","moral","","","","","","","","",""
"null","<span style='color:GreenYellow; font-size: 70px;'>正确! </span>","null","html-keyboard-response","117","563504","0.0-8.0-0.0-4.0-0.0-1.4","6","5","6","4","3","4","3","4","4","5","4","2","-1","1","0","1","1","2","1","5","4","5","4","4","3","4","3","4","4","6","8","7","7","6","6","7","6","7","4","5","4","6","5","3","6","3","6","5","1","5","3","6","4","5","4","5","5","5","6","3","5","5","5","5","7","5","6","6","5","5","5","5","3","3","5","2","5","3","6","802197026057101313","张","568","Female","[""好她"",""坏她"",""好我"",""坏我""]","[""强她"",""弱她"",""强我"",""弱我""]","","","","","","","","","","","","","","","","","","","","","","","","","","","","","","feedback_test","","","","","","","","",""
"989","","j","psychophysics","118","565496","0.0-8.0-0.0-4.0-0.0-0.5","6","5","6","4","3","4","3","4","4","5","4","2","-1","1","0","1","1","2","1","5","4","5","4","4","3","4","3","4","4","6","8","7","7","6","6","7","6","7","4","5","4","6","5","3","6","3","6","5","1","5","3","6","4","5","4","5","5","5","6","3","5","5","5","5","7","5","6","6","5","5","5","5","3","3","5","2","5","3","6","802197026057101313","张","568","Female","[""好她"",""坏她"",""好我"",""坏我""]","[""强她"",""弱她"",""强我"",""弱我""]","","","","","","","","nonmatch","","","","","","","","","","key","j","22.15909090909091","960","536","j","true","nonmatch","img/pentagon.png","好她","好我","ALT2","moral","","","","","","","","",""
"null","<span style='color:GreenYellow; font-size: 70px;'>正确! </span>","null","html-keyboard-response","119","565999","0.0-8.0-0.0-4.0-0.0-1.5","6","5","6","4","3","4","3","4","4","5","4","2","-1","1","0","1","1","2","1","5","4","5","4","4","3","4","3","4","4","6","8","7","7","6","6","7","6","7","4","5","4","6","5","3","6","3","6","5","1","5","3","6","4","5","4","5","5","5","6","3","5","5","5","5","7","5","6","6","5","5","5","5","3","3","5","2","5","3","6","802197026057101313","张","568","Female","[""好她"",""坏她"",""好我"",""坏我""]","[""强她"",""弱她"",""强我"",""弱我""]","","","","","","","","","","","","","","","","","","","","","","","","","","","","","","feedback_test","","","","","","","","",""
"970","","j","psychophysics","120","567972","0.0-8.0-0.0-4.0-0.0-0.6","6","5","6","4","3","4","3","4","4","5","4","2","-1","1","0","1","1","2","1","5","4","5","4","4","3","4","3","4","4","6","8","7","7","6","6","7","6","7","4","5","4","6","5","3","6","3","6","5","1","5","3","6","4","5","4","5","5","5","6","3","5","5","5","5","7","5","6","6","5","5","5","5","3","3","5","2","5","3","6","802197026057101313","张","568","Female","[""好她"",""坏她"",""好我"",""坏我""]","[""强她"",""弱她"",""强我"",""弱我""]","","","","","","","","nonmatch","","","","","","","","","","key","j","22.558139534883722","960","536","j","true","nonmatch","img/circle.png","好我","坏她","ALT2","moral","","","","","","","","",""
"null","<span style='color:GreenYellow; font-size: 70px;'>正确! </span>","null","html-keyboard-response","121","568475","0.0-8.0-0.0-4.0-0.0-1.6","6","5","6","4","3","4","3","4","4","5","4","2","-1","1","0","1","1","2","1","5","4","5","4","4","3","4","3","4","4","6","8","7","7","6","6","7","6","7","4","5","4","6","5","3","6","3","6","5","1","5","3","6","4","5","4","5","5","5","6","3","5","5","5","5","7","5","6","6","5","5","5","5","3","3","5","2","5","3","6","802197026057101313","张","568","Female","[""好她"",""坏她"",""好我"",""坏我""]","[""强她"",""弱她"",""强我"",""弱我""]","","","","","","","","","","","","","","","","","","","","","","","","","","","","","","feedback_test","","","","","","","","",""
"972","","f","psychophysics","122","570457","0.0-8.0-0.0-4.0-0.0-0.7","6","5","6","4","3","4","3","4","4","5","4","2","-1","1","0","1","1","2","1","5","4","5","4","4","3","4","3","4","4","6","8","7","7","6","6","7","6","7","4","5","4","6","5","3","6","3","6","5","1","5","3","6","4","5","4","5","5","5","6","3","5","5","5","5","7","5","6","6","5","5","5","5","3","3","5","2","5","3","6","802197026057101313","张","568","Female","[""好她"",""坏她"",""好我"",""坏我""]","[""强她"",""弱她"",""强我"",""弱我""]","","","","","","","","match","","","","","","","","","","key","f","21.931818181818183","960","536","f","true","match","img/square.png","坏我","坏我","ALT2","moral","","","","","","","","",""
"null","<span style='color:GreenYellow; font-size: 70px;'>正确! </span>","null","html-keyboard-response","123","570960","0.0-8.0-0.0-4.0-0.0-1.7","6","5","6","4","3","4","3","4","4","5","4","2","-1","1","0","1","1","2","1","5","4","5","4","4","3","4","3","4","4","6","8","7","7","6","6","7","6","7","4","5","4","6","5","3","6","3","6","5","1","5","3","6","4","5","4","5","5","5","6","3","5","5","5","5","7","5","6","6","5","5","5","5","3","3","5","2","5","3","6","802197026057101313","张","568","Female","[""好她"",""坏她"",""好我"",""坏我""]","[""强她"",""弱她"",""强我"",""弱我""]","","","","","","","","","","","","","","","","","","","","","","","","","","","","","","feedback_test","","","","","","","","",""
"999","","j","psychophysics","124","572962","0.0-8.0-0.0-4.0-0.0-0.8","6","5","6","4","3","4","3","4","4","5","4","2","-1","1","0","1","1","2","1","5","4","5","4","4","3","4","3","4","4","6","8","7","7","6","6","7","6","7","4","5","4","6","5","3","6","3","6","5","1","5","3","6","4","5","4","5","5","5","6","3","5","5","5","5","7","5","6","6","5","5","5","5","3","3","5","2","5","3","6","802197026057101313","张","568","Female","[""好她"",""坏她"",""好我"",""坏我""]","[""强她"",""弱她"",""强我"",""弱我""]","","","","","","","","nonmatch","","","","","","","","","","key","j","21.77777777777778","960","536","j","true","nonmatch","img/trapezoid.png","坏她","好她","ALT2","moral","","","","","","","","",""
"null","<span style='color:GreenYellow; font-size: 70px;'>正确! </span>","null","html-keyboard-response","125","573468","0.0-8.0-0.0-4.0-0.0-1.8","6","5","6","4","3","4","3","4","4","5","4","2","-1","1","0","1","1","2","1","5","4","5","4","4","3","4","3","4","4","6","8","7","7","6","6","7","6","7","4","5","4","6","5","3","6","3","6","5","1","5","3","6","4","5","4","5","5","5","6","3","5","5","5","5","7","5","6","6","5","5","5","5","3","3","5","2","5","3","6","802197026057101313","张","568","Female","[""好她"",""坏她"",""好我"",""坏我""]","[""强她"",""弱她"",""强我"",""弱我""]","","","","","","","","","","","","","","","","","","","","","","","","","","","","","","feedback_test","","","","","","","","",""
"810","","f","psychophysics","126","575284","0.0-8.0-0.0-4.0-0.0-0.9","6","5","6","4","3","4","3","4","4","5","4","2","-1","1","0","1","1","2","1","5","4","5","4","4","3","4","3","4","4","6","8","7","7","6","6","7","6","7","4","5","4","6","5","3","6","3","6","5","1","5","3","6","4","5","4","5","5","5","6","3","5","5","5","5","7","5","6","6","5","5","5","5","3","3","5","2","5","3","6","802197026057101313","张","568","Female","[""好她"",""坏她"",""好我"",""坏我""]","[""强她"",""弱她"",""强我"",""弱我""]","","","","","","","","match","","","","","","","","","","key","f","21.585365853658537","960","536","f","true","match","img/trapezoid.png","好她","好她","ALT2","moral","","","","","","","","",""
"null","<span style='color:GreenYellow; font-size: 70px;'>正确! </span>","null","html-keyboard-response","127","575787","0.0-8.0-0.0-4.0-0.0-1.9","6","5","6","4","3","4","3","4","4","5","4","2","-1","1","0","1","1","2","1","5","4","5","4","4","3","4","3","4","4","6","8","7","7","6","6","7","6","7","4","5","4","6","5","3","6","3","6","5","1","5","3","6","4","5","4","5","5","5","6","3","5","5","5","5","7","5","6","6","5","5","5","5","3","3","5","2","5","3","6","802197026057101313","张","568","Female","[""好她"",""坏她"",""好我"",""坏我""]","[""强她"",""弱她"",""强我"",""弱我""]","","","","","","","","","","","","","","","","","","","","","","","","","","","","","","feedback_test","","","","","","","","",""
"928","","f","psychophysics","128","577731","0.0-8.0-0.0-4.0-0.0-0.10","6","5","6","4","3","4","3","4","4","5","4","2","-1","1","0","1","1","2","1","5","4","5","4","4","3","4","3","4","4","6","8","7","7","6","6","7","6","7","4","5","4","6","5","3","6","3","6","5","1","5","3","6","4","5","4","5","5","5","6","3","5","5","5","5","7","5","6","6","5","5","5","5","3","3","5","2","5","3","6","802197026057101313","张","568","Female","[""好她"",""坏她"",""好我"",""坏我""]","[""强她"",""弱她"",""强我"",""弱我""]","","","","","","","","match","","","","","","","","","","key","f","23.75","960","536","f","true","match","img/pentagon.png","好我","好我","ALT2","moral","","","","","","","","",""
"null","<span style='color:GreenYellow; font-size: 70px;'>正确! </span>","null","html-keyboard-response","129","578234","0.0-8.0-0.0-4.0-0.0-1.10","6","5","6","4","3","4","3","4","4","5","4","2","-1","1","0","1","1","2","1","5","4","5","4","4","3","4","3","4","4","6","8","7","7","6","6","7","6","7","4","5","4","6","5","3","6","3","6","5","1","5","3","6","4","5","4","5","5","5","6","3","5","5","5","5","7","5","6","6","5","5","5","5","3","3","5","2","5","3","6","802197026057101313","张","568","Female","[""好她"",""坏她"",""好我"",""坏我""]","[""强她"",""弱她"",""强我"",""弱我""]","","","","","","","","","","","","","","","","","","","","","","","","","","","","","","feedback_test","","","","","","","","",""
"1074","","j","psychophysics","130","580311","0.0-8.0-0.0-4.0-0.0-0.11","6","5","6","4","3","4","3","4","4","5","4","2","-1","1","0","1","1","2","1","5","4","5","4","4","3","4","3","4","4","6","8","7","7","6","6","7","6","7","4","5","4","6","5","3","6","3","6","5","1","5","3","6","4","5","4","5","5","5","6","3","5","5","5","5","7","5","6","6","5","5","5","5","3","3","5","2","5","3","6","802197026057101313","张","568","Female","[""好她"",""坏她"",""好我"",""坏我""]","[""强她"",""弱她"",""强我"",""弱我""]","","","","","","","","nonmatch","","","","","","","","","","key","j","23.333333333333332","960","536","j","true","nonmatch","img/square.png","坏她","坏我","ALT2","moral","","","","","","","","",""
"null","<span style='color:GreenYellow; font-size: 70px;'>正确! </span>","null","html-keyboard-response","131","580814","0.0-8.0-0.0-4.0-0.0-1.11","6","5","6","4","3","4","3","4","4","5","4","2","-1","1","0","1","1","2","1","5","4","5","4","4","3","4","3","4","4","6","8","7","7","6","6","7","6","7","4","5","4","6","5","3","6","3","6","5","1","5","3","6","4","5","4","5","5","5","6","3","5","5","5","5","7","5","6","6","5","5","5","5","3","3","5","2","5","3","6","802197026057101313","张","568","Female","[""好她"",""坏她"",""好我"",""坏我""]","[""强她"",""弱她"",""强我"",""弱我""]","","","","","","","","","","","","","","","","","","","","","","","","","","","","","","feedback_test","","","","","","","","",""
"983","","f","psychophysics","132","582799","0.0-8.0-0.0-4.0-0.0-0.12","6","5","6","4","3","4","3","4","4","5","4","2","-1","1","0","1","1","2","1","5","4","5","4","4","3","4","3","4","4","6","8","7","7","6","6","7","6","7","4","5","4","6","5","3","6","3","6","5","1","5","3","6","4","5","4","5","5","5","6","3","5","5","5","5","7","5","6","6","5","5","5","5","3","3","5","2","5","3","6","802197026057101313","张","568","Female","[""好她"",""坏她"",""好我"",""坏我""]","[""强她"",""弱她"",""强我"",""弱我""]","","","","","","","","match","","","","","","","","","","key","f","21.910112359550563","960","536","f","true","match","img/circle.png","坏她","坏她","ALT2","moral","","","","","","","","",""
"null","<span style='color:GreenYellow; font-size: 70px;'>正确! </span>","null","html-keyboard-response","133","583301","0.0-8.0-0.0-4.0-0.0-1.12","6","5","6","4","3","4","3","4","4","5","4","2","-1","1","0","1","1","2","1","5","4","5","4","4","3","4","3","4","4","6","8","7","7","6","6","7","6","7","4","5","4","6","5","3","6","3","6","5","1","5","3","6","4","5","4","5","5","5","6","3","5","5","5","5","7","5","6","6","5","5","5","5","3","3","5","2","5","3","6","802197026057101313","张","568","Female","[""好她"",""坏她"",""好我"",""坏我""]","[""强她"",""弱她"",""强我"",""弱我""]","","","","","","","","","","","","","","","","","","","","","","","","","","","","","","feedback_test","","","","","","","","",""
"1018","","j","psychophysics","134","584984","0.0-8.0-0.0-4.0-0.0-0.13","6","5","6","4","3","4","3","4","4","5","4","2","-1","1","0","1","1","2","1","5","4","5","4","4","3","4","3","4","4","6","8","7","7","6","6","7","6","7","4","5","4","6","5","3","6","3","6","5","1","5","3","6","4","5","4","5","5","5","6","3","5","5","5","5","7","5","6","6","5","5","5","5","3","3","5","2","5","3","6","802197026057101313","张","568","Female","[""好她"",""坏她"",""好我"",""坏我""]","[""强她"",""弱她"",""强我"",""弱我""]","","","","","","","","nonmatch","","","","","","","","","","key","j","22","960","536","j","true","nonmatch","img/circle.png","好她","坏她","ALT2","moral","","","","","","","","",""
"null","<span style='color:GreenYellow; font-size: 70px;'>正确! </span>","null","html-keyboard-response","135","585487","0.0-8.0-0.0-4.0-0.0-1.13","6","5","6","4","3","4","3","4","4","5","4","2","-1","1","0","1","1","2","1","5","4","5","4","4","3","4","3","4","4","6","8","7","7","6","6","7","6","7","4","5","4","6","5","3","6","3","6","5","1","5","3","6","4","5","4","5","5","5","6","3","5","5","5","5","7","5","6","6","5","5","5","5","3","3","5","2","5","3","6","802197026057101313","张","568","Female","[""好她"",""坏她"",""好我"",""坏我""]","[""强她"",""弱她"",""强我"",""弱我""]","","","","","","","","","","","","","","","","","","","","","","","","","","","","","","feedback_test","","","","","","","","",""
"859","","f","psychophysics","136","587350","0.0-8.0-0.0-4.0-0.0-0.14","6","5","6","4","3","4","3","4","4","5","4","2","-1","1","0","1","1","2","1","5","4","5","4","4","3","4","3","4","4","6","8","7","7","6","6","7","6","7","4","5","4","6","5","3","6","3","6","5","1","5","3","6","4","5","4","5","5","5","6","3","5","5","5","5","7","5","6","6","5","5","5","5","3","3","5","2","5","3","6","802197026057101313","张","568","Female","[""好她"",""坏她"",""好我"",""坏我""]","[""强她"",""弱她"",""强我"",""弱我""]","","","","","","","","match","","","","","","","","","","key","f","21.927710843373493","960","536","f","true","match","img/pentagon.png","好我","好我","ALT2","moral","","","","","","","","",""
"null","<span style='color:GreenYellow; font-size: 70px;'>正确! </span>","null","html-keyboard-response","137","587853","0.0-8.0-0.0-4.0-0.0-1.14","6","5","6","4","3","4","3","4","4","5","4","2","-1","1","0","1","1","2","1","5","4","5","4","4","3","4","3","4","4","6","8","7","7","6","6","7","6","7","4","5","4","6","5","3","6","3","6","5","1","5","3","6","4","5","4","5","5","5","6","3","5","5","5","5","7","5","6","6","5","5","5","5","3","3","5","2","5","3","6","802197026057101313","张","568","Female","[""好她"",""坏她"",""好我"",""坏我""]","[""强她"",""弱她"",""强我"",""弱我""]","","","","","","","","","","","","","","","","","","","","","","","","","","","","","","feedback_test","","","","","","","","",""
