"rt","stimulus","response","trial_type","trial_index","time_elapsed","internal_node_id","swb_1","swb_2","swb_3","swb_4","swb_5","LOT_1","LOT_2","LOT_3","LOT_4","LOT_5","LOT_6","IPC_1","IPC_2","IPC_3","IPC_4","IPC_5","IPC_6","IPC_7","IPC_8","MorIden_1","MorIden_2","MorIden_3","MorIden_4","MorIden_5","MorIden_6","MorIden_7","MorIden_8","MorIden_9","MorIden_10","moralSeImag_1","moralSeImag_2","moralSeImag_3","moralSeImag_4","moralSeImag_5","moralSeImag_6","moralSeImag_7","moralSeImag_8","moralSeImag_9","sde_1","sde_2","sde_3","sde_4","sde_5","sde_6","sde_7","sde_8","sde_9","sde_10","trap2","sde_11","sde_12","sde_13","sde_14","sde_15","sde_16","sde_17","sde_18","sde_19","sde_20","IM_1","IM_2","IM_3","IM_4","IM_5","IM_6","IM_7","IM_8","IM_9","IM_10","IM_11","IM_12","IM_13","IM_14","IM_15","IM_16","IM_17","IM_18","IM_19","IM_20","subj_idx","friend_name","ParticipantID","Sex","Word","Word2","value","success","timeout","failed_images","failed_audio","failed_video","user_agent","responses","item_order","radio_event_ids","radio_event_times","key_event_times","mouse_event_times","straightlining","zigzagging","honeypot","task_id","screen_id","time_stamp","response_type","key_press","avg_frame_time","center_x","center_y","person","word","valence","domain","math","correct_response","correct","status","view_history","identity","duration","Image","condition","question_order","trap2_item"
"1541","
   <p><div style='color:white; font-size: 25px'>您好，欢迎参加本次实验。</div></p>
   <p><div style='color:white; font-size: 25px'>为充分保障您的权利，请确保您已经知晓并同意《参与实验同意书》以及《数据公开知情同意书》。</div></p>
   <p><div style='color:white; font-size: 25px'>如果您未见过上述内容，请咨询实验员。</div></p>
   <p style='color:white; font-size: 25px'>如果您选择继续实验，则表示您已经清楚两份知情同意书的内容并同意。</p>
   <p><div style = ""color: pink;font-size:30px;"">请确保您记得day0的实验编号，您将在本次实验输入该编号，若您忘记，请咨询实验员后作答。</div></p>
   <p><div style = ""color:lightblue;font-size:25px;"">请您尽可能认真地作答，我们将依据您在各问卷和按键任务中的作答质量发放报酬。</div></p>
   <p> <div style = ""color: green""><按空格键至下页></div> </p>
   "," ","html-keyboard-response","0","1543","0.0-0.0","7","6","6","6","6","2","3","4","2","2","5","1","0","0","0","1","1","1","0","5","4","5","4","4","4","4","4","4","4","4","5","3","4","4","4","4","4","5","5","5","4","6","5","3","5","5","6","5","1","5","2","5","4","4","5","5","5","6","3","3","3","3","3","3","5","3","6","5","5","3","3","5","4","3","3","2","5","3","5","799015908117979137","亓","513","Female","[""坏我"",""好她"",""坏她"",""好我""]","[""弱我"",""强她"",""弱她"",""强我""]","","","","","","","","","","","","","","","","","","","","","","","","","","","","","","","","","","","","","","",""
"","","","call-function","1","1544","0.0-1.0-0.0","7","6","6","6","6","2","3","4","2","2","5","1","0","0","0","1","1","1","0","5","4","5","4","4","4","4","4","4","4","4","5","3","4","4","4","4","4","5","5","5","4","6","5","3","5","5","6","5","1","5","2","5","4","4","5","5","5","6","3","3","3","3","3","3","5","3","6","5","5","3","3","5","4","3","3","2","5","3","5","799015908117979137","亓","513","Female","[""坏我"",""好她"",""坏她"",""好我""]","[""弱我"",""强她"",""弱她"",""强我""]","","","","","","","","","","","","","","","","","","","","","","","","","","","","","","","","","","","","","","",""
"8858","","[{""name"":""Sex"",""value"":""1""},{""name"":""friend_name"",""value"":""亓""},{""name"":""ParticipantID"",""value"":""513""}]","survey-html-form","2","10403","0.0-1.0-1.0","7","6","6","6","6","2","3","4","2","2","5","1","0","0","0","1","1","1","0","5","4","5","4","4","4","4","4","4","4","4","5","3","4","4","4","4","4","5","5","5","4","6","5","3","5","5","6","5","1","5","2","5","4","4","5","5","5","6","3","3","3","3","3","3","5","3","6","5","5","3","3","5","4","3","3","2","5","3","5","799015908117979137","亓","513","Female","[""坏我"",""好她"",""坏她"",""好我""]","[""弱我"",""强她"",""弱她"",""强我""]","","","","","","","","","","","","","","","","","","","","","","","","","","","","","","","","","","","","","","",""
"","","","preload","3","10481","0.0-2.0","7","6","6","6","6","2","3","4","2","2","5","1","0","0","0","1","1","1","0","5","4","5","4","4","4","4","4","4","4","4","5","3","4","4","4","4","4","5","5","5","4","6","5","3","5","5","6","5","1","5","2","5","4","4","5","5","5","6","3","3","3","3","3","3","5","3","6","5","5","3","3","5","4","3","3","2","5","3","5","799015908117979137","亓","513","Female","[""坏我"",""好她"",""坏她"",""好我""]","[""弱我"",""强她"",""弱她"",""强我""]","","true","false","[]","[]","[]","","","","","","","","","","","","","","","","","","","","","","","","","","","","","","","","",""
"","","","fullscreen","4","76495","0.0-3.0","7","6","6","6","6","2","3","4","2","2","5","1","0","0","0","1","1","1","0","5","4","5","4","4","4","4","4","4","4","4","5","3","4","4","4","4","4","5","5","5","4","6","5","3","5","5","6","5","1","5","2","5","4","4","5","5","5","6","3","3","3","3","3","3","5","3","6","5","5","3","3","5","4","3","3","2","5","3","5","799015908117979137","亓","513","Female","[""坏我"",""好她"",""坏她"",""好我""]","[""弱我"",""强她"",""弱她"",""强我""]","","true","","","","","{}","","","","","","","","","","","","","","","","","","","","","","","","","","","","","","","",""
"8736.299999952316","","{""Q01"":""7"",""Q02"":""6"",""Q03"":""6"",""Q04"":""6"",""Q05"":""6""}","survey-template","5","85233","0.0-4.0","7","6","6","6","6","2","3","4","2","2","5","1","0","0","0","1","1","1","0","5","4","5","4","4","4","4","4","4","4","4","5","3","4","4","4","4","4","5","5","5","4","6","5","3","5","5","6","5","1","5","2","5","4","4","5","5","5","6","3","3","3","3","3","3","5","3","6","5","5","3","3","5","4","3","3","2","5","3","5","799015908117979137","亓","513","Female","[""坏我"",""好她"",""坏她"",""好我""]","[""弱我"",""强她"",""弱她"",""强我""]","","","","","","","","{""Q01"":""7"",""Q02"":""6"",""Q03"":""6"",""Q04"":""6"",""Q05"":""6""}","[0,1,2,3,4]","[""Q01"",""Q02"",""Q03"",""Q04"",""Q05""]","[2559.2999999523163,3808.399999856949,4751.299999952316,5850.599999904633,8019.099999904633]","[]","[2559.2999999523163,3808.399999856949,4751.299999952316,5850.599999904633,8019.099999904633,8735.399999856949]","0.8","0.25","0","","","","","","","","","","","","","","","","","","","","","","",""
"23891.700000047684","","{""Q01"":""2"",""Q02"":""3"",""Q03"":""4"",""Q04"":""2"",""Q05"":""2"",""Q06"":""5""}","survey-template","6","109128","0.0-5.0","7","6","6","6","6","2","3","4","2","2","5","1","0","0","0","1","1","1","0","5","4","5","4","4","4","4","4","4","4","4","5","3","4","4","4","4","4","5","5","5","4","6","5","3","5","5","6","5","1","5","2","5","4","4","5","5","5","6","3","3","3","3","3","3","5","3","6","5","5","3","3","5","4","3","3","2","5","3","5","799015908117979137","亓","513","Female","[""坏我"",""好她"",""坏她"",""好我""]","[""弱我"",""强她"",""弱她"",""强我""]","","","","","","","","{""Q01"":""2"",""Q02"":""3"",""Q03"":""4"",""Q04"":""2"",""Q05"":""2"",""Q06"":""5""}","[0,1,2,3,4,5]","[""Q01"",""Q02"",""Q03"",""Q04"",""Q05"",""Q06""]","[3325.0999999046326,8737.200000047684,10245.299999952316,12069.200000047684,16011.200000047684,19029.200000047684]","[]","[3325.0999999046326,8737.200000047684,10245.299999952316,12069.200000047684,16011.200000047684,19029.200000047684,23891]","0.5","0.6","0","","","","","","","","","","","","","","","","","","","","","","",""
"15661.700000047684","","{""Q01"":""1"",""Q02"":""0"",""Q03"":""0"",""Q04"":""0"",""Q05"":""1"",""Q06"":""1"",""Q07"":""1"",""Q08"":""0""}","survey-template","7","124793","0.0-6.0","7","6","6","6","6","2","3","4","2","2","5","1","0","0","0","1","1","1","0","5","4","5","4","4","4","4","4","4","4","4","5","3","4","4","4","4","4","5","5","5","4","6","5","3","5","5","6","5","1","5","2","5","4","4","5","5","5","6","3","3","3","3","3","3","5","3","6","5","5","3","3","5","4","3","3","2","5","3","5","799015908117979137","亓","513","Female","[""坏我"",""好她"",""坏她"",""好我""]","[""弱我"",""强她"",""弱她"",""强我""]","","","","","","","","{""Q01"":""1"",""Q02"":""0"",""Q03"":""0"",""Q04"":""0"",""Q05"":""1"",""Q06"":""1"",""Q07"":""1"",""Q08"":""0""}","[0,1,2,3,4,5,6,7]","[""Q01"",""Q02"",""Q03"",""Q04"",""Q05"",""Q06"",""Q07"",""Q08""]","[2408.5,4246.299999952316,5528.5,6612.5,7868.299999952316,9040.5,12534.299999952316,14906.099999904633]","[]","[2408.5,4246.299999952316,5528.5,6612.5,7868.299999952316,9040.5,12534.299999952316,14906.099999904633,15660.5]","0.5","0.42857142857142855","0","","","","","","","","","","","","","","","","","","","","","","",""
"3728","
    <p><div style='color:white;font-size:35px; line-height:20px;'>词汇评估任务</div></p><br>
    <p><div style='color:white;font-size:25px; line-height:20px;'>请再次回忆该亲密的朋友，你们至少2年前就认识了，并且最近2年经常见面。</div></p>
    <p><div style='color:white;font-size:25px; line-height:20px;'>在本实验中，您将会看到一些形容词。</div></p>
    <p><div style='color:yellow;font-size:25px; line-height:20px;'>您的任务是判断这些形容词是否符合对您自己或您的朋友的描述。</div></p><p style='font-size:35px'>符合按<span style=""color:lightgreen""> j 键</span>，不符合按<span style=""color:red""> f 键</span></p>","0","html-button-response","8","128524","0.0-7.0-0.0","7","6","6","6","6","2","3","4","2","2","5","1","0","0","0","1","1","1","0","5","4","5","4","4","4","4","4","4","4","4","5","3","4","4","4","4","4","5","5","5","4","6","5","3","5","5","6","5","1","5","2","5","4","4","5","5","5","6","3","3","3","3","3","3","5","3","6","5","5","3","3","5","4","3","3","2","5","3","5","799015908117979137","亓","513","Female","[""坏我"",""好她"",""坏她"",""好我""]","[""弱我"",""强她"",""弱她"",""强我""]","","","","","","","","","","","","","","","","","SRET_EW","EW_instructions","Wed Jan 31 2024 09:14:37 GMT+0800 (GMT+08:00)","","","","","","","","","","","","","","","","","","","",""
"null","","null","psychophysics","9","131529","0.0-7.0-1.0-0.0","7","6","6","6","6","2","3","4","2","2","5","1","0","0","0","1","1","1","0","5","4","5","4","4","4","4","4","4","4","4","5","3","4","4","4","4","4","5","5","5","4","6","5","3","5","5","6","5","1","5","2","5","4","4","5","5","5","6","3","3","3","3","3","3","5","3","6","5","5","3","3","5","4","3","3","2","5","3","5","799015908117979137","亓","513","Female","[""坏我"",""好她"",""坏她"",""好我""]","[""弱我"",""强她"",""弱她"",""强我""]","","","","","","","","","","","","","","","","","SRET_EW","EW_practice","","key","null","16.656111111111144","640","356","朋友","忠实","Positive","morality","","","","","","","","","","",""
"710","","j","psychophysics","10","133241","0.0-7.0-1.0-0.1","7","6","6","6","6","2","3","4","2","2","5","1","0","0","0","1","1","1","0","5","4","5","4","4","4","4","4","4","4","4","5","3","4","4","4","4","4","5","5","5","4","6","5","3","5","5","6","5","1","5","2","5","4","4","5","5","5","6","3","3","3","3","3","3","5","3","6","5","5","3","3","5","4","3","3","2","5","3","5","799015908117979137","亓","513","Female","[""坏我"",""好她"",""坏她"",""好我""]","[""弱我"",""强她"",""弱她"",""强我""]","","","","","","","","yes","","","","","","","","","SRET_EW","EW_practice","","key","j","16.660784313725433","640","356","自己","刻板","Negative","ability","","","","","","","","","","",""
"808","","j","psychophysics","11","135051","0.0-7.0-1.0-0.2","7","6","6","6","6","2","3","4","2","2","5","1","0","0","0","1","1","1","0","5","4","5","4","4","4","4","4","4","4","4","5","3","4","4","4","4","4","5","5","5","4","6","5","3","5","5","6","5","1","5","2","5","4","4","5","5","5","6","3","3","3","3","3","3","5","3","6","5","5","3","3","5","4","3","3","2","5","3","5","799015908117979137","亓","513","Female","[""坏我"",""好她"",""坏她"",""好我""]","[""弱我"",""强她"",""弱她"",""强我""]","","","","","","","","yes","","","","","","","","","SRET_EW","EW_practice","","key","j","16.65462962962974","640","356","自己","严谨","Positive","ability","","","","","","","","","","",""
"788","","j","psychophysics","12","136840","0.0-7.0-1.0-0.3","7","6","6","6","6","2","3","4","2","2","5","1","0","0","0","1","1","1","0","5","4","5","4","4","4","4","4","4","4","4","5","3","4","4","4","4","4","5","5","5","4","6","5","3","5","5","6","5","1","5","2","5","4","4","5","5","5","6","3","3","3","3","3","3","5","3","6","5","5","3","3","5","4","3","3","2","5","3","5","799015908117979137","亓","513","Female","[""坏我"",""好她"",""坏她"",""好我""]","[""弱我"",""强她"",""弱她"",""强我""]","","","","","","","","yes","","","","","","","","","SRET_EW","EW_practice","","key","j","16.65754716981143","640","356","朋友","徇私","Negative","morality","","","","","","","","","","",""
"40673","
    <p><div style='color:white;font-size:35px; line-height:20px;'>请您再次阅读实验要求</div></p><br>
    <p><div style='color:white;font-size:25px; line-height:20px;'>请回忆某一个亲密的朋友，你们至少2年前就认识了，并且最近2年经常见面。</div></p>
    <p><div style='color:white;font-size:25px; line-height:20px;'>在本实验中，您将会看到一些形容词。</div></p>
    <p><div style='color:yellow;font-size:25px; line-height:20px;'>您的任务是判断这些形容词是否符合对您自己或您的朋友的描述。</div></p>
    <p><div class='footer' style='font-size:25px; line-height:20px;'>如果对本实验还有不清楚之处，请立即向实验员咨询。</p><p style='font-size:25px; line-height:20px;'>如果您明白了规则：</p><p style='font-size:22px; line-height:20px;'>请按 继续 进入正式实验</p>
    </div>
    <p style='font-size:35px'>符合按<span style=""color:lightgreen""> j 键</span>，不符合按<span style=""color:red""> f 键</span></p>","0","html-button-response","13","177514","0.0-7.0-2.0","7","6","6","6","6","2","3","4","2","2","5","1","0","0","0","1","1","1","0","5","4","5","4","4","4","4","4","4","4","4","5","3","4","4","4","4","4","5","5","5","4","6","5","3","5","5","6","5","1","5","2","5","4","4","5","5","5","6","3","3","3","3","3","3","5","3","6","5","5","3","3","5","4","3","3","2","5","3","5","799015908117979137","亓","513","Female","[""坏我"",""好她"",""坏她"",""好我""]","[""弱我"",""强她"",""弱她"",""强我""]","","","","","","","","","","","","","","","","","SRET_EW","prac_instructions","Wed Jan 31 2024 09:14:37 GMT+0800 (GMT+08:00)","","","","","","","","","","","","","","","","","","","",""
"912","","f","psychophysics","14","179428","0.0-7.0-3.0-0.0","7","6","6","6","6","2","3","4","2","2","5","1","0","0","0","1","1","1","0","5","4","5","4","4","4","4","4","4","4","4","5","3","4","4","4","4","4","5","5","5","4","6","5","3","5","5","6","5","1","5","2","5","4","4","5","5","5","6","3","3","3","3","3","3","5","3","6","5","5","3","3","5","4","3","3","2","5","3","5","799015908117979137","亓","513","Female","[""坏我"",""好她"",""坏她"",""好我""]","[""弱我"",""强她"",""弱她"",""强我""]","","","","","","","","no","","","","","","","","","SRET","EW_formal","","key","f","16.658260869565066","640","356","自己","说谎","Negative","morality","","","","","","","","","","",""
"1032","","f","psychophysics","15","181461","0.0-7.0-3.0-0.1","7","6","6","6","6","2","3","4","2","2","5","1","0","0","0","1","1","1","0","5","4","5","4","4","4","4","4","4","4","4","5","3","4","4","4","4","4","5","5","5","4","6","5","3","5","5","6","5","1","5","2","5","4","4","5","5","5","6","3","3","3","3","3","3","5","3","6","5","5","3","3","5","4","3","3","2","5","3","5","799015908117979137","亓","513","Female","[""坏我"",""好她"",""坏她"",""好我""]","[""弱我"",""强她"",""弱她"",""强我""]","","","","","","","","no","","","","","","","","","SRET","EW_formal","","key","f","16.65454545454531","640","356","朋友","迷糊","Negative","ability","","","","","","","","","","",""
"773","","j","psychophysics","16","183237","0.0-7.0-3.0-0.2","7","6","6","6","6","2","3","4","2","2","5","1","0","0","0","1","1","1","0","5","4","5","4","4","4","4","4","4","4","4","5","3","4","4","4","4","4","5","5","5","4","6","5","3","5","5","6","5","1","5","2","5","4","4","5","5","5","6","3","3","3","3","3","3","5","3","6","5","5","3","3","5","4","3","3","2","5","3","5","799015908117979137","亓","513","Female","[""坏我"",""好她"",""坏她"",""好我""]","[""弱我"",""强她"",""弱她"",""强我""]","","","","","","","","yes","","","","","","","","","SRET","EW_formal","","key","j","16.65714285714286","640","356","自己","坚贞","Positive","morality","","","","","","","","","","",""
"718","","j","psychophysics","17","184956","0.0-7.0-3.0-0.3","7","6","6","6","6","2","3","4","2","2","5","1","0","0","0","1","1","1","0","5","4","5","4","4","4","4","4","4","4","4","5","3","4","4","4","4","4","5","5","5","4","6","5","3","5","5","6","5","1","5","2","5","4","4","5","5","5","6","3","3","3","3","3","3","5","3","6","5","5","3","3","5","4","3","3","2","5","3","5","799015908117979137","亓","513","Female","[""坏我"",""好她"",""坏她"",""好我""]","[""弱我"",""强她"",""弱她"",""强我""]","","","","","","","","yes","","","","","","","","","SRET","EW_formal","","key","j","16.650000000000173","640","356","朋友","务实","Positive","ability","","","","","","","","","","",""
"875","","f","psychophysics","18","186832","0.0-7.0-3.0-0.4","7","6","6","6","6","2","3","4","2","2","5","1","0","0","0","1","1","1","0","5","4","5","4","4","4","4","4","4","4","4","5","3","4","4","4","4","4","5","5","5","4","6","5","3","5","5","6","5","1","5","2","5","4","4","5","5","5","6","3","3","3","3","3","3","5","3","6","5","5","3","3","5","4","3","3","2","5","3","5","799015908117979137","亓","513","Female","[""坏我"",""好她"",""坏她"",""好我""]","[""弱我"",""强她"",""弱她"",""强我""]","","","","","","","","no","","","","","","","","","SRET","EW_formal","","key","f","16.663392857142753","640","356","自己","废物","Negative","ability","","","","","","","","","","",""
"841","","j","psychophysics","19","188679","0.0-7.0-3.0-0.5","7","6","6","6","6","2","3","4","2","2","5","1","0","0","0","1","1","1","0","5","4","5","4","4","4","4","4","4","4","4","5","3","4","4","4","4","4","5","5","5","4","6","5","3","5","5","6","5","1","5","2","5","4","4","5","5","5","6","3","3","3","3","3","3","5","3","6","5","5","3","3","5","4","3","3","2","5","3","5","799015908117979137","亓","513","Female","[""坏我"",""好她"",""坏她"",""好我""]","[""弱我"",""强她"",""弱她"",""强我""]","","","","","","","","yes","","","","","","","","","SRET","EW_formal","","key","j","16.657272727272886","640","356","朋友","君子","Positive","morality","","","","","","","","","","",""
"838","","j","psychophysics","20","190524","0.0-7.0-3.0-0.6","7","6","6","6","6","2","3","4","2","2","5","1","0","0","0","1","1","1","0","5","4","5","4","4","4","4","4","4","4","4","5","3","4","4","4","4","4","5","5","5","4","6","5","3","5","5","6","5","1","5","2","5","4","4","5","5","5","6","3","3","3","3","3","3","5","3","6","5","5","3","3","5","4","3","3","2","5","3","5","799015908117979137","亓","513","Female","[""坏我"",""好她"",""坏她"",""好我""]","[""弱我"",""强她"",""弱她"",""强我""]","","","","","","","","yes","","","","","","","","","SRET","EW_formal","","key","j","16.660909090908934","640","356","自己","思辨","Positive","ability","","","","","","","","","","",""
"985","","j","psychophysics","21","192510","0.0-7.0-3.0-0.7","7","6","6","6","6","2","3","4","2","2","5","1","0","0","0","1","1","1","0","5","4","5","4","4","4","4","4","4","4","4","5","3","4","4","4","4","4","5","5","5","4","6","5","3","5","5","6","5","1","5","2","5","4","4","5","5","5","6","3","3","3","3","3","3","5","3","6","5","5","3","3","5","4","3","3","2","5","3","5","799015908117979137","亓","513","Female","[""坏我"",""好她"",""坏她"",""好我""]","[""弱我"",""强她"",""弱她"",""强我""]","","","","","","","","yes","","","","","","","","","SRET","EW_formal","","key","j","16.658474576271285","640","356","自己","廉明","Positive","morality","","","","","","","","","","",""
"880","","f","psychophysics","22","194392","0.0-7.0-3.0-0.8","7","6","6","6","6","2","3","4","2","2","5","1","0","0","0","1","1","1","0","5","4","5","4","4","4","4","4","4","4","4","5","3","4","4","4","4","4","5","5","5","4","6","5","3","5","5","6","5","1","5","2","5","4","4","5","5","5","6","3","3","3","3","3","3","5","3","6","5","5","3","3","5","4","3","3","2","5","3","5","799015908117979137","亓","513","Female","[""坏我"",""好她"",""坏她"",""好我""]","[""弱我"",""强她"",""弱她"",""强我""]","","","","","","","","no","","","","","","","","","SRET","EW_formal","","key","f","16.657142857142908","640","356","自己","愚钝","Negative","ability","","","","","","","","","","",""
"1549","","f","psychophysics","23","196944","0.0-7.0-3.0-0.9","7","6","6","6","6","2","3","4","2","2","5","1","0","0","0","1","1","1","0","5","4","5","4","4","4","4","4","4","4","4","5","3","4","4","4","4","4","5","5","5","4","6","5","3","5","5","6","5","1","5","2","5","4","4","5","5","5","6","3","3","3","3","3","3","5","3","6","5","5","3","3","5","4","3","3","2","5","3","5","799015908117979137","亓","513","Female","[""坏我"",""好她"",""坏她"",""好我""]","[""弱我"",""强她"",""弱她"",""强我""]","","","","","","","","no","","","","","","","","","SRET","EW_formal","","key","f","16.658552631578985","640","356","自己","盲目","Negative","ability","","","","","","","","","","",""
"858","","j","psychophysics","24","198803","0.0-7.0-3.0-0.10","7","6","6","6","6","2","3","4","2","2","5","1","0","0","0","1","1","1","0","5","4","5","4","4","4","4","4","4","4","4","5","3","4","4","4","4","4","5","5","5","4","6","5","3","5","5","6","5","1","5","2","5","4","4","5","5","5","6","3","3","3","3","3","3","5","3","6","5","5","3","3","5","4","3","3","2","5","3","5","799015908117979137","亓","513","Female","[""坏我"",""好她"",""坏她"",""好我""]","[""弱我"",""强她"",""弱她"",""强我""]","","","","","","","","yes","","","","","","","","","SRET","EW_formal","","key","j","16.66126126126121","640","356","自己","努力","Positive","ability","","","","","","","","","","",""
"828","","j","psychophysics","25","200632","0.0-7.0-3.0-0.11","7","6","6","6","6","2","3","4","2","2","5","1","0","0","0","1","1","1","0","5","4","5","4","4","4","4","4","4","4","4","5","3","4","4","4","4","4","5","5","5","4","6","5","3","5","5","6","5","1","5","2","5","4","4","5","5","5","6","3","3","3","3","3","3","5","3","6","5","5","3","3","5","4","3","3","2","5","3","5","799015908117979137","亓","513","Female","[""坏我"",""好她"",""坏她"",""好我""]","[""弱我"",""强她"",""弱她"",""强我""]","","","","","","","","yes","","","","","","","","","SRET","EW_formal","","key","j","16.65321100917442","640","356","自己","忠良","Positive","morality","","","","","","","","","","",""
"849","","f","psychophysics","26","202483","0.0-7.0-3.0-0.12","7","6","6","6","6","2","3","4","2","2","5","1","0","0","0","1","1","1","0","5","4","5","4","4","4","4","4","4","4","4","5","3","4","4","4","4","4","5","5","5","4","6","5","3","5","5","6","5","1","5","2","5","4","4","5","5","5","6","3","3","3","3","3","3","5","3","6","5","5","3","3","5","4","3","3","2","5","3","5","799015908117979137","亓","513","Female","[""坏我"",""好她"",""坏她"",""好我""]","[""弱我"",""强她"",""弱她"",""强我""]","","","","","","","","no","","","","","","","","","SRET","EW_formal","","key","f","16.663636363636364","640","356","朋友","不良","Negative","morality","","","","","","","","","","",""
"666","","j","psychophysics","27","204151","0.0-7.0-3.0-0.13","7","6","6","6","6","2","3","4","2","2","5","1","0","0","0","1","1","1","0","5","4","5","4","4","4","4","4","4","4","4","5","3","4","4","4","4","4","5","5","5","4","6","5","3","5","5","6","5","1","5","2","5","4","4","5","5","5","6","3","3","3","3","3","3","5","3","6","5","5","3","3","5","4","3","3","2","5","3","5","799015908117979137","亓","513","Female","[""坏我"",""好她"",""坏她"",""好我""]","[""弱我"",""强她"",""弱她"",""强我""]","","","","","","","","yes","","","","","","","","","SRET","EW_formal","","key","j","16.657575757575817","640","356","自己","聪明","Positive","ability","","","","","","","","","","",""
"903","","f","psychophysics","28","206055","0.0-7.0-3.0-0.14","7","6","6","6","6","2","3","4","2","2","5","1","0","0","0","1","1","1","0","5","4","5","4","4","4","4","4","4","4","4","5","3","4","4","4","4","4","5","5","5","4","6","5","3","5","5","6","5","1","5","2","5","4","4","5","5","5","6","3","3","3","3","3","3","5","3","6","5","5","3","3","5","4","3","3","2","5","3","5","799015908117979137","亓","513","Female","[""坏我"",""好她"",""坏她"",""好我""]","[""弱我"",""强她"",""弱她"",""强我""]","","","","","","","","no","","","","","","","","","SRET","EW_formal","","key","f","16.65132743362837","640","356","朋友","短视","Negative","ability","","","","","","","","","","",""
"1117","","j","psychophysics","29","208172","0.0-7.0-3.0-0.15","7","6","6","6","6","2","3","4","2","2","5","1","0","0","0","1","1","1","0","5","4","5","4","4","4","4","4","4","4","4","5","3","4","4","4","4","4","5","5","5","4","6","5","3","5","5","6","5","1","5","2","5","4","4","5","5","5","6","3","3","3","3","3","3","5","3","6","5","5","3","3","5","4","3","3","2","5","3","5","799015908117979137","亓","513","Female","[""坏我"",""好她"",""坏她"",""好我""]","[""弱我"",""强她"",""弱她"",""强我""]","","","","","","","","yes","","","","","","","","","SRET","EW_formal","","key","j","16.657936507936462","640","356","自己","利己","Negative","morality","","","","","","","","","","",""
"694","","j","psychophysics","30","209868","0.0-7.0-3.0-0.16","7","6","6","6","6","2","3","4","2","2","5","1","0","0","0","1","1","1","0","5","4","5","4","4","4","4","4","4","4","4","5","3","4","4","4","4","4","5","5","5","4","6","5","3","5","5","6","5","1","5","2","5","4","4","5","5","5","6","3","3","3","3","3","3","5","3","6","5","5","3","3","5","4","3","3","2","5","3","5","799015908117979137","亓","513","Female","[""坏我"",""好她"",""坏她"",""好我""]","[""弱我"",""强她"",""弱她"",""强我""]","","","","","","","","yes","","","","","","","","","SRET","EW_formal","","key","j","16.66534653465358","640","356","自己","守时","Positive","morality","","","","","","","","","","",""
"1018","","j","psychophysics","31","211887","0.0-7.0-3.0-0.17","7","6","6","6","6","2","3","4","2","2","5","1","0","0","0","1","1","1","0","5","4","5","4","4","4","4","4","4","4","4","5","3","4","4","4","4","4","5","5","5","4","6","5","3","5","5","6","5","1","5","2","5","4","4","5","5","5","6","3","3","3","3","3","3","5","3","6","5","5","3","3","5","4","3","3","2","5","3","5","799015908117979137","亓","513","Female","[""坏我"",""好她"",""坏她"",""好我""]","[""弱我"",""强她"",""弱她"",""强我""]","","","","","","","","yes","","","","","","","","","SRET","EW_formal","","key","j","16.658333333333335","640","356","朋友","上进","Positive","ability","","","","","","","","","","",""
"705","","j","psychophysics","32","213594","0.0-7.0-3.0-0.18","7","6","6","6","6","2","3","4","2","2","5","1","0","0","0","1","1","1","0","5","4","5","4","4","4","4","4","4","4","4","5","3","4","4","4","4","4","5","5","5","4","6","5","3","5","5","6","5","1","5","2","5","4","4","5","5","5","6","3","3","3","3","3","3","5","3","6","5","5","3","3","5","4","3","3","2","5","3","5","799015908117979137","亓","513","Female","[""坏我"",""好她"",""坏她"",""好我""]","[""弱我"",""强她"",""弱她"",""强我""]","","","","","","","","yes","","","","","","","","","SRET","EW_formal","","key","j","16.664705882352827","640","356","朋友","文明","Positive","morality","","","","","","","","","","",""
"826","","f","psychophysics","33","215421","0.0-7.0-3.0-0.19","7","6","6","6","6","2","3","4","2","2","5","1","0","0","0","1","1","1","0","5","4","5","4","4","4","4","4","4","4","4","5","3","4","4","4","4","4","5","5","5","4","6","5","3","5","5","6","5","1","5","2","5","4","4","5","5","5","6","3","3","3","3","3","3","5","3","6","5","5","3","3","5","4","3","3","2","5","3","5","799015908117979137","亓","513","Female","[""坏我"",""好她"",""坏她"",""好我""]","[""弱我"",""强她"",""弱她"",""强我""]","","","","","","","","no","","","","","","","","","SRET","EW_formal","","key","f","16.65648148148143","640","356","自己","弱智","Negative","ability","","","","","","","","","","",""
"1015","","f","psychophysics","34","217437","0.0-7.0-3.0-0.20","7","6","6","6","6","2","3","4","2","2","5","1","0","0","0","1","1","1","0","5","4","5","4","4","4","4","4","4","4","4","5","3","4","4","4","4","4","5","5","5","4","6","5","3","5","5","6","5","1","5","2","5","4","4","5","5","5","6","3","3","3","3","3","3","5","3","6","5","5","3","3","5","4","3","3","2","5","3","5","799015908117979137","亓","513","Female","[""坏我"",""好她"",""坏她"",""好我""]","[""弱我"",""强她"",""弱她"",""强我""]","","","","","","","","no","","","","","","","","","SRET","EW_formal","","key","f","16.65583333333343","640","356","朋友","贪腐","Negative","morality","","","","","","","","","","",""
"959","","f","psychophysics","35","219397","0.0-7.0-3.0-0.21","7","6","6","6","6","2","3","4","2","2","5","1","0","0","0","1","1","1","0","5","4","5","4","4","4","4","4","4","4","4","5","3","4","4","4","4","4","5","5","5","4","6","5","3","5","5","6","5","1","5","2","5","4","4","5","5","5","6","3","3","3","3","3","3","5","3","6","5","5","3","3","5","4","3","3","2","5","3","5","799015908117979137","亓","513","Female","[""坏我"",""好她"",""坏她"",""好我""]","[""弱我"",""强她"",""弱她"",""强我""]","","","","","","","","no","","","","","","","","","SRET","EW_formal","","key","f","16.66068376068366","640","356","朋友","无助","Negative","ability","","","","","","","","","","",""
"968","","j","psychophysics","36","221367","0.0-7.0-3.0-0.22","7","6","6","6","6","2","3","4","2","2","5","1","0","0","0","1","1","1","0","5","4","5","4","4","4","4","4","4","4","4","5","3","4","4","4","4","4","5","5","5","4","6","5","3","5","5","6","5","1","5","2","5","4","4","5","5","5","6","3","3","3","3","3","3","5","3","6","5","5","3","3","5","4","3","3","2","5","3","5","799015908117979137","亓","513","Female","[""坏我"",""好她"",""坏她"",""好我""]","[""弱我"",""强她"",""弱她"",""强我""]","","","","","","","","yes","","","","","","","","","SRET","EW_formal","","key","j","16.66068376068366","640","356","朋友","孝顺","Positive","morality","","","","","","","","","","",""
"779","","j","psychophysics","37","223146","0.0-7.0-3.0-0.23","7","6","6","6","6","2","3","4","2","2","5","1","0","0","0","1","1","1","0","5","4","5","4","4","4","4","4","4","4","4","5","3","4","4","4","4","4","5","5","5","4","6","5","3","5","5","6","5","1","5","2","5","4","4","5","5","5","6","3","3","3","3","3","3","5","3","6","5","5","3","3","5","4","3","3","2","5","3","5","799015908117979137","亓","513","Female","[""坏我"",""好她"",""坏她"",""好我""]","[""弱我"",""强她"",""弱她"",""强我""]","","","","","","","","yes","","","","","","","","","SRET","EW_formal","","key","j","16.662264150943507","640","356","自己","守信","Positive","morality","","","","","","","","","","",""
"960","","j","psychophysics","38","225107","0.0-7.0-3.0-0.24","7","6","6","6","6","2","3","4","2","2","5","1","0","0","0","1","1","1","0","5","4","5","4","4","4","4","4","4","4","4","5","3","4","4","4","4","4","5","5","5","4","6","5","3","5","5","6","5","1","5","2","5","4","4","5","5","5","6","3","3","3","3","3","3","5","3","6","5","5","3","3","5","4","3","3","2","5","3","5","799015908117979137","亓","513","Female","[""坏我"",""好她"",""坏她"",""好我""]","[""弱我"",""强她"",""弱她"",""强我""]","","","","","","","","yes","","","","","","","","","SRET","EW_formal","","key","j","16.664102564102414","640","356","自己","伪善","Negative","morality","","","","","","","","","","",""
"934","","f","psychophysics","39","227043","0.0-7.0-3.0-0.25","7","6","6","6","6","2","3","4","2","2","5","1","0","0","0","1","1","1","0","5","4","5","4","4","4","4","4","4","4","4","5","3","4","4","4","4","4","5","5","5","4","6","5","3","5","5","6","5","1","5","2","5","4","4","5","5","5","6","3","3","3","3","3","3","5","3","6","5","5","3","3","5","4","3","3","2","5","3","5","799015908117979137","亓","513","Female","[""坏我"",""好她"",""坏她"",""好我""]","[""弱我"",""强她"",""弱她"",""强我""]","","","","","","","","no","","","","","","","","","SRET","EW_formal","","key","f","16.656521739130437","640","356","朋友","不孝","Negative","morality","","","","","","","","","","",""
"1113","","f","psychophysics","40","229156","0.0-7.0-3.0-0.26","7","6","6","6","6","2","3","4","2","2","5","1","0","0","0","1","1","1","0","5","4","5","4","4","4","4","4","4","4","4","5","3","4","4","4","4","4","5","5","5","4","6","5","3","5","5","6","5","1","5","2","5","4","4","5","5","5","6","3","3","3","3","3","3","5","3","6","5","5","3","3","5","4","3","3","2","5","3","5","799015908117979137","亓","513","Female","[""坏我"",""好她"",""坏她"",""好我""]","[""弱我"",""强她"",""弱她"",""强我""]","","","","","","","","no","","","","","","","","","SRET","EW_formal","","key","f","16.66349206349211","640","356","自己","逞强","Negative","ability","","","","","","","","","","",""
"812","","f","psychophysics","41","230969","0.0-7.0-3.0-0.27","7","6","6","6","6","2","3","4","2","2","5","1","0","0","0","1","1","1","0","5","4","5","4","4","4","4","4","4","4","4","5","3","4","4","4","4","4","5","5","5","4","6","5","3","5","5","6","5","1","5","2","5","4","4","5","5","5","6","3","3","3","3","3","3","5","3","6","5","5","3","3","5","4","3","3","2","5","3","5","799015908117979137","亓","513","Female","[""坏我"",""好她"",""坏她"",""好我""]","[""弱我"",""强她"",""弱她"",""强我""]","","","","","","","","no","","","","","","","","","SRET","EW_formal","","key","f","16.65740740740741","640","356","自己","黑心","Negative","morality","","","","","","","","","","",""
"1100","","f","psychophysics","42","233070","0.0-7.0-3.0-0.28","7","6","6","6","6","2","3","4","2","2","5","1","0","0","0","1","1","1","0","5","4","5","4","4","4","4","4","4","4","4","5","3","4","4","4","4","4","5","5","5","4","6","5","3","5","5","6","5","1","5","2","5","4","4","5","5","5","6","3","3","3","3","3","3","5","3","6","5","5","3","3","5","4","3","3","2","5","3","5","799015908117979137","亓","513","Female","[""坏我"",""好她"",""坏她"",""好我""]","[""弱我"",""强她"",""弱她"",""强我""]","","","","","","","","no","","","","","","","","","SRET","EW_formal","","key","f","16.65840000000014","640","356","自己","沉着","Positive","ability","","","","","","","","","","",""
"755","","j","psychophysics","43","234826","0.0-7.0-3.0-0.29","7","6","6","6","6","2","3","4","2","2","5","1","0","0","0","1","1","1","0","5","4","5","4","4","4","4","4","4","4","4","5","3","4","4","4","4","4","5","5","5","4","6","5","3","5","5","6","5","1","5","2","5","4","4","5","5","5","6","3","3","3","3","3","3","5","3","6","5","5","3","3","5","4","3","3","2","5","3","5","799015908117979137","亓","513","Female","[""坏我"",""好她"",""坏她"",""好我""]","[""弱我"",""强她"",""弱她"",""强我""]","","","","","","","","yes","","","","","","","","","SRET","EW_formal","","key","j","16.65769230769225","640","356","自己","扎实","Positive","ability","","","","","","","","","","",""
"666","","j","psychophysics","44","236493","0.0-7.0-3.0-0.30","7","6","6","6","6","2","3","4","2","2","5","1","0","0","0","1","1","1","0","5","4","5","4","4","4","4","4","4","4","4","5","3","4","4","4","4","4","5","5","5","4","6","5","3","5","5","6","5","1","5","2","5","4","4","5","5","5","6","3","3","3","3","3","3","5","3","6","5","5","3","3","5","4","3","3","2","5","3","5","799015908117979137","亓","513","Female","[""坏我"",""好她"",""坏她"",""好我""]","[""弱我"",""强她"",""弱她"",""强我""]","","","","","","","","yes","","","","","","","","","SRET","EW_formal","","key","j","16.663636363636186","640","356","自己","勤奋","Positive","ability","","","","","","","","","","",""
"602","","j","psychophysics","45","238096","0.0-7.0-3.0-0.31","7","6","6","6","6","2","3","4","2","2","5","1","0","0","0","1","1","1","0","5","4","5","4","4","4","4","4","4","4","4","5","3","4","4","4","4","4","5","5","5","4","6","5","3","5","5","6","5","1","5","2","5","4","4","5","5","5","6","3","3","3","3","3","3","5","3","6","5","5","3","3","5","4","3","3","2","5","3","5","799015908117979137","亓","513","Female","[""坏我"",""好她"",""坏她"",""好我""]","[""弱我"",""强她"",""弱她"",""强我""]","","","","","","","","yes","","","","","","","","","SRET","EW_formal","","key","j","16.661458333333332","640","356","自己","忠诚","Positive","morality","","","","","","","","","","",""
"728","","j","psychophysics","46","239825","0.0-7.0-3.0-0.32","7","6","6","6","6","2","3","4","2","2","5","1","0","0","0","1","1","1","0","5","4","5","4","4","4","4","4","4","4","4","5","3","4","4","4","4","4","5","5","5","4","6","5","3","5","5","6","5","1","5","2","5","4","4","5","5","5","6","3","3","3","3","3","3","5","3","6","5","5","3","3","5","4","3","3","2","5","3","5","799015908117979137","亓","513","Female","[""坏我"",""好她"",""坏她"",""好我""]","[""弱我"",""强她"",""弱她"",""强我""]","","","","","","","","yes","","","","","","","","","SRET","EW_formal","","key","j","16.657843137254957","640","356","朋友","敏捷","Positive","ability","","","","","","","","","","",""
"884","","j","psychophysics","47","241709","0.0-7.0-3.0-0.33","7","6","6","6","6","2","3","4","2","2","5","1","0","0","0","1","1","1","0","5","4","5","4","4","4","4","4","4","4","4","5","3","4","4","4","4","4","5","5","5","4","6","5","3","5","5","6","5","1","5","2","5","4","4","5","5","5","6","3","3","3","3","3","3","5","3","6","5","5","3","3","5","4","3","3","2","5","3","5","799015908117979137","亓","513","Female","[""坏我"",""好她"",""坏她"",""好我""]","[""弱我"",""强她"",""弱她"",""强我""]","","","","","","","","yes","","","","","","","","","SRET","EW_formal","","key","j","16.65752212389396","640","356","朋友","勤恳","Positive","morality","","","","","","","","","","",""
"1005","","j","psychophysics","48","243715","0.0-7.0-3.0-0.34","7","6","6","6","6","2","3","4","2","2","5","1","0","0","0","1","1","1","0","5","4","5","4","4","4","4","4","4","4","4","5","3","4","4","4","4","4","5","5","5","4","6","5","3","5","5","6","5","1","5","2","5","4","4","5","5","5","6","3","3","3","3","3","3","5","3","6","5","5","3","3","5","4","3","3","2","5","3","5","799015908117979137","亓","513","Female","[""坏我"",""好她"",""坏她"",""好我""]","[""弱我"",""强她"",""弱她"",""强我""]","","","","","","","","yes","","","","","","","","","SRET","EW_formal","","key","j","16.657142857142954","640","356","朋友","高效","Positive","ability","","","","","","","","","","",""
"903","","f","psychophysics","49","245620","0.0-7.0-3.0-0.35","7","6","6","6","6","2","3","4","2","2","5","1","0","0","0","1","1","1","0","5","4","5","4","4","4","4","4","4","4","4","5","3","4","4","4","4","4","5","5","5","4","6","5","3","5","5","6","5","1","5","2","5","4","4","5","5","5","6","3","3","3","3","3","3","5","3","6","5","5","3","3","5","4","3","3","2","5","3","5","799015908117979137","亓","513","Female","[""坏我"",""好她"",""坏她"",""好我""]","[""弱我"",""强她"",""弱她"",""强我""]","","","","","","","","no","","","","","","","","","SRET","EW_formal","","key","f","16.656637168141437","640","356","朋友","混账","Negative","morality","","","","","","","","","","",""
"696","","j","psychophysics","50","247318","0.0-7.0-3.0-0.36","7","6","6","6","6","2","3","4","2","2","5","1","0","0","0","1","1","1","0","5","4","5","4","4","4","4","4","4","4","4","5","3","4","4","4","4","4","5","5","5","4","6","5","3","5","5","6","5","1","5","2","5","4","4","5","5","5","6","3","3","3","3","3","3","5","3","6","5","5","3","3","5","4","3","3","2","5","3","5","799015908117979137","亓","513","Female","[""坏我"",""好她"",""坏她"",""好我""]","[""弱我"",""强她"",""弱她"",""强我""]","","","","","","","","yes","","","","","","","","","SRET","EW_formal","","key","j","16.662376237623704","640","356","朋友","慷慨","Positive","morality","","","","","","","","","","",""
"827","","j","psychophysics","51","249146","0.0-7.0-3.0-0.37","7","6","6","6","6","2","3","4","2","2","5","1","0","0","0","1","1","1","0","5","4","5","4","4","4","4","4","4","4","4","5","3","4","4","4","4","4","5","5","5","4","6","5","3","5","5","6","5","1","5","2","5","4","4","5","5","5","6","3","3","3","3","3","3","5","3","6","5","5","3","3","5","4","3","3","2","5","3","5","799015908117979137","亓","513","Female","[""坏我"",""好她"",""坏她"",""好我""]","[""弱我"",""强她"",""弱她"",""强我""]","","","","","","","","yes","","","","","","","","","SRET","EW_formal","","key","j","16.66146788990831","640","356","朋友","义气","Positive","morality","","","","","","","","","","",""
"1258","","j","psychophysics","52","251406","0.0-7.0-3.0-0.38","7","6","6","6","6","2","3","4","2","2","5","1","0","0","0","1","1","1","0","5","4","5","4","4","4","4","4","4","4","4","5","3","4","4","4","4","4","5","5","5","4","6","5","3","5","5","6","5","1","5","2","5","4","4","5","5","5","6","3","3","3","3","3","3","5","3","6","5","5","3","3","5","4","3","3","2","5","3","5","799015908117979137","亓","513","Female","[""坏我"",""好她"",""坏她"",""好我""]","[""弱我"",""强她"",""弱她"",""强我""]","","","","","","","","yes","","","","","","","","","SRET","EW_formal","","key","j","16.657037037036908","640","356","朋友","业余","Negative","ability","","","","","","","","","","",""
"784","","f","psychophysics","53","253191","0.0-7.0-3.0-0.39","7","6","6","6","6","2","3","4","2","2","5","1","0","0","0","1","1","1","0","5","4","5","4","4","4","4","4","4","4","4","5","3","4","4","4","4","4","5","5","5","4","6","5","3","5","5","6","5","1","5","2","5","4","4","5","5","5","6","3","3","3","3","3","3","5","3","6","5","5","3","3","5","4","3","3","2","5","3","5","799015908117979137","亓","513","Female","[""坏我"",""好她"",""坏她"",""好我""]","[""弱我"",""强她"",""弱她"",""强我""]","","","","","","","","no","","","","","","","","","SRET","EW_formal","","key","f","16.65754716981143","640","356","自己","刻薄","Negative","morality","","","","","","","","","","",""
"822","","j","psychophysics","54","255014","0.0-7.0-3.0-0.40","7","6","6","6","6","2","3","4","2","2","5","1","0","0","0","1","1","1","0","5","4","5","4","4","4","4","4","4","4","4","5","3","4","4","4","4","4","5","5","5","4","6","5","3","5","5","6","5","1","5","2","5","4","4","5","5","5","6","3","3","3","3","3","3","5","3","6","5","5","3","3","5","4","3","3","2","5","3","5","799015908117979137","亓","513","Female","[""坏我"",""好她"",""坏她"",""好我""]","[""弱我"",""强她"",""弱她"",""强我""]","","","","","","","","yes","","","","","","","","","SRET","EW_formal","","key","j","16.65833333333339","640","356","朋友","中用","Positive","ability","","","","","","","","","","",""
"710","","j","psychophysics","55","256726","0.0-7.0-3.0-0.41","7","6","6","6","6","2","3","4","2","2","5","1","0","0","0","1","1","1","0","5","4","5","4","4","4","4","4","4","4","4","5","3","4","4","4","4","4","5","5","5","4","6","5","3","5","5","6","5","1","5","2","5","4","4","5","5","5","6","3","3","3","3","3","3","5","3","6","5","5","3","3","5","4","3","3","2","5","3","5","799015908117979137","亓","513","Female","[""坏我"",""好她"",""坏她"",""好我""]","[""弱我"",""强她"",""弱她"",""强我""]","","","","","","","","yes","","","","","","","","","SRET","EW_formal","","key","j","16.645098039215856","640","356","朋友","自律","Positive","ability","","","","","","","","","","",""
"1047","","f","psychophysics","56","258775","0.0-7.0-3.0-0.42","7","6","6","6","6","2","3","4","2","2","5","1","0","0","0","1","1","1","0","5","4","5","4","4","4","4","4","4","4","4","5","3","4","4","4","4","4","5","5","5","4","6","5","3","5","5","6","5","1","5","2","5","4","4","5","5","5","6","3","3","3","3","3","3","5","3","6","5","5","3","3","5","4","3","3","2","5","3","5","799015908117979137","亓","513","Female","[""坏我"",""好她"",""坏她"",""好我""]","[""弱我"",""强她"",""弱她"",""强我""]","","","","","","","","no","","","","","","","","","SRET","EW_formal","","key","f","16.661475409835923","640","356","朋友","奸诈","Negative","morality","","","","","","","","","","",""
"1374","","j","psychophysics","57","261150","0.0-7.0-3.0-0.43","7","6","6","6","6","2","3","4","2","2","5","1","0","0","0","1","1","1","0","5","4","5","4","4","4","4","4","4","4","4","5","3","4","4","4","4","4","5","5","5","4","6","5","3","5","5","6","5","1","5","2","5","4","4","5","5","5","6","3","3","3","3","3","3","5","3","6","5","5","3","3","5","4","3","3","2","5","3","5","799015908117979137","亓","513","Female","[""坏我"",""好她"",""坏她"",""好我""]","[""弱我"",""强她"",""弱她"",""强我""]","","","","","","","","yes","","","","","","","","","SRET","EW_formal","","key","j","16.66126760563376","640","356","自己","智慧","Positive","ability","","","","","","","","","","",""
"943","","j","psychophysics","58","263094","0.0-7.0-3.0-0.44","7","6","6","6","6","2","3","4","2","2","5","1","0","0","0","1","1","1","0","5","4","5","4","4","4","4","4","4","4","4","5","3","4","4","4","4","4","5","5","5","4","6","5","3","5","5","6","5","1","5","2","5","4","4","5","5","5","6","3","3","3","3","3","3","5","3","6","5","5","3","3","5","4","3","3","2","5","3","5","799015908117979137","亓","513","Female","[""坏我"",""好她"",""坏她"",""好我""]","[""弱我"",""强她"",""弱她"",""强我""]","","","","","","","","yes","","","","","","","","","SRET","EW_formal","","key","j","16.660000000000203","640","356","自己","忠义","Positive","morality","","","","","","","","","","",""
"1027","","f","psychophysics","59","265123","0.0-7.0-3.0-0.45","7","6","6","6","6","2","3","4","2","2","5","1","0","0","0","1","1","1","0","5","4","5","4","4","4","4","4","4","4","4","5","3","4","4","4","4","4","5","5","5","4","6","5","3","5","5","6","5","1","5","2","5","4","4","5","5","5","6","3","3","3","3","3","3","5","3","6","5","5","3","3","5","4","3","3","2","5","3","5","799015908117979137","亓","513","Female","[""坏我"",""好她"",""坏她"",""好我""]","[""弱我"",""强她"",""弱她"",""强我""]","","","","","","","","no","","","","","","","","","SRET","EW_formal","","key","f","16.66033057851211","640","356","朋友","无赖","Negative","morality","","","","","","","","","","",""
"826","","j","psychophysics","60","266952","0.0-7.0-3.0-0.46","7","6","6","6","6","2","3","4","2","2","5","1","0","0","0","1","1","1","0","5","4","5","4","4","4","4","4","4","4","4","5","3","4","4","4","4","4","5","5","5","4","6","5","3","5","5","6","5","1","5","2","5","4","4","5","5","5","6","3","3","3","3","3","3","5","3","6","5","5","3","3","5","4","3","3","2","5","3","5","799015908117979137","亓","513","Female","[""坏我"",""好她"",""坏她"",""好我""]","[""弱我"",""强她"",""弱她"",""强我""]","","","","","","","","yes","","","","","","","","","SRET","EW_formal","","key","j","16.66146788990858","640","356","自己","正气","Positive","morality","","","","","","","","","","",""
"993","","f","psychophysics","61","268946","0.0-7.0-3.0-0.47","7","6","6","6","6","2","3","4","2","2","5","1","0","0","0","1","1","1","0","5","4","5","4","4","4","4","4","4","4","4","5","3","4","4","4","4","4","5","5","5","4","6","5","3","5","5","6","5","1","5","2","5","4","4","5","5","5","6","3","3","3","3","3","3","5","3","6","5","5","3","3","5","4","3","3","2","5","3","5","799015908117979137","亓","513","Female","[""坏我"",""好她"",""坏她"",""好我""]","[""弱我"",""强她"",""弱她"",""强我""]","","","","","","","","no","","","","","","","","","SRET","EW_formal","","key","f","16.660504201680965","640","356","自己","失信","Negative","morality","","","","","","","","","","",""
"1051","","f","psychophysics","62","270998","0.0-7.0-3.0-0.48","7","6","6","6","6","2","3","4","2","2","5","1","0","0","0","1","1","1","0","5","4","5","4","4","4","4","4","4","4","4","5","3","4","4","4","4","4","5","5","5","4","6","5","3","5","5","6","5","1","5","2","5","4","4","5","5","5","6","3","3","3","3","3","3","5","3","6","5","5","3","3","5","4","3","3","2","5","3","5","799015908117979137","亓","513","Female","[""坏我"",""好她"",""坏她"",""好我""]","[""弱我"",""强她"",""弱她"",""强我""]","","","","","","","","no","","","","","","","","","SRET","EW_formal","","key","f","16.65819672131138","640","356","自己","坦荡","Positive","morality","","","","","","","","","","",""
"1162","","f","psychophysics","63","273161","0.0-7.0-3.0-0.49","7","6","6","6","6","2","3","4","2","2","5","1","0","0","0","1","1","1","0","5","4","5","4","4","4","4","4","4","4","4","5","3","4","4","4","4","4","5","5","5","4","6","5","3","5","5","6","5","1","5","2","5","4","4","5","5","5","6","3","3","3","3","3","3","5","3","6","5","5","3","3","5","4","3","3","2","5","3","5","799015908117979137","亓","513","Female","[""坏我"",""好她"",""坏她"",""好我""]","[""弱我"",""强她"",""弱她"",""强我""]","","","","","","","","no","","","","","","","","","SRET","EW_formal","","key","f","16.65736434108518","640","356","自己","马虎","Negative","ability","","","","","","","","","","",""
"864","","f","psychophysics","64","275026","0.0-7.0-3.0-0.50","7","6","6","6","6","2","3","4","2","2","5","1","0","0","0","1","1","1","0","5","4","5","4","4","4","4","4","4","4","4","5","3","4","4","4","4","4","5","5","5","4","6","5","3","5","5","6","5","1","5","2","5","4","4","5","5","5","6","3","3","3","3","3","3","5","3","6","5","5","3","3","5","4","3","3","2","5","3","5","799015908117979137","亓","513","Female","[""坏我"",""好她"",""坏她"",""好我""]","[""弱我"",""强她"",""弱她"",""强我""]","","","","","","","","no","","","","","","","","","SRET","EW_formal","","key","f","16.66216216216216","640","356","朋友","拖延","Negative","ability","","","","","","","","","","",""
"820","","f","psychophysics","65","276848","0.0-7.0-3.0-0.51","7","6","6","6","6","2","3","4","2","2","5","1","0","0","0","1","1","1","0","5","4","5","4","4","4","4","4","4","4","4","5","3","4","4","4","4","4","5","5","5","4","6","5","3","5","5","6","5","1","5","2","5","4","4","5","5","5","6","3","3","3","3","3","3","5","3","6","5","5","3","3","5","4","3","3","2","5","3","5","799015908117979137","亓","513","Female","[""坏我"",""好她"",""坏她"",""好我""]","[""弱我"",""强她"",""弱她"",""强我""]","","","","","","","","no","","","","","","","","","SRET","EW_formal","","key","f","16.65740740740741","640","356","自己","无知","Negative","ability","","","","","","","","","","",""
"793","","j","psychophysics","66","278642","0.0-7.0-3.0-0.52","7","6","6","6","6","2","3","4","2","2","5","1","0","0","0","1","1","1","0","5","4","5","4","4","4","4","4","4","4","4","5","3","4","4","4","4","4","5","5","5","4","6","5","3","5","5","6","5","1","5","2","5","4","4","5","5","5","6","3","3","3","3","3","3","5","3","6","5","5","3","3","5","4","3","3","2","5","3","5","799015908117979137","亓","513","Female","[""坏我"",""好她"",""坏她"",""好我""]","[""弱我"",""强她"",""弱她"",""强我""]","","","","","","","","yes","","","","","","","","","SRET","EW_formal","","key","j","16.657009345794282","640","356","朋友","果断","Positive","ability","","","","","","","","","","",""
"746","","j","psychophysics","67","280389","0.0-7.0-3.0-0.53","7","6","6","6","6","2","3","4","2","2","5","1","0","0","0","1","1","1","0","5","4","5","4","4","4","4","4","4","4","4","5","3","4","4","4","4","4","5","5","5","4","6","5","3","5","5","6","5","1","5","2","5","4","4","5","5","5","6","3","3","3","3","3","3","5","3","6","5","5","3","3","5","4","3","3","2","5","3","5","799015908117979137","亓","513","Female","[""坏我"",""好她"",""坏她"",""好我""]","[""弱我"",""强她"",""弱她"",""强我""]","","","","","","","","yes","","","","","","","","","SRET","EW_formal","","key","j","16.658653846153847","640","356","自己","有力","Positive","ability","","","","","","","","","","",""
"1190","","f","psychophysics","68","282580","0.0-7.0-3.0-0.54","7","6","6","6","6","2","3","4","2","2","5","1","0","0","0","1","1","1","0","5","4","5","4","4","4","4","4","4","4","4","5","3","4","4","4","4","4","5","5","5","4","6","5","3","5","5","6","5","1","5","2","5","4","4","5","5","5","6","3","3","3","3","3","3","5","3","6","5","5","3","3","5","4","3","3","2","5","3","5","799015908117979137","亓","513","Female","[""坏我"",""好她"",""坏她"",""好我""]","[""弱我"",""强她"",""弱她"",""强我""]","","","","","","","","no","","","","","","","","","SRET","EW_formal","","key","f","16.660769230768963","640","356","自己","阴毒","Negative","morality","","","","","","","","","","",""
"1274","","f","psychophysics","69","284855","0.0-7.0-3.0-0.55","7","6","6","6","6","2","3","4","2","2","5","1","0","0","0","1","1","1","0","5","4","5","4","4","4","4","4","4","4","4","5","3","4","4","4","4","4","5","5","5","4","6","5","3","5","5","6","5","1","5","2","5","4","4","5","5","5","6","3","3","3","3","3","3","5","3","6","5","5","3","3","5","4","3","3","2","5","3","5","799015908117979137","亓","513","Female","[""坏我"",""好她"",""坏她"",""好我""]","[""弱我"",""强她"",""弱她"",""强我""]","","","","","","","","no","","","","","","","","","SRET","EW_formal","","key","f","16.663235294117733","640","356","朋友","笨蛋","Negative","ability","","","","","","","","","","",""
"920","","j","psychophysics","70","286776","0.0-7.0-3.0-0.56","7","6","6","6","6","2","3","4","2","2","5","1","0","0","0","1","1","1","0","5","4","5","4","4","4","4","4","4","4","4","5","3","4","4","4","4","4","5","5","5","4","6","5","3","5","5","6","5","1","5","2","5","4","4","5","5","5","6","3","3","3","3","3","3","5","3","6","5","5","3","3","5","4","3","3","2","5","3","5","799015908117979137","亓","513","Female","[""坏我"",""好她"",""坏她"",""好我""]","[""弱我"",""强她"",""弱她"",""强我""]","","","","","","","","yes","","","","","","","","","SRET","EW_formal","","key","j","16.65614035087709","640","356","自己","博识","Positive","ability","","","","","","","","","","",""
"880","","f","psychophysics","71","288657","0.0-7.0-3.0-0.57","7","6","6","6","6","2","3","4","2","2","5","1","0","0","0","1","1","1","0","5","4","5","4","4","4","4","4","4","4","4","5","3","4","4","4","4","4","5","5","5","4","6","5","3","5","5","6","5","1","5","2","5","4","4","5","5","5","6","3","3","3","3","3","3","5","3","6","5","5","3","3","5","4","3","3","2","5","3","5","799015908117979137","亓","513","Female","[""坏我"",""好她"",""坏她"",""好我""]","[""弱我"",""强她"",""弱她"",""强我""]","","","","","","","","no","","","","","","","","","SRET","EW_formal","","key","f","16.65803571428582","640","356","朋友","势利","Negative","morality","","","","","","","","","","",""
"941","","f","psychophysics","72","290599","0.0-7.0-3.0-0.58","7","6","6","6","6","2","3","4","2","2","5","1","0","0","0","1","1","1","0","5","4","5","4","4","4","4","4","4","4","4","5","3","4","4","4","4","4","5","5","5","4","6","5","3","5","5","6","5","1","5","2","5","4","4","5","5","5","6","3","3","3","3","3","3","5","3","6","5","5","3","3","5","4","3","3","2","5","3","5","799015908117979137","亓","513","Female","[""坏我"",""好她"",""坏她"",""好我""]","[""弱我"",""强她"",""弱她"",""强我""]","","","","","","","","no","","","","","","","","","SRET","EW_formal","","key","f","16.657758620689556","640","356","朋友","罪恶","Negative","morality","","","","","","","","","","",""
"1090","","f","psychophysics","73","292690","0.0-7.0-3.0-0.59","7","6","6","6","6","2","3","4","2","2","5","1","0","0","0","1","1","1","0","5","4","5","4","4","4","4","4","4","4","4","5","3","4","4","4","4","4","5","5","5","4","6","5","3","5","5","6","5","1","5","2","5","4","4","5","5","5","6","3","3","3","3","3","3","5","3","6","5","5","3","3","5","4","3","3","2","5","3","5","799015908117979137","亓","513","Female","[""坏我"",""好她"",""坏她"",""好我""]","[""弱我"",""强她"",""弱她"",""强我""]","","","","","","","","no","","","","","","","","","SRET","EW_formal","","key","f","16.65887096774203","640","356","自己","狡狯","Negative","morality","","","","","","","","","","",""
"733","","f","psychophysics","74","294425","0.0-7.0-3.0-0.60","7","6","6","6","6","2","3","4","2","2","5","1","0","0","0","1","1","1","0","5","4","5","4","4","4","4","4","4","4","4","5","3","4","4","4","4","4","5","5","5","4","6","5","3","5","5","6","5","1","5","2","5","4","4","5","5","5","6","3","3","3","3","3","3","5","3","6","5","5","3","3","5","4","3","3","2","5","3","5","799015908117979137","亓","513","Female","[""坏我"",""好她"",""坏她"",""好我""]","[""弱我"",""强她"",""弱她"",""强我""]","","","","","","","","no","","","","","","","","","SRET","EW_formal","","key","f","16.66504854368932","640","356","自己","浅薄","Negative","ability","","","","","","","","","","",""
"756","","f","psychophysics","75","296183","0.0-7.0-3.0-0.61","7","6","6","6","6","2","3","4","2","2","5","1","0","0","0","1","1","1","0","5","4","5","4","4","4","4","4","4","4","4","5","3","4","4","4","4","4","5","5","5","4","6","5","3","5","5","6","5","1","5","2","5","4","4","5","5","5","6","3","3","3","3","3","3","5","3","6","5","5","3","3","5","4","3","3","2","5","3","5","799015908117979137","亓","513","Female","[""坏我"",""好她"",""坏她"",""好我""]","[""弱我"",""强她"",""弱她"",""强我""]","","","","","","","","no","","","","","","","","","SRET","EW_formal","","key","f","16.658095238095015","640","356","自己","背叛","Negative","morality","","","","","","","","","","",""
"907","","j","psychophysics","76","298091","0.0-7.0-3.0-0.62","7","6","6","6","6","2","3","4","2","2","5","1","0","0","0","1","1","1","0","5","4","5","4","4","4","4","4","4","4","4","5","3","4","4","4","4","4","5","5","5","4","6","5","3","5","5","6","5","1","5","2","5","4","4","5","5","5","6","3","3","3","3","3","3","5","3","6","5","5","3","3","5","4","3","3","2","5","3","5","799015908117979137","亓","513","Female","[""坏我"",""好她"",""坏她"",""好我""]","[""弱我"",""强她"",""弱她"",""强我""]","","","","","","","","yes","","","","","","","","","SRET","EW_formal","","key","j","16.65840707964571","640","356","朋友","刻苦","Positive","ability","","","","","","","","","","",""
"924","","j","psychophysics","77","300016","0.0-7.0-3.0-0.63","7","6","6","6","6","2","3","4","2","2","5","1","0","0","0","1","1","1","0","5","4","5","4","4","4","4","4","4","4","4","5","3","4","4","4","4","4","5","5","5","4","6","5","3","5","5","6","5","1","5","2","5","4","4","5","5","5","6","3","3","3","3","3","3","5","3","6","5","5","3","3","5","4","3","3","2","5","3","5","799015908117979137","亓","513","Female","[""坏我"",""好她"",""坏她"",""好我""]","[""弱我"",""强她"",""弱她"",""强我""]","","","","","","","","yes","","","","","","","","","SRET","EW_formal","","key","j","16.664347826086654","640","356","自己","不仁","Negative","morality","","","","","","","","","","",""
"997","","j","psychophysics","78","302014","0.0-7.0-3.0-0.64","7","6","6","6","6","2","3","4","2","2","5","1","0","0","0","1","1","1","0","5","4","5","4","4","4","4","4","4","4","4","5","3","4","4","4","4","4","5","5","5","4","6","5","3","5","5","6","5","1","5","2","5","4","4","5","5","5","6","3","3","3","3","3","3","5","3","6","5","5","3","3","5","4","3","3","2","5","3","5","799015908117979137","亓","513","Female","[""坏我"",""好她"",""坏她"",""好我""]","[""弱我"",""强她"",""弱她"",""强我""]","","","","","","","","yes","","","","","","","","","SRET","EW_formal","","key","j","16.657142857142954","640","356","朋友","忠勇","Positive","morality","","","","","","","","","","",""
"774","","f","psychophysics","79","303789","0.0-7.0-3.0-0.65","7","6","6","6","6","2","3","4","2","2","5","1","0","0","0","1","1","1","0","5","4","5","4","4","4","4","4","4","4","4","5","3","4","4","4","4","4","5","5","5","4","6","5","3","5","5","6","5","1","5","2","5","4","4","5","5","5","6","3","3","3","3","3","3","5","3","6","5","5","3","3","5","4","3","3","2","5","3","5","799015908117979137","亓","513","Female","[""坏我"",""好她"",""坏她"",""好我""]","[""弱我"",""强她"",""弱她"",""强我""]","","","","","","","","no","","","","","","","","","SRET","EW_formal","","key","f","16.654285714285827","640","356","自己","狡诈","Negative","morality","","","","","","","","","","",""
"1098","","j","psychophysics","80","305889","0.0-7.0-3.0-0.66","7","6","6","6","6","2","3","4","2","2","5","1","0","0","0","1","1","1","0","5","4","5","4","4","4","4","4","4","4","4","5","3","4","4","4","4","4","5","5","5","4","6","5","3","5","5","6","5","1","5","2","5","4","4","5","5","5","6","3","3","3","3","3","3","5","3","6","5","5","3","3","5","4","3","3","2","5","3","5","799015908117979137","亓","513","Female","[""坏我"",""好她"",""坏她"",""好我""]","[""弱我"",""强她"",""弱她"",""强我""]","","","","","","","","yes","","","","","","","","","SRET","EW_formal","","key","j","16.661600000000092","640","356","朋友","毅力","Positive","ability","","","","","","","","","","",""
"1338","","f","psychophysics","81","308231","0.0-7.0-3.0-0.67","7","6","6","6","6","2","3","4","2","2","5","1","0","0","0","1","1","1","0","5","4","5","4","4","4","4","4","4","4","4","5","3","4","4","4","4","4","5","5","5","4","6","5","3","5","5","6","5","1","5","2","5","4","4","5","5","5","6","3","3","3","3","3","3","5","3","6","5","5","3","3","5","4","3","3","2","5","3","5","799015908117979137","亓","513","Female","[""坏我"",""好她"",""坏她"",""好我""]","[""弱我"",""强她"",""弱她"",""强我""]","","","","","","","","no","","","","","","","","","SRET","EW_formal","","key","f","16.66285714285706","640","356","朋友","驽钝","Negative","ability","","","","","","","","","","",""
"null","","null","psychophysics","82","311233","0.0-7.0-3.0-0.68","7","6","6","6","6","2","3","4","2","2","5","1","0","0","0","1","1","1","0","5","4","5","4","4","4","4","4","4","4","4","5","3","4","4","4","4","4","5","5","5","4","6","5","3","5","5","6","5","1","5","2","5","4","4","5","5","5","6","3","3","3","3","3","3","5","3","6","5","5","3","3","5","4","3","3","2","5","3","5","799015908117979137","亓","513","Female","[""坏我"",""好她"",""坏她"",""好我""]","[""弱我"",""强她"",""弱她"",""强我""]","","","","","","","","","","","","","","","","","SRET","EW_formal","","key","null","16.661452513966612","640","356","朋友","娴熟","Positive","ability","","","","","","","","","","",""
"891","","j","psychophysics","83","313126","0.0-7.0-3.0-0.69","7","6","6","6","6","2","3","4","2","2","5","1","0","0","0","1","1","1","0","5","4","5","4","4","4","4","4","4","4","4","5","3","4","4","4","4","4","5","5","5","4","6","5","3","5","5","6","5","1","5","2","5","4","4","5","5","5","6","3","3","3","3","3","3","5","3","6","5","5","3","3","5","4","3","3","2","5","3","5","799015908117979137","亓","513","Female","[""坏我"",""好她"",""坏她"",""好我""]","[""弱我"",""强她"",""弱她"",""强我""]","","","","","","","","yes","","","","","","","","","SRET","EW_formal","","key","j","16.661061946902244","640","356","自己","谦逊","Positive","morality","","","","","","","","","","",""
"877","","f","psychophysics","84","315004","0.0-7.0-3.0-0.70","7","6","6","6","6","2","3","4","2","2","5","1","0","0","0","1","1","1","0","5","4","5","4","4","4","4","4","4","4","4","5","3","4","4","4","4","4","5","5","5","4","6","5","3","5","5","6","5","1","5","2","5","4","4","5","5","5","6","3","3","3","3","3","3","5","3","6","5","5","3","3","5","4","3","3","2","5","3","5","799015908117979137","亓","513","Female","[""坏我"",""好她"",""坏她"",""好我""]","[""弱我"",""强她"",""弱她"",""强我""]","","","","","","","","no","","","","","","","","","SRET","EW_formal","","key","f","16.660714285714285","640","356","朋友","差生","Negative","ability","","","","","","","","","","",""
"1135","","f","psychophysics","85","317139","0.0-7.0-3.0-0.71","7","6","6","6","6","2","3","4","2","2","5","1","0","0","0","1","1","1","0","5","4","5","4","4","4","4","4","4","4","4","5","3","4","4","4","4","4","5","5","5","4","6","5","3","5","5","6","5","1","5","2","5","4","4","5","5","5","6","3","3","3","3","3","3","5","3","6","5","5","3","3","5","4","3","3","2","5","3","5","799015908117979137","亓","513","Female","[""坏我"",""好她"",""坏她"",""好我""]","[""弱我"",""强她"",""弱她"",""强我""]","","","","","","","","no","","","","","","","","","SRET","EW_formal","","key","f","16.651181102362298","640","356","自己","果决","Positive","ability","","","","","","","","","","",""
"920","","f","psychophysics","86","319060","0.0-7.0-3.0-0.72","7","6","6","6","6","2","3","4","2","2","5","1","0","0","0","1","1","1","0","5","4","5","4","4","4","4","4","4","4","4","5","3","4","4","4","4","4","5","5","5","4","6","5","3","5","5","6","5","1","5","2","5","4","4","5","5","5","6","3","3","3","3","3","3","5","3","6","5","5","3","3","5","4","3","3","2","5","3","5","799015908117979137","亓","513","Female","[""坏我"",""好她"",""坏她"",""好我""]","[""弱我"",""强她"",""弱她"",""强我""]","","","","","","","","no","","","","","","","","","SRET","EW_formal","","key","f","16.661403508771624","640","356","朋友","卑鄙","Negative","morality","","","","","","","","","","",""
"1125","","j","psychophysics","87","321186","0.0-7.0-3.0-0.73","7","6","6","6","6","2","3","4","2","2","5","1","0","0","0","1","1","1","0","5","4","5","4","4","4","4","4","4","4","4","5","3","4","4","4","4","4","5","5","5","4","6","5","3","5","5","6","5","1","5","2","5","4","4","5","5","5","6","3","3","3","3","3","3","5","3","6","5","5","3","3","5","4","3","3","2","5","3","5","799015908117979137","亓","513","Female","[""坏我"",""好她"",""坏她"",""好我""]","[""弱我"",""强她"",""弱她"",""强我""]","","","","","","","","yes","","","","","","","","","SRET","EW_formal","","key","j","16.662992125984342","640","356","朋友","博学","Positive","ability","","","","","","","","","","",""
"1493","","f","psychophysics","88","323682","0.0-7.0-3.0-0.74","7","6","6","6","6","2","3","4","2","2","5","1","0","0","0","1","1","1","0","5","4","5","4","4","4","4","4","4","4","4","5","3","4","4","4","4","4","5","5","5","4","6","5","3","5","5","6","5","1","5","2","5","4","4","5","5","5","6","3","3","3","3","3","3","5","3","6","5","5","3","3","5","4","3","3","2","5","3","5","799015908117979137","亓","513","Female","[""坏我"",""好她"",""坏她"",""好我""]","[""弱我"",""强她"",""弱她"",""强我""]","","","","","","","","no","","","","","","","","","SRET","EW_formal","","key","f","16.65369127516794","640","356","自己","迂拙","Negative","ability","","","","","","","","","","",""
"926","","f","psychophysics","89","325610","0.0-7.0-3.0-0.75","7","6","6","6","6","2","3","4","2","2","5","1","0","0","0","1","1","1","0","5","4","5","4","4","4","4","4","4","4","4","5","3","4","4","4","4","4","5","5","5","4","6","5","3","5","5","6","5","1","5","2","5","4","4","5","5","5","6","3","3","3","3","3","3","5","3","6","5","5","3","3","5","4","3","3","2","5","3","5","799015908117979137","亓","513","Female","[""坏我"",""好她"",""坏她"",""好我""]","[""弱我"",""强她"",""弱她"",""强我""]","","","","","","","","no","","","","","","","","","SRET","EW_formal","","key","f","16.657017543859855","640","356","朋友","庸碌","Negative","ability","","","","","","","","","","",""
"831","","f","psychophysics","90","327443","0.0-7.0-3.0-0.76","7","6","6","6","6","2","3","4","2","2","5","1","0","0","0","1","1","1","0","5","4","5","4","4","4","4","4","4","4","4","5","3","4","4","4","4","4","5","5","5","4","6","5","3","5","5","6","5","1","5","2","5","4","4","5","5","5","6","3","3","3","3","3","3","5","3","6","5","5","3","3","5","4","3","3","2","5","3","5","799015908117979137","亓","513","Female","[""坏我"",""好她"",""坏她"",""好我""]","[""弱我"",""强她"",""弱她"",""强我""]","","","","","","","","no","","","","","","","","","SRET","EW_formal","","key","f","16.657798165137187","640","356","朋友","外行","Negative","ability","","","","","","","","","","",""
"786","","f","psychophysics","91","329230","0.0-7.0-3.0-0.77","7","6","6","6","6","2","3","4","2","2","5","1","0","0","0","1","1","1","0","5","4","5","4","4","4","4","4","4","4","4","5","3","4","4","4","4","4","5","5","5","4","6","5","3","5","5","6","5","1","5","2","5","4","4","5","5","5","6","3","3","3","3","3","3","5","3","6","5","5","3","3","5","4","3","3","2","5","3","5","799015908117979137","亓","513","Female","[""坏我"",""好她"",""坏她"",""好我""]","[""弱我"",""强她"",""弱她"",""强我""]","","","","","","","","no","","","","","","","","","SRET","EW_formal","","key","f","16.661682242990544","640","356","朋友","虚假","Negative","morality","","","","","","","","","","",""
"856","","f","psychophysics","92","331087","0.0-7.0-3.0-0.78","7","6","6","6","6","2","3","4","2","2","5","1","0","0","0","1","1","1","0","5","4","5","4","4","4","4","4","4","4","4","5","3","4","4","4","4","4","5","5","5","4","6","5","3","5","5","6","5","1","5","2","5","4","4","5","5","5","6","3","3","3","3","3","3","5","3","6","5","5","3","3","5","4","3","3","2","5","3","5","799015908117979137","亓","513","Female","[""坏我"",""好她"",""坏她"",""好我""]","[""弱我"",""强她"",""弱她"",""强我""]","","","","","","","","no","","","","","","","","","SRET","EW_formal","","key","f","16.660909090908667","640","356","自己","无能","Negative","ability","","","","","","","","","","",""
"1308","","j","psychophysics","93","333397","0.0-7.0-3.0-0.79","7","6","6","6","6","2","3","4","2","2","5","1","0","0","0","1","1","1","0","5","4","5","4","4","4","4","4","4","4","4","5","3","4","4","4","4","4","5","5","5","4","6","5","3","5","5","6","5","1","5","2","5","4","4","5","5","5","6","3","3","3","3","3","3","5","3","6","5","5","3","3","5","4","3","3","2","5","3","5","799015908117979137","亓","513","Female","[""坏我"",""好她"",""坏她"",""好我""]","[""弱我"",""强她"",""弱她"",""强我""]","","","","","","","","yes","","","","","","","","","SRET","EW_formal","","key","j","16.66304347826087","640","356","朋友","守法","Positive","morality","","","","","","","","","","",""
"684","","j","psychophysics","94","335082","0.0-7.0-3.0-0.80","7","6","6","6","6","2","3","4","2","2","5","1","0","0","0","1","1","1","0","5","4","5","4","4","4","4","4","4","4","4","5","3","4","4","4","4","4","5","5","5","4","6","5","3","5","5","6","5","1","5","2","5","4","4","5","5","5","6","3","3","3","3","3","3","5","3","6","5","5","3","3","5","4","3","3","2","5","3","5","799015908117979137","亓","513","Female","[""坏我"",""好她"",""坏她"",""好我""]","[""弱我"",""强她"",""弱她"",""强我""]","","","","","","","","yes","","","","","","","","","SRET","EW_formal","","key","j","16.65600000000035","640","356","朋友","侠义","Positive","morality","","","","","","","","","","",""
"975","","f","psychophysics","95","337060","0.0-7.0-3.0-0.81","7","6","6","6","6","2","3","4","2","2","5","1","0","0","0","1","1","1","0","5","4","5","4","4","4","4","4","4","4","4","5","3","4","4","4","4","4","5","5","5","4","6","5","3","5","5","6","5","1","5","2","5","4","4","5","5","5","6","3","3","3","3","3","3","5","3","6","5","5","3","3","5","4","3","3","2","5","3","5","799015908117979137","亓","513","Female","[""坏我"",""好她"",""坏她"",""好我""]","[""弱我"",""强她"",""弱她"",""强我""]","","","","","","","","no","","","","","","","","","SRET","EW_formal","","key","f","16.655084745762615","640","356","朋友","畏难","Negative","ability","","","","","","","","","","",""
"1120","","j","psychophysics","96","339181","0.0-7.0-3.0-0.82","7","6","6","6","6","2","3","4","2","2","5","1","0","0","0","1","1","1","0","5","4","5","4","4","4","4","4","4","4","4","5","3","4","4","4","4","4","5","5","5","4","6","5","3","5","5","6","5","1","5","2","5","4","4","5","5","5","6","3","3","3","3","3","3","5","3","6","5","5","3","3","5","4","3","3","2","5","3","5","799015908117979137","亓","513","Female","[""坏我"",""好她"",""坏她"",""好我""]","[""弱我"",""强她"",""弱她"",""强我""]","","","","","","","","yes","","","","","","","","","SRET","EW_formal","","key","j","16.66349206349188","640","356","自己","仁厚","Positive","morality","","","","","","","","","","",""
"841","","j","psychophysics","97","341023","0.0-7.0-3.0-0.83","7","6","6","6","6","2","3","4","2","2","5","1","0","0","0","1","1","1","0","5","4","5","4","4","4","4","4","4","4","4","5","3","4","4","4","4","4","5","5","5","4","6","5","3","5","5","6","5","1","5","2","5","4","4","5","5","5","6","3","3","3","3","3","3","5","3","6","5","5","3","3","5","4","3","3","2","5","3","5","799015908117979137","亓","513","Female","[""坏我"",""好她"",""坏她"",""好我""]","[""弱我"",""强她"",""弱她"",""强我""]","","","","","","","","yes","","","","","","","","","SRET","EW_formal","","key","j","16.662727272726954","640","356","朋友","仁爱","Positive","morality","","","","","","","","","","",""
"859","","j","psychophysics","98","342883","0.0-7.0-3.0-0.84","7","6","6","6","6","2","3","4","2","2","5","1","0","0","0","1","1","1","0","5","4","5","4","4","4","4","4","4","4","4","5","3","4","4","4","4","4","5","5","5","4","6","5","3","5","5","6","5","1","5","2","5","4","4","5","5","5","6","3","3","3","3","3","3","5","3","6","5","5","3","3","5","4","3","3","2","5","3","5","799015908117979137","亓","513","Female","[""坏我"",""好她"",""坏她"",""好我""]","[""弱我"",""强她"",""弱她"",""强我""]","","","","","","","","yes","","","","","","","","","SRET","EW_formal","","key","j","16.65909090909091","640","356","朋友","素养","Positive","morality","","","","","","","","","","",""
"701","","j","psychophysics","99","344587","0.0-7.0-3.0-0.85","7","6","6","6","6","2","3","4","2","2","5","1","0","0","0","1","1","1","0","5","4","5","4","4","4","4","4","4","4","4","5","3","4","4","4","4","4","5","5","5","4","6","5","3","5","5","6","5","1","5","2","5","4","4","5","5","5","6","3","3","3","3","3","3","5","3","6","5","5","3","3","5","4","3","3","2","5","3","5","799015908117979137","亓","513","Female","[""坏我"",""好她"",""坏她"",""好我""]","[""弱我"",""强她"",""弱她"",""强我""]","","","","","","","","yes","","","","","","","","","SRET","EW_formal","","key","j","16.66176470588235","640","356","自己","主见","Positive","ability","","","","","","","","","","",""
"1003","","j","psychophysics","100","346592","0.0-7.0-3.0-0.86","7","6","6","6","6","2","3","4","2","2","5","1","0","0","0","1","1","1","0","5","4","5","4","4","4","4","4","4","4","4","5","3","4","4","4","4","4","5","5","5","4","6","5","3","5","5","6","5","1","5","2","5","4","4","5","5","5","6","3","3","3","3","3","3","5","3","6","5","5","3","3","5","4","3","3","2","5","3","5","799015908117979137","亓","513","Female","[""坏我"",""好她"",""坏她"",""好我""]","[""弱我"",""强她"",""弱她"",""强我""]","","","","","","","","yes","","","","","","","","","SRET","EW_formal","","key","j","16.793220338983346","640","356","自己","缓慢","Negative","ability","","","","","","","","","","",""
"917","","f","psychophysics","101","348510","0.0-7.0-3.0-0.87","7","6","6","6","6","2","3","4","2","2","5","1","0","0","0","1","1","1","0","5","4","5","4","4","4","4","4","4","4","4","5","3","4","4","4","4","4","5","5","5","4","6","5","3","5","5","6","5","1","5","2","5","4","4","5","5","5","6","3","3","3","3","3","3","5","3","6","5","5","3","3","5","4","3","3","2","5","3","5","799015908117979137","亓","513","Female","[""坏我"",""好她"",""坏她"",""好我""]","[""弱我"",""强她"",""弱她"",""强我""]","","","","","","","","no","","","","","","","","","SRET","EW_formal","","key","f","16.66315789473664","640","356","朋友","低俗","Negative","morality","","","","","","","","","","",""
"13901","
    <p><div style='color:white;font-size:35px; line-height:20px;'>计算任务</div></p><br>
    <p><div style='color:red;font-size:25px; line-height:20px;'>接下来，您将看到一些四则运算题，<b>请从键盘选择 0-9 进行反应。</b></div></p>
    <p><div style='color:red;font-size:25px; line-height:20px;'>请尽可能快地进行计算，计算的速度和正确率将影响报酬的发放。</div></p>
    <p><div class='footer' style='color:white;font-size:25px; line-height:20px;'>如果对本实验还有不清楚之处，请立即向实验员咨询。</p><p style='color:white;font-size:25px; line-height:20px;'>如果您明白了规则：</p><p style='color:white;font-size:22px; line-height:20px;'>请按 继续 进入练习</p>
    </div>
    ","0","html-button-response","102","362411","0.0-7.0-4.0","7","6","6","6","6","2","3","4","2","2","5","1","0","0","0","1","1","1","0","5","4","5","4","4","4","4","4","4","4","4","5","3","4","4","4","4","4","5","5","5","4","6","5","3","5","5","6","5","1","5","2","5","4","4","5","5","5","6","3","3","3","3","3","3","5","3","6","5","5","3","3","5","4","3","3","2","5","3","5","799015908117979137","亓","513","Female","[""坏我"",""好她"",""坏她"",""好我""]","[""弱我"",""强她"",""弱她"",""强我""]","","","","","","","","","","","","","","","","","SRET_math","math_instructions","Wed Jan 31 2024 09:14:37 GMT+0800 (GMT+08:00)","","","","","","","","","","","","","","","","","","","",""
"2875","","5","psychophysics","103","365289","0.0-7.0-5.0-0.0","7","6","6","6","6","2","3","4","2","2","5","1","0","0","0","1","1","1","0","5","4","5","4","4","4","4","4","4","4","4","5","3","4","4","4","4","4","5","5","5","4","6","5","3","5","5","6","5","1","5","2","5","4","4","5","5","5","6","3","3","3","3","3","3","5","3","6","5","5","3","3","5","4","3","3","2","5","3","5","799015908117979137","亓","513","Female","[""坏我"",""好她"",""坏她"",""好我""]","[""弱我"",""强她"",""弱她"",""强我""]","","","","","","","","5","","","","","","","","","SRET","SRET_math_calculate","","key","5","16.657803468208026","640","356","","","","","17-12= ? ","5","1","","","","","","","",""
"2164","","3","psychophysics","104","367454","0.0-7.0-5.0-0.1","7","6","6","6","6","2","3","4","2","2","5","1","0","0","0","1","1","1","0","5","4","5","4","4","4","4","4","4","4","4","5","3","4","4","4","4","4","5","5","5","4","6","5","3","5","5","6","5","1","5","2","5","4","4","5","5","5","6","3","3","3","3","3","3","5","3","6","5","5","3","3","5","4","3","3","2","5","3","5","799015908117979137","亓","513","Female","[""坏我"",""好她"",""坏她"",""好我""]","[""弱我"",""强她"",""弱她"",""强我""]","","","","","","","","3","","","","","","","","","SRET","SRET_math_calculate","","key","3","16.6581395348839","640","356","","","","","1+2= ?","3","1","","","","","","","",""
"2360","","8","psychophysics","105","369815","0.0-7.0-5.0-0.2","7","6","6","6","6","2","3","4","2","2","5","1","0","0","0","1","1","1","0","5","4","5","4","4","4","4","4","4","4","4","5","3","4","4","4","4","4","5","5","5","4","6","5","3","5","5","6","5","1","5","2","5","4","4","5","5","5","6","3","3","3","3","3","3","5","3","6","5","5","3","3","5","4","3","3","2","5","3","5","799015908117979137","亓","513","Female","[""坏我"",""好她"",""坏她"",""好我""]","[""弱我"",""强她"",""弱她"",""强我""]","","","","","","","","8","","","","","","","","","SRET","SRET_math_calculate","","key","8","16.659574468085108","640","356","","","","","2*4= ?","8","1","","","","","","","",""
"2065","","0","psychophysics","106","371882","0.0-7.0-5.0-0.3","7","6","6","6","6","2","3","4","2","2","5","1","0","0","0","1","1","1","0","5","4","5","4","4","4","4","4","4","4","4","5","3","4","4","4","4","4","5","5","5","4","6","5","3","5","5","6","5","1","5","2","5","4","4","5","5","5","6","3","3","3","3","3","3","5","3","6","5","5","3","3","5","4","3","3","2","5","3","5","799015908117979137","亓","513","Female","[""坏我"",""好她"",""坏她"",""好我""]","[""弱我"",""强她"",""弱她"",""强我""]","","","","","","","","0","","","","","","","","","SRET","SRET_math_calculate","","key","0","16.657723577235963","640","356","","","","","22-22= ?","0","1","","","","","","","",""
"1989","","8","psychophysics","107","373872","0.0-7.0-5.0-0.4","7","6","6","6","6","2","3","4","2","2","5","1","0","0","0","1","1","1","0","5","4","5","4","4","4","4","4","4","4","4","5","3","4","4","4","4","4","5","5","5","4","6","5","3","5","5","6","5","1","5","2","5","4","4","5","5","5","6","3","3","3","3","3","3","5","3","6","5","5","3","3","5","4","3","3","2","5","3","5","799015908117979137","亓","513","Female","[""坏我"",""好她"",""坏她"",""好我""]","[""弱我"",""强她"",""弱她"",""强我""]","","","","","","","","8","","","","","","","","","SRET","SRET_math_calculate","","key","8","16.663559322033798","640","356","","","","","1+7= ?","8","1","","","","","","","",""
"1953","","9","psychophysics","108","375826","0.0-7.0-5.0-0.5","7","6","6","6","6","2","3","4","2","2","5","1","0","0","0","1","1","1","0","5","4","5","4","4","4","4","4","4","4","4","5","3","4","4","4","4","4","5","5","5","4","6","5","3","5","5","6","5","1","5","2","5","4","4","5","5","5","6","3","3","3","3","3","3","5","3","6","5","5","3","3","5","4","3","3","2","5","3","5","799015908117979137","亓","513","Female","[""坏我"",""好她"",""坏她"",""好我""]","[""弱我"",""强她"",""弱她"",""强我""]","","","","","","","","9","","","","","","","","","SRET","SRET_math_calculate","","key","9","16.65811965811966","640","356","","","","","3*3= ?","9","1","","","","","","","",""
"2024","","0","psychophysics","109","377852","0.0-7.0-5.0-0.6","7","6","6","6","6","2","3","4","2","2","5","1","0","0","0","1","1","1","0","5","4","5","4","4","4","4","4","4","4","4","5","3","4","4","4","4","4","5","5","5","4","6","5","3","5","5","6","5","1","5","2","5","4","4","5","5","5","6","3","3","3","3","3","3","5","3","6","5","5","3","3","5","4","3","3","2","5","3","5","799015908117979137","亓","513","Female","[""坏我"",""好她"",""坏她"",""好我""]","[""弱我"",""强她"",""弱她"",""强我""]","","","","","","","","0","","","","","","","","","SRET","SRET_math_calculate","","key","0","16.660833333333237","640","356","","","","","32-32= ?","0","1","","","","","","","",""
"1912","","0","psychophysics","110","379765","0.0-7.0-5.0-0.7","7","6","6","6","6","2","3","4","2","2","5","1","0","0","0","1","1","1","0","5","4","5","4","4","4","4","4","4","4","4","5","3","4","4","4","4","4","5","5","5","4","6","5","3","5","5","6","5","1","5","2","5","4","4","5","5","5","6","3","3","3","3","3","3","5","3","6","5","5","3","3","5","4","3","3","2","5","3","5","799015908117979137","亓","513","Female","[""坏我"",""好她"",""坏她"",""好我""]","[""弱我"",""强她"",""弱她"",""强我""]","","","","","","","","0","","","","","","","","","SRET","SRET_math_calculate","","key","0","16.66315789473664","640","356","","","","","1-1= ?","0","1","","","","","","","",""
"2323","","1","psychophysics","111","382090","0.0-7.0-5.0-0.8","7","6","6","6","6","2","3","4","2","2","5","1","0","0","0","1","1","1","0","5","4","5","4","4","4","4","4","4","4","4","5","3","4","4","4","4","4","5","5","5","4","6","5","3","5","5","6","5","1","5","2","5","4","4","5","5","5","6","3","3","3","3","3","3","5","3","6","5","5","3","3","5","4","3","3","2","5","3","5","799015908117979137","亓","513","Female","[""坏我"",""好她"",""坏她"",""好我""]","[""弱我"",""强她"",""弱她"",""强我""]","","","","","","","","1","","","","","","","","","SRET","SRET_math_calculate","","key","1","16.65755395683428","640","356","","","","","4/4= ?","1","1","","","","","","","",""
"2107","","5","psychophysics","112","384197","0.0-7.0-5.0-0.9","7","6","6","6","6","2","3","4","2","2","5","1","0","0","0","1","1","1","0","5","4","5","4","4","4","4","4","4","4","4","5","3","4","4","4","4","4","5","5","5","4","6","5","3","5","5","6","5","1","5","2","5","4","4","5","5","5","6","3","3","3","3","3","3","5","3","6","5","5","3","3","5","4","3","3","2","5","3","5","799015908117979137","亓","513","Female","[""坏我"",""好她"",""坏她"",""好我""]","[""弱我"",""强她"",""弱她"",""强我""]","","","","","","","","5","","","","","","","","","SRET","SRET_math_calculate","","key","5","16.65919999999972","640","356","","","","","10-5= ?","5","1","","","","","","","",""
"2558","","6","psychophysics","113","386757","0.0-7.0-5.0-0.10","7","6","6","6","6","2","3","4","2","2","5","1","0","0","0","1","1","1","0","5","4","5","4","4","4","4","4","4","4","4","5","3","4","4","4","4","4","5","5","5","4","6","5","3","5","5","6","5","1","5","2","5","4","4","5","5","5","6","3","3","3","3","3","3","5","3","6","5","5","3","3","5","4","3","3","2","5","3","5","799015908117979137","亓","513","Female","[""坏我"",""好她"",""坏她"",""好我""]","[""弱我"",""强她"",""弱她"",""强我""]","","","","","","","","6","","","","","","","","","SRET","SRET_math_calculate","","key","6","16.6620915032679","640","356","","","","","2*3= ?","6","1","","","","","","","",""
"2334","","1","psychophysics","114","389093","0.0-7.0-5.0-0.11","7","6","6","6","6","2","3","4","2","2","5","1","0","0","0","1","1","1","0","5","4","5","4","4","4","4","4","4","4","4","5","3","4","4","4","4","4","5","5","5","4","6","5","3","5","5","6","5","1","5","2","5","4","4","5","5","5","6","3","3","3","3","3","3","5","3","6","5","5","3","3","5","4","3","3","2","5","3","5","799015908117979137","亓","513","Female","[""坏我"",""好她"",""坏她"",""好我""]","[""弱我"",""强她"",""弱她"",""强我""]","","","","","","","","1","","","","","","","","","SRET","SRET_math_calculate","","key","1","16.658273381294965","640","356","","","","","10-9= ?","1","1","","","","","","","",""
"2386","","2","psychophysics","115","391480","0.0-7.0-5.0-0.12","7","6","6","6","6","2","3","4","2","2","5","1","0","0","0","1","1","1","0","5","4","5","4","4","4","4","4","4","4","4","5","3","4","4","4","4","4","5","5","5","4","6","5","3","5","5","6","5","1","5","2","5","4","4","5","5","5","6","3","3","3","3","3","3","5","3","6","5","5","3","3","5","4","3","3","2","5","3","5","799015908117979137","亓","513","Female","[""坏我"",""好她"",""坏她"",""好我""]","[""弱我"",""强她"",""弱她"",""强我""]","","","","","","","","2","","","","","","","","","SRET","SRET_math_calculate","","key","2","16.658450704225352","640","356","","","","","8-6= ?","2","1","","","","","","","",""
"1789","","2","psychophysics","116","393270","0.0-7.0-5.0-0.13","7","6","6","6","6","2","3","4","2","2","5","1","0","0","0","1","1","1","0","5","4","5","4","4","4","4","4","4","4","4","5","3","4","4","4","4","4","5","5","5","4","6","5","3","5","5","6","5","1","5","2","5","4","4","5","5","5","6","3","3","3","3","3","3","5","3","6","5","5","3","3","5","4","3","3","2","5","3","5","799015908117979137","亓","513","Female","[""坏我"",""好她"",""坏她"",""好我""]","[""弱我"",""强她"",""弱她"",""强我""]","","","","","","","","2","","","","","","","","","SRET","SRET_math_calculate","","key","2","16.66168224299109","640","356","","","","","5-3= ?","2","1","","","","","","","",""
"2057","","3","psychophysics","117","395328","0.0-7.0-5.0-0.14","7","6","6","6","6","2","3","4","2","2","5","1","0","0","0","1","1","1","0","5","4","5","4","4","4","4","4","4","4","4","5","3","4","4","4","4","4","5","5","5","4","6","5","3","5","5","6","5","1","5","2","5","4","4","5","5","5","6","3","3","3","3","3","3","5","3","6","5","5","3","3","5","4","3","3","2","5","3","5","799015908117979137","亓","513","Female","[""坏我"",""好她"",""坏她"",""好我""]","[""弱我"",""强她"",""弱她"",""强我""]","","","","","","","","3","","","","","","","","","SRET","SRET_math_calculate","","key","3","16.651639344262296","640","356","","","","","9-6= ?","3","1","","","","","","","",""
"2104","","7","psychophysics","118","397433","0.0-7.0-5.0-0.15","7","6","6","6","6","2","3","4","2","2","5","1","0","0","0","1","1","1","0","5","4","5","4","4","4","4","4","4","4","4","5","3","4","4","4","4","4","5","5","5","4","6","5","3","5","5","6","5","1","5","2","5","4","4","5","5","5","6","3","3","3","3","3","3","5","3","6","5","5","3","3","5","4","3","3","2","5","3","5","799015908117979137","亓","513","Female","[""坏我"",""好她"",""坏她"",""好我""]","[""弱我"",""强她"",""弱她"",""强我""]","","","","","","","","7","","","","","","","","","SRET","SRET_math_calculate","","key","7","16.647619047618864","640","356","","","","","3+4= ?","7","1","","","","","","","",""
"3167","","8","psychophysics","119","400602","0.0-7.0-5.0-0.16","7","6","6","6","6","2","3","4","2","2","5","1","0","0","0","1","1","1","0","5","4","5","4","4","4","4","4","4","4","4","5","3","4","4","4","4","4","5","5","5","4","6","5","3","5","5","6","5","1","5","2","5","4","4","5","5","5","6","3","3","3","3","3","3","5","3","6","5","5","3","3","5","4","3","3","2","5","3","5","799015908117979137","亓","513","Female","[""坏我"",""好她"",""坏她"",""好我""]","[""弱我"",""强她"",""弱她"",""强我""]","","","","","","","","8","","","","","","","","","SRET","SRET_math_calculate","","key","8","16.657671957671894","640","356","","","","","11-3= ?","8","1","","","","","","","",""
"2493","","7","psychophysics","120","403096","0.0-7.0-5.0-0.17","7","6","6","6","6","2","3","4","2","2","5","1","0","0","0","1","1","1","0","5","4","5","4","4","4","4","4","4","4","4","5","3","4","4","4","4","4","5","5","5","4","6","5","3","5","5","6","5","1","5","2","5","4","4","5","5","5","6","3","3","3","3","3","3","5","3","6","5","5","3","3","5","4","3","3","2","5","3","5","799015908117979137","亓","513","Female","[""坏我"",""好她"",""坏她"",""好我""]","[""弱我"",""强她"",""弱她"",""强我""]","","","","","","","","7","","","","","","","","","SRET","SRET_math_calculate","","key","7","16.656375838926095","640","356","","","","","49/7 = ?","7","1","","","","","","","",""
"2389","","5","psychophysics","121","405486","0.0-7.0-5.0-0.18","7","6","6","6","6","2","3","4","2","2","5","1","0","0","0","1","1","1","0","5","4","5","4","4","4","4","4","4","4","4","5","3","4","4","4","4","4","5","5","5","4","6","5","3","5","5","6","5","1","5","2","5","4","4","5","5","5","6","3","3","3","3","3","3","5","3","6","5","5","3","3","5","4","3","3","2","5","3","5","799015908117979137","亓","513","Female","[""坏我"",""好她"",""坏她"",""好我""]","[""弱我"",""强她"",""弱她"",""强我""]","","","","","","","","5","","","","","","","","","SRET","SRET_math_calculate","","key","5","16.657746478873403","640","356","","","","","5/1= ?","5","1","","","","","","","",""
"2002","","5","psychophysics","122","407489","0.0-7.0-5.0-0.19","7","6","6","6","6","2","3","4","2","2","5","1","0","0","0","1","1","1","0","5","4","5","4","4","4","4","4","4","4","4","5","3","4","4","4","4","4","5","5","5","4","6","5","3","5","5","6","5","1","5","2","5","4","4","5","5","5","6","3","3","3","3","3","3","5","3","6","5","5","3","3","5","4","3","3","2","5","3","5","799015908117979137","亓","513","Female","[""坏我"",""好她"",""坏她"",""好我""]","[""弱我"",""强她"",""弱她"",""强我""]","","","","","","","","5","","","","","","","","","SRET","SRET_math_calculate","","key","5","16.661344537815225","640","356","","","","","2+3= ?","5","1","","","","","","","",""
"2347","","8","psychophysics","123","409837","0.0-7.0-5.0-0.20","7","6","6","6","6","2","3","4","2","2","5","1","0","0","0","1","1","1","0","5","4","5","4","4","4","4","4","4","4","4","5","3","4","4","4","4","4","5","5","5","4","6","5","3","5","5","6","5","1","5","2","5","4","4","5","5","5","6","3","3","3","3","3","3","5","3","6","5","5","3","3","5","4","3","3","2","5","3","5","799015908117979137","亓","513","Female","[""坏我"",""好她"",""坏她"",""好我""]","[""弱我"",""强她"",""弱她"",""强我""]","","","","","","","","8","","","","","","","","","SRET","SRET_math_calculate","","key","8","16.639999999999834","640","356","","","","","50-42= ?","8","1","","","","","","","",""
"2930","","5","psychophysics","124","412768","0.0-7.0-5.0-0.21","7","6","6","6","6","2","3","4","2","2","5","1","0","0","0","1","1","1","0","5","4","5","4","4","4","4","4","4","4","4","5","3","4","4","4","4","4","5","5","5","4","6","5","3","5","5","6","5","1","5","2","5","4","4","5","5","5","6","3","3","3","3","3","3","5","3","6","5","5","3","3","5","4","3","3","2","5","3","5","799015908117979137","亓","513","Female","[""坏我"",""好她"",""坏她"",""好我""]","[""弱我"",""强她"",""弱她"",""强我""]","","","","","","","","5","","","","","","","","","SRET","SRET_math_calculate","","key","5","16.648000000000135","640","356","","","","","12-7= ?","5","1","","","","","","","",""
"2127","","9","psychophysics","125","414896","0.0-7.0-5.0-0.22","7","6","6","6","6","2","3","4","2","2","5","1","0","0","0","1","1","1","0","5","4","5","4","4","4","4","4","4","4","4","5","3","4","4","4","4","4","5","5","5","4","6","5","3","5","5","6","5","1","5","2","5","4","4","5","5","5","6","3","3","3","3","3","3","5","3","6","5","5","3","3","5","4","3","3","2","5","3","5","799015908117979137","亓","513","Female","[""坏我"",""好她"",""坏她"",""好我""]","[""弱我"",""强她"",""弱她"",""强我""]","","","","","","","","9","","","","","","","","","SRET","SRET_math_calculate","","key","9","16.64724409448828","640","356","","","","","3+6= ?","9","1","","","","","","","",""
"2492","","6","psychophysics","126","417389","0.0-7.0-5.0-0.23","7","6","6","6","6","2","3","4","2","2","5","1","0","0","0","1","1","1","0","5","4","5","4","4","4","4","4","4","4","4","5","3","4","4","4","4","4","5","5","5","4","6","5","3","5","5","6","5","1","5","2","5","4","4","5","5","5","6","3","3","3","3","3","3","5","3","6","5","5","3","3","5","4","3","3","2","5","3","5","799015908117979137","亓","513","Female","[""坏我"",""好她"",""坏她"",""好我""]","[""弱我"",""强她"",""弱她"",""强我""]","","","","","","","","6","","","","","","","","","SRET","SRET_math_calculate","","key","6","16.660402684563916","640","356","","","","","9-3= ?","6","1","","","","","","","",""
"2037","","8","psychophysics","127","419427","0.0-7.0-5.0-0.24","7","6","6","6","6","2","3","4","2","2","5","1","0","0","0","1","1","1","0","5","4","5","4","4","4","4","4","4","4","4","5","3","4","4","4","4","4","5","5","5","4","6","5","3","5","5","6","5","1","5","2","5","4","4","5","5","5","6","3","3","3","3","3","3","5","3","6","5","5","3","3","5","4","3","3","2","5","3","5","799015908117979137","亓","513","Female","[""坏我"",""好她"",""坏她"",""好我""]","[""弱我"",""强她"",""弱她"",""强我""]","","","","","","","","8","","","","","","","","","SRET","SRET_math_calculate","","key","8","16.65702479338843","640","356","","","","","4*2= ?","8","1","","","","","","","",""
"2441","","3","psychophysics","128","421869","0.0-7.0-5.0-0.25","7","6","6","6","6","2","3","4","2","2","5","1","0","0","0","1","1","1","0","5","4","5","4","4","4","4","4","4","4","4","5","3","4","4","4","4","4","5","5","5","4","6","5","3","5","5","6","5","1","5","2","5","4","4","5","5","5","6","3","3","3","3","3","3","5","3","6","5","5","3","3","5","4","3","3","2","5","3","5","799015908117979137","亓","513","Female","[""坏我"",""好她"",""坏她"",""好我""]","[""弱我"",""强她"",""弱她"",""强我""]","","","","","","","","3","","","","","","","","","SRET","SRET_math_calculate","","key","3","16.661643835616278","640","356","","","","","6/2= ?","3","1","","","","","","","",""
"2116","","7","psychophysics","129","423986","0.0-7.0-5.0-0.26","7","6","6","6","6","2","3","4","2","2","5","1","0","0","0","1","1","1","0","5","4","5","4","4","4","4","4","4","4","4","5","3","4","4","4","4","4","5","5","5","4","6","5","3","5","5","6","5","1","5","2","5","4","4","5","5","5","6","3","3","3","3","3","3","5","3","6","5","5","3","3","5","4","3","3","2","5","3","5","799015908117979137","亓","513","Female","[""坏我"",""好她"",""坏她"",""好我""]","[""弱我"",""强她"",""弱她"",""强我""]","","","","","","","","7","","","","","","","","","SRET","SRET_math_calculate","","key","7","16.660317460317554","640","356","","","","","2+5= ?","7","1","","","","","","","",""
"2275","","8","psychophysics","130","426262","0.0-7.0-5.0-0.27","7","6","6","6","6","2","3","4","2","2","5","1","0","0","0","1","1","1","0","5","4","5","4","4","4","4","4","4","4","4","5","3","4","4","4","4","4","5","5","5","4","6","5","3","5","5","6","5","1","5","2","5","4","4","5","5","5","6","3","3","3","3","3","3","5","3","6","5","5","3","3","5","4","3","3","2","5","3","5","799015908117979137","亓","513","Female","[""坏我"",""好她"",""坏她"",""好我""]","[""弱我"",""强她"",""弱她"",""强我""]","","","","","","","","8","","","","","","","","","SRET","SRET_math_calculate","","key","8","16.657037037037124","640","356","","","","","2+6= ?","8","1","","","","","","","",""
"2274","","6","psychophysics","131","428537","0.0-7.0-5.0-0.28","7","6","6","6","6","2","3","4","2","2","5","1","0","0","0","1","1","1","0","5","4","5","4","4","4","4","4","4","4","4","5","3","4","4","4","4","4","5","5","5","4","6","5","3","5","5","6","5","1","5","2","5","4","4","5","5","5","6","3","3","3","3","3","3","5","3","6","5","5","3","3","5","4","3","3","2","5","3","5","799015908117979137","亓","513","Female","[""坏我"",""好她"",""坏她"",""好我""]","[""弱我"",""强她"",""弱她"",""强我""]","","","","","","","","6","","","","","","","","","SRET","SRET_math_calculate","","key","6","16.658088235294116","640","356","","","","","12/6= ?","2","0","","","","","","","",""
"2509","","3","psychophysics","132","431048","0.0-7.0-5.0-0.29","7","6","6","6","6","2","3","4","2","2","5","1","0","0","0","1","1","1","0","5","4","5","4","4","4","4","4","4","4","4","5","3","4","4","4","4","4","5","5","5","4","6","5","3","5","5","6","5","1","5","2","5","4","4","5","5","5","6","3","3","3","3","3","3","5","3","6","5","5","3","3","5","4","3","3","2","5","3","5","799015908117979137","亓","513","Female","[""坏我"",""好她"",""坏她"",""好我""]","[""弱我"",""强她"",""弱她"",""强我""]","","","","","","","","3","","","","","","","","","SRET","SRET_math_calculate","","key","3","16.65866666666659","640","356","","","","","3*1= ?","3","1","","","","","","","",""
"2347","","2","psychophysics","133","433397","0.0-7.0-5.0-0.30","7","6","6","6","6","2","3","4","2","2","5","1","0","0","0","1","1","1","0","5","4","5","4","4","4","4","4","4","4","4","5","3","4","4","4","4","4","5","5","5","4","6","5","3","5","5","6","5","1","5","2","5","4","4","5","5","5","6","3","3","3","3","3","3","5","3","6","5","5","3","3","5","4","3","3","2","5","3","5","799015908117979137","亓","513","Female","[""坏我"",""好她"",""坏她"",""好我""]","[""弱我"",""强她"",""弱她"",""强我""]","","","","","","","","2","","","","","","","","","SRET","SRET_math_calculate","","key","2","16.655714285714204","640","356","","","","","18/9= ?","2","1","","","","","","","",""
"2146","","6","psychophysics","134","435545","0.0-7.0-5.0-0.31","7","6","6","6","6","2","3","4","2","2","5","1","0","0","0","1","1","1","0","5","4","5","4","4","4","4","4","4","4","4","5","3","4","4","4","4","4","5","5","5","4","6","5","3","5","5","6","5","1","5","2","5","4","4","5","5","5","6","3","3","3","3","3","3","5","3","6","5","5","3","3","5","4","3","3","2","5","3","5","799015908117979137","亓","513","Female","[""坏我"",""好她"",""坏她"",""好我""]","[""弱我"",""强她"",""弱她"",""强我""]","","","","","","","","6","","","","","","","","","SRET","SRET_math_calculate","","key","6","16.65781250000009","640","356","","","","","3*2= ?","6","1","","","","","","","",""
"2302","","8","psychophysics","135","437848","0.0-7.0-5.0-0.32","7","6","6","6","6","2","3","4","2","2","5","1","0","0","0","1","1","1","0","5","4","5","4","4","4","4","4","4","4","4","5","3","4","4","4","4","4","5","5","5","4","6","5","3","5","5","6","5","1","5","2","5","4","4","5","5","5","6","3","3","3","3","3","3","5","3","6","5","5","3","3","5","4","3","3","2","5","3","5","799015908117979137","亓","513","Female","[""坏我"",""好她"",""坏她"",""好我""]","[""弱我"",""强她"",""弱她"",""强我""]","","","","","","","","8","","","","","","","","","SRET","SRET_math_calculate","","key","8","16.659124087591156","640","356","","","","","6+2= ?","8","1","","","","","","","",""
"2194","","7","psychophysics","136","440044","0.0-7.0-5.0-0.33","7","6","6","6","6","2","3","4","2","2","5","1","0","0","0","1","1","1","0","5","4","5","4","4","4","4","4","4","4","4","5","3","4","4","4","4","4","5","5","5","4","6","5","3","5","5","6","5","1","5","2","5","4","4","5","5","5","6","3","3","3","3","3","3","5","3","6","5","5","3","3","5","4","3","3","2","5","3","5","799015908117979137","亓","513","Female","[""坏我"",""好她"",""坏她"",""好我""]","[""弱我"",""强她"",""弱她"",""强我""]","","","","","","","","7","","","","","","","","","SRET","SRET_math_calculate","","key","7","16.658778625954554","640","356","","","","","9-2= ?","7","1","","","","","","","",""
"2370","","9","psychophysics","137","442415","0.0-7.0-5.0-0.34","7","6","6","6","6","2","3","4","2","2","5","1","0","0","0","1","1","1","0","5","4","5","4","4","4","4","4","4","4","4","5","3","4","4","4","4","4","5","5","5","4","6","5","3","5","5","6","5","1","5","2","5","4","4","5","5","5","6","3","3","3","3","3","3","5","3","6","5","5","3","3","5","4","3","3","2","5","3","5","799015908117979137","亓","513","Female","[""坏我"",""好她"",""坏她"",""好我""]","[""弱我"",""强她"",""弱她"",""强我""]","","","","","","","","9","","","","","","","","","SRET","SRET_math_calculate","","key","9","16.660283687943096","640","356","","","","","5+4= ?","9","1","","","","","","","",""
"1968","","8","psychophysics","138","444384","0.0-7.0-5.0-0.35","7","6","6","6","6","2","3","4","2","2","5","1","0","0","0","1","1","1","0","5","4","5","4","4","4","4","4","4","4","4","5","3","4","4","4","4","4","5","5","5","4","6","5","3","5","5","6","5","1","5","2","5","4","4","5","5","5","6","3","3","3","3","3","3","5","3","6","5","5","3","3","5","4","3","3","2","5","3","5","799015908117979137","亓","513","Female","[""坏我"",""好她"",""坏她"",""好我""]","[""弱我"",""强她"",""弱她"",""强我""]","","","","","","","","8","","","","","","","","","SRET","SRET_math_calculate","","key","8","16.663247863248163","640","356","","","","","1*8= ?","8","1","","","","","","","",""
"1992","","7","psychophysics","139","446378","0.0-7.0-5.0-0.36","7","6","6","6","6","2","3","4","2","2","5","1","0","0","0","1","1","1","0","5","4","5","4","4","4","4","4","4","4","4","5","3","4","4","4","4","4","5","5","5","4","6","5","3","5","5","6","5","1","5","2","5","4","4","5","5","5","6","3","3","3","3","3","3","5","3","6","5","5","3","3","5","4","3","3","2","5","3","5","799015908117979137","亓","513","Female","[""坏我"",""好她"",""坏她"",""好我""]","[""弱我"",""强她"",""弱她"",""强我""]","","","","","","","","7","","","","","","","","","SRET","SRET_math_calculate","","key","7","16.656302521008698","640","356","","","","","1+6= ?","7","1","","","","","","","",""
"2091","","9","psychophysics","140","448470","0.0-7.0-5.0-0.37","7","6","6","6","6","2","3","4","2","2","5","1","0","0","0","1","1","1","0","5","4","5","4","4","4","4","4","4","4","4","5","3","4","4","4","4","4","5","5","5","4","6","5","3","5","5","6","5","1","5","2","5","4","4","5","5","5","6","3","3","3","3","3","3","5","3","6","5","5","3","3","5","4","3","3","2","5","3","5","799015908117979137","亓","513","Female","[""坏我"",""好她"",""坏她"",""好我""]","[""弱我"",""强她"",""弱她"",""强我""]","","","","","","","","9","","","","","","","","","SRET","SRET_math_calculate","","key","9","16.653600000000093","640","356","","","","","2+7= ?","9","1","","","","","","","",""
"2239","","1","psychophysics","141","450711","0.0-7.0-5.0-0.38","7","6","6","6","6","2","3","4","2","2","5","1","0","0","0","1","1","1","0","5","4","5","4","4","4","4","4","4","4","4","5","3","4","4","4","4","4","5","5","5","4","6","5","3","5","5","6","5","1","5","2","5","4","4","5","5","5","6","3","3","3","3","3","3","5","3","6","5","5","3","3","5","4","3","3","2","5","3","5","799015908117979137","亓","513","Female","[""坏我"",""好她"",""坏她"",""好我""]","[""弱我"",""强她"",""弱她"",""强我""]","","","","","","","","1","","","","","","","","","SRET","SRET_math_calculate","","key","1","16.66015037593976","640","356","","","","","7+1= ?","8","0","","","","","","","",""
"2479","","1","psychophysics","142","453191","0.0-7.0-5.0-0.39","7","6","6","6","6","2","3","4","2","2","5","1","0","0","0","1","1","1","0","5","4","5","4","4","4","4","4","4","4","4","5","3","4","4","4","4","4","5","5","5","4","6","5","3","5","5","6","5","1","5","2","5","4","4","5","5","5","6","3","3","3","3","3","3","5","3","6","5","5","3","3","5","4","3","3","2","5","3","5","799015908117979137","亓","513","Female","[""坏我"",""好她"",""坏她"",""好我""]","[""弱我"",""强她"",""弱她"",""强我""]","","","","","","","","1","","","","","","","","","SRET","SRET_math_calculate","","key","1","16.662837837838072","640","356","","","","","12/12= ?","1","1","","","","","","","",""
