"rt","stimulus","response","trial_type","trial_index","time_elapsed","internal_node_id","swb_1","swb_2","swb_3","swb_4","swb_5","LOT_1","LOT_2","LOT_3","LOT_4","LOT_5","LOT_6","IPC_1","IPC_2","IPC_3","IPC_4","IPC_5","IPC_6","IPC_7","IPC_8","MorIden_1","MorIden_2","MorIden_3","MorIden_4","MorIden_5","MorIden_6","MorIden_7","MorIden_8","MorIden_9","MorIden_10","moralSeImag_1","moralSeImag_2","moralSeImag_3","moralSeImag_4","moralSeImag_5","moralSeImag_6","moralSeImag_7","moralSeImag_8","moralSeImag_9","sde_1","sde_2","sde_3","sde_4","sde_5","sde_6","sde_7","sde_8","sde_9","sde_10","trap2","sde_11","sde_12","sde_13","sde_14","sde_15","sde_16","sde_17","sde_18","sde_19","sde_20","IM_1","IM_2","IM_3","IM_4","IM_5","IM_6","IM_7","IM_8","IM_9","IM_10","IM_11","IM_12","IM_13","IM_14","IM_15","IM_16","IM_17","IM_18","IM_19","IM_20","subj_idx","friend_name","ParticipantID","Sex","Word","Word2","value","success","timeout","failed_images","failed_audio","failed_video","user_agent","responses","item_order","radio_event_ids","radio_event_times","key_event_times","mouse_event_times","straightlining","zigzagging","honeypot","view_history","response_type","key_press","avg_frame_time","center_x","center_y","correct_response","correct","identity","Image","word","condition","task_id","screen_id","time_stamp","person","valence","domain","math","status","duration","question_order","trap2_item"
"3407","
   <p><div style='color:white; font-size: 25px'>您好，欢迎参加本次实验。</div></p>
   <p><div style='color:white; font-size: 25px'>为充分保障您的权利，请确保您已经知晓并同意《参与实验同意书》以及《数据公开知情同意书》。</div></p>
   <p><div style='color:white; font-size: 25px'>如果您未见过上述内容，请咨询实验员。</div></p>
   <p style='color:white; font-size: 25px'>如果您选择继续实验，则表示您已经清楚两份知情同意书的内容并同意。</p>
   <p><div style = ""color: pink;font-size:30px;"">请确保您记得day0的实验编号，您将在本次实验输入该编号，若您忘记，请咨询实验员后作答。</div></p>
   <p><div style = ""color:lightblue;font-size:25px;"">请您尽可能认真地作答，我们将依据您在各问卷和按键任务中的作答质量发放报酬。</div></p>
   <p> <div style = ""color: green""><按空格键至下页></div> </p>
   "," ","html-keyboard-response","0","3409","0.0-0.0","7","7","7","7","7","5","5","5","5","5","5","2","1","2","2","2","2","2","2","5","5","5","5","1","5","5","5","5","5","8","7","8","8","8","7","8","9","7","7","7","7","7","7","7","7","1","7","7","1","7","6","7","7","7","7","7","7","7","7","7","7","7","7","7","7","7","7","7","7","7","7","7","7","7","7","7","7","7","7","598901822953881600","杨","404","Male","[""坏他"",""坏我"",""好我"",""好他""]","[""弱他"",""弱我"",""强我"",""强他""]","","","","","","","","","","","","","","","","","","","","","","","","","","","","","","","","","","","","","","",""
"","","","call-function","1","3411","0.0-1.0-0.0","7","7","7","7","7","5","5","5","5","5","5","2","1","2","2","2","2","2","2","5","5","5","5","1","5","5","5","5","5","8","7","8","8","8","7","8","9","7","7","7","7","7","7","7","7","1","7","7","1","7","6","7","7","7","7","7","7","7","7","7","7","7","7","7","7","7","7","7","7","7","7","7","7","7","7","7","7","7","7","598901822953881600","杨","404","Male","[""坏他"",""坏我"",""好我"",""好他""]","[""弱他"",""弱我"",""强我"",""强他""]","","","","","","","","","","","","","","","","","","","","","","","","","","","","","","","","","","","","","","",""
"17605","","[{""name"":""Sex"",""value"":""0""},{""name"":""friend_name"",""value"":""杨""},{""name"":""ParticipantID"",""value"":""404""}]","survey-html-form","2","21016","0.0-1.0-1.0","7","7","7","7","7","5","5","5","5","5","5","2","1","2","2","2","2","2","2","5","5","5","5","1","5","5","5","5","5","8","7","8","8","8","7","8","9","7","7","7","7","7","7","7","7","1","7","7","1","7","6","7","7","7","7","7","7","7","7","7","7","7","7","7","7","7","7","7","7","7","7","7","7","7","7","7","7","7","7","598901822953881600","杨","404","Male","[""坏他"",""坏我"",""好我"",""好他""]","[""弱他"",""弱我"",""强我"",""强他""]","","","","","","","","","","","","","","","","","","","","","","","","","","","","","","","","","","","","","","",""
"","","","preload","3","21441","0.0-2.0","7","7","7","7","7","5","5","5","5","5","5","2","1","2","2","2","2","2","2","5","5","5","5","1","5","5","5","5","5","8","7","8","8","8","7","8","9","7","7","7","7","7","7","7","7","1","7","7","1","7","6","7","7","7","7","7","7","7","7","7","7","7","7","7","7","7","7","7","7","7","7","7","7","7","7","7","7","7","7","598901822953881600","杨","404","Male","[""坏他"",""坏我"",""好我"",""好他""]","[""弱他"",""弱我"",""强我"",""强他""]","","true","false","[]","[]","[]","","","","","","","","","","","","","","","","","","","","","","","","","","","","","","","","",""
"","","","fullscreen","4","22711","0.0-3.0","7","7","7","7","7","5","5","5","5","5","5","2","1","2","2","2","2","2","2","5","5","5","5","1","5","5","5","5","5","8","7","8","8","8","7","8","9","7","7","7","7","7","7","7","7","1","7","7","1","7","6","7","7","7","7","7","7","7","7","7","7","7","7","7","7","7","7","7","7","7","7","7","7","7","7","7","7","7","7","598901822953881600","杨","404","Male","[""坏他"",""坏我"",""好我"",""好他""]","[""弱他"",""弱我"",""强我"",""强他""]","","true","","","","","","","","","","","","","","","","","","","","","","","","","","","","","","","","","","","","",""
"33765.91000001645","","{""Q01"":""7"",""Q02"":""7"",""Q03"":""7"",""Q04"":""7"",""Q05"":""7""}","survey-template","5","56480","0.0-4.0","7","7","7","7","7","5","5","5","5","5","5","2","1","2","2","2","2","2","2","5","5","5","5","1","5","5","5","5","5","8","7","8","8","8","7","8","9","7","7","7","7","7","7","7","7","1","7","7","1","7","6","7","7","7","7","7","7","7","7","7","7","7","7","7","7","7","7","7","7","7","7","7","7","7","7","7","7","7","7","598901822953881600","杨","404","Male","[""坏他"",""坏我"",""好我"",""好他""]","[""弱他"",""弱我"",""强我"",""强他""]","","","","","","","","{""Q01"":""7"",""Q02"":""7"",""Q03"":""7"",""Q04"":""7"",""Q05"":""7""}","[0,1,2,3,4]","[""Q05"",""Q04"",""Q03"",""Q02"",""Q01""]","[7412.565000005998,12845.135000010487,13693.949999986216,14421.030000026803,29461.040000023786]","[]","[5661.200000031386,7412.565000005998,10260.974999982864,11549.520000000484,12845.135000010487,13693.949999986216,14421.030000026803,15084.719999984372,15437.139999994542,29461.040000023786,33765.070000023115]","1","0","0","","","","","","","","","","","","","","","","","","","","","","",""
"30852.275000012014","","{""Q01"":""5"",""Q02"":""5"",""Q03"":""5"",""Q04"":""5"",""Q05"":""5"",""Q06"":""5""}","survey-template","6","87336","0.0-5.0","7","7","7","7","7","5","5","5","5","5","5","2","1","2","2","2","2","2","2","5","5","5","5","1","5","5","5","5","5","8","7","8","8","8","7","8","9","7","7","7","7","7","7","7","7","1","7","7","1","7","6","7","7","7","7","7","7","7","7","7","7","7","7","7","7","7","7","7","7","7","7","7","7","7","7","7","7","7","7","598901822953881600","杨","404","Male","[""坏他"",""坏我"",""好我"",""好他""]","[""弱他"",""弱我"",""强我"",""强他""]","","","","","","","","{""Q01"":""5"",""Q02"":""5"",""Q03"":""5"",""Q04"":""5"",""Q05"":""5"",""Q06"":""5""}","[0,1,2,3,4,5]","[""Q01"",""Q02"",""Q03"",""Q04"",""Q05"",""Q06""]","[21930.96000002697,23171.03500000667,24466.720000025816,25803.03000001004,26443.035000003874,27571.630000020377]","[]","[21930.96000002697,23171.03500000667,24466.720000025816,25803.03000001004,26443.035000003874,27571.630000020377,29795.45000003418,30851.300000038464]","0.5","0.8","0","","","","","","","","","","","","","","","","","","","","","","",""
"12282.709999999497","","{""Q01"":""2"",""Q02"":""1"",""Q03"":""2"",""Q04"":""2"",""Q05"":""2"",""Q06"":""2"",""Q07"":""2"",""Q08"":""2""}","survey-template","7","99624","0.0-6.0","7","7","7","7","7","5","5","5","5","5","5","2","1","2","2","2","2","2","2","5","5","5","5","1","5","5","5","5","5","8","7","8","8","8","7","8","9","7","7","7","7","7","7","7","7","1","7","7","1","7","6","7","7","7","7","7","7","7","7","7","7","7","7","7","7","7","7","7","7","7","7","7","7","7","7","7","7","7","7","598901822953881600","杨","404","Male","[""坏他"",""坏我"",""好我"",""好他""]","[""弱他"",""弱我"",""强我"",""强他""]","","","","","","","","{""Q01"":""2"",""Q02"":""1"",""Q03"":""2"",""Q04"":""2"",""Q05"":""2"",""Q06"":""2"",""Q07"":""2"",""Q08"":""2""}","[0,1,2,3,4,5,6,7]","[""Q01"",""Q02"",""Q02"",""Q03"",""Q04"",""Q05"",""Q06"",""Q07"",""Q08""]","[1083.5950000328012,2258.2750000292435,5330.965000030119,6106.670000008307,6626.19000003906,7450.1600000076,7810.995000007097,8626.09999999404,9754.475000023376]","[]","[1083.5950000328012,1890.494999999646,2258.2750000292435,3730.520000040997,4066.2900000461377,4692.665000038687,5330.965000030119,6106.670000008307,6626.19000003906,7210.82000003662,7450.1600000076,7810.995000007097,8161.950000037905,8626.09999999404,9418.520000006538,9754.475000023376,12281.845000048634]","0.875","0.2857142857142857","0","","","","","","","","","","","","","","","","","","","","","","",""
"18829","","","instructions","8","118455","0.0-7.0","7","7","7","7","7","5","5","5","5","5","5","2","1","2","2","2","2","2","2","5","5","5","5","1","5","5","5","5","5","8","7","8","8","8","7","8","9","7","7","7","7","7","7","7","7","1","7","7","1","7","6","7","7","7","7","7","7","7","7","7","7","7","7","7","7","7","7","7","7","7","7","7","7","7","7","7","7","7","7","598901822953881600","杨","404","Male","[""坏他"",""坏我"",""好我"",""好他""]","[""弱他"",""弱我"",""强我"",""强他""]","","","","","","","","","","","","","","","","","[{""page_index"":0,""viewing_time"":18828}]","","","","","","","","","","","","","","","","","","","","","",""
"122920","","","instructions","9","241376","0.0-8.0-0.0-0.0","7","7","7","7","7","5","5","5","5","5","5","2","1","2","2","2","2","2","2","5","5","5","5","1","5","5","5","5","5","8","7","8","8","8","7","8","9","7","7","7","7","7","7","7","7","1","7","7","1","7","6","7","7","7","7","7","7","7","7","7","7","7","7","7","7","7","7","7","7","7","7","7","7","7","7","7","7","7","7","598901822953881600","杨","404","Male","[""坏他"",""坏我"",""好我"",""好他""]","[""弱他"",""弱我"",""强我"",""强他""]","","","","","","","","","","","","","","","","","[{""page_index"":0,""viewing_time"":20831},{""page_index"":1,""viewing_time"":100225},{""page_index"":2,""viewing_time"":816},{""page_index"":3,""viewing_time"":1049}]","","","","","","","","","","","","","","","","","","","","","",""
"665","","j","psychophysics","10","243045","0.0-8.0-0.0-1.0-0.0-0.0","7","7","7","7","7","5","5","5","5","5","5","2","1","2","2","2","2","2","2","5","5","5","5","1","5","5","5","5","5","8","7","8","8","8","7","8","9","7","7","7","7","7","7","7","7","1","7","7","1","7","6","7","7","7","7","7","7","7","7","7","7","7","7","7","7","7","7","7","7","7","7","7","7","7","7","7","7","7","7","598901822953881600","杨","404","Male","[""坏他"",""坏我"",""好我"",""好他""]","[""弱他"",""弱我"",""强我"",""强他""]","","","","","","","","nonmatch","","","","","","","","","","key","j","16.668424242424233","768","428","j","true","nonmatch","img/trapezoid.png","好我","坏他","prac_ALT2_moral","practice_moral","","","","","","","","",""
"null","<span style='color:GreenYellow; font-size: 70px;'>正确! </span>","null","html-keyboard-response","11","243549","0.0-8.0-0.0-1.0-0.0-1.0","7","7","7","7","7","5","5","5","5","5","5","2","1","2","2","2","2","2","2","5","5","5","5","1","5","5","5","5","5","8","7","8","8","8","7","8","9","7","7","7","7","7","7","7","7","1","7","7","1","7","6","7","7","7","7","7","7","7","7","7","7","7","7","7","7","7","7","7","7","7","7","7","7","7","7","7","7","7","7","598901822953881600","杨","404","Male","[""坏他"",""坏我"",""好我"",""好他""]","[""弱他"",""弱我"",""强我"",""强他""]","","","","","","","","","","","","","","","","","","","","","","","","","","","","","","feedback_test","","","","","","","","",""
"904","","j","psychophysics","12","245456","0.0-8.0-0.0-1.0-0.0-0.1","7","7","7","7","7","5","5","5","5","5","5","2","1","2","2","2","2","2","2","5","5","5","5","1","5","5","5","5","5","8","7","8","8","8","7","8","9","7","7","7","7","7","7","7","7","1","7","7","1","7","6","7","7","7","7","7","7","7","7","7","7","7","7","7","7","7","7","7","7","7","7","7","7","7","7","7","7","7","7","598901822953881600","杨","404","Male","[""坏他"",""坏我"",""好我"",""好他""]","[""弱他"",""弱我"",""强我"",""强他""]","","","","","","","","nonmatch","","","","","","","","","","key","j","16.666859649123037","768","428","j","true","nonmatch","img/hexagon.png","坏他","好他","prac_ALT2_moral","practice_moral","","","","","","","","",""
"null","<span style='color:GreenYellow; font-size: 70px;'>正确! </span>","null","html-keyboard-response","13","245958","0.0-8.0-0.0-1.0-0.0-1.1","7","7","7","7","7","5","5","5","5","5","5","2","1","2","2","2","2","2","2","5","5","5","5","1","5","5","5","5","5","8","7","8","8","8","7","8","9","7","7","7","7","7","7","7","7","1","7","7","1","7","6","7","7","7","7","7","7","7","7","7","7","7","7","7","7","7","7","7","7","7","7","7","7","7","7","7","7","7","7","598901822953881600","杨","404","Male","[""坏他"",""坏我"",""好我"",""好他""]","[""弱他"",""弱我"",""强我"",""强他""]","","","","","","","","","","","","","","","","","","","","","","","","","","","","","","feedback_test","","","","","","","","",""
"797","","f","psychophysics","14","247757","0.0-8.0-0.0-1.0-0.0-0.2","7","7","7","7","7","5","5","5","5","5","5","2","1","2","2","2","2","2","2","5","5","5","5","1","5","5","5","5","5","8","7","8","8","8","7","8","9","7","7","7","7","7","7","7","7","1","7","7","1","7","6","7","7","7","7","7","7","7","7","7","7","7","7","7","7","7","7","7","7","7","7","7","7","7","7","7","7","7","7","598901822953881600","杨","404","Male","[""坏他"",""坏我"",""好我"",""好他""]","[""弱他"",""弱我"",""强我"",""强他""]","","","","","","","","match","","","","","","","","","","key","f","16.666149532710197","768","428","j","false","nonmatch","img/trapezoid.png","坏我","坏他","prac_ALT2_moral","practice_moral","","","","","","","","",""
"null","<span style='color:red; font-size: 70px;'>错误! </span>","null","html-keyboard-response","15","248259","0.0-8.0-0.0-1.0-0.0-1.2","7","7","7","7","7","5","5","5","5","5","5","2","1","2","2","2","2","2","2","5","5","5","5","1","5","5","5","5","5","8","7","8","8","8","7","8","9","7","7","7","7","7","7","7","7","1","7","7","1","7","6","7","7","7","7","7","7","7","7","7","7","7","7","7","7","7","7","7","7","7","7","7","7","7","7","7","7","7","7","598901822953881600","杨","404","Male","[""坏他"",""坏我"",""好我"",""好他""]","[""弱他"",""弱我"",""强我"",""强他""]","","","","","","","","","","","","","","","","","","","","","","","","","","","","","","feedback_test","","","","","","","","",""
"911","","f","psychophysics","16","250172","0.0-8.0-0.0-1.0-0.0-0.3","7","7","7","7","7","5","5","5","5","5","5","2","1","2","2","2","2","2","2","5","5","5","5","1","5","5","5","5","5","8","7","8","8","8","7","8","9","7","7","7","7","7","7","7","7","1","7","7","1","7","6","7","7","7","7","7","7","7","7","7","7","7","7","7","7","7","7","7","7","7","7","7","7","7","7","7","7","7","7","598901822953881600","杨","404","Male","[""坏他"",""坏我"",""好我"",""好他""]","[""弱他"",""弱我"",""强我"",""强他""]","","","","","","","","match","","","","","","","","","","key","f","16.66530701754387","768","428","f","true","match","img/diamond.png","好我","好我","prac_ALT2_moral","practice_moral","","","","","","","","",""
"null","<span style='color:GreenYellow; font-size: 70px;'>正确! </span>","null","html-keyboard-response","17","250675","0.0-8.0-0.0-1.0-0.0-1.3","7","7","7","7","7","5","5","5","5","5","5","2","1","2","2","2","2","2","2","5","5","5","5","1","5","5","5","5","5","8","7","8","8","8","7","8","9","7","7","7","7","7","7","7","7","1","7","7","1","7","6","7","7","7","7","7","7","7","7","7","7","7","7","7","7","7","7","7","7","7","7","7","7","7","7","7","7","7","7","598901822953881600","杨","404","Male","[""坏他"",""坏我"",""好我"",""好他""]","[""弱他"",""弱我"",""强我"",""强他""]","","","","","","","","","","","","","","","","","","","","","","","","","","","","","","feedback_test","","","","","","","","",""
"565","","j","psychophysics","18","252244","0.0-8.0-0.0-1.0-0.0-0.4","7","7","7","7","7","5","5","5","5","5","5","2","1","2","2","2","2","2","2","5","5","5","5","1","5","5","5","5","5","8","7","8","8","8","7","8","9","7","7","7","7","7","7","7","7","1","7","7","1","7","6","7","7","7","7","7","7","7","7","7","7","7","7","7","7","7","7","7","7","7","7","7","7","7","7","7","7","7","7","598901822953881600","杨","404","Male","[""坏他"",""坏我"",""好我"",""好他""]","[""弱他"",""弱我"",""强我"",""强他""]","","","","","","","","nonmatch","","","","","","","","","","key","j","16.66384946236541","768","428","j","true","nonmatch","img/circle.png","好他","坏我","prac_ALT2_moral","practice_moral","","","","","","","","",""
"null","<span style='color:GreenYellow; font-size: 70px;'>正确! </span>","null","html-keyboard-response","19","252747","0.0-8.0-0.0-1.0-0.0-1.4","7","7","7","7","7","5","5","5","5","5","5","2","1","2","2","2","2","2","2","5","5","5","5","1","5","5","5","5","5","8","7","8","8","8","7","8","9","7","7","7","7","7","7","7","7","1","7","7","1","7","6","7","7","7","7","7","7","7","7","7","7","7","7","7","7","7","7","7","7","7","7","7","7","7","7","7","7","7","7","598901822953881600","杨","404","Male","[""坏他"",""坏我"",""好我"",""好他""]","[""弱他"",""弱我"",""强我"",""强他""]","","","","","","","","","","","","","","","","","","","","","","","","","","","","","","feedback_test","","","","","","","","",""
"827","","f","psychophysics","20","254575","0.0-8.0-0.0-1.0-0.0-0.5","7","7","7","7","7","5","5","5","5","5","5","2","1","2","2","2","2","2","2","5","5","5","5","1","5","5","5","5","5","8","7","8","8","8","7","8","9","7","7","7","7","7","7","7","7","1","7","7","1","7","6","7","7","7","7","7","7","7","7","7","7","7","7","7","7","7","7","7","7","7","7","7","7","7","7","7","7","7","7","598901822953881600","杨","404","Male","[""坏他"",""坏我"",""好我"",""好他""]","[""弱他"",""弱我"",""强我"",""强他""]","","","","","","","","match","","","","","","","","","","key","f","16.66483486238536","768","428","f","true","match","img/hexagon.png","好他","好他","prac_ALT2_moral","practice_moral","","","","","","","","",""
"null","<span style='color:GreenYellow; font-size: 70px;'>正确! </span>","null","html-keyboard-response","21","255076","0.0-8.0-0.0-1.0-0.0-1.5","7","7","7","7","7","5","5","5","5","5","5","2","1","2","2","2","2","2","2","5","5","5","5","1","5","5","5","5","5","8","7","8","8","8","7","8","9","7","7","7","7","7","7","7","7","1","7","7","1","7","6","7","7","7","7","7","7","7","7","7","7","7","7","7","7","7","7","7","7","7","7","7","7","7","7","7","7","7","7","598901822953881600","杨","404","Male","[""坏他"",""坏我"",""好我"",""好他""]","[""弱他"",""弱我"",""强我"",""强他""]","","","","","","","","","","","","","","","","","","","","","","","","","","","","","","feedback_test","","","","","","","","",""
"643","","j","psychophysics","22","256723","0.0-8.0-0.0-1.0-0.0-0.6","7","7","7","7","7","5","5","5","5","5","5","2","1","2","2","2","2","2","2","5","5","5","5","1","5","5","5","5","5","8","7","8","8","8","7","8","9","7","7","7","7","7","7","7","7","1","7","7","1","7","6","7","7","7","7","7","7","7","7","7","7","7","7","7","7","7","7","7","7","7","7","7","7","7","7","7","7","7","7","598901822953881600","杨","404","Male","[""坏他"",""坏我"",""好我"",""好他""]","[""弱他"",""弱我"",""强我"",""强他""]","","","","","","","","nonmatch","","","","","","","","","","key","j","16.66508163265321","768","428","j","true","nonmatch","img/diamond.png","好他","好我","prac_ALT2_moral","practice_moral","","","","","","","","",""
"null","<span style='color:GreenYellow; font-size: 70px;'>正确! </span>","null","html-keyboard-response","23","257226","0.0-8.0-0.0-1.0-0.0-1.6","7","7","7","7","7","5","5","5","5","5","5","2","1","2","2","2","2","2","2","5","5","5","5","1","5","5","5","5","5","8","7","8","8","8","7","8","9","7","7","7","7","7","7","7","7","1","7","7","1","7","6","7","7","7","7","7","7","7","7","7","7","7","7","7","7","7","7","7","7","7","7","7","7","7","7","7","7","7","7","598901822953881600","杨","404","Male","[""坏他"",""坏我"",""好我"",""好他""]","[""弱他"",""弱我"",""强我"",""强他""]","","","","","","","","","","","","","","","","","","","","","","","","","","","","","","feedback_test","","","","","","","","",""
"817","","f","psychophysics","24","259046","0.0-8.0-0.0-1.0-0.0-0.7","7","7","7","7","7","5","5","5","5","5","5","2","1","2","2","2","2","2","2","5","5","5","5","1","5","5","5","5","5","8","7","8","8","8","7","8","9","7","7","7","7","7","7","7","7","1","7","7","1","7","6","7","7","7","7","7","7","7","7","7","7","7","7","7","7","7","7","7","7","7","7","7","7","7","7","7","7","7","7","598901822953881600","杨","404","Male","[""坏他"",""坏我"",""好我"",""好他""]","[""弱他"",""弱我"",""强我"",""强他""]","","","","","","","","match","","","","","","","","","","key","f","16.665685185185186","768","428","f","true","match","img/trapezoid.png","坏他","坏他","prac_ALT2_moral","practice_moral","","","","","","","","",""
"null","<span style='color:GreenYellow; font-size: 70px;'>正确! </span>","null","html-keyboard-response","25","259548","0.0-8.0-0.0-1.0-0.0-1.7","7","7","7","7","7","5","5","5","5","5","5","2","1","2","2","2","2","2","2","5","5","5","5","1","5","5","5","5","5","8","7","8","8","8","7","8","9","7","7","7","7","7","7","7","7","1","7","7","1","7","6","7","7","7","7","7","7","7","7","7","7","7","7","7","7","7","7","7","7","7","7","7","7","7","7","7","7","7","7","598901822953881600","杨","404","Male","[""坏他"",""坏我"",""好我"",""好他""]","[""弱他"",""弱我"",""强我"",""强他""]","","","","","","","","","","","","","","","","","","","","","","","","","","","","","","feedback_test","","","","","","","","",""
"755","","f","psychophysics","26","261306","0.0-8.0-0.0-1.0-0.0-0.8","7","7","7","7","7","5","5","5","5","5","5","2","1","2","2","2","2","2","2","5","5","5","5","1","5","5","5","5","5","8","7","8","8","8","7","8","9","7","7","7","7","7","7","7","7","1","7","7","1","7","6","7","7","7","7","7","7","7","7","7","7","7","7","7","7","7","7","7","7","7","7","7","7","7","7","7","7","7","7","598901822953881600","杨","404","Male","[""坏他"",""坏我"",""好我"",""好他""]","[""弱他"",""弱我"",""强我"",""强他""]","","","","","","","","match","","","","","","","","","","key","f","16.66498095238099","768","428","f","true","match","img/diamond.png","好我","好我","prac_ALT2_moral","practice_moral","","","","","","","","",""
"null","<span style='color:GreenYellow; font-size: 70px;'>正确! </span>","null","html-keyboard-response","27","261807","0.0-8.0-0.0-1.0-0.0-1.8","7","7","7","7","7","5","5","5","5","5","5","2","1","2","2","2","2","2","2","5","5","5","5","1","5","5","5","5","5","8","7","8","8","8","7","8","9","7","7","7","7","7","7","7","7","1","7","7","1","7","6","7","7","7","7","7","7","7","7","7","7","7","7","7","7","7","7","7","7","7","7","7","7","7","7","7","7","7","7","598901822953881600","杨","404","Male","[""坏他"",""坏我"",""好我"",""好他""]","[""弱他"",""弱我"",""强我"",""强他""]","","","","","","","","","","","","","","","","","","","","","","","","","","","","","","feedback_test","","","","","","","","",""
"894","","j","psychophysics","28","263705","0.0-8.0-0.0-1.0-0.0-0.9","7","7","7","7","7","5","5","5","5","5","5","2","1","2","2","2","2","2","2","5","5","5","5","1","5","5","5","5","5","8","7","8","8","8","7","8","9","7","7","7","7","7","7","7","7","1","7","7","1","7","6","7","7","7","7","7","7","7","7","7","7","7","7","7","7","7","7","7","7","7","7","7","7","7","7","7","7","7","7","598901822953881600","杨","404","Male","[""坏他"",""坏我"",""好我"",""好他""]","[""弱他"",""弱我"",""强我"",""强他""]","","","","","","","","nonmatch","","","","","","","","","","key","j","16.665460176991537","768","428","j","true","nonmatch","img/circle.png","好我","坏我","prac_ALT2_moral","practice_moral","","","","","","","","",""
"null","<span style='color:GreenYellow; font-size: 70px;'>正确! </span>","null","html-keyboard-response","29","264208","0.0-8.0-0.0-1.0-0.0-1.9","7","7","7","7","7","5","5","5","5","5","5","2","1","2","2","2","2","2","2","5","5","5","5","1","5","5","5","5","5","8","7","8","8","8","7","8","9","7","7","7","7","7","7","7","7","1","7","7","1","7","6","7","7","7","7","7","7","7","7","7","7","7","7","7","7","7","7","7","7","7","7","7","7","7","7","7","7","7","7","598901822953881600","杨","404","Male","[""坏他"",""坏我"",""好我"",""好他""]","[""弱他"",""弱我"",""强我"",""强他""]","","","","","","","","","","","","","","","","","","","","","","","","","","","","","","feedback_test","","","","","","","","",""
"944","","j","psychophysics","30","266155","0.0-8.0-0.0-1.0-0.0-0.10","7","7","7","7","7","5","5","5","5","5","5","2","1","2","2","2","2","2","2","5","5","5","5","1","5","5","5","5","5","8","7","8","8","8","7","8","9","7","7","7","7","7","7","7","7","1","7","7","1","7","6","7","7","7","7","7","7","7","7","7","7","7","7","7","7","7","7","7","7","7","7","7","7","7","7","7","7","7","7","598901822953881600","杨","404","Male","[""坏他"",""坏我"",""好我"",""好他""]","[""弱他"",""弱我"",""强我"",""强他""]","","","","","","","","nonmatch","","","","","","","","","","key","j","16.66386206896578","768","428","j","true","nonmatch","img/diamond.png","坏我","好我","prac_ALT2_moral","practice_moral","","","","","","","","",""
"null","<span style='color:GreenYellow; font-size: 70px;'>正确! </span>","null","html-keyboard-response","31","266661","0.0-8.0-0.0-1.0-0.0-1.10","7","7","7","7","7","5","5","5","5","5","5","2","1","2","2","2","2","2","2","5","5","5","5","1","5","5","5","5","5","8","7","8","8","8","7","8","9","7","7","7","7","7","7","7","7","1","7","7","1","7","6","7","7","7","7","7","7","7","7","7","7","7","7","7","7","7","7","7","7","7","7","7","7","7","7","7","7","7","7","598901822953881600","杨","404","Male","[""坏他"",""坏我"",""好我"",""好他""]","[""弱他"",""弱我"",""强我"",""强他""]","","","","","","","","","","","","","","","","","","","","","","","","","","","","","","feedback_test","","","","","","","","",""
"679","","j","psychophysics","32","268342","0.0-8.0-0.0-1.0-0.0-0.11","7","7","7","7","7","5","5","5","5","5","5","2","1","2","2","2","2","2","2","5","5","5","5","1","5","5","5","5","5","8","7","8","8","8","7","8","9","7","7","7","7","7","7","7","7","1","7","7","1","7","6","7","7","7","7","7","7","7","7","7","7","7","7","7","7","7","7","7","7","7","7","7","7","7","7","7","7","7","7","598901822953881600","杨","404","Male","[""坏他"",""坏我"",""好我"",""好他""]","[""弱他"",""弱我"",""强我"",""强他""]","","","","","","","","nonmatch","","","","","","","","","","key","j","16.66409000000043","768","428","j","true","nonmatch","img/hexagon.png","好我","好他","prac_ALT2_moral","practice_moral","","","","","","","","",""
"null","<span style='color:GreenYellow; font-size: 70px;'>正确! </span>","null","html-keyboard-response","33","268844","0.0-8.0-0.0-1.0-0.0-1.11","7","7","7","7","7","5","5","5","5","5","5","2","1","2","2","2","2","2","2","5","5","5","5","1","5","5","5","5","5","8","7","8","8","8","7","8","9","7","7","7","7","7","7","7","7","1","7","7","1","7","6","7","7","7","7","7","7","7","7","7","7","7","7","7","7","7","7","7","7","7","7","7","7","7","7","7","7","7","7","598901822953881600","杨","404","Male","[""坏他"",""坏我"",""好我"",""好他""]","[""弱他"",""弱我"",""强我"",""强他""]","","","","","","","","","","","","","","","","","","","","","","","","","","","","","","feedback_test","","","","","","","","",""
"843","","f","psychophysics","34","270691","0.0-8.0-0.0-1.0-0.0-0.12","7","7","7","7","7","5","5","5","5","5","5","2","1","2","2","2","2","2","2","5","5","5","5","1","5","5","5","5","5","8","7","8","8","8","7","8","9","7","7","7","7","7","7","7","7","1","7","7","1","7","6","7","7","7","7","7","7","7","7","7","7","7","7","7","7","7","7","7","7","7","7","7","7","7","7","7","7","7","7","598901822953881600","杨","404","Male","[""坏他"",""坏我"",""好我"",""好他""]","[""弱他"",""弱我"",""强我"",""强他""]","","","","","","","","match","","","","","","","","","","key","f","16.66488181818171","768","428","f","true","match","img/trapezoid.png","坏他","坏他","prac_ALT2_moral","practice_moral","","","","","","","","",""
"null","<span style='color:GreenYellow; font-size: 70px;'>正确! </span>","null","html-keyboard-response","35","271193","0.0-8.0-0.0-1.0-0.0-1.12","7","7","7","7","7","5","5","5","5","5","5","2","1","2","2","2","2","2","2","5","5","5","5","1","5","5","5","5","5","8","7","8","8","8","7","8","9","7","7","7","7","7","7","7","7","1","7","7","1","7","6","7","7","7","7","7","7","7","7","7","7","7","7","7","7","7","7","7","7","7","7","7","7","7","7","7","7","7","7","598901822953881600","杨","404","Male","[""坏他"",""坏我"",""好我"",""好他""]","[""弱他"",""弱我"",""强我"",""强他""]","","","","","","","","","","","","","","","","","","","","","","","","","","","","","","feedback_test","","","","","","","","",""
"585","","f","psychophysics","36","272780","0.0-8.0-0.0-1.0-0.0-0.13","7","7","7","7","7","5","5","5","5","5","5","2","1","2","2","2","2","2","2","5","5","5","5","1","5","5","5","5","5","8","7","8","8","8","7","8","9","7","7","7","7","7","7","7","7","1","7","7","1","7","6","7","7","7","7","7","7","7","7","7","7","7","7","7","7","7","7","7","7","7","7","7","7","7","7","7","7","7","7","598901822953881600","杨","404","Male","[""坏他"",""坏我"",""好我"",""好他""]","[""弱他"",""弱我"",""强我"",""强他""]","","","","","","","","match","","","","","","","","","","key","f","16.551627659574496","768","428","f","true","match","img/diamond.png","好我","好我","prac_ALT2_moral","practice_moral","","","","","","","","",""
"null","<span style='color:GreenYellow; font-size: 70px;'>正确! </span>","null","html-keyboard-response","37","273281","0.0-8.0-0.0-1.0-0.0-1.13","7","7","7","7","7","5","5","5","5","5","5","2","1","2","2","2","2","2","2","5","5","5","5","1","5","5","5","5","5","8","7","8","8","8","7","8","9","7","7","7","7","7","7","7","7","1","7","7","1","7","6","7","7","7","7","7","7","7","7","7","7","7","7","7","7","7","7","7","7","7","7","7","7","7","7","7","7","7","7","598901822953881600","杨","404","Male","[""坏他"",""坏我"",""好我"",""好他""]","[""弱他"",""弱我"",""强我"",""强他""]","","","","","","","","","","","","","","","","","","","","","","","","","","","","","","feedback_test","","","","","","","","",""
"575","","f","psychophysics","38","274858","0.0-8.0-0.0-1.0-0.0-0.14","7","7","7","7","7","5","5","5","5","5","5","2","1","2","2","2","2","2","2","5","5","5","5","1","5","5","5","5","5","8","7","8","8","8","7","8","9","7","7","7","7","7","7","7","7","1","7","7","1","7","6","7","7","7","7","7","7","7","7","7","7","7","7","7","7","7","7","7","7","7","7","7","7","7","7","7","7","7","7","598901822953881600","杨","404","Male","[""坏他"",""坏我"",""好我"",""好他""]","[""弱他"",""弱我"",""强我"",""强他""]","","","","","","","","match","","","","","","","","","","key","f","16.666808510638223","768","428","j","false","nonmatch","img/hexagon.png","坏我","好他","prac_ALT2_moral","practice_moral","","","","","","","","",""
"null","<span style='color:red; font-size: 70px;'>错误! </span>","null","html-keyboard-response","39","275359","0.0-8.0-0.0-1.0-0.0-1.14","7","7","7","7","7","5","5","5","5","5","5","2","1","2","2","2","2","2","2","5","5","5","5","1","5","5","5","5","5","8","7","8","8","8","7","8","9","7","7","7","7","7","7","7","7","1","7","7","1","7","6","7","7","7","7","7","7","7","7","7","7","7","7","7","7","7","7","7","7","7","7","7","7","7","7","7","7","7","7","598901822953881600","杨","404","Male","[""坏他"",""坏我"",""好我"",""好他""]","[""弱他"",""弱我"",""强我"",""强他""]","","","","","","","","","","","","","","","","","","","","","","","","","","","","","","feedback_test","","","","","","","","",""
"709","","j","psychophysics","40","277079","0.0-8.0-0.0-1.0-0.0-0.15","7","7","7","7","7","5","5","5","5","5","5","2","1","2","2","2","2","2","2","5","5","5","5","1","5","5","5","5","5","8","7","8","8","8","7","8","9","7","7","7","7","7","7","7","7","1","7","7","1","7","6","7","7","7","7","7","7","7","7","7","7","7","7","7","7","7","7","7","7","7","7","7","7","7","7","7","7","7","7","598901822953881600","杨","404","Male","[""坏他"",""坏我"",""好我"",""好他""]","[""弱他"",""弱我"",""强我"",""强他""]","","","","","","","","nonmatch","","","","","","","","","","key","j","16.66691176470611","768","428","f","false","match","img/circle.png","坏我","坏我","prac_ALT2_moral","practice_moral","","","","","","","","",""
"null","<span style='color:red; font-size: 70px;'>错误! </span>","null","html-keyboard-response","41","277582","0.0-8.0-0.0-1.0-0.0-1.15","7","7","7","7","7","5","5","5","5","5","5","2","1","2","2","2","2","2","2","5","5","5","5","1","5","5","5","5","5","8","7","8","8","8","7","8","9","7","7","7","7","7","7","7","7","1","7","7","1","7","6","7","7","7","7","7","7","7","7","7","7","7","7","7","7","7","7","7","7","7","7","7","7","7","7","7","7","7","7","598901822953881600","杨","404","Male","[""坏他"",""坏我"",""好我"",""好他""]","[""弱他"",""弱我"",""强我"",""强他""]","","","","","","","","","","","","","","","","","","","","","","","","","","","","","","feedback_test","","","","","","","","",""
"817","","f","psychophysics","42","279401","0.0-8.0-0.0-1.0-0.0-0.16","7","7","7","7","7","5","5","5","5","5","5","2","1","2","2","2","2","2","2","5","5","5","5","1","5","5","5","5","5","8","7","8","8","8","7","8","9","7","7","7","7","7","7","7","7","1","7","7","1","7","6","7","7","7","7","7","7","7","7","7","7","7","7","7","7","7","7","7","7","7","7","7","7","7","7","7","7","7","7","598901822953881600","杨","404","Male","[""坏他"",""坏我"",""好我"",""好他""]","[""弱他"",""弱我"",""强我"",""强他""]","","","","","","","","match","","","","","","","","","","key","f","16.665138888888546","768","428","f","true","match","img/trapezoid.png","坏他","坏他","prac_ALT2_moral","practice_moral","","","","","","","","",""
"null","<span style='color:GreenYellow; font-size: 70px;'>正确! </span>","null","html-keyboard-response","43","279902","0.0-8.0-0.0-1.0-0.0-1.16","7","7","7","7","7","5","5","5","5","5","5","2","1","2","2","2","2","2","2","5","5","5","5","1","5","5","5","5","5","8","7","8","8","8","7","8","9","7","7","7","7","7","7","7","7","1","7","7","1","7","6","7","7","7","7","7","7","7","7","7","7","7","7","7","7","7","7","7","7","7","7","7","7","7","7","7","7","7","7","598901822953881600","杨","404","Male","[""坏他"",""坏我"",""好我"",""好他""]","[""弱他"",""弱我"",""强我"",""强他""]","","","","","","","","","","","","","","","","","","","","","","","","","","","","","","feedback_test","","","","","","","","",""
"852","","j","psychophysics","44","281756","0.0-8.0-0.0-1.0-0.0-0.17","7","7","7","7","7","5","5","5","5","5","5","2","1","2","2","2","2","2","2","5","5","5","5","1","5","5","5","5","5","8","7","8","8","8","7","8","9","7","7","7","7","7","7","7","7","1","7","7","1","7","6","7","7","7","7","7","7","7","7","7","7","7","7","7","7","7","7","7","7","7","7","7","7","7","7","7","7","7","7","598901822953881600","杨","404","Male","[""坏他"",""坏我"",""好我"",""好他""]","[""弱他"",""弱我"",""强我"",""强他""]","","","","","","","","nonmatch","","","","","","","","","","key","j","16.663727272727357","768","428","j","true","nonmatch","img/trapezoid.png","好他","坏他","prac_ALT2_moral","practice_moral","","","","","","","","",""
"null","<span style='color:GreenYellow; font-size: 70px;'>正确! </span>","null","html-keyboard-response","45","282257","0.0-8.0-0.0-1.0-0.0-1.17","7","7","7","7","7","5","5","5","5","5","5","2","1","2","2","2","2","2","2","5","5","5","5","1","5","5","5","5","5","8","7","8","8","8","7","8","9","7","7","7","7","7","7","7","7","1","7","7","1","7","6","7","7","7","7","7","7","7","7","7","7","7","7","7","7","7","7","7","7","7","7","7","7","7","7","7","7","7","7","598901822953881600","杨","404","Male","[""坏他"",""坏我"",""好我"",""好他""]","[""弱他"",""弱我"",""强我"",""强他""]","","","","","","","","","","","","","","","","","","","","","","","","","","","","","","feedback_test","","","","","","","","",""
"852","","f","psychophysics","46","284112","0.0-8.0-0.0-1.0-0.0-0.18","7","7","7","7","7","5","5","5","5","5","5","2","1","2","2","2","2","2","2","5","5","5","5","1","5","5","5","5","5","8","7","8","8","8","7","8","9","7","7","7","7","7","7","7","7","1","7","7","1","7","6","7","7","7","7","7","7","7","7","7","7","7","7","7","7","7","7","7","7","7","7","7","7","7","7","7","7","7","7","598901822953881600","杨","404","Male","[""坏他"",""坏我"",""好我"",""好他""]","[""弱他"",""弱我"",""强我"",""强他""]","","","","","","","","match","","","","","","","","","","key","f","16.666990909090963","768","428","f","true","match","img/hexagon.png","好他","好他","prac_ALT2_moral","practice_moral","","","","","","","","",""
"null","<span style='color:GreenYellow; font-size: 70px;'>正确! </span>","null","html-keyboard-response","47","284615","0.0-8.0-0.0-1.0-0.0-1.18","7","7","7","7","7","5","5","5","5","5","5","2","1","2","2","2","2","2","2","5","5","5","5","1","5","5","5","5","5","8","7","8","8","8","7","8","9","7","7","7","7","7","7","7","7","1","7","7","1","7","6","7","7","7","7","7","7","7","7","7","7","7","7","7","7","7","7","7","7","7","7","7","7","7","7","7","7","7","7","598901822953881600","杨","404","Male","[""坏他"",""坏我"",""好我"",""好他""]","[""弱他"",""弱我"",""强我"",""强他""]","","","","","","","","","","","","","","","","","","","","","","","","","","","","","","feedback_test","","","","","","","","",""
"924","","f","psychophysics","48","286541","0.0-8.0-0.0-1.0-0.0-0.19","7","7","7","7","7","5","5","5","5","5","5","2","1","2","2","2","2","2","2","5","5","5","5","1","5","5","5","5","5","8","7","8","8","8","7","8","9","7","7","7","7","7","7","7","7","1","7","7","1","7","6","7","7","7","7","7","7","7","7","7","7","7","7","7","7","7","7","7","7","7","7","7","7","7","7","7","7","7","7","598901822953881600","杨","404","Male","[""坏他"",""坏我"",""好我"",""好他""]","[""弱他"",""弱我"",""强我"",""强他""]","","","","","","","","match","","","","","","","","","","key","f","16.666087719298318","768","428","f","true","match","img/circle.png","坏我","坏我","prac_ALT2_moral","practice_moral","","","","","","","","",""
"null","<span style='color:GreenYellow; font-size: 70px;'>正确! </span>","null","html-keyboard-response","49","287043","0.0-8.0-0.0-1.0-0.0-1.19","7","7","7","7","7","5","5","5","5","5","5","2","1","2","2","2","2","2","2","5","5","5","5","1","5","5","5","5","5","8","7","8","8","8","7","8","9","7","7","7","7","7","7","7","7","1","7","7","1","7","6","7","7","7","7","7","7","7","7","7","7","7","7","7","7","7","7","7","7","7","7","7","7","7","7","7","7","7","7","598901822953881600","杨","404","Male","[""坏他"",""坏我"",""好我"",""好他""]","[""弱他"",""弱我"",""强我"",""强他""]","","","","","","","","","","","","","","","","","","","","","","","","","","","","","","feedback_test","","","","","","","","",""
"675","","j","psychophysics","50","288719","0.0-8.0-0.0-1.0-0.0-0.20","7","7","7","7","7","5","5","5","5","5","5","2","1","2","2","2","2","2","2","5","5","5","5","1","5","5","5","5","5","8","7","8","8","8","7","8","9","7","7","7","7","7","7","7","7","1","7","7","1","7","6","7","7","7","7","7","7","7","7","7","7","7","7","7","7","7","7","7","7","7","7","7","7","7","7","7","7","7","7","598901822953881600","杨","404","Male","[""坏他"",""坏我"",""好我"",""好他""]","[""弱他"",""弱我"",""强我"",""强他""]","","","","","","","","nonmatch","","","","","","","","","","key","j","16.667730000000446","768","428","j","true","nonmatch","img/circle.png","坏他","坏我","prac_ALT2_moral","practice_moral","","","","","","","","",""
"null","<span style='color:GreenYellow; font-size: 70px;'>正确! </span>","null","html-keyboard-response","51","289222","0.0-8.0-0.0-1.0-0.0-1.20","7","7","7","7","7","5","5","5","5","5","5","2","1","2","2","2","2","2","2","5","5","5","5","1","5","5","5","5","5","8","7","8","8","8","7","8","9","7","7","7","7","7","7","7","7","1","7","7","1","7","6","7","7","7","7","7","7","7","7","7","7","7","7","7","7","7","7","7","7","7","7","7","7","7","7","7","7","7","7","598901822953881600","杨","404","Male","[""坏他"",""坏我"",""好我"",""好他""]","[""弱他"",""弱我"",""强我"",""强他""]","","","","","","","","","","","","","","","","","","","","","","","","","","","","","","feedback_test","","","","","","","","",""
"745","","f","psychophysics","52","290968","0.0-8.0-0.0-1.0-0.0-0.21","7","7","7","7","7","5","5","5","5","5","5","2","1","2","2","2","2","2","2","5","5","5","5","1","5","5","5","5","5","8","7","8","8","8","7","8","9","7","7","7","7","7","7","7","7","1","7","7","1","7","6","7","7","7","7","7","7","7","7","7","7","7","7","7","7","7","7","7","7","7","7","7","7","7","7","7","7","7","7","598901822953881600","杨","404","Male","[""坏他"",""坏我"",""好我"",""好他""]","[""弱他"",""弱我"",""强我"",""强他""]","","","","","","","","match","","","","","","","","","","key","f","16.667144230769527","768","428","f","true","match","img/hexagon.png","好他","好他","prac_ALT2_moral","practice_moral","","","","","","","","",""
"null","<span style='color:GreenYellow; font-size: 70px;'>正确! </span>","null","html-keyboard-response","53","291471","0.0-8.0-0.0-1.0-0.0-1.21","7","7","7","7","7","5","5","5","5","5","5","2","1","2","2","2","2","2","2","5","5","5","5","1","5","5","5","5","5","8","7","8","8","8","7","8","9","7","7","7","7","7","7","7","7","1","7","7","1","7","6","7","7","7","7","7","7","7","7","7","7","7","7","7","7","7","7","7","7","7","7","7","7","7","7","7","7","7","7","598901822953881600","杨","404","Male","[""坏他"",""坏我"",""好我"",""好他""]","[""弱他"",""弱我"",""强我"",""强他""]","","","","","","","","","","","","","","","","","","","","","","","","","","","","","","feedback_test","","","","","","","","",""
"689","","j","psychophysics","54","293165","0.0-8.0-0.0-1.0-0.0-0.22","7","7","7","7","7","5","5","5","5","5","5","2","1","2","2","2","2","2","2","5","5","5","5","1","5","5","5","5","5","8","7","8","8","8","7","8","9","7","7","7","7","7","7","7","7","1","7","7","1","7","6","7","7","7","7","7","7","7","7","7","7","7","7","7","7","7","7","7","7","7","7","7","7","7","7","7","7","7","7","598901822953881600","杨","404","Male","[""坏他"",""坏我"",""好我"",""好他""]","[""弱他"",""弱我"",""强我"",""强他""]","","","","","","","","nonmatch","","","","","","","","","","key","j","16.664980198019805","768","428","j","true","nonmatch","img/diamond.png","坏他","好我","prac_ALT2_moral","practice_moral","","","","","","","","",""
"null","<span style='color:GreenYellow; font-size: 70px;'>正确! </span>","null","html-keyboard-response","55","293666","0.0-8.0-0.0-1.0-0.0-1.22","7","7","7","7","7","5","5","5","5","5","5","2","1","2","2","2","2","2","2","5","5","5","5","1","5","5","5","5","5","8","7","8","8","8","7","8","9","7","7","7","7","7","7","7","7","1","7","7","1","7","6","7","7","7","7","7","7","7","7","7","7","7","7","7","7","7","7","7","7","7","7","7","7","7","7","7","7","7","7","598901822953881600","杨","404","Male","[""坏他"",""坏我"",""好我"",""好他""]","[""弱他"",""弱我"",""强我"",""强他""]","","","","","","","","","","","","","","","","","","","","","","","","","","","","","","feedback_test","","","","","","","","",""
"872","","f","psychophysics","56","295540","0.0-8.0-0.0-1.0-0.0-0.23","7","7","7","7","7","5","5","5","5","5","5","2","1","2","2","2","2","2","2","5","5","5","5","1","5","5","5","5","5","8","7","8","8","8","7","8","9","7","7","7","7","7","7","7","7","1","7","7","1","7","6","7","7","7","7","7","7","7","7","7","7","7","7","7","7","7","7","7","7","7","7","7","7","7","7","7","7","7","7","598901822953881600","杨","404","Male","[""坏他"",""坏我"",""好我"",""好他""]","[""弱他"",""弱我"",""强我"",""强他""]","","","","","","","","match","","","","","","","","","","key","f","16.664423423423326","768","428","f","true","match","img/circle.png","坏我","坏我","prac_ALT2_moral","practice_moral","","","","","","","","",""
"null","<span style='color:GreenYellow; font-size: 70px;'>正确! </span>","null","html-keyboard-response","57","296042","0.0-8.0-0.0-1.0-0.0-1.23","7","7","7","7","7","5","5","5","5","5","5","2","1","2","2","2","2","2","2","5","5","5","5","1","5","5","5","5","5","8","7","8","8","8","7","8","9","7","7","7","7","7","7","7","7","1","7","7","1","7","6","7","7","7","7","7","7","7","7","7","7","7","7","7","7","7","7","7","7","7","7","7","7","7","7","7","7","7","7","598901822953881600","杨","404","Male","[""坏他"",""坏我"",""好我"",""好他""]","[""弱他"",""弱我"",""强我"",""强他""]","","","","","","","","","","","","","","","","","","","","","","","","","","","","","","feedback_test","","","","","","","","",""
"679","","j","psychophysics","58","297727","0.0-8.0-0.0-1.0-0.0-0.24","7","7","7","7","7","5","5","5","5","5","5","2","1","2","2","2","2","2","2","5","5","5","5","1","5","5","5","5","5","8","7","8","8","8","7","8","9","7","7","7","7","7","7","7","7","1","7","7","1","7","6","7","7","7","7","7","7","7","7","7","7","7","7","7","7","7","7","7","7","7","7","7","7","7","7","7","7","7","7","598901822953881600","杨","404","Male","[""坏他"",""坏我"",""好我"",""好他""]","[""弱他"",""弱我"",""强我"",""强他""]","","","","","","","","nonmatch","","","","","","","","","","key","j","16.665689999999596","768","428","f","false","match","img/circle.png","坏我","坏我","prac_ALT2_moral","practice_moral","","","","","","","","",""
"null","<span style='color:red; font-size: 70px;'>错误! </span>","null","html-keyboard-response","59","298228","0.0-8.0-0.0-1.0-0.0-1.24","7","7","7","7","7","5","5","5","5","5","5","2","1","2","2","2","2","2","2","5","5","5","5","1","5","5","5","5","5","8","7","8","8","8","7","8","9","7","7","7","7","7","7","7","7","1","7","7","1","7","6","7","7","7","7","7","7","7","7","7","7","7","7","7","7","7","7","7","7","7","7","7","7","7","7","7","7","7","7","598901822953881600","杨","404","Male","[""坏他"",""坏我"",""好我"",""好他""]","[""弱他"",""弱我"",""强我"",""强他""]","","","","","","","","","","","","","","","","","","","","","","","","","","","","","","feedback_test","","","","","","","","",""
"854","","j","psychophysics","60","300084","0.0-8.0-0.0-1.0-0.0-0.25","7","7","7","7","7","5","5","5","5","5","5","2","1","2","2","2","2","2","2","5","5","5","5","1","5","5","5","5","5","8","7","8","8","8","7","8","9","7","7","7","7","7","7","7","7","1","7","7","1","7","6","7","7","7","7","7","7","7","7","7","7","7","7","7","7","7","7","7","7","7","7","7","7","7","7","7","7","7","7","598901822953881600","杨","404","Male","[""坏他"",""坏我"",""好我"",""好他""]","[""弱他"",""弱我"",""强我"",""强他""]","","","","","","","","nonmatch","","","","","","","","","","key","j","16.66556756756728","768","428","j","true","nonmatch","img/diamond.png","好他","好我","prac_ALT2_moral","practice_moral","","","","","","","","",""
"null","<span style='color:GreenYellow; font-size: 70px;'>正确! </span>","null","html-keyboard-response","61","300585","0.0-8.0-0.0-1.0-0.0-1.25","7","7","7","7","7","5","5","5","5","5","5","2","1","2","2","2","2","2","2","5","5","5","5","1","5","5","5","5","5","8","7","8","8","8","7","8","9","7","7","7","7","7","7","7","7","1","7","7","1","7","6","7","7","7","7","7","7","7","7","7","7","7","7","7","7","7","7","7","7","7","7","7","7","7","7","7","7","7","7","598901822953881600","杨","404","Male","[""坏他"",""坏我"",""好我"",""好他""]","[""弱他"",""弱我"",""强我"",""强他""]","","","","","","","","","","","","","","","","","","","","","","","","","","","","","","feedback_test","","","","","","","","",""
"418","","f","psychophysics","62","302005","0.0-8.0-0.0-1.0-0.0-0.26","7","7","7","7","7","5","5","5","5","5","5","2","1","2","2","2","2","2","2","5","5","5","5","1","5","5","5","5","5","8","7","8","8","8","7","8","9","7","7","7","7","7","7","7","7","1","7","7","1","7","6","7","7","7","7","7","7","7","7","7","7","7","7","7","7","7","7","7","7","7","7","7","7","7","7","7","7","7","7","598901822953881600","杨","404","Male","[""坏他"",""坏我"",""好我"",""好他""]","[""弱他"",""弱我"",""强我"",""强他""]","","","","","","","","match","","","","","","","","","","key","f","16.666726190476247","768","428","f","true","match","img/trapezoid.png","坏他","坏他","prac_ALT2_moral","practice_moral","","","","","","","","",""
"null","<span style='color:GreenYellow; font-size: 70px;'>正确! </span>","null","html-keyboard-response","63","302506","0.0-8.0-0.0-1.0-0.0-1.26","7","7","7","7","7","5","5","5","5","5","5","2","1","2","2","2","2","2","2","5","5","5","5","1","5","5","5","5","5","8","7","8","8","8","7","8","9","7","7","7","7","7","7","7","7","1","7","7","1","7","6","7","7","7","7","7","7","7","7","7","7","7","7","7","7","7","7","7","7","7","7","7","7","7","7","7","7","7","7","598901822953881600","杨","404","Male","[""坏他"",""坏我"",""好我"",""好他""]","[""弱他"",""弱我"",""强我"",""强他""]","","","","","","","","","","","","","","","","","","","","","","","","","","","","","","feedback_test","","","","","","","","",""
"706","","j","psychophysics","64","304216","0.0-8.0-0.0-1.0-0.0-0.27","7","7","7","7","7","5","5","5","5","5","5","2","1","2","2","2","2","2","2","5","5","5","5","1","5","5","5","5","5","8","7","8","8","8","7","8","9","7","7","7","7","7","7","7","7","1","7","7","1","7","6","7","7","7","7","7","7","7","7","7","7","7","7","7","7","7","7","7","7","7","7","7","7","7","7","7","7","7","7","598901822953881600","杨","404","Male","[""坏他"",""坏我"",""好我"",""好他""]","[""弱他"",""弱我"",""强我"",""强他""]","","","","","","","","nonmatch","","","","","","","","","","key","j","16.66954901960779","768","428","j","true","nonmatch","img/circle.png","好他","坏我","prac_ALT2_moral","practice_moral","","","","","","","","",""
"null","<span style='color:GreenYellow; font-size: 70px;'>正确! </span>","null","html-keyboard-response","65","304718","0.0-8.0-0.0-1.0-0.0-1.27","7","7","7","7","7","5","5","5","5","5","5","2","1","2","2","2","2","2","2","5","5","5","5","1","5","5","5","5","5","8","7","8","8","8","7","8","9","7","7","7","7","7","7","7","7","1","7","7","1","7","6","7","7","7","7","7","7","7","7","7","7","7","7","7","7","7","7","7","7","7","7","7","7","7","7","7","7","7","7","598901822953881600","杨","404","Male","[""坏他"",""坏我"",""好我"",""好他""]","[""弱他"",""弱我"",""强我"",""强他""]","","","","","","","","","","","","","","","","","","","","","","","","","","","","","","feedback_test","","","","","","","","",""
"798","","j","psychophysics","66","306519","0.0-8.0-0.0-1.0-0.0-0.28","7","7","7","7","7","5","5","5","5","5","5","2","1","2","2","2","2","2","2","5","5","5","5","1","5","5","5","5","5","8","7","8","8","8","7","8","9","7","7","7","7","7","7","7","7","1","7","7","1","7","6","7","7","7","7","7","7","7","7","7","7","7","7","7","7","7","7","7","7","7","7","7","7","7","7","7","7","7","7","598901822953881600","杨","404","Male","[""坏他"",""坏我"",""好我"",""好他""]","[""弱他"",""弱我"",""强我"",""强他""]","","","","","","","","nonmatch","","","","","","","","","","key","j","16.66390654205608","768","428","j","true","nonmatch","img/hexagon.png","好我","好他","prac_ALT2_moral","practice_moral","","","","","","","","",""
"null","<span style='color:GreenYellow; font-size: 70px;'>正确! </span>","null","html-keyboard-response","67","307021","0.0-8.0-0.0-1.0-0.0-1.28","7","7","7","7","7","5","5","5","5","5","5","2","1","2","2","2","2","2","2","5","5","5","5","1","5","5","5","5","5","8","7","8","8","8","7","8","9","7","7","7","7","7","7","7","7","1","7","7","1","7","6","7","7","7","7","7","7","7","7","7","7","7","7","7","7","7","7","7","7","7","7","7","7","7","7","7","7","7","7","598901822953881600","杨","404","Male","[""坏他"",""坏我"",""好我"",""好他""]","[""弱他"",""弱我"",""强我"",""强他""]","","","","","","","","","","","","","","","","","","","","","","","","","","","","","","feedback_test","","","","","","","","",""
"732","","f","psychophysics","68","308756","0.0-8.0-0.0-1.0-0.0-0.29","7","7","7","7","7","5","5","5","5","5","5","2","1","2","2","2","2","2","2","5","5","5","5","1","5","5","5","5","5","8","7","8","8","8","7","8","9","7","7","7","7","7","7","7","7","1","7","7","1","7","6","7","7","7","7","7","7","7","7","7","7","7","7","7","7","7","7","7","7","7","7","7","7","7","7","7","7","7","7","598901822953881600","杨","404","Male","[""坏他"",""坏我"",""好我"",""好他""]","[""弱他"",""弱我"",""强我"",""强他""]","","","","","","","","match","","","","","","","","","","key","f","16.668844660194207","768","428","f","true","match","img/circle.png","坏我","坏我","prac_ALT2_moral","practice_moral","","","","","","","","",""
"null","<span style='color:GreenYellow; font-size: 70px;'>正确! </span>","null","html-keyboard-response","69","309258","0.0-8.0-0.0-1.0-0.0-1.29","7","7","7","7","7","5","5","5","5","5","5","2","1","2","2","2","2","2","2","5","5","5","5","1","5","5","5","5","5","8","7","8","8","8","7","8","9","7","7","7","7","7","7","7","7","1","7","7","1","7","6","7","7","7","7","7","7","7","7","7","7","7","7","7","7","7","7","7","7","7","7","7","7","7","7","7","7","7","7","598901822953881600","杨","404","Male","[""坏他"",""坏我"",""好我"",""好他""]","[""弱他"",""弱我"",""强我"",""强他""]","","","","","","","","","","","","","","","","","","","","","","","","","","","","","","feedback_test","","","","","","","","",""
"687","","j","psychophysics","70","310948","0.0-8.0-0.0-1.0-0.0-0.30","7","7","7","7","7","5","5","5","5","5","5","2","1","2","2","2","2","2","2","5","5","5","5","1","5","5","5","5","5","8","7","8","8","8","7","8","9","7","7","7","7","7","7","7","7","1","7","7","1","7","6","7","7","7","7","7","7","7","7","7","7","7","7","7","7","7","7","7","7","7","7","7","7","7","7","7","7","7","7","598901822953881600","杨","404","Male","[""坏他"",""坏我"",""好我"",""好他""]","[""弱他"",""弱我"",""强我"",""强他""]","","","","","","","","nonmatch","","","","","","","","","","key","j","16.665762376237318","768","428","j","true","nonmatch","img/diamond.png","坏他","好我","prac_ALT2_moral","practice_moral","","","","","","","","",""
"null","<span style='color:GreenYellow; font-size: 70px;'>正确! </span>","null","html-keyboard-response","71","311450","0.0-8.0-0.0-1.0-0.0-1.30","7","7","7","7","7","5","5","5","5","5","5","2","1","2","2","2","2","2","2","5","5","5","5","1","5","5","5","5","5","8","7","8","8","8","7","8","9","7","7","7","7","7","7","7","7","1","7","7","1","7","6","7","7","7","7","7","7","7","7","7","7","7","7","7","7","7","7","7","7","7","7","7","7","7","7","7","7","7","7","598901822953881600","杨","404","Male","[""坏他"",""坏我"",""好我"",""好他""]","[""弱他"",""弱我"",""强我"",""强他""]","","","","","","","","","","","","","","","","","","","","","","","","","","","","","","feedback_test","","","","","","","","",""
"554","","f","psychophysics","72","313006","0.0-8.0-0.0-1.0-0.0-0.31","7","7","7","7","7","5","5","5","5","5","5","2","1","2","2","2","2","2","2","5","5","5","5","1","5","5","5","5","5","8","7","8","8","8","7","8","9","7","7","7","7","7","7","7","7","1","7","7","1","7","6","7","7","7","7","7","7","7","7","7","7","7","7","7","7","7","7","7","7","7","7","7","7","7","7","7","7","7","7","598901822953881600","杨","404","Male","[""坏他"",""坏我"",""好我"",""好他""]","[""弱他"",""弱我"",""强我"",""强他""]","","","","","","","","match","","","","","","","","","","key","f","16.669130434782584","768","428","j","false","nonmatch","img/diamond.png","坏我","好我","prac_ALT2_moral","practice_moral","","","","","","","","",""
"null","<span style='color:red; font-size: 70px;'>错误! </span>","null","html-keyboard-response","73","313508","0.0-8.0-0.0-1.0-0.0-1.31","7","7","7","7","7","5","5","5","5","5","5","2","1","2","2","2","2","2","2","5","5","5","5","1","5","5","5","5","5","8","7","8","8","8","7","8","9","7","7","7","7","7","7","7","7","1","7","7","1","7","6","7","7","7","7","7","7","7","7","7","7","7","7","7","7","7","7","7","7","7","7","7","7","7","7","7","7","7","7","598901822953881600","杨","404","Male","[""坏他"",""坏我"",""好我"",""好他""]","[""弱他"",""弱我"",""强我"",""强他""]","","","","","","","","","","","","","","","","","","","","","","","","","","","","","","feedback_test","","","","","","","","",""
"688","","f","psychophysics","74","315199","0.0-8.0-0.0-1.0-0.0-0.32","7","7","7","7","7","5","5","5","5","5","5","2","1","2","2","2","2","2","2","5","5","5","5","1","5","5","5","5","5","8","7","8","8","8","7","8","9","7","7","7","7","7","7","7","7","1","7","7","1","7","6","7","7","7","7","7","7","7","7","7","7","7","7","7","7","7","7","7","7","7","7","7","7","7","7","7","7","7","7","598901822953881600","杨","404","Male","[""坏他"",""坏我"",""好我"",""好他""]","[""弱他"",""弱我"",""强我"",""强他""]","","","","","","","","match","","","","","","","","","","key","f","16.664752475247663","768","428","f","true","match","img/circle.png","坏我","坏我","prac_ALT2_moral","practice_moral","","","","","","","","",""
"null","<span style='color:GreenYellow; font-size: 70px;'>正确! </span>","null","html-keyboard-response","75","315700","0.0-8.0-0.0-1.0-0.0-1.32","7","7","7","7","7","5","5","5","5","5","5","2","1","2","2","2","2","2","2","5","5","5","5","1","5","5","5","5","5","8","7","8","8","8","7","8","9","7","7","7","7","7","7","7","7","1","7","7","1","7","6","7","7","7","7","7","7","7","7","7","7","7","7","7","7","7","7","7","7","7","7","7","7","7","7","7","7","7","7","598901822953881600","杨","404","Male","[""坏他"",""坏我"",""好我"",""好他""]","[""弱他"",""弱我"",""强我"",""强他""]","","","","","","","","","","","","","","","","","","","","","","","","","","","","","","feedback_test","","","","","","","","",""
"926","","f","psychophysics","76","317629","0.0-8.0-0.0-1.0-0.0-0.33","7","7","7","7","7","5","5","5","5","5","5","2","1","2","2","2","2","2","2","5","5","5","5","1","5","5","5","5","5","8","7","8","8","8","7","8","9","7","7","7","7","7","7","7","7","1","7","7","1","7","6","7","7","7","7","7","7","7","7","7","7","7","7","7","7","7","7","7","7","7","7","7","7","7","7","7","7","7","7","598901822953881600","杨","404","Male","[""坏他"",""坏我"",""好我"",""好他""]","[""弱他"",""弱我"",""强我"",""强他""]","","","","","","","","match","","","","","","","","","","key","f","16.665208695652268","768","428","f","true","match","img/hexagon.png","好他","好他","prac_ALT2_moral","practice_moral","","","","","","","","",""
"null","<span style='color:GreenYellow; font-size: 70px;'>正确! </span>","null","html-keyboard-response","77","318130","0.0-8.0-0.0-1.0-0.0-1.33","7","7","7","7","7","5","5","5","5","5","5","2","1","2","2","2","2","2","2","5","5","5","5","1","5","5","5","5","5","8","7","8","8","8","7","8","9","7","7","7","7","7","7","7","7","1","7","7","1","7","6","7","7","7","7","7","7","7","7","7","7","7","7","7","7","7","7","7","7","7","7","7","7","7","7","7","7","7","7","598901822953881600","杨","404","Male","[""坏他"",""坏我"",""好我"",""好他""]","[""弱他"",""弱我"",""强我"",""强他""]","","","","","","","","","","","","","","","","","","","","","","","","","","","","","","feedback_test","","","","","","","","",""
"702","","f","psychophysics","78","319835","0.0-8.0-0.0-1.0-0.0-0.34","7","7","7","7","7","5","5","5","5","5","5","2","1","2","2","2","2","2","2","5","5","5","5","1","5","5","5","5","5","8","7","8","8","8","7","8","9","7","7","7","7","7","7","7","7","1","7","7","1","7","6","7","7","7","7","7","7","7","7","7","7","7","7","7","7","7","7","7","7","7","7","7","7","7","7","7","7","7","7","598901822953881600","杨","404","Male","[""坏他"",""坏我"",""好我"",""好他""]","[""弱他"",""弱我"",""强我"",""强他""]","","","","","","","","match","","","","","","","","","","key","f","16.664811881188196","768","428","f","true","match","img/diamond.png","好我","好我","prac_ALT2_moral","practice_moral","","","","","","","","",""
"null","<span style='color:GreenYellow; font-size: 70px;'>正确! </span>","null","html-keyboard-response","79","320338","0.0-8.0-0.0-1.0-0.0-1.34","7","7","7","7","7","5","5","5","5","5","5","2","1","2","2","2","2","2","2","5","5","5","5","1","5","5","5","5","5","8","7","8","8","8","7","8","9","7","7","7","7","7","7","7","7","1","7","7","1","7","6","7","7","7","7","7","7","7","7","7","7","7","7","7","7","7","7","7","7","7","7","7","7","7","7","7","7","7","7","598901822953881600","杨","404","Male","[""坏他"",""坏我"",""好我"",""好他""]","[""弱他"",""弱我"",""强我"",""强他""]","","","","","","","","","","","","","","","","","","","","","","","","","","","","","","feedback_test","","","","","","","","",""
"726","","f","psychophysics","80","322068","0.0-8.0-0.0-1.0-0.0-0.35","7","7","7","7","7","5","5","5","5","5","5","2","1","2","2","2","2","2","2","5","5","5","5","1","5","5","5","5","5","8","7","8","8","8","7","8","9","7","7","7","7","7","7","7","7","1","7","7","1","7","6","7","7","7","7","7","7","7","7","7","7","7","7","7","7","7","7","7","7","7","7","7","7","7","7","7","7","7","7","598901822953881600","杨","404","Male","[""坏他"",""坏我"",""好我"",""好他""]","[""弱他"",""弱我"",""强我"",""强他""]","","","","","","","","match","","","","","","","","","","key","f","16.66421359223291","768","428","j","false","nonmatch","img/hexagon.png","坏他","好他","prac_ALT2_moral","practice_moral","","","","","","","","",""
"null","<span style='color:red; font-size: 70px;'>错误! </span>","null","html-keyboard-response","81","322568","0.0-8.0-0.0-1.0-0.0-1.35","7","7","7","7","7","5","5","5","5","5","5","2","1","2","2","2","2","2","2","5","5","5","5","1","5","5","5","5","5","8","7","8","8","8","7","8","9","7","7","7","7","7","7","7","7","1","7","7","1","7","6","7","7","7","7","7","7","7","7","7","7","7","7","7","7","7","7","7","7","7","7","7","7","7","7","7","7","7","7","598901822953881600","杨","404","Male","[""坏他"",""坏我"",""好我"",""好他""]","[""弱他"",""弱我"",""强我"",""强他""]","","","","","","","","","","","","","","","","","","","","","","","","","","","","","","feedback_test","","","","","","","","",""
"705","","j","psychophysics","82","324274","0.0-8.0-0.0-1.0-0.0-0.36","7","7","7","7","7","5","5","5","5","5","5","2","1","2","2","2","2","2","2","5","5","5","5","1","5","5","5","5","5","8","7","8","8","8","7","8","9","7","7","7","7","7","7","7","7","1","7","7","1","7","6","7","7","7","7","7","7","7","7","7","7","7","7","7","7","7","7","7","7","7","7","7","7","7","7","7","7","7","7","598901822953881600","杨","404","Male","[""坏他"",""坏我"",""好我"",""好他""]","[""弱他"",""弱我"",""强我"",""强他""]","","","","","","","","nonmatch","","","","","","","","","","key","j","16.666435643564334","768","428","f","false","match","img/trapezoid.png","坏他","坏他","prac_ALT2_moral","practice_moral","","","","","","","","",""
"null","<span style='color:red; font-size: 70px;'>错误! </span>","null","html-keyboard-response","83","324787","0.0-8.0-0.0-1.0-0.0-1.36","7","7","7","7","7","5","5","5","5","5","5","2","1","2","2","2","2","2","2","5","5","5","5","1","5","5","5","5","5","8","7","8","8","8","7","8","9","7","7","7","7","7","7","7","7","1","7","7","1","7","6","7","7","7","7","7","7","7","7","7","7","7","7","7","7","7","7","7","7","7","7","7","7","7","7","7","7","7","7","598901822953881600","杨","404","Male","[""坏他"",""坏我"",""好我"",""好他""]","[""弱他"",""弱我"",""强我"",""强他""]","","","","","","","","","","","","","","","","","","","","","","","","","","","","","","feedback_test","","","","","","","","",""
"809","","f","psychophysics","84","326599","0.0-8.0-0.0-1.0-0.0-0.37","7","7","7","7","7","5","5","5","5","5","5","2","1","2","2","2","2","2","2","5","5","5","5","1","5","5","5","5","5","8","7","8","8","8","7","8","9","7","7","7","7","7","7","7","7","1","7","7","1","7","6","7","7","7","7","7","7","7","7","7","7","7","7","7","7","7","7","7","7","7","7","7","7","7","7","7","7","7","7","598901822953881600","杨","404","Male","[""坏他"",""坏我"",""好我"",""好他""]","[""弱他"",""弱我"",""强我"",""强他""]","","","","","","","","match","","","","","","","","","","key","f","16.668249999999748","768","428","f","true","match","img/diamond.png","好我","好我","prac_ALT2_moral","practice_moral","","","","","","","","",""
"null","<span style='color:GreenYellow; font-size: 70px;'>正确! </span>","null","html-keyboard-response","85","327102","0.0-8.0-0.0-1.0-0.0-1.37","7","7","7","7","7","5","5","5","5","5","5","2","1","2","2","2","2","2","2","5","5","5","5","1","5","5","5","5","5","8","7","8","8","8","7","8","9","7","7","7","7","7","7","7","7","1","7","7","1","7","6","7","7","7","7","7","7","7","7","7","7","7","7","7","7","7","7","7","7","7","7","7","7","7","7","7","7","7","7","598901822953881600","杨","404","Male","[""坏他"",""坏我"",""好我"",""好他""]","[""弱他"",""弱我"",""强我"",""强他""]","","","","","","","","","","","","","","","","","","","","","","","","","","","","","","feedback_test","","","","","","","","",""
"767","","j","psychophysics","86","328870","0.0-8.0-0.0-1.0-0.0-0.38","7","7","7","7","7","5","5","5","5","5","5","2","1","2","2","2","2","2","2","5","5","5","5","1","5","5","5","5","5","8","7","8","8","8","7","8","9","7","7","7","7","7","7","7","7","1","7","7","1","7","6","7","7","7","7","7","7","7","7","7","7","7","7","7","7","7","7","7","7","7","7","7","7","7","7","7","7","7","7","598901822953881600","杨","404","Male","[""坏他"",""坏我"",""好我"",""好他""]","[""弱他"",""弱我"",""强我"",""强他""]","","","","","","","","nonmatch","","","","","","","","","","key","j","16.665133333333678","768","428","j","true","nonmatch","img/trapezoid.png","坏我","坏他","prac_ALT2_moral","practice_moral","","","","","","","","",""
"null","<span style='color:GreenYellow; font-size: 70px;'>正确! </span>","null","html-keyboard-response","87","329373","0.0-8.0-0.0-1.0-0.0-1.38","7","7","7","7","7","5","5","5","5","5","5","2","1","2","2","2","2","2","2","5","5","5","5","1","5","5","5","5","5","8","7","8","8","8","7","8","9","7","7","7","7","7","7","7","7","1","7","7","1","7","6","7","7","7","7","7","7","7","7","7","7","7","7","7","7","7","7","7","7","7","7","7","7","7","7","7","7","7","7","598901822953881600","杨","404","Male","[""坏他"",""坏我"",""好我"",""好他""]","[""弱他"",""弱我"",""强我"",""强他""]","","","","","","","","","","","","","","","","","","","","","","","","","","","","","","feedback_test","","","","","","","","",""
"699","","f","psychophysics","88","331075","0.0-8.0-0.0-1.0-0.0-0.39","7","7","7","7","7","5","5","5","5","5","5","2","1","2","2","2","2","2","2","5","5","5","5","1","5","5","5","5","5","8","7","8","8","8","7","8","9","7","7","7","7","7","7","7","7","1","7","7","1","7","6","7","7","7","7","7","7","7","7","7","7","7","7","7","7","7","7","7","7","7","7","7","7","7","7","7","7","7","7","598901822953881600","杨","404","Male","[""坏他"",""坏我"",""好我"",""好他""]","[""弱他"",""弱我"",""强我"",""强他""]","","","","","","","","match","","","","","","","","","","key","f","16.66529702970304","768","428","f","true","match","img/hexagon.png","好他","好他","prac_ALT2_moral","practice_moral","","","","","","","","",""
"null","<span style='color:GreenYellow; font-size: 70px;'>正确! </span>","null","html-keyboard-response","89","331576","0.0-8.0-0.0-1.0-0.0-1.39","7","7","7","7","7","5","5","5","5","5","5","2","1","2","2","2","2","2","2","5","5","5","5","1","5","5","5","5","5","8","7","8","8","8","7","8","9","7","7","7","7","7","7","7","7","1","7","7","1","7","6","7","7","7","7","7","7","7","7","7","7","7","7","7","7","7","7","7","7","7","7","7","7","7","7","7","7","7","7","598901822953881600","杨","404","Male","[""坏他"",""坏我"",""好我"",""好他""]","[""弱他"",""弱我"",""强我"",""强他""]","","","","","","","","","","","","","","","","","","","","","","","","","","","","","","feedback_test","","","","","","","","",""
"616","","f","psychophysics","90","333194","0.0-8.0-0.0-1.0-0.0-0.40","7","7","7","7","7","5","5","5","5","5","5","2","1","2","2","2","2","2","2","5","5","5","5","1","5","5","5","5","5","8","7","8","8","8","7","8","9","7","7","7","7","7","7","7","7","1","7","7","1","7","6","7","7","7","7","7","7","7","7","7","7","7","7","7","7","7","7","7","7","7","7","7","7","7","7","7","7","7","7","598901822953881600","杨","404","Male","[""坏他"",""坏我"",""好我"",""好他""]","[""弱他"",""弱我"",""强我"",""强他""]","","","","","","","","match","","","","","","","","","","key","f","16.660302083332983","768","428","j","false","nonmatch","img/trapezoid.png","好他","坏他","prac_ALT2_moral","practice_moral","","","","","","","","",""
"null","<span style='color:red; font-size: 70px;'>错误! </span>","null","html-keyboard-response","91","333696","0.0-8.0-0.0-1.0-0.0-1.40","7","7","7","7","7","5","5","5","5","5","5","2","1","2","2","2","2","2","2","5","5","5","5","1","5","5","5","5","5","8","7","8","8","8","7","8","9","7","7","7","7","7","7","7","7","1","7","7","1","7","6","7","7","7","7","7","7","7","7","7","7","7","7","7","7","7","7","7","7","7","7","7","7","7","7","7","7","7","7","598901822953881600","杨","404","Male","[""坏他"",""坏我"",""好我"",""好他""]","[""弱他"",""弱我"",""强我"",""强他""]","","","","","","","","","","","","","","","","","","","","","","","","","","","","","","feedback_test","","","","","","","","",""
"689","","j","psychophysics","92","335386","0.0-8.0-0.0-1.0-0.0-0.41","7","7","7","7","7","5","5","5","5","5","5","2","1","2","2","2","2","2","2","5","5","5","5","1","5","5","5","5","5","8","7","8","8","8","7","8","9","7","7","7","7","7","7","7","7","1","7","7","1","7","6","7","7","7","7","7","7","7","7","7","7","7","7","7","7","7","7","7","7","7","7","7","7","7","7","7","7","7","7","598901822953881600","杨","404","Male","[""坏他"",""坏我"",""好我"",""好他""]","[""弱他"",""弱我"",""强我"",""强他""]","","","","","","","","nonmatch","","","","","","","","","","key","j","16.66543000000005","768","428","f","false","match","img/trapezoid.png","坏他","坏他","prac_ALT2_moral","practice_moral","","","","","","","","",""
"null","<span style='color:red; font-size: 70px;'>错误! </span>","null","html-keyboard-response","93","335889","0.0-8.0-0.0-1.0-0.0-1.41","7","7","7","7","7","5","5","5","5","5","5","2","1","2","2","2","2","2","2","5","5","5","5","1","5","5","5","5","5","8","7","8","8","8","7","8","9","7","7","7","7","7","7","7","7","1","7","7","1","7","6","7","7","7","7","7","7","7","7","7","7","7","7","7","7","7","7","7","7","7","7","7","7","7","7","7","7","7","7","598901822953881600","杨","404","Male","[""坏他"",""坏我"",""好我"",""好他""]","[""弱他"",""弱我"",""强我"",""强他""]","","","","","","","","","","","","","","","","","","","","","","","","","","","","","","feedback_test","","","","","","","","",""
"1082","","j","psychophysics","94","337973","0.0-8.0-0.0-1.0-0.0-0.42","7","7","7","7","7","5","5","5","5","5","5","2","1","2","2","2","2","2","2","5","5","5","5","1","5","5","5","5","5","8","7","8","8","8","7","8","9","7","7","7","7","7","7","7","7","1","7","7","1","7","6","7","7","7","7","7","7","7","7","7","7","7","7","7","7","7","7","7","7","7","7","7","7","7","7","7","7","7","7","598901822953881600","杨","404","Male","[""坏他"",""坏我"",""好我"",""好他""]","[""弱他"",""弱我"",""强我"",""强他""]","","","","","","","","nonmatch","","","","","","","","","","key","j","16.66711290322541","768","428","j","true","nonmatch","img/hexagon.png","坏我","好他","prac_ALT2_moral","practice_moral","","","","","","","","",""
"null","<span style='color:GreenYellow; font-size: 70px;'>正确! </span>","null","html-keyboard-response","95","338474","0.0-8.0-0.0-1.0-0.0-1.42","7","7","7","7","7","5","5","5","5","5","5","2","1","2","2","2","2","2","2","5","5","5","5","1","5","5","5","5","5","8","7","8","8","8","7","8","9","7","7","7","7","7","7","7","7","1","7","7","1","7","6","7","7","7","7","7","7","7","7","7","7","7","7","7","7","7","7","7","7","7","7","7","7","7","7","7","7","7","7","598901822953881600","杨","404","Male","[""坏他"",""坏我"",""好我"",""好他""]","[""弱他"",""弱我"",""强我"",""强他""]","","","","","","","","","","","","","","","","","","","","","","","","","","","","","","feedback_test","","","","","","","","",""
"894","","f","psychophysics","96","340370","0.0-8.0-0.0-1.0-0.0-0.43","7","7","7","7","7","5","5","5","5","5","5","2","1","2","2","2","2","2","2","5","5","5","5","1","5","5","5","5","5","8","7","8","8","8","7","8","9","7","7","7","7","7","7","7","7","1","7","7","1","7","6","7","7","7","7","7","7","7","7","7","7","7","7","7","7","7","7","7","7","7","7","7","7","7","7","7","7","7","7","598901822953881600","杨","404","Male","[""坏他"",""坏我"",""好我"",""好他""]","[""弱他"",""弱我"",""强我"",""强他""]","","","","","","","","match","","","","","","","","","","key","f","16.665115044247752","768","428","f","true","match","img/diamond.png","好我","好我","prac_ALT2_moral","practice_moral","","","","","","","","",""
"null","<span style='color:GreenYellow; font-size: 70px;'>正确! </span>","null","html-keyboard-response","97","340871","0.0-8.0-0.0-1.0-0.0-1.43","7","7","7","7","7","5","5","5","5","5","5","2","1","2","2","2","2","2","2","5","5","5","5","1","5","5","5","5","5","8","7","8","8","8","7","8","9","7","7","7","7","7","7","7","7","1","7","7","1","7","6","7","7","7","7","7","7","7","7","7","7","7","7","7","7","7","7","7","7","7","7","7","7","7","7","7","7","7","7","598901822953881600","杨","404","Male","[""坏他"",""坏我"",""好我"",""好他""]","[""弱他"",""弱我"",""强我"",""强他""]","","","","","","","","","","","","","","","","","","","","","","","","","","","","","","feedback_test","","","","","","","","",""
"953","","j","psychophysics","98","342826","0.0-8.0-0.0-1.0-0.0-0.44","7","7","7","7","7","5","5","5","5","5","5","2","1","2","2","2","2","2","2","5","5","5","5","1","5","5","5","5","5","8","7","8","8","8","7","8","9","7","7","7","7","7","7","7","7","1","7","7","1","7","6","7","7","7","7","7","7","7","7","7","7","7","7","7","7","7","7","7","7","7","7","7","7","7","7","7","7","7","7","598901822953881600","杨","404","Male","[""坏他"",""坏我"",""好我"",""好他""]","[""弱他"",""弱我"",""强我"",""强他""]","","","","","","","","nonmatch","","","","","","","","","","key","j","16.665709401709208","768","428","j","true","nonmatch","img/circle.png","好我","坏我","prac_ALT2_moral","practice_moral","","","","","","","","",""
"null","<span style='color:GreenYellow; font-size: 70px;'>正确! </span>","null","html-keyboard-response","99","343327","0.0-8.0-0.0-1.0-0.0-1.44","7","7","7","7","7","5","5","5","5","5","5","2","1","2","2","2","2","2","2","5","5","5","5","1","5","5","5","5","5","8","7","8","8","8","7","8","9","7","7","7","7","7","7","7","7","1","7","7","1","7","6","7","7","7","7","7","7","7","7","7","7","7","7","7","7","7","7","7","7","7","7","7","7","7","7","7","7","7","7","598901822953881600","杨","404","Male","[""坏他"",""坏我"",""好我"",""好他""]","[""弱他"",""弱我"",""强我"",""强他""]","","","","","","","","","","","","","","","","","","","","","","","","","","","","","","feedback_test","","","","","","","","",""
"911","","f","psychophysics","100","345239","0.0-8.0-0.0-1.0-0.0-0.45","7","7","7","7","7","5","5","5","5","5","5","2","1","2","2","2","2","2","2","5","5","5","5","1","5","5","5","5","5","8","7","8","8","8","7","8","9","7","7","7","7","7","7","7","7","1","7","7","1","7","6","7","7","7","7","7","7","7","7","7","7","7","7","7","7","7","7","7","7","7","7","7","7","7","7","7","7","7","7","598901822953881600","杨","404","Male","[""坏他"",""坏我"",""好我"",""好他""]","[""弱他"",""弱我"",""强我"",""强他""]","","","","","","","","match","","","","","","","","","","key","f","16.66547787610588","768","428","f","true","match","img/hexagon.png","好他","好他","prac_ALT2_moral","practice_moral","","","","","","","","",""
"null","<span style='color:GreenYellow; font-size: 70px;'>正确! </span>","null","html-keyboard-response","101","345741","0.0-8.0-0.0-1.0-0.0-1.45","7","7","7","7","7","5","5","5","5","5","5","2","1","2","2","2","2","2","2","5","5","5","5","1","5","5","5","5","5","8","7","8","8","8","7","8","9","7","7","7","7","7","7","7","7","1","7","7","1","7","6","7","7","7","7","7","7","7","7","7","7","7","7","7","7","7","7","7","7","7","7","7","7","7","7","7","7","7","7","598901822953881600","杨","404","Male","[""坏他"",""坏我"",""好我"",""好他""]","[""弱他"",""弱我"",""强我"",""强他""]","","","","","","","","","","","","","","","","","","","","","","","","","","","","","","feedback_test","","","","","","","","",""
"860","","f","psychophysics","102","347603","0.0-8.0-0.0-1.0-0.0-0.46","7","7","7","7","7","5","5","5","5","5","5","2","1","2","2","2","2","2","2","5","5","5","5","1","5","5","5","5","5","8","7","8","8","8","7","8","9","7","7","7","7","7","7","7","7","1","7","7","1","7","6","7","7","7","7","7","7","7","7","7","7","7","7","7","7","7","7","7","7","7","7","7","7","7","7","7","7","7","7","598901822953881600","杨","404","Male","[""坏他"",""坏我"",""好我"",""好他""]","[""弱他"",""弱我"",""强我"",""强他""]","","","","","","","","match","","","","","","","","","","key","f","16.66526363636367","768","428","j","false","nonmatch","img/circle.png","坏他","坏我","prac_ALT2_moral","practice_moral","","","","","","","","",""
"null","<span style='color:red; font-size: 70px;'>错误! </span>","null","html-keyboard-response","103","348103","0.0-8.0-0.0-1.0-0.0-1.46","7","7","7","7","7","5","5","5","5","5","5","2","1","2","2","2","2","2","2","5","5","5","5","1","5","5","5","5","5","8","7","8","8","8","7","8","9","7","7","7","7","7","7","7","7","1","7","7","1","7","6","7","7","7","7","7","7","7","7","7","7","7","7","7","7","7","7","7","7","7","7","7","7","7","7","7","7","7","7","598901822953881600","杨","404","Male","[""坏他"",""坏我"",""好我"",""好他""]","[""弱他"",""弱我"",""强我"",""强他""]","","","","","","","","","","","","","","","","","","","","","","","","","","","","","","feedback_test","","","","","","","","",""
"852","","j","psychophysics","104","349958","0.0-8.0-0.0-1.0-0.0-0.47","7","7","7","7","7","5","5","5","5","5","5","2","1","2","2","2","2","2","2","5","5","5","5","1","5","5","5","5","5","8","7","8","8","8","7","8","9","7","7","7","7","7","7","7","7","1","7","7","1","7","6","7","7","7","7","7","7","7","7","7","7","7","7","7","7","7","7","7","7","7","7","7","7","7","7","7","7","7","7","598901822953881600","杨","404","Male","[""坏他"",""坏我"",""好我"",""好他""]","[""弱他"",""弱我"",""强我"",""强他""]","","","","","","","","nonmatch","","","","","","","","","","key","j","16.665414414414716","768","428","j","true","nonmatch","img/trapezoid.png","好我","坏他","prac_ALT2_moral","practice_moral","","","","","","","","",""
"null","<span style='color:GreenYellow; font-size: 70px;'>正确! </span>","null","html-keyboard-response","105","350459","0.0-8.0-0.0-1.0-0.0-1.47","7","7","7","7","7","5","5","5","5","5","5","2","1","2","2","2","2","2","2","5","5","5","5","1","5","5","5","5","5","8","7","8","8","8","7","8","9","7","7","7","7","7","7","7","7","1","7","7","1","7","6","7","7","7","7","7","7","7","7","7","7","7","7","7","7","7","7","7","7","7","7","7","7","7","7","7","7","7","7","598901822953881600","杨","404","Male","[""坏他"",""坏我"",""好我"",""好他""]","[""弱他"",""弱我"",""强我"",""强他""]","","","","","","","","","","","","","","","","","","","","","","","","","","","","","","feedback_test","","","","","","","","",""
"71451","<style>.context{color:white; font-size: 35px; line-height:40px}</style>                            <div><p class='context'>您正确回答了79% 的试次。</p><p class='context'>您的平均反应时为788毫秒。</p><p class='context'>恭喜您完成练习。按空格键进入正式实验。</p><p class='footer' style='font-size: 35px; line-height:40px;'>请在进入正式实验实验之前将您的<span style='color: lightgreen;'>食指</span>放在电脑键盘的相应键位上进行按键。</p>","process","html-keyboard-response","106","421913","0.0-8.0-0.0-2.0","7","7","7","7","7","5","5","5","5","5","5","2","1","2","2","2","2","2","2","5","5","5","5","1","5","5","5","5","5","8","7","8","8","8","7","8","9","7","7","7","7","7","7","7","7","1","7","7","1","7","6","7","7","7","7","7","7","7","7","7","7","7","7","7","7","7","7","7","7","7","7","7","7","7","7","7","7","7","7","598901822953881600","杨","404","Male","[""坏他"",""坏我"",""好我"",""好他""]","[""弱他"",""弱我"",""强我"",""强他""]","","","","","","","","","","","","","","","","","","","","","","","","","","","","","","","","","","","","","","",""
"0","
    <p style='color: white; font-size: 22px'>请您将手指放在按键上，准备进入正式的匹配任务。</p>
    <p> <div style = ""color: green""><按空格键进入下一阶段的匹配任务></div></p>
    "," ","html-keyboard-response","107","421918","0.0-8.0-0.0-3.0","7","7","7","7","7","5","5","5","5","5","5","2","1","2","2","2","2","2","2","5","5","5","5","1","5","5","5","5","5","8","7","8","8","8","7","8","9","7","7","7","7","7","7","7","7","1","7","7","1","7","6","7","7","7","7","7","7","7","7","7","7","7","7","7","7","7","7","7","7","7","7","7","7","7","7","7","7","7","7","598901822953881600","杨","404","Male","[""坏他"",""坏我"",""好我"",""好他""]","[""弱他"",""弱我"",""强我"",""强他""]","","","","","","","","","","","","","","","","","","","","","","","","","","","","","","","","","","","","","","",""
"616","","f","psychophysics","108","423535","0.0-8.0-0.0-4.0-0.0-0.0","7","7","7","7","7","5","5","5","5","5","5","2","1","2","2","2","2","2","2","5","5","5","5","1","5","5","5","5","5","8","7","8","8","8","7","8","9","7","7","7","7","7","7","7","7","1","7","7","1","7","6","7","7","7","7","7","7","7","7","7","7","7","7","7","7","7","7","7","7","7","7","7","7","7","7","7","7","7","7","598901822953881600","杨","404","Male","[""坏他"",""坏我"",""好我"",""好他""]","[""弱他"",""弱我"",""强我"",""强他""]","","","","","","","","match","","","","","","","","","","key","f","16.66526804123669","768","428","f","true","match","img/diamond.png","好我","好我","ALT2","moral","","","","","","","","",""
"null","<span style='color:GreenYellow; font-size: 70px;'>正确! </span>","null","html-keyboard-response","109","424036","0.0-8.0-0.0-4.0-0.0-1.0","7","7","7","7","7","5","5","5","5","5","5","2","1","2","2","2","2","2","2","5","5","5","5","1","5","5","5","5","5","8","7","8","8","8","7","8","9","7","7","7","7","7","7","7","7","1","7","7","1","7","6","7","7","7","7","7","7","7","7","7","7","7","7","7","7","7","7","7","7","7","7","7","7","7","7","7","7","7","7","598901822953881600","杨","404","Male","[""坏他"",""坏我"",""好我"",""好他""]","[""弱他"",""弱我"",""强我"",""强他""]","","","","","","","","","","","","","","","","","","","","","","","","","","","","","","feedback_test","","","","","","","","",""
"892","","j","psychophysics","110","425929","0.0-8.0-0.0-4.0-0.0-0.1","7","7","7","7","7","5","5","5","5","5","5","2","1","2","2","2","2","2","2","5","5","5","5","1","5","5","5","5","5","8","7","8","8","8","7","8","9","7","7","7","7","7","7","7","7","1","7","7","1","7","6","7","7","7","7","7","7","7","7","7","7","7","7","7","7","7","7","7","7","7","7","7","7","7","7","7","7","7","7","598901822953881600","杨","404","Male","[""坏他"",""坏我"",""好我"",""好他""]","[""弱他"",""弱我"",""强我"",""强他""]","","","","","","","","nonmatch","","","","","","","","","","key","j","16.665276785714273","768","428","j","true","nonmatch","img/hexagon.png","坏我","好他","ALT2","moral","","","","","","","","",""
"null","<span style='color:GreenYellow; font-size: 70px;'>正确! </span>","null","html-keyboard-response","111","426432","0.0-8.0-0.0-4.0-0.0-1.1","7","7","7","7","7","5","5","5","5","5","5","2","1","2","2","2","2","2","2","5","5","5","5","1","5","5","5","5","5","8","7","8","8","8","7","8","9","7","7","7","7","7","7","7","7","1","7","7","1","7","6","7","7","7","7","7","7","7","7","7","7","7","7","7","7","7","7","7","7","7","7","7","7","7","7","7","7","7","7","598901822953881600","杨","404","Male","[""坏他"",""坏我"",""好我"",""好他""]","[""弱他"",""弱我"",""强我"",""强他""]","","","","","","","","","","","","","","","","","","","","","","","","","","","","","","feedback_test","","","","","","","","",""
"645","","j","psychophysics","112","428080","0.0-8.0-0.0-4.0-0.0-0.2","7","7","7","7","7","5","5","5","5","5","5","2","1","2","2","2","2","2","2","5","5","5","5","1","5","5","5","5","5","8","7","8","8","8","7","8","9","7","7","7","7","7","7","7","7","1","7","7","1","7","6","7","7","7","7","7","7","7","7","7","7","7","7","7","7","7","7","7","7","7","7","7","7","7","7","7","7","7","7","598901822953881600","杨","404","Male","[""坏他"",""坏我"",""好我"",""好他""]","[""弱他"",""弱我"",""强我"",""强他""]","","","","","","","","nonmatch","","","","","","","","","","key","j","16.665515463917455","768","428","j","true","nonmatch","img/circle.png","好他","坏我","ALT2","moral","","","","","","","","",""
"null","<span style='color:GreenYellow; font-size: 70px;'>正确! </span>","null","html-keyboard-response","113","428582","0.0-8.0-0.0-4.0-0.0-1.2","7","7","7","7","7","5","5","5","5","5","5","2","1","2","2","2","2","2","2","5","5","5","5","1","5","5","5","5","5","8","7","8","8","8","7","8","9","7","7","7","7","7","7","7","7","1","7","7","1","7","6","7","7","7","7","7","7","7","7","7","7","7","7","7","7","7","7","7","7","7","7","7","7","7","7","7","7","7","7","598901822953881600","杨","404","Male","[""坏他"",""坏我"",""好我"",""好他""]","[""弱他"",""弱我"",""强我"",""强他""]","","","","","","","","","","","","","","","","","","","","","","","","","","","","","","feedback_test","","","","","","","","",""
"652","","j","psychophysics","114","430236","0.0-8.0-0.0-4.0-0.0-0.3","7","7","7","7","7","5","5","5","5","5","5","2","1","2","2","2","2","2","2","5","5","5","5","1","5","5","5","5","5","8","7","8","8","8","7","8","9","7","7","7","7","7","7","7","7","1","7","7","1","7","6","7","7","7","7","7","7","7","7","7","7","7","7","7","7","7","7","7","7","7","7","7","7","7","7","7","7","7","7","598901822953881600","杨","404","Male","[""坏他"",""坏我"",""好我"",""好他""]","[""弱他"",""弱我"",""强我"",""强他""]","","","","","","","","nonmatch","","","","","","","","","","key","j","16.666346938775767","768","428","j","true","nonmatch","img/diamond.png","坏我","好我","ALT2","moral","","","","","","","","",""
"null","<span style='color:GreenYellow; font-size: 70px;'>正确! </span>","null","html-keyboard-response","115","430738","0.0-8.0-0.0-4.0-0.0-1.3","7","7","7","7","7","5","5","5","5","5","5","2","1","2","2","2","2","2","2","5","5","5","5","1","5","5","5","5","5","8","7","8","8","8","7","8","9","7","7","7","7","7","7","7","7","1","7","7","1","7","6","7","7","7","7","7","7","7","7","7","7","7","7","7","7","7","7","7","7","7","7","7","7","7","7","7","7","7","7","598901822953881600","杨","404","Male","[""坏他"",""坏我"",""好我"",""好他""]","[""弱他"",""弱我"",""强我"",""强他""]","","","","","","","","","","","","","","","","","","","","","","","","","","","","","","feedback_test","","","","","","","","",""
"842","","f","psychophysics","116","432581","0.0-8.0-0.0-4.0-0.0-0.4","7","7","7","7","7","5","5","5","5","5","5","2","1","2","2","2","2","2","2","5","5","5","5","1","5","5","5","5","5","8","7","8","8","8","7","8","9","7","7","7","7","7","7","7","7","1","7","7","1","7","6","7","7","7","7","7","7","7","7","7","7","7","7","7","7","7","7","7","7","7","7","7","7","7","7","7","7","7","7","598901822953881600","杨","404","Male","[""坏他"",""坏我"",""好我"",""好他""]","[""弱他"",""弱我"",""强我"",""强他""]","","","","","","","","match","","","","","","","","","","key","f","16.66642201834875","768","428","j","false","nonmatch","img/hexagon.png","坏他","好他","ALT2","moral","","","","","","","","",""
"null","<span style='color:red; font-size: 70px;'>错误! </span>","null","html-keyboard-response","117","433082","0.0-8.0-0.0-4.0-0.0-1.4","7","7","7","7","7","5","5","5","5","5","5","2","1","2","2","2","2","2","2","5","5","5","5","1","5","5","5","5","5","8","7","8","8","8","7","8","9","7","7","7","7","7","7","7","7","1","7","7","1","7","6","7","7","7","7","7","7","7","7","7","7","7","7","7","7","7","7","7","7","7","7","7","7","7","7","7","7","7","7","598901822953881600","杨","404","Male","[""坏他"",""坏我"",""好我"",""好他""]","[""弱他"",""弱我"",""强我"",""强他""]","","","","","","","","","","","","","","","","","","","","","","","","","","","","","","feedback_test","","","","","","","","",""
"633","","f","psychophysics","118","434717","0.0-8.0-0.0-4.0-0.0-0.5","7","7","7","7","7","5","5","5","5","5","5","2","1","2","2","2","2","2","2","5","5","5","5","1","5","5","5","5","5","8","7","8","8","8","7","8","9","7","7","7","7","7","7","7","7","1","7","7","1","7","6","7","7","7","7","7","7","7","7","7","7","7","7","7","7","7","7","7","7","7","7","7","7","7","7","7","7","7","7","598901822953881600","杨","404","Male","[""坏他"",""坏我"",""好我"",""好他""]","[""弱他"",""弱我"",""强我"",""强他""]","","","","","","","","match","","","","","","","","","","key","f","16.667608247422997","768","428","f","true","match","img/diamond.png","好我","好我","ALT2","moral","","","","","","","","",""
"null","<span style='color:GreenYellow; font-size: 70px;'>正确! </span>","null","html-keyboard-response","119","435221","0.0-8.0-0.0-4.0-0.0-1.5","7","7","7","7","7","5","5","5","5","5","5","2","1","2","2","2","2","2","2","5","5","5","5","1","5","5","5","5","5","8","7","8","8","8","7","8","9","7","7","7","7","7","7","7","7","1","7","7","1","7","6","7","7","7","7","7","7","7","7","7","7","7","7","7","7","7","7","7","7","7","7","7","7","7","7","7","7","7","7","598901822953881600","杨","404","Male","[""坏他"",""坏我"",""好我"",""好他""]","[""弱他"",""弱我"",""强我"",""强他""]","","","","","","","","","","","","","","","","","","","","","","","","","","","","","","feedback_test","","","","","","","","",""
"587","","j","psychophysics","120","436811","0.0-8.0-0.0-4.0-0.0-0.6","7","7","7","7","7","5","5","5","5","5","5","2","1","2","2","2","2","2","2","5","5","5","5","1","5","5","5","5","5","8","7","8","8","8","7","8","9","7","7","7","7","7","7","7","7","1","7","7","1","7","6","7","7","7","7","7","7","7","7","7","7","7","7","7","7","7","7","7","7","7","7","7","7","7","7","7","7","7","7","598901822953881600","杨","404","Male","[""坏他"",""坏我"",""好我"",""好他""]","[""弱他"",""弱我"",""强我"",""强他""]","","","","","","","","nonmatch","","","","","","","","","","key","j","16.66836170212767","768","428","f","false","match","img/circle.png","坏我","坏我","ALT2","moral","","","","","","","","",""
"null","<span style='color:red; font-size: 70px;'>错误! </span>","null","html-keyboard-response","121","437313","0.0-8.0-0.0-4.0-0.0-1.6","7","7","7","7","7","5","5","5","5","5","5","2","1","2","2","2","2","2","2","5","5","5","5","1","5","5","5","5","5","8","7","8","8","8","7","8","9","7","7","7","7","7","7","7","7","1","7","7","1","7","6","7","7","7","7","7","7","7","7","7","7","7","7","7","7","7","7","7","7","7","7","7","7","7","7","7","7","7","7","598901822953881600","杨","404","Male","[""坏他"",""坏我"",""好我"",""好他""]","[""弱他"",""弱我"",""强我"",""强他""]","","","","","","","","","","","","","","","","","","","","","","","","","","","","","","feedback_test","","","","","","","","",""
"571","","j","psychophysics","122","438888","0.0-8.0-0.0-4.0-0.0-0.7","7","7","7","7","7","5","5","5","5","5","5","2","1","2","2","2","2","2","2","5","5","5","5","1","5","5","5","5","5","8","7","8","8","8","7","8","9","7","7","7","7","7","7","7","7","1","7","7","1","7","6","7","7","7","7","7","7","7","7","7","7","7","7","7","7","7","7","7","7","7","7","7","7","7","7","7","7","7","7","598901822953881600","杨","404","Male","[""坏他"",""坏我"",""好我"",""好他""]","[""弱他"",""弱我"",""强我"",""强他""]","","","","","","","","nonmatch","","","","","","","","","","key","j","16.516591397849517","768","428","j","true","nonmatch","img/trapezoid.png","好他","坏他","ALT2","moral","","","","","","","","",""
"null","<span style='color:GreenYellow; font-size: 70px;'>正确! </span>","null","html-keyboard-response","123","439390","0.0-8.0-0.0-4.0-0.0-1.7","7","7","7","7","7","5","5","5","5","5","5","2","1","2","2","2","2","2","2","5","5","5","5","1","5","5","5","5","5","8","7","8","8","8","7","8","9","7","7","7","7","7","7","7","7","1","7","7","1","7","6","7","7","7","7","7","7","7","7","7","7","7","7","7","7","7","7","7","7","7","7","7","7","7","7","7","7","7","7","598901822953881600","杨","404","Male","[""坏他"",""坏我"",""好我"",""好他""]","[""弱他"",""弱我"",""强我"",""强他""]","","","","","","","","","","","","","","","","","","","","","","","","","","","","","","feedback_test","","","","","","","","",""
"548","","f","psychophysics","124","440940","0.0-8.0-0.0-4.0-0.0-0.8","7","7","7","7","7","5","5","5","5","5","5","2","1","2","2","2","2","2","2","5","5","5","5","1","5","5","5","5","5","8","7","8","8","8","7","8","9","7","7","7","7","7","7","7","7","1","7","7","1","7","6","7","7","7","7","7","7","7","7","7","7","7","7","7","7","7","7","7","7","7","7","7","7","7","7","7","7","7","7","598901822953881600","杨","404","Male","[""坏他"",""坏我"",""好我"",""好他""]","[""弱他"",""弱我"",""强我"",""强他""]","","","","","","","","match","","","","","","","","","","key","f","16.665836956521556","768","428","f","true","match","img/hexagon.png","好他","好他","ALT2","moral","","","","","","","","",""
"null","<span style='color:GreenYellow; font-size: 70px;'>正确! </span>","null","html-keyboard-response","125","441442","0.0-8.0-0.0-4.0-0.0-1.8","7","7","7","7","7","5","5","5","5","5","5","2","1","2","2","2","2","2","2","5","5","5","5","1","5","5","5","5","5","8","7","8","8","8","7","8","9","7","7","7","7","7","7","7","7","1","7","7","1","7","6","7","7","7","7","7","7","7","7","7","7","7","7","7","7","7","7","7","7","7","7","7","7","7","7","7","7","7","7","598901822953881600","杨","404","Male","[""坏他"",""坏我"",""好我"",""好他""]","[""弱他"",""弱我"",""强我"",""强他""]","","","","","","","","","","","","","","","","","","","","","","","","","","","","","","feedback_test","","","","","","","","",""
"663","","j","psychophysics","126","443108","0.0-8.0-0.0-4.0-0.0-0.9","7","7","7","7","7","5","5","5","5","5","5","2","1","2","2","2","2","2","2","5","5","5","5","1","5","5","5","5","5","8","7","8","8","8","7","8","9","7","7","7","7","7","7","7","7","1","7","7","1","7","6","7","7","7","7","7","7","7","7","7","7","7","7","7","7","7","7","7","7","7","7","7","7","7","7","7","7","7","7","598901822953881600","杨","404","Male","[""坏他"",""坏我"",""好我"",""好他""]","[""弱他"",""弱我"",""强我"",""强他""]","","","","","","","","nonmatch","","","","","","","","","","key","j","16.668292929293152","768","428","f","false","match","img/diamond.png","好我","好我","ALT2","moral","","","","","","","","",""
"null","<span style='color:red; font-size: 70px;'>错误! </span>","null","html-keyboard-response","127","443610","0.0-8.0-0.0-4.0-0.0-1.9","7","7","7","7","7","5","5","5","5","5","5","2","1","2","2","2","2","2","2","5","5","5","5","1","5","5","5","5","5","8","7","8","8","8","7","8","9","7","7","7","7","7","7","7","7","1","7","7","1","7","6","7","7","7","7","7","7","7","7","7","7","7","7","7","7","7","7","7","7","7","7","7","7","7","7","7","7","7","7","598901822953881600","杨","404","Male","[""坏他"",""坏我"",""好我"",""好他""]","[""弱他"",""弱我"",""强我"",""强他""]","","","","","","","","","","","","","","","","","","","","","","","","","","","","","","feedback_test","","","","","","","","",""
"832","","j","psychophysics","128","445452","0.0-8.0-0.0-4.0-0.0-0.10","7","7","7","7","7","5","5","5","5","5","5","2","1","2","2","2","2","2","2","5","5","5","5","1","5","5","5","5","5","8","7","8","8","8","7","8","9","7","7","7","7","7","7","7","7","1","7","7","1","7","6","7","7","7","7","7","7","7","7","7","7","7","7","7","7","7","7","7","7","7","7","7","7","7","7","7","7","7","7","598901822953881600","杨","404","Male","[""坏他"",""坏我"",""好我"",""好他""]","[""弱他"",""弱我"",""强我"",""强他""]","","","","","","","","nonmatch","","","","","","","","","","key","j","16.666045454545582","768","428","j","true","nonmatch","img/trapezoid.png","好我","坏他","ALT2","moral","","","","","","","","",""
"null","<span style='color:GreenYellow; font-size: 70px;'>正确! </span>","null","html-keyboard-response","129","445953","0.0-8.0-0.0-4.0-0.0-1.10","7","7","7","7","7","5","5","5","5","5","5","2","1","2","2","2","2","2","2","5","5","5","5","1","5","5","5","5","5","8","7","8","8","8","7","8","9","7","7","7","7","7","7","7","7","1","7","7","1","7","6","7","7","7","7","7","7","7","7","7","7","7","7","7","7","7","7","7","7","7","7","7","7","7","7","7","7","7","7","598901822953881600","杨","404","Male","[""坏他"",""坏我"",""好我"",""好他""]","[""弱他"",""弱我"",""强我"",""强他""]","","","","","","","","","","","","","","","","","","","","","","","","","","","","","","feedback_test","","","","","","","","",""
"567","","f","psychophysics","130","447522","0.0-8.0-0.0-4.0-0.0-0.11","7","7","7","7","7","5","5","5","5","5","5","2","1","2","2","2","2","2","2","5","5","5","5","1","5","5","5","5","5","8","7","8","8","8","7","8","9","7","7","7","7","7","7","7","7","1","7","7","1","7","6","7","7","7","7","7","7","7","7","7","7","7","7","7","7","7","7","7","7","7","7","7","7","7","7","7","7","7","7","598901822953881600","杨","404","Male","[""坏他"",""坏我"",""好我"",""好他""]","[""弱他"",""弱我"",""强我"",""强他""]","","","","","","","","match","","","","","","","","","","key","f","16.666408602150174","768","428","f","true","match","img/hexagon.png","好他","好他","ALT2","moral","","","","","","","","",""
"null","<span style='color:GreenYellow; font-size: 70px;'>正确! </span>","null","html-keyboard-response","131","448023","0.0-8.0-0.0-4.0-0.0-1.11","7","7","7","7","7","5","5","5","5","5","5","2","1","2","2","2","2","2","2","5","5","5","5","1","5","5","5","5","5","8","7","8","8","8","7","8","9","7","7","7","7","7","7","7","7","1","7","7","1","7","6","7","7","7","7","7","7","7","7","7","7","7","7","7","7","7","7","7","7","7","7","7","7","7","7","7","7","7","7","598901822953881600","杨","404","Male","[""坏他"",""坏我"",""好我"",""好他""]","[""弱他"",""弱我"",""强我"",""强他""]","","","","","","","","","","","","","","","","","","","","","","","","","","","","","","feedback_test","","","","","","","","",""
"695","","f","psychophysics","132","449720","0.0-8.0-0.0-4.0-0.0-0.12","7","7","7","7","7","5","5","5","5","5","5","2","1","2","2","2","2","2","2","5","5","5","5","1","5","5","5","5","5","8","7","8","8","8","7","8","9","7","7","7","7","7","7","7","7","1","7","7","1","7","6","7","7","7","7","7","7","7","7","7","7","7","7","7","7","7","7","7","7","7","7","7","7","7","7","7","7","7","7","598901822953881600","杨","404","Male","[""坏他"",""坏我"",""好我"",""好他""]","[""弱他"",""弱我"",""强我"",""强他""]","","","","","","","","match","","","","","","","","","","key","f","16.666831683168088","768","428","f","true","match","img/hexagon.png","好他","好他","ALT2","moral","","","","","","","","",""
"null","<span style='color:GreenYellow; font-size: 70px;'>正确! </span>","null","html-keyboard-response","133","450221","0.0-8.0-0.0-4.0-0.0-1.12","7","7","7","7","7","5","5","5","5","5","5","2","1","2","2","2","2","2","2","5","5","5","5","1","5","5","5","5","5","8","7","8","8","8","7","8","9","7","7","7","7","7","7","7","7","1","7","7","1","7","6","7","7","7","7","7","7","7","7","7","7","7","7","7","7","7","7","7","7","7","7","7","7","7","7","7","7","7","7","598901822953881600","杨","404","Male","[""坏他"",""坏我"",""好我"",""好他""]","[""弱他"",""弱我"",""强我"",""强他""]","","","","","","","","","","","","","","","","","","","","","","","","","","","","","","feedback_test","","","","","","","","",""
"930","","j","psychophysics","134","452152","0.0-8.0-0.0-4.0-0.0-0.13","7","7","7","7","7","5","5","5","5","5","5","2","1","2","2","2","2","2","2","5","5","5","5","1","5","5","5","5","5","8","7","8","8","8","7","8","9","7","7","7","7","7","7","7","7","1","7","7","1","7","6","7","7","7","7","7","7","7","7","7","7","7","7","7","7","7","7","7","7","7","7","7","7","7","7","7","7","7","7","598901822953881600","杨","404","Male","[""坏他"",""坏我"",""好我"",""好他""]","[""弱他"",""弱我"",""强我"",""强他""]","","","","","","","","nonmatch","","","","","","","","","","key","j","16.665139130434607","768","428","f","false","match","img/circle.png","坏我","坏我","ALT2","moral","","","","","","","","",""
"null","<span style='color:red; font-size: 70px;'>错误! </span>","null","html-keyboard-response","135","452654","0.0-8.0-0.0-4.0-0.0-1.13","7","7","7","7","7","5","5","5","5","5","5","2","1","2","2","2","2","2","2","5","5","5","5","1","5","5","5","5","5","8","7","8","8","8","7","8","9","7","7","7","7","7","7","7","7","1","7","7","1","7","6","7","7","7","7","7","7","7","7","7","7","7","7","7","7","7","7","7","7","7","7","7","7","7","7","7","7","7","7","598901822953881600","杨","404","Male","[""坏他"",""坏我"",""好我"",""好他""]","[""弱他"",""弱我"",""强我"",""强他""]","","","","","","","","","","","","","","","","","","","","","","","","","","","","","","feedback_test","","","","","","","","",""
"898","","j","psychophysics","136","454555","0.0-8.0-0.0-4.0-0.0-0.14","7","7","7","7","7","5","5","5","5","5","5","2","1","2","2","2","2","2","2","5","5","5","5","1","5","5","5","5","5","8","7","8","8","8","7","8","9","7","7","7","7","7","7","7","7","1","7","7","1","7","6","7","7","7","7","7","7","7","7","7","7","7","7","7","7","7","7","7","7","7","7","7","7","7","7","7","7","7","7","598901822953881600","杨","404","Male","[""坏他"",""坏我"",""好我"",""好他""]","[""弱他"",""弱我"",""强我"",""强他""]","","","","","","","","nonmatch","","","","","","","","","","key","j","16.664734513274254","768","428","j","true","nonmatch","img/diamond.png","好他","好我","ALT2","moral","","","","","","","","",""
"null","<span style='color:GreenYellow; font-size: 70px;'>正确! </span>","null","html-keyboard-response","137","455057","0.0-8.0-0.0-4.0-0.0-1.14","7","7","7","7","7","5","5","5","5","5","5","2","1","2","2","2","2","2","2","5","5","5","5","1","5","5","5","5","5","8","7","8","8","8","7","8","9","7","7","7","7","7","7","7","7","1","7","7","1","7","6","7","7","7","7","7","7","7","7","7","7","7","7","7","7","7","7","7","7","7","7","7","7","7","7","7","7","7","7","598901822953881600","杨","404","Male","[""坏他"",""坏我"",""好我"",""好他""]","[""弱他"",""弱我"",""强我"",""强他""]","","","","","","","","","","","","","","","","","","","","","","","","","","","","","","feedback_test","","","","","","","","",""
"643","","j","psychophysics","138","456702","0.0-8.0-0.0-4.0-0.0-0.15","7","7","7","7","7","5","5","5","5","5","5","2","1","2","2","2","2","2","2","5","5","5","5","1","5","5","5","5","5","8","7","8","8","8","7","8","9","7","7","7","7","7","7","7","7","1","7","7","1","7","6","7","7","7","7","7","7","7","7","7","7","7","7","7","7","7","7","7","7","7","7","7","7","7","7","7","7","7","7","598901822953881600","杨","404","Male","[""坏他"",""坏我"",""好我"",""好他""]","[""弱他"",""弱我"",""强我"",""强他""]","","","","","","","","nonmatch","","","","","","","","","","key","j","16.6664081632655","768","428","f","false","match","img/circle.png","坏我","坏我","ALT2","moral","","","","","","","","",""
