"rt","stimulus","response","trial_type","trial_index","time_elapsed","internal_node_id","swb_1","swb_2","swb_3","swb_4","swb_5","LOT_1","LOT_2","LOT_3","LOT_4","LOT_5","LOT_6","IPC_1","IPC_2","IPC_3","IPC_4","IPC_5","IPC_6","IPC_7","IPC_8","MorIden_1","MorIden_2","MorIden_3","MorIden_4","MorIden_5","MorIden_6","MorIden_7","MorIden_8","MorIden_9","MorIden_10","moralSeImag_1","moralSeImag_2","moralSeImag_3","moralSeImag_4","moralSeImag_5","moralSeImag_6","moralSeImag_7","moralSeImag_8","moralSeImag_9","sde_1","sde_2","sde_3","sde_4","sde_5","sde_6","sde_7","sde_8","sde_9","sde_10","trap2","sde_11","sde_12","sde_13","sde_14","sde_15","sde_16","sde_17","sde_18","sde_19","sde_20","IM_1","IM_2","IM_3","IM_4","IM_5","IM_6","IM_7","IM_8","IM_9","IM_10","IM_11","IM_12","IM_13","IM_14","IM_15","IM_16","IM_17","IM_18","IM_19","IM_20","subj_idx","friend_name","ParticipantID","Sex","Word","Word2","value","success","timeout","failed_images","failed_audio","failed_video","user_agent","responses","item_order","radio_event_ids","radio_event_times","key_event_times","mouse_event_times","straightlining","zigzagging","honeypot","task_id","screen_id","time_stamp","response_type","key_press","avg_frame_time","center_x","center_y","person","word","valence","domain","math","correct_response","correct","status","view_history","identity","duration","Image","condition","question_order","trap2_item"
"14660","
   <p><div style='color:white; font-size: 25px'>您好，欢迎参加本次实验。</div></p>
   <p><div style='color:white; font-size: 25px'>为充分保障您的权利，请确保您已经知晓并同意《参与实验同意书》以及《数据公开知情同意书》。</div></p>
   <p><div style='color:white; font-size: 25px'>如果您未见过上述内容，请咨询实验员。</div></p>
   <p style='color:white; font-size: 25px'>如果您选择继续实验，则表示您已经清楚两份知情同意书的内容并同意。</p>
   <p><div style = ""color: pink;font-size:30px;"">请确保您记得day0的实验编号，您将在本次实验输入该编号，若您忘记，请咨询实验员后作答。</div></p>
   <p><div style = ""color:lightblue;font-size:25px;"">请您尽可能认真地作答，我们将依据您在各问卷和按键任务中的作答质量发放报酬。</div></p>
   <p> <div style = ""color: green""><按空格键至下页></div> </p>
   "," ","html-keyboard-response","0","14662","0.0-0.0","5","4","3","3","4","4","2","3","4","4","4","1","0","0","2","0","0","2","2","5","4","5","4","4","3","3","4","2","3","4","3","5","6","2","4","2","5","6","3","2","3","3","5","2","6","2","7","1","1","4","1","6","2","6","2","2","4","5","5","2","3","3","1","1","6","3","7","2","6","6","2","3","1","2","6","7","6","1","3","689594271669420032","李","592","Female","[""好她"",""坏她"",""好我"",""坏我""]","[""强她"",""弱她"",""强我"",""弱我""]","","","","","","","","","","","","","","","","","","","","","","","","","","","","","","","","","","","","","","",""
"","","","call-function","1","14663","0.0-1.0-0.0","5","4","3","3","4","4","2","3","4","4","4","1","0","0","2","0","0","2","2","5","4","5","4","4","3","3","4","2","3","4","3","5","6","2","4","2","5","6","3","2","3","3","5","2","6","2","7","1","1","4","1","6","2","6","2","2","4","5","5","2","3","3","1","1","6","3","7","2","6","6","2","3","1","2","6","7","6","1","3","689594271669420032","李","592","Female","[""好她"",""坏她"",""好我"",""坏我""]","[""强她"",""弱她"",""强我"",""弱我""]","","","","","","","","","","","","","","","","","","","","","","","","","","","","","","","","","","","","","","",""
"31412","","[{""name"":""Sex"",""value"":""1""},{""name"":""friend_name"",""value"":""李""},{""name"":""ParticipantID"",""value"":""592""}]","survey-html-form","2","46089","0.0-1.0-1.0","5","4","3","3","4","4","2","3","4","4","4","1","0","0","2","0","0","2","2","5","4","5","4","4","3","3","4","2","3","4","3","5","6","2","4","2","5","6","3","2","3","3","5","2","6","2","7","1","1","4","1","6","2","6","2","2","4","5","5","2","3","3","1","1","6","3","7","2","6","6","2","3","1","2","6","7","6","1","3","689594271669420032","李","592","Female","[""好她"",""坏她"",""好我"",""坏我""]","[""强她"",""弱她"",""强我"",""弱我""]","","","","","","","","","","","","","","","","","","","","","","","","","","","","","","","","","","","","","","",""
"","","","preload","3","46426","0.0-2.0","5","4","3","3","4","4","2","3","4","4","4","1","0","0","2","0","0","2","2","5","4","5","4","4","3","3","4","2","3","4","3","5","6","2","4","2","5","6","3","2","3","3","5","2","6","2","7","1","1","4","1","6","2","6","2","2","4","5","5","2","3","3","1","1","6","3","7","2","6","6","2","3","1","2","6","7","6","1","3","689594271669420032","李","592","Female","[""好她"",""坏她"",""好我"",""坏我""]","[""强她"",""弱她"",""强我"",""弱我""]","","true","false","[]","[]","[]","","","","","","","","","","","","","","","","","","","","","","","","","","","","","","","","",""
"","","","fullscreen","4","61235","0.0-3.0","5","4","3","3","4","4","2","3","4","4","4","1","0","0","2","0","0","2","2","5","4","5","4","4","3","3","4","2","3","4","3","5","6","2","4","2","5","6","3","2","3","3","5","2","6","2","7","1","1","4","1","6","2","6","2","2","4","5","5","2","3","3","1","1","6","3","7","2","6","6","2","3","1","2","6","7","6","1","3","689594271669420032","李","592","Female","[""好她"",""坏她"",""好我"",""坏我""]","[""强她"",""弱她"",""强我"",""弱我""]","","true","","","","","{}","","","","","","","","","","","","","","","","","","","","","","","","","","","","","","","",""
"82883.5","","{""Q01"":""5"",""Q02"":""4"",""Q03"":""3"",""Q04"":""3"",""Q05"":""4""}","survey-template","5","144122","0.0-4.0","5","4","3","3","4","4","2","3","4","4","4","1","0","0","2","0","0","2","2","5","4","5","4","4","3","3","4","2","3","4","3","5","6","2","4","2","5","6","3","2","3","3","5","2","6","2","7","1","1","4","1","6","2","6","2","2","4","5","5","2","3","3","1","1","6","3","7","2","6","6","2","3","1","2","6","7","6","1","3","689594271669420032","李","592","Female","[""好她"",""坏她"",""好我"",""坏我""]","[""强她"",""弱她"",""强我"",""弱我""]","","","","","","","","{""Q01"":""5"",""Q02"":""4"",""Q03"":""3"",""Q04"":""3"",""Q05"":""4""}","[0,1,2,3,4]","[""Q01"",""Q02"",""Q03"",""Q03"",""Q02"",""Q04"",""Q05"",""Q05"",""Q03"",""Q01""]","[7376.9000000059605,11398,14111.5,17072.5,23919.600000023842,29718.20000001788,46376.30000001192,65100,69746,78040.90000000596]","[]","[7376.9000000059605,11398,14111.5,17072.5,23919.600000023842,29718.20000001788,41631.70000001788,43451.10000002384,45026.20000001788,46376.30000001192,65100,69746,78040.90000000596,82878.30000001192]","0.4","0.75","0","","","","","","","","","","","","","","","","","","","","","","",""
"66630.90000000596","","{""Q01"":""4"",""Q02"":""2"",""Q03"":""3"",""Q04"":""4"",""Q05"":""4"",""Q06"":""4""}","survey-template","6","210758","0.0-5.0","5","4","3","3","4","4","2","3","4","4","4","1","0","0","2","0","0","2","2","5","4","5","4","4","3","3","4","2","3","4","3","5","6","2","4","2","5","6","3","2","3","3","5","2","6","2","7","1","1","4","1","6","2","6","2","2","4","5","5","2","3","3","1","1","6","3","7","2","6","6","2","3","1","2","6","7","6","1","3","689594271669420032","李","592","Female","[""好她"",""坏她"",""好我"",""坏我""]","[""强她"",""弱她"",""强我"",""弱我""]","","","","","","","","{""Q01"":""4"",""Q02"":""2"",""Q03"":""3"",""Q04"":""4"",""Q05"":""4"",""Q06"":""4""}","[0,1,2,3,4,5]","[""Q01"",""Q02"",""Q03"",""Q04"",""Q05"",""Q02"",""Q06""]","[12730.699999988079,24108.09999999404,26175.90000000596,31223.79999998212,35042.5,43084.19999998808,50495.29999998212]","[]","[11352.799999982119,12730.699999988079,24108.09999999404,26175.90000000596,31223.79999998212,35042.5,41926.19999998808,43084.19999998808,47787.19999998808,49286.19999998808,50495.29999998212,66627.5]","0.5","0.4","0","","","","","","","","","","","","","","","","","","","","","","",""
"60025.59999999404","","{""Q01"":""1"",""Q02"":""0"",""Q03"":""0"",""Q04"":""2"",""Q05"":""0"",""Q06"":""0"",""Q07"":""2"",""Q08"":""2""}","survey-template","7","270788","0.0-6.0","5","4","3","3","4","4","2","3","4","4","4","1","0","0","2","0","0","2","2","5","4","5","4","4","3","3","4","2","3","4","3","5","6","2","4","2","5","6","3","2","3","3","5","2","6","2","7","1","1","4","1","6","2","6","2","2","4","5","5","2","3","3","1","1","6","3","7","2","6","6","2","3","1","2","6","7","6","1","3","689594271669420032","李","592","Female","[""好她"",""坏她"",""好我"",""坏我""]","[""强她"",""弱她"",""强我"",""弱我""]","","","","","","","","{""Q01"":""1"",""Q02"":""0"",""Q03"":""0"",""Q04"":""2"",""Q05"":""0"",""Q06"":""0"",""Q07"":""2"",""Q08"":""2""}","[0,1,2,3,4,5,6,7]","[""Q01"",""Q02"",""Q03"",""Q04"",""Q04"",""Q05"",""Q06"",""Q06"",""Q06"",""Q07"",""Q08""]","[5090.300000011921,13626.300000011921,18811.80000001192,22629.40000000596,25605.5,32964.20000001788,39909,44030.30000001192,47164.20000001788,54627.70000001788,56966]","[]","[5090.300000011921,13626.300000011921,18811.80000001192,22629.40000000596,25605.5,32964.20000001788,39909,44030.30000001192,47164.20000001788,54627.70000001788,56966,60022.70000001788]","0.5","0.14285714285714285","0","","","","","","","","","","","","","","","","","","","","","","",""
"34639","
    <p><div style='color:white;font-size:35px; line-height:20px;'>词汇评估任务</div></p><br>
    <p><div style='color:white;font-size:25px; line-height:20px;'>请再次回忆该亲密的朋友，你们至少2年前就认识了，并且最近2年经常见面。</div></p>
    <p><div style='color:white;font-size:25px; line-height:20px;'>在本实验中，您将会看到一些形容词。</div></p>
    <p><div style='color:yellow;font-size:25px; line-height:20px;'>您的任务是判断这些形容词是否符合对您自己或您的朋友的描述。</div></p><p style='font-size:35px'>符合按<span style=""color:lightgreen""> f 键</span>，不符合按<span style=""color:red""> j 键</span></p>","0","html-button-response","8","305430","0.0-7.0-0.0","5","4","3","3","4","4","2","3","4","4","4","1","0","0","2","0","0","2","2","5","4","5","4","4","3","3","4","2","3","4","3","5","6","2","4","2","5","6","3","2","3","3","5","2","6","2","7","1","1","4","1","6","2","6","2","2","4","5","5","2","3","3","1","1","6","3","7","2","6","6","2","3","1","2","6","7","6","1","3","689594271669420032","李","592","Female","[""好她"",""坏她"",""好我"",""坏我""]","[""强她"",""弱她"",""强我"",""弱我""]","","","","","","","","","","","","","","","","","SRET_EW","EW_instructions","Wed Jan 31 2024 20:44:44 GMT+0800 (中国标准时间)","","","","","","","","","","","","","","","","","","","",""
"null","","null","psychophysics","9","308442","0.0-7.0-1.0-0.0","5","4","3","3","4","4","2","3","4","4","4","1","0","0","2","0","0","2","2","5","4","5","4","4","3","3","4","2","3","4","3","5","6","2","4","2","5","6","3","2","3","3","5","2","6","2","7","1","1","4","1","6","2","6","2","2","4","5","5","2","3","3","1","1","6","3","7","2","6","6","2","3","1","2","6","7","6","1","3","689594271669420032","李","592","Female","[""好她"",""坏她"",""好我"",""坏我""]","[""强她"",""弱她"",""强我"",""弱我""]","","","","","","","","","","","","","","","","","SRET_EW","EW_practice","","key","null","16.614755555555327","747","463","朋友","徇私","Negative","morality","","","","","","","","","","",""
"738","","f","psychophysics","10","310186","0.0-7.0-1.0-0.1","5","4","3","3","4","4","2","3","4","4","4","1","0","0","2","0","0","2","2","5","4","5","4","4","3","3","4","2","3","4","3","5","6","2","4","2","5","6","3","2","3","3","5","2","6","2","7","1","1","4","1","6","2","6","2","2","4","5","5","2","3","3","1","1","6","3","7","2","6","6","2","3","1","2","6","7","6","1","3","689594271669420032","李","592","Female","[""好她"",""坏她"",""好我"",""坏我""]","[""强她"",""弱她"",""强我"",""弱我""]","","","","","","","","yes","","","","","","","","","SRET_EW","EW_practice","","key","f","16.664423076923413","747","463","自己","严谨","Positive","ability","","","","","","","","","","",""
"913","","j","psychophysics","11","312104","0.0-7.0-1.0-0.2","5","4","3","3","4","4","2","3","4","4","4","1","0","0","2","0","0","2","2","5","4","5","4","4","3","3","4","2","3","4","3","5","6","2","4","2","5","6","3","2","3","3","5","2","6","2","7","1","1","4","1","6","2","6","2","2","4","5","5","2","3","3","1","1","6","3","7","2","6","6","2","3","1","2","6","7","6","1","3","689594271669420032","李","592","Female","[""好她"",""坏她"",""好我"",""坏我""]","[""强她"",""弱她"",""强我"",""弱我""]","","","","","","","","no","","","","","","","","","SRET_EW","EW_practice","","key","j","16.670175438596697","747","463","自己","刻板","Negative","ability","","","","","","","","","","",""
"935","","f","psychophysics","12","314041","0.0-7.0-1.0-0.3","5","4","3","3","4","4","2","3","4","4","4","1","0","0","2","0","0","2","2","5","4","5","4","4","3","3","4","2","3","4","3","5","6","2","4","2","5","6","3","2","3","3","5","2","6","2","7","1","1","4","1","6","2","6","2","2","4","5","5","2","3","3","1","1","6","3","7","2","6","6","2","3","1","2","6","7","6","1","3","689594271669420032","李","592","Female","[""好她"",""坏她"",""好我"",""坏我""]","[""强她"",""弱她"",""强我"",""弱我""]","","","","","","","","yes","","","","","","","","","SRET_EW","EW_practice","","key","f","16.667826086956925","747","463","朋友","忠实","Positive","morality","","","","","","","","","","",""
"18414","
    <p><div style='color:white;font-size:35px; line-height:20px;'>请您再次阅读实验要求</div></p><br>
    <p><div style='color:white;font-size:25px; line-height:20px;'>请回忆某一个亲密的朋友，你们至少2年前就认识了，并且最近2年经常见面。</div></p>
    <p><div style='color:white;font-size:25px; line-height:20px;'>在本实验中，您将会看到一些形容词。</div></p>
    <p><div style='color:yellow;font-size:25px; line-height:20px;'>您的任务是判断这些形容词是否符合对您自己或您的朋友的描述。</div></p>
    <p><div class='footer' style='font-size:25px; line-height:20px;'>如果对本实验还有不清楚之处，请立即向实验员咨询。</p><p style='font-size:25px; line-height:20px;'>如果您明白了规则：</p><p style='font-size:22px; line-height:20px;'>请按 继续 进入正式实验</p>
    </div>
    <p style='font-size:35px'>符合按<span style=""color:lightgreen""> f 键</span>，不符合按<span style=""color:red""> j 键</span></p>","0","html-button-response","13","332457","0.0-7.0-2.0","5","4","3","3","4","4","2","3","4","4","4","1","0","0","2","0","0","2","2","5","4","5","4","4","3","3","4","2","3","4","3","5","6","2","4","2","5","6","3","2","3","3","5","2","6","2","7","1","1","4","1","6","2","6","2","2","4","5","5","2","3","3","1","1","6","3","7","2","6","6","2","3","1","2","6","7","6","1","3","689594271669420032","李","592","Female","[""好她"",""坏她"",""好我"",""坏我""]","[""强她"",""弱她"",""强我"",""弱我""]","","","","","","","","","","","","","","","","","SRET_EW","prac_instructions","Wed Jan 31 2024 20:44:44 GMT+0800 (中国标准时间)","","","","","","","","","","","","","","","","","","","",""
"546","","f","psychophysics","14","334007","0.0-7.0-3.0-0.0","5","4","3","3","4","4","2","3","4","4","4","1","0","0","2","0","0","2","2","5","4","5","4","4","3","3","4","2","3","4","3","5","6","2","4","2","5","6","3","2","3","3","5","2","6","2","7","1","1","4","1","6","2","6","2","2","4","5","5","2","3","3","1","1","6","3","7","2","6","6","2","3","1","2","6","7","6","1","3","689594271669420032","李","592","Female","[""好她"",""坏她"",""好我"",""坏我""]","[""强她"",""弱她"",""强我"",""弱我""]","","","","","","","","yes","","","","","","","","","SRET","EW_formal","","key","f","16.486838709677553","747","463","朋友","务实","Positive","ability","","","","","","","","","","",""
"706","","j","psychophysics","15","335717","0.0-7.0-3.0-0.1","5","4","3","3","4","4","2","3","4","4","4","1","0","0","2","0","0","2","2","5","4","5","4","4","3","3","4","2","3","4","3","5","6","2","4","2","5","6","3","2","3","3","5","2","6","2","7","1","1","4","1","6","2","6","2","2","4","5","5","2","3","3","1","1","6","3","7","2","6","6","2","3","1","2","6","7","6","1","3","689594271669420032","李","592","Female","[""好她"",""坏她"",""好我"",""坏我""]","[""强她"",""弱她"",""强我"",""弱我""]","","","","","","","","no","","","","","","","","","SRET","EW_formal","","key","j","16.66960784313714","747","463","自己","说谎","Negative","morality","","","","","","","","","","",""
"921","","f","psychophysics","16","337650","0.0-7.0-3.0-0.2","5","4","3","3","4","4","2","3","4","4","4","1","0","0","2","0","0","2","2","5","4","5","4","4","3","3","4","2","3","4","3","5","6","2","4","2","5","6","3","2","3","3","5","2","6","2","7","1","1","4","1","6","2","6","2","2","4","5","5","2","3","3","1","1","6","3","7","2","6","6","2","3","1","2","6","7","6","1","3","689594271669420032","李","592","Female","[""好她"",""坏她"",""好我"",""坏我""]","[""强她"",""弱她"",""强我"",""弱我""]","","","","","","","","yes","","","","","","","","","SRET","EW_formal","","key","f","16.669565217391305","747","463","朋友","迷糊","Negative","ability","","","","","","","","","","",""
"798","","f","psychophysics","17","339444","0.0-7.0-3.0-0.3","5","4","3","3","4","4","2","3","4","4","4","1","0","0","2","0","0","2","2","5","4","5","4","4","3","3","4","2","3","4","3","5","6","2","4","2","5","6","3","2","3","3","5","2","6","2","7","1","1","4","1","6","2","6","2","2","4","5","5","2","3","3","1","1","6","3","7","2","6","6","2","3","1","2","6","7","6","1","3","689594271669420032","李","592","Female","[""好她"",""坏她"",""好我"",""坏我""]","[""强她"",""弱她"",""强我"",""弱我""]","","","","","","","","yes","","","","","","","","","SRET","EW_formal","","key","f","16.66822429906542","747","463","自己","坚贞","Positive","morality","","","","","","","","","","",""
"674","","f","psychophysics","18","341125","0.0-7.0-3.0-0.4","5","4","3","3","4","4","2","3","4","4","4","1","0","0","2","0","0","2","2","5","4","5","4","4","3","3","4","2","3","4","3","5","6","2","4","2","5","6","3","2","3","3","5","2","6","2","7","1","1","4","1","6","2","6","2","2","4","5","5","2","3","3","1","1","6","3","7","2","6","6","2","3","1","2","6","7","6","1","3","689594271669420032","李","592","Female","[""好她"",""坏她"",""好我"",""坏我""]","[""强她"",""弱她"",""强我"",""弱我""]","","","","","","","","yes","","","","","","","","","SRET","EW_formal","","key","f","16.697000000000116","747","463","朋友","善良","Positive","morality","","","","","","","","","","",""
"704","","f","psychophysics","19","342834","0.0-7.0-3.0-0.5","5","4","3","3","4","4","2","3","4","4","4","1","0","0","2","0","0","2","2","5","4","5","4","4","3","3","4","2","3","4","3","5","6","2","4","2","5","6","3","2","3","3","5","2","6","2","7","1","1","4","1","6","2","6","2","2","4","5","5","2","3","3","1","1","6","3","7","2","6","6","2","3","1","2","6","7","6","1","3","689594271669420032","李","592","Female","[""好她"",""坏她"",""好我"",""坏我""]","[""强她"",""弱她"",""强我"",""弱我""]","","","","","","","","yes","","","","","","","","","SRET","EW_formal","","key","f","16.668316831683168","747","463","朋友","谦逊","Positive","morality","","","","","","","","","","",""
"838","","j","psychophysics","20","344675","0.0-7.0-3.0-0.6","5","4","3","3","4","4","2","3","4","4","4","1","0","0","2","0","0","2","2","5","4","5","4","4","3","3","4","2","3","4","3","5","6","2","4","2","5","6","3","2","3","3","5","2","6","2","7","1","1","4","1","6","2","6","2","2","4","5","5","2","3","3","1","1","6","3","7","2","6","6","2","3","1","2","6","7","6","1","3","689594271669420032","李","592","Female","[""好她"",""坏她"",""好我"",""坏我""]","[""强她"",""弱她"",""强我"",""弱我""]","","","","","","","","no","","","","","","","","","SRET","EW_formal","","key","j","16.670000000000105","747","463","朋友","无敌","Positive","ability","","","","","","","","","","",""
"692","","f","psychophysics","21","346377","0.0-7.0-3.0-0.7","5","4","3","3","4","4","2","3","4","4","4","1","0","0","2","0","0","2","2","5","4","5","4","4","3","3","4","2","3","4","3","5","6","2","4","2","5","6","3","2","3","3","5","2","6","2","7","1","1","4","1","6","2","6","2","2","4","5","5","2","3","3","1","1","6","3","7","2","6","6","2","3","1","2","6","7","6","1","3","689594271669420032","李","592","Female","[""好她"",""坏她"",""好我"",""坏我""]","[""强她"",""弱她"",""强我"",""弱我""]","","","","","","","","yes","","","","","","","","","SRET","EW_formal","","key","f","16.659405940593828","747","463","自己","坚持","Positive","ability","","","","","","","","","","",""
"722","","f","psychophysics","22","348103","0.0-7.0-3.0-0.8","5","4","3","3","4","4","2","3","4","4","4","1","0","0","2","0","0","2","2","5","4","5","4","4","3","3","4","2","3","4","3","5","6","2","4","2","5","6","3","2","3","3","5","2","6","2","7","1","1","4","1","6","2","6","2","2","4","5","5","2","3","3","1","1","6","3","7","2","6","6","2","3","1","2","6","7","6","1","3","689594271669420032","李","592","Female","[""好她"",""坏她"",""好我"",""坏我""]","[""强她"",""弱她"",""强我"",""弱我""]","","","","","","","","yes","","","","","","","","","SRET","EW_formal","","key","f","16.670588235294346","747","463","朋友","正气","Positive","morality","","","","","","","","","","",""
"699","","j","psychophysics","23","349807","0.0-7.0-3.0-0.9","5","4","3","3","4","4","2","3","4","4","4","1","0","0","2","0","0","2","2","5","4","5","4","4","3","3","4","2","3","4","3","5","6","2","4","2","5","6","3","2","3","3","5","2","6","2","7","1","1","4","1","6","2","6","2","2","4","5","5","2","3","3","1","1","6","3","7","2","6","6","2","3","1","2","6","7","6","1","3","689594271669420032","李","592","Female","[""好她"",""坏她"",""好我"",""坏我""]","[""强她"",""弱她"",""强我"",""弱我""]","","","","","","","","no","","","","","","","","","SRET","EW_formal","","key","j","16.66960784313714","747","463","朋友","龌龊","Negative","morality","","","","","","","","","","",""
"732","","j","psychophysics","24","351553","0.0-7.0-3.0-0.10","5","4","3","3","4","4","2","3","4","4","4","1","0","0","2","0","0","2","2","5","4","5","4","4","3","3","4","2","3","4","3","5","6","2","4","2","5","6","3","2","3","3","5","2","6","2","7","1","1","4","1","6","2","6","2","2","4","5","5","2","3","3","1","1","6","3","7","2","6","6","2","3","1","2","6","7","6","1","3","689594271669420032","李","592","Female","[""好她"",""坏她"",""好我"",""坏我""]","[""强她"",""弱她"",""强我"",""弱我""]","","","","","","","","no","","","","","","","","","SRET","EW_formal","","key","j","16.667961165048432","747","463","自己","弱智","Negative","ability","","","","","","","","","","",""
"800","","j","psychophysics","25","353357","0.0-7.0-3.0-0.11","5","4","3","3","4","4","2","3","4","4","4","1","0","0","2","0","0","2","2","5","4","5","4","4","3","3","4","2","3","4","3","5","6","2","4","2","5","6","3","2","3","3","5","2","6","2","7","1","1","4","1","6","2","6","2","2","4","5","5","2","3","3","1","1","6","3","7","2","6","6","2","3","1","2","6","7","6","1","3","689594271669420032","李","592","Female","[""好她"",""坏她"",""好我"",""坏我""]","[""强她"",""弱她"",""强我"",""弱我""]","","","","","","","","no","","","","","","","","","SRET","EW_formal","","key","j","16.666666666666668","747","463","朋友","无知","Negative","ability","","","","","","","","","","",""
"819","","j","psychophysics","26","355186","0.0-7.0-3.0-0.12","5","4","3","3","4","4","2","3","4","4","4","1","0","0","2","0","0","2","2","5","4","5","4","4","3","3","4","2","3","4","3","5","6","2","4","2","5","6","3","2","3","3","5","2","6","2","7","1","1","4","1","6","2","6","2","2","4","5","5","2","3","3","1","1","6","3","7","2","6","6","2","3","1","2","6","7","6","1","3","689594271669420032","李","592","Female","[""好她"",""坏她"",""好我"",""坏我""]","[""强她"",""弱她"",""强我"",""弱我""]","","","","","","","","no","","","","","","","","","SRET","EW_formal","","key","j","16.670370370370588","747","463","自己","蛇蝎","Negative","morality","","","","","","","","","","",""
"867","","f","psychophysics","27","357057","0.0-7.0-3.0-0.13","5","4","3","3","4","4","2","3","4","4","4","1","0","0","2","0","0","2","2","5","4","5","4","4","3","3","4","2","3","4","3","5","6","2","4","2","5","6","3","2","3","3","5","2","6","2","7","1","1","4","1","6","2","6","2","2","4","5","5","2","3","3","1","1","6","3","7","2","6","6","2","3","1","2","6","7","6","1","3","689594271669420032","李","592","Female","[""好她"",""坏她"",""好我"",""坏我""]","[""强她"",""弱她"",""强我"",""弱我""]","","","","","","","","yes","","","","","","","","","SRET","EW_formal","","key","f","16.66785714285756","747","463","自己","文明","Positive","morality","","","","","","","","","","",""
"1092","","j","psychophysics","28","359152","0.0-7.0-3.0-0.14","5","4","3","3","4","4","2","3","4","4","4","1","0","0","2","0","0","2","2","5","4","5","4","4","3","3","4","2","3","4","3","5","6","2","4","2","5","6","3","2","3","3","5","2","6","2","7","1","1","4","1","6","2","6","2","2","4","5","5","2","3","3","1","1","6","3","7","2","6","6","2","3","1","2","6","7","6","1","3","689594271669420032","李","592","Female","[""好她"",""坏她"",""好我"",""坏我""]","[""强她"",""弱她"",""强我"",""弱我""]","","","","","","","","no","","","","","","","","","SRET","EW_formal","","key","j","16.668548387096962","747","463","自己","狡狯","Negative","morality","","","","","","","","","","",""
"651","","f","psychophysics","29","360809","0.0-7.0-3.0-0.15","5","4","3","3","4","4","2","3","4","4","4","1","0","0","2","0","0","2","2","5","4","5","4","4","3","3","4","2","3","4","3","5","6","2","4","2","5","6","3","2","3","3","5","2","6","2","7","1","1","4","1","6","2","6","2","2","4","5","5","2","3","3","1","1","6","3","7","2","6","6","2","3","1","2","6","7","6","1","3","689594271669420032","李","592","Female","[""好她"",""坏她"",""好我"",""坏我""]","[""强她"",""弱她"",""强我"",""弱我""]","","","","","","","","yes","","","","","","","","","SRET","EW_formal","","key","f","16.66969696969685","747","463","朋友","厚道","Positive","morality","","","","","","","","","","",""
"790","","j","psychophysics","30","362611","0.0-7.0-3.0-0.16","5","4","3","3","4","4","2","3","4","4","4","1","0","0","2","0","0","2","2","5","4","5","4","4","3","3","4","2","3","4","3","5","6","2","4","2","5","6","3","2","3","3","5","2","6","2","7","1","1","4","1","6","2","6","2","2","4","5","5","2","3","3","1","1","6","3","7","2","6","6","2","3","1","2","6","7","6","1","3","689594271669420032","李","592","Female","[""好她"",""坏她"",""好我"",""坏我""]","[""强她"",""弱她"",""强我"",""弱我""]","","","","","","","","no","","","","","","","","","SRET","EW_formal","","key","j","16.669158878504998","747","463","朋友","无耻","Negative","morality","","","","","","","","","","",""
"743","","j","psychophysics","31","364363","0.0-7.0-3.0-0.17","5","4","3","3","4","4","2","3","4","4","4","1","0","0","2","0","0","2","2","5","4","5","4","4","3","3","4","2","3","4","3","5","6","2","4","2","5","6","3","2","3","3","5","2","6","2","7","1","1","4","1","6","2","6","2","2","4","5","5","2","3","3","1","1","6","3","7","2","6","6","2","3","1","2","6","7","6","1","3","689594271669420032","李","592","Female","[""好她"",""坏她"",""好我"",""坏我""]","[""强她"",""弱她"",""强我"",""弱我""]","","","","","","","","no","","","","","","","","","SRET","EW_formal","","key","j","16.667307692307915","747","463","自己","无能","Negative","ability","","","","","","","","","","",""
"701","","f","psychophysics","32","366070","0.0-7.0-3.0-0.18","5","4","3","3","4","4","2","3","4","4","4","1","0","0","2","0","0","2","2","5","4","5","4","4","3","3","4","2","3","4","3","5","6","2","4","2","5","6","3","2","3","3","5","2","6","2","7","1","1","4","1","6","2","6","2","2","4","5","5","2","3","3","1","1","6","3","7","2","6","6","2","3","1","2","6","7","6","1","3","689594271669420032","李","592","Female","[""好她"",""坏她"",""好我"",""坏我""]","[""强她"",""弱她"",""强我"",""弱我""]","","","","","","","","yes","","","","","","","","","SRET","EW_formal","","key","f","16.659405940594404","747","463","自己","礼貌","Positive","morality","","","","","","","","","","",""
"836","","j","psychophysics","33","367912","0.0-7.0-3.0-0.19","5","4","3","3","4","4","2","3","4","4","4","1","0","0","2","0","0","2","2","5","4","5","4","4","3","3","4","2","3","4","3","5","6","2","4","2","5","6","3","2","3","3","5","2","6","2","7","1","1","4","1","6","2","6","2","2","4","5","5","2","3","3","1","1","6","3","7","2","6","6","2","3","1","2","6","7","6","1","3","689594271669420032","李","592","Female","[""好她"",""坏她"",""好我"",""坏我""]","[""强她"",""弱她"",""强我"",""弱我""]","","","","","","","","no","","","","","","","","","SRET","EW_formal","","key","j","16.670000000000105","747","463","自己","怠惰","Negative","ability","","","","","","","","","","",""
"753","","f","psychophysics","34","369674","0.0-7.0-3.0-0.20","5","4","3","3","4","4","2","3","4","4","4","1","0","0","2","0","0","2","2","5","4","5","4","4","3","3","4","2","3","4","3","5","6","2","4","2","5","6","3","2","3","3","5","2","6","2","7","1","1","4","1","6","2","6","2","2","4","5","5","2","3","3","1","1","6","3","7","2","6","6","2","3","1","2","6","7","6","1","3","689594271669420032","李","592","Female","[""好她"",""坏她"",""好我"",""坏我""]","[""强她"",""弱她"",""强我"",""弱我""]","","","","","","","","yes","","","","","","","","","SRET","EW_formal","","key","f","16.67047619047641","747","463","朋友","独立","Positive","ability","","","","","","","","","","",""
"736","","f","psychophysics","35","371421","0.0-7.0-3.0-0.21","5","4","3","3","4","4","2","3","4","4","4","1","0","0","2","0","0","2","2","5","4","5","4","4","3","3","4","2","3","4","3","5","6","2","4","2","5","6","3","2","3","3","5","2","6","2","7","1","1","4","1","6","2","6","2","2","4","5","5","2","3","3","1","1","6","3","7","2","6","6","2","3","1","2","6","7","6","1","3","689594271669420032","李","592","Female","[""好她"",""坏她"",""好我"",""坏我""]","[""强她"",""弱她"",""强我"",""弱我""]","","","","","","","","yes","","","","","","","","","SRET","EW_formal","","key","f","16.666019417475503","747","463","自己","敏捷","Positive","ability","","","","","","","","","","",""
"786","","f","psychophysics","36","373212","0.0-7.0-3.0-0.22","5","4","3","3","4","4","2","3","4","4","4","1","0","0","2","0","0","2","2","5","4","5","4","4","3","3","4","2","3","4","3","5","6","2","4","2","5","6","3","2","3","3","5","2","6","2","7","1","1","4","1","6","2","6","2","2","4","5","5","2","3","3","1","1","6","3","7","2","6","6","2","3","1","2","6","7","6","1","3","689594271669420032","李","592","Female","[""好她"",""坏她"",""好我"",""坏我""]","[""强她"",""弱她"",""强我"",""弱我""]","","","","","","","","yes","","","","","","","","","SRET","EW_formal","","key","f","16.66822429906542","747","463","自己","勤恳","Positive","morality","","","","","","","","","","",""
"906","","j","psychophysics","37","375127","0.0-7.0-3.0-0.23","5","4","3","3","4","4","2","3","4","4","4","1","0","0","2","0","0","2","2","5","4","5","4","4","3","3","4","2","3","4","3","5","6","2","4","2","5","6","3","2","3","3","5","2","6","2","7","1","1","4","1","6","2","6","2","2","4","5","5","2","3","3","1","1","6","3","7","2","6","6","2","3","1","2","6","7","6","1","3","689594271669420032","李","592","Female","[""好她"",""坏她"",""好我"",""坏我""]","[""强她"",""弱她"",""强我"",""弱我""]","","","","","","","","no","","","","","","","","","SRET","EW_formal","","key","j","16.669298245613934","747","463","自己","窝囊","Negative","ability","","","","","","","","","","",""
"1021","","f","psychophysics","38","377156","0.0-7.0-3.0-0.24","5","4","3","3","4","4","2","3","4","4","4","1","0","0","2","0","0","2","2","5","4","5","4","4","3","3","4","2","3","4","3","5","6","2","4","2","5","6","3","2","3","3","5","2","6","2","7","1","1","4","1","6","2","6","2","2","4","5","5","2","3","3","1","1","6","3","7","2","6","6","2","3","1","2","6","7","6","1","3","689594271669420032","李","592","Female","[""好她"",""坏她"",""好我"",""坏我""]","[""强她"",""弱她"",""强我"",""弱我""]","","","","","","","","yes","","","","","","","","","SRET","EW_formal","","key","f","16.66833333333343","747","463","自己","拖延","Negative","ability","","","","","","","","","","",""
"1268","","j","psychophysics","39","379428","0.0-7.0-3.0-0.25","5","4","3","3","4","4","2","3","4","4","4","1","0","0","2","0","0","2","2","5","4","5","4","4","3","3","4","2","3","4","3","5","6","2","4","2","5","6","3","2","3","3","5","2","6","2","7","1","1","4","1","6","2","6","2","2","4","5","5","2","3","3","1","1","6","3","7","2","6","6","2","3","1","2","6","7","6","1","3","689594271669420032","李","592","Female","[""好她"",""坏她"",""好我"",""坏我""]","[""强她"",""弱她"",""强我"",""弱我""]","","","","","","","","no","","","","","","","","","SRET","EW_formal","","key","j","16.66838235294092","747","463","朋友","骁勇","Positive","ability","","","","","","","","","","",""
"982","","f","psychophysics","40","381437","0.0-7.0-3.0-0.26","5","4","3","3","4","4","2","3","4","4","4","1","0","0","2","0","0","2","2","5","4","5","4","4","3","3","4","2","3","4","3","5","6","2","4","2","5","6","3","2","3","3","5","2","6","2","7","1","1","4","1","6","2","6","2","2","4","5","5","2","3","3","1","1","6","3","7","2","6","6","2","3","1","2","6","7","6","1","3","689594271669420032","李","592","Female","[""好她"",""坏她"",""好我"",""坏我""]","[""强她"",""弱她"",""强我"",""弱我""]","","","","","","","","yes","","","","","","","","","SRET","EW_formal","","key","f","16.648739495798416","747","463","朋友","奉献","Positive","morality","","","","","","","","","","",""
"1885","","j","psychophysics","41","384330","0.0-7.0-3.0-0.27","5","4","3","3","4","4","2","3","4","4","4","1","0","0","2","0","0","2","2","5","4","5","4","4","3","3","4","2","3","4","3","5","6","2","4","2","5","6","3","2","3","3","5","2","6","2","7","1","1","4","1","6","2","6","2","2","4","5","5","2","3","3","1","1","6","3","7","2","6","6","2","3","1","2","6","7","6","1","3","689594271669420032","李","592","Female","[""好她"",""坏她"",""好我"",""坏我""]","[""强她"",""弱她"",""强我"",""弱我""]","","","","","","","","no","","","","","","","","","SRET","EW_formal","","key","j","16.667630057803468","747","463","朋友","屈才","Negative","ability","","","","","","","","","","",""
"708","","f","psychophysics","42","386047","0.0-7.0-3.0-0.28","5","4","3","3","4","4","2","3","4","4","4","1","0","0","2","0","0","2","2","5","4","5","4","4","3","3","4","2","3","4","3","5","6","2","4","2","5","6","3","2","3","3","5","2","6","2","7","1","1","4","1","6","2","6","2","2","4","5","5","2","3","3","1","1","6","3","7","2","6","6","2","3","1","2","6","7","6","1","3","689594271669420032","李","592","Female","[""好她"",""坏她"",""好我"",""坏我""]","[""强她"",""弱她"",""强我"",""弱我""]","","","","","","","","yes","","","","","","","","","SRET","EW_formal","","key","f","16.63431372548974","747","463","朋友","稳健","Positive","ability","","","","","","","","","","",""
"712","","j","psychophysics","43","387767","0.0-7.0-3.0-0.29","5","4","3","3","4","4","2","3","4","4","4","1","0","0","2","0","0","2","2","5","4","5","4","4","3","3","4","2","3","4","3","5","6","2","4","2","5","6","3","2","3","3","5","2","6","2","7","1","1","4","1","6","2","6","2","2","4","5","5","2","3","3","1","1","6","3","7","2","6","6","2","3","1","2","6","7","6","1","3","689594271669420032","李","592","Female","[""好她"",""坏她"",""好我"",""坏我""]","[""强她"",""弱她"",""强我"",""弱我""]","","","","","","","","no","","","","","","","","","SRET","EW_formal","","key","j","16.66960784313714","747","463","自己","全才","Positive","ability","","","","","","","","","","",""
"822","","j","psychophysics","44","389594","0.0-7.0-3.0-0.30","5","4","3","3","4","4","2","3","4","4","4","1","0","0","2","0","0","2","2","5","4","5","4","4","3","3","4","2","3","4","3","5","6","2","4","2","5","6","3","2","3","3","5","2","6","2","7","1","1","4","1","6","2","6","2","2","4","5","5","2","3","3","1","1","6","3","7","2","6","6","2","3","1","2","6","7","6","1","3","689594271669420032","李","592","Female","[""好她"",""坏她"",""好我"",""坏我""]","[""强她"",""弱她"",""强我"",""弱我""]","","","","","","","","no","","","","","","","","","SRET","EW_formal","","key","j","16.665137614678898","747","463","自己","仗义","Positive","morality","","","","","","","","","","",""
"910","","j","psychophysics","45","391512","0.0-7.0-3.0-0.31","5","4","3","3","4","4","2","3","4","4","4","1","0","0","2","0","0","2","2","5","4","5","4","4","3","3","4","2","3","4","3","5","6","2","4","2","5","6","3","2","3","3","5","2","6","2","7","1","1","4","1","6","2","6","2","2","4","5","5","2","3","3","1","1","6","3","7","2","6","6","2","3","1","2","6","7","6","1","3","689594271669420032","李","592","Female","[""好她"",""坏她"",""好我"",""坏我""]","[""强她"",""弱她"",""强我"",""弱我""]","","","","","","","","no","","","","","","","","","SRET","EW_formal","","key","j","16.669298245613934","747","463","朋友","逞强","Negative","ability","","","","","","","","","","",""
"731","","j","psychophysics","46","393254","0.0-7.0-3.0-0.32","5","4","3","3","4","4","2","3","4","4","4","1","0","0","2","0","0","2","2","5","4","5","4","4","3","3","4","2","3","4","3","5","6","2","4","2","5","6","3","2","3","3","5","2","6","2","7","1","1","4","1","6","2","6","2","2","4","5","5","2","3","3","1","1","6","3","7","2","6","6","2","3","1","2","6","7","6","1","3","689594271669420032","李","592","Female","[""好她"",""坏她"",""好我"",""坏我""]","[""强她"",""弱她"",""强我"",""弱我""]","","","","","","","","no","","","","","","","","","SRET","EW_formal","","key","j","16.638834951456197","747","463","自己","恶劣","Negative","morality","","","","","","","","","","",""
"864","","f","psychophysics","47","395122","0.0-7.0-3.0-0.33","5","4","3","3","4","4","2","3","4","4","4","1","0","0","2","0","0","2","2","5","4","5","4","4","3","3","4","2","3","4","3","5","6","2","4","2","5","6","3","2","3","3","5","2","6","2","7","1","1","4","1","6","2","6","2","2","4","5","5","2","3","3","1","1","6","3","7","2","6","6","2","3","1","2","6","7","6","1","3","689594271669420032","李","592","Female","[""好她"",""坏她"",""好我"",""坏我""]","[""强她"",""弱她"",""强我"",""弱我""]","","","","","","","","yes","","","","","","","","","SRET","EW_formal","","key","f","16.669369369369264","747","463","朋友","毛糙","Negative","ability","","","","","","","","","","",""
"686","","j","psychophysics","48","396814","0.0-7.0-3.0-0.34","5","4","3","3","4","4","2","3","4","4","4","1","0","0","2","0","0","2","2","5","4","5","4","4","3","3","4","2","3","4","3","5","6","2","4","2","5","6","3","2","3","3","5","2","6","2","7","1","1","4","1","6","2","6","2","2","4","5","5","2","3","3","1","1","6","3","7","2","6","6","2","3","1","2","6","7","6","1","3","689594271669420032","李","592","Female","[""好她"",""坏她"",""好我"",""坏我""]","[""强她"",""弱她"",""强我"",""弱我""]","","","","","","","","no","","","","","","","","","SRET","EW_formal","","key","j","16.668316831683168","747","463","自己","下流","Negative","morality","","","","","","","","","","",""
"703","","f","psychophysics","49","398526","0.0-7.0-3.0-0.35","5","4","3","3","4","4","2","3","4","4","4","1","0","0","2","0","0","2","2","5","4","5","4","4","3","3","4","2","3","4","3","5","6","2","4","2","5","6","3","2","3","3","5","2","6","2","7","1","1","4","1","6","2","6","2","2","4","5","5","2","3","3","1","1","6","3","7","2","6","6","2","3","1","2","6","7","6","1","3","689594271669420032","李","592","Female","[""好她"",""坏她"",""好我"",""坏我""]","[""强她"",""弱她"",""强我"",""弱我""]","","","","","","","","yes","","","","","","","","","SRET","EW_formal","","key","f","16.626470588235524","747","463","朋友","刚正","Positive","morality","","","","","","","","","","",""
"683","","j","psychophysics","50","400223","0.0-7.0-3.0-0.36","5","4","3","3","4","4","2","3","4","4","4","1","0","0","2","0","0","2","2","5","4","5","4","4","3","3","4","2","3","4","3","5","6","2","4","2","5","6","3","2","3","3","5","2","6","2","7","1","1","4","1","6","2","6","2","2","4","5","5","2","3","3","1","1","6","3","7","2","6","6","2","3","1","2","6","7","6","1","3","689594271669420032","李","592","Female","[""好她"",""坏她"",""好我"",""坏我""]","[""强她"",""弱她"",""强我"",""弱我""]","","","","","","","","no","","","","","","","","","SRET","EW_formal","","key","j","16.668999999999652","747","463","自己","背叛","Negative","morality","","","","","","","","","","",""
"723","","j","psychophysics","51","401959","0.0-7.0-3.0-0.37","5","4","3","3","4","4","2","3","4","4","4","1","0","0","2","0","0","2","2","5","4","5","4","4","3","3","4","2","3","4","3","5","6","2","4","2","5","6","3","2","3","3","5","2","6","2","7","1","1","4","1","6","2","6","2","2","4","5","5","2","3","3","1","1","6","3","7","2","6","6","2","3","1","2","6","7","6","1","3","689594271669420032","李","592","Female","[""好她"",""坏她"",""好我"",""坏我""]","[""强她"",""弱她"",""强我"",""弱我""]","","","","","","","","no","","","","","","","","","SRET","EW_formal","","key","j","16.666346153846042","747","463","朋友","腐败","Negative","morality","","","","","","","","","","",""
"799","","j","psychophysics","52","403766","0.0-7.0-3.0-0.38","5","4","3","3","4","4","2","3","4","4","4","1","0","0","2","0","0","2","2","5","4","5","4","4","3","3","4","2","3","4","3","5","6","2","4","2","5","6","3","2","3","3","5","2","6","2","7","1","1","4","1","6","2","6","2","2","4","5","5","2","3","3","1","1","6","3","7","2","6","6","2","3","1","2","6","7","6","1","3","689594271669420032","李","592","Female","[""好她"",""坏她"",""好我"",""坏我""]","[""强她"",""弱她"",""强我"",""弱我""]","","","","","","","","no","","","","","","","","","SRET","EW_formal","","key","j","16.670093457944034","747","463","朋友","短视","Negative","ability","","","","","","","","","","",""
"654","","j","psychophysics","53","405427","0.0-7.0-3.0-0.39","5","4","3","3","4","4","2","3","4","4","4","1","0","0","2","0","0","2","2","5","4","5","4","4","3","3","4","2","3","4","3","5","6","2","4","2","5","6","3","2","3","3","5","2","6","2","7","1","1","4","1","6","2","6","2","2","4","5","5","2","3","3","1","1","6","3","7","2","6","6","2","3","1","2","6","7","6","1","3","689594271669420032","李","592","Female","[""好她"",""坏她"",""好我"",""坏我""]","[""强她"",""弱她"",""强我"",""弱我""]","","","","","","","","no","","","","","","","","","SRET","EW_formal","","key","j","16.66969696969685","747","463","朋友","邪恶","Negative","morality","","","","","","","","","","",""
"856","","j","psychophysics","54","407295","0.0-7.0-3.0-0.40","5","4","3","3","4","4","2","3","4","4","4","1","0","0","2","0","0","2","2","5","4","5","4","4","3","3","4","2","3","4","3","5","6","2","4","2","5","6","3","2","3","3","5","2","6","2","7","1","1","4","1","6","2","6","2","2","4","5","5","2","3","3","1","1","6","3","7","2","6","6","2","3","1","2","6","7","6","1","3","689594271669420032","李","592","Female","[""好她"",""坏她"",""好我"",""坏我""]","[""强她"",""弱她"",""强我"",""弱我""]","","","","","","","","no","","","","","","","","","SRET","EW_formal","","key","j","16.666666666666668","747","463","朋友","自私","Negative","morality","","","","","","","","","","",""
"871","","j","psychophysics","55","409167","0.0-7.0-3.0-0.41","5","4","3","3","4","4","2","3","4","4","4","1","0","0","2","0","0","2","2","5","4","5","4","4","3","3","4","2","3","4","3","5","6","2","4","2","5","6","3","2","3","3","5","2","6","2","7","1","1","4","1","6","2","6","2","2","4","5","5","2","3","3","1","1","6","3","7","2","6","6","2","3","1","2","6","7","6","1","3","689594271669420032","李","592","Female","[""好她"",""坏她"",""好我"",""坏我""]","[""强她"",""弱她"",""强我"",""弱我""]","","","","","","","","no","","","","","","","","","SRET","EW_formal","","key","j","16.67027027027048","747","463","朋友","拜金","Negative","morality","","","","","","","","","","",""
"756","","j","psychophysics","56","410929","0.0-7.0-3.0-0.42","5","4","3","3","4","4","2","3","4","4","4","1","0","0","2","0","0","2","2","5","4","5","4","4","3","3","4","2","3","4","3","5","6","2","4","2","5","6","3","2","3","3","5","2","6","2","7","1","1","4","1","6","2","6","2","2","4","5","5","2","3","3","1","1","6","3","7","2","6","6","2","3","1","2","6","7","6","1","3","689594271669420032","李","592","Female","[""好她"",""坏她"",""好我"",""坏我""]","[""强她"",""弱她"",""强我"",""弱我""]","","","","","","","","no","","","","","","","","","SRET","EW_formal","","key","j","16.670476190475856","747","463","朋友","淫乱","Negative","morality","","","","","","","","","","",""
"677","","f","psychophysics","57","412616","0.0-7.0-3.0-0.43","5","4","3","3","4","4","2","3","4","4","4","1","0","0","2","0","0","2","2","5","4","5","4","4","3","3","4","2","3","4","3","5","6","2","4","2","5","6","3","2","3","3","5","2","6","2","7","1","1","4","1","6","2","6","2","2","4","5","5","2","3","3","1","1","6","3","7","2","6","6","2","3","1","2","6","7","6","1","3","689594271669420032","李","592","Female","[""好她"",""坏她"",""好我"",""坏我""]","[""强她"",""弱她"",""强我"",""弱我""]","","","","","","","","yes","","","","","","","","","SRET","EW_formal","","key","f","16.67099999999977","747","463","自己","沉着","Positive","ability","","","","","","","","","","",""
"676","","f","psychophysics","58","414298","0.0-7.0-3.0-0.44","5","4","3","3","4","4","2","3","4","4","4","1","0","0","2","0","0","2","2","5","4","5","4","4","3","3","4","2","3","4","3","5","6","2","4","2","5","6","3","2","3","3","5","2","6","2","7","1","1","4","1","6","2","6","2","2","4","5","5","2","3","3","1","1","6","3","7","2","6","6","2","3","1","2","6","7","6","1","3","689594271669420032","李","592","Female","[""好她"",""坏她"",""好我"",""坏我""]","[""强她"",""弱她"",""强我"",""弱我""]","","","","","","","","yes","","","","","","","","","SRET","EW_formal","","key","f","16.64399999999965","747","463","朋友","高洁","Positive","morality","","","","","","","","","","",""
"847","","f","psychophysics","59","416151","0.0-7.0-3.0-0.45","5","4","3","3","4","4","2","3","4","4","4","1","0","0","2","0","0","2","2","5","4","5","4","4","3","3","4","2","3","4","3","5","6","2","4","2","5","6","3","2","3","3","5","2","6","2","7","1","1","4","1","6","2","6","2","2","4","5","5","2","3","3","1","1","6","3","7","2","6","6","2","3","1","2","6","7","6","1","3","689594271669420032","李","592","Female","[""好她"",""坏她"",""好我"",""坏我""]","[""强她"",""弱她"",""强我"",""弱我""]","","","","","","","","yes","","","","","","","","","SRET","EW_formal","","key","f","16.669090909091228","747","463","朋友","迟钝","Negative","ability","","","","","","","","","","",""
"1029","","f","psychophysics","60","418186","0.0-7.0-3.0-0.46","5","4","3","3","4","4","2","3","4","4","4","1","0","0","2","0","0","2","2","5","4","5","4","4","3","3","4","2","3","4","3","5","6","2","4","2","5","6","3","2","3","3","5","2","6","2","7","1","1","4","1","6","2","6","2","2","4","5","5","2","3","3","1","1","6","3","7","2","6","6","2","3","1","2","6","7","6","1","3","689594271669420032","李","592","Female","[""好她"",""坏她"",""好我"",""坏我""]","[""强她"",""弱她"",""强我"",""弱我""]","","","","","","","","yes","","","","","","","","","SRET","EW_formal","","key","f","16.669421487603305","747","463","朋友","能干","Positive","ability","","","","","","","","","","",""
"811","","f","psychophysics","61","420001","0.0-7.0-3.0-0.47","5","4","3","3","4","4","2","3","4","4","4","1","0","0","2","0","0","2","2","5","4","5","4","4","3","3","4","2","3","4","3","5","6","2","4","2","5","6","3","2","3","3","5","2","6","2","7","1","1","4","1","6","2","6","2","2","4","5","5","2","3","3","1","1","6","3","7","2","6","6","2","3","1","2","6","7","6","1","3","689594271669420032","李","592","Female","[""好她"",""坏她"",""好我"",""坏我""]","[""强她"",""弱她"",""强我"",""弱我""]","","","","","","","","yes","","","","","","","","","SRET","EW_formal","","key","f","16.666666666666668","747","463","自己","肯干","Positive","ability","","","","","","","","","","",""
"861","","j","psychophysics","62","421865","0.0-7.0-3.0-0.48","5","4","3","3","4","4","2","3","4","4","4","1","0","0","2","0","0","2","2","5","4","5","4","4","3","3","4","2","3","4","3","5","6","2","4","2","5","6","3","2","3","3","5","2","6","2","7","1","1","4","1","6","2","6","2","2","4","5","5","2","3","3","1","1","6","3","7","2","6","6","2","3","1","2","6","7","6","1","3","689594271669420032","李","592","Female","[""好她"",""坏她"",""好我"",""坏我""]","[""强她"",""弱她"",""强我"",""弱我""]","","","","","","","","no","","","","","","","","","SRET","EW_formal","","key","j","16.668468468468575","747","463","朋友","不端","Negative","morality","","","","","","","","","","",""
"897","","f","psychophysics","63","423771","0.0-7.0-3.0-0.49","5","4","3","3","4","4","2","3","4","4","4","1","0","0","2","0","0","2","2","5","4","5","4","4","3","3","4","2","3","4","3","5","6","2","4","2","5","6","3","2","3","3","5","2","6","2","7","1","1","4","1","6","2","6","2","2","4","5","5","2","3","3","1","1","6","3","7","2","6","6","2","3","1","2","6","7","6","1","3","689594271669420032","李","592","Female","[""好她"",""坏她"",""好我"",""坏我""]","[""强她"",""弱她"",""强我"",""弱我""]","","","","","","","","yes","","","","","","","","","SRET","EW_formal","","key","f","16.66902654867236","747","463","朋友","果断","Positive","ability","","","","","","","","","","",""
"930","","f","psychophysics","64","425704","0.0-7.0-3.0-0.50","5","4","3","3","4","4","2","3","4","4","4","1","0","0","2","0","0","2","2","5","4","5","4","4","3","3","4","2","3","4","3","5","6","2","4","2","5","6","3","2","3","3","5","2","6","2","7","1","1","4","1","6","2","6","2","2","4","5","5","2","3","3","1","1","6","3","7","2","6","6","2","3","1","2","6","7","6","1","3","689594271669420032","李","592","Female","[""好她"",""坏她"",""好我"",""坏我""]","[""强她"",""弱她"",""强我"",""弱我""]","","","","","","","","yes","","","","","","","","","SRET","EW_formal","","key","f","16.66782608695642","747","463","自己","义气","Positive","morality","","","","","","","","","","",""
"1076","","j","psychophysics","65","427783","0.0-7.0-3.0-0.51","5","4","3","3","4","4","2","3","4","4","4","1","0","0","2","0","0","2","2","5","4","5","4","4","3","3","4","2","3","4","3","5","6","2","4","2","5","6","3","2","3","3","5","2","6","2","7","1","1","4","1","6","2","6","2","2","4","5","5","2","3","3","1","1","6","3","7","2","6","6","2","3","1","2","6","7","6","1","3","689594271669420032","李","592","Female","[""好她"",""坏她"",""好我"",""坏我""]","[""强她"",""弱她"",""强我"",""弱我""]","","","","","","","","no","","","","","","","","","SRET","EW_formal","","key","j","16.670161290322394","747","463","自己","高尚","Positive","morality","","","","","","","","","","",""
"910","","j","psychophysics","66","429701","0.0-7.0-3.0-0.52","5","4","3","3","4","4","2","3","4","4","4","1","0","0","2","0","0","2","2","5","4","5","4","4","3","3","4","2","3","4","3","5","6","2","4","2","5","6","3","2","3","3","5","2","6","2","7","1","1","4","1","6","2","6","2","2","4","5","5","2","3","3","1","1","6","3","7","2","6","6","2","3","1","2","6","7","6","1","3","689594271669420032","李","592","Female","[""好她"",""坏她"",""好我"",""坏我""]","[""强她"",""弱她"",""强我"",""弱我""]","","","","","","","","no","","","","","","","","","SRET","EW_formal","","key","j","16.564035087719198","747","463","自己","果决","Positive","ability","","","","","","","","","","",""
"1066","","f","psychophysics","67","431773","0.0-7.0-3.0-0.53","5","4","3","3","4","4","2","3","4","4","4","1","0","0","2","0","0","2","2","5","4","5","4","4","3","3","4","2","3","4","3","5","6","2","4","2","5","6","3","2","3","3","5","2","6","2","7","1","1","4","1","6","2","6","2","2","4","5","5","2","3","3","1","1","6","3","7","2","6","6","2","3","1","2","6","7","6","1","3","689594271669420032","李","592","Female","[""好她"",""坏她"",""好我"",""坏我""]","[""强她"",""弱她"",""强我"",""弱我""]","","","","","","","","yes","","","","","","","","","SRET","EW_formal","","key","f","16.668292682926925","747","463","自己","偏私","Negative","morality","","","","","","","","","","",""
"1000","","f","psychophysics","68","433779","0.0-7.0-3.0-0.54","5","4","3","3","4","4","2","3","4","4","4","1","0","0","2","0","0","2","2","5","4","5","4","4","3","3","4","2","3","4","3","5","6","2","4","2","5","6","3","2","3","3","5","2","6","2","7","1","1","4","1","6","2","6","2","2","4","5","5","2","3","3","1","1","6","3","7","2","6","6","2","3","1","2","6","7","6","1","3","689594271669420032","李","592","Female","[""好她"",""坏她"",""好我"",""坏我""]","[""强她"",""弱她"",""强我"",""弱我""]","","","","","","","","yes","","","","","","","","","SRET","EW_formal","","key","f","16.670833333333334","747","463","自己","廉明","Positive","morality","","","","","","","","","","",""
"900","","j","psychophysics","69","435689","0.0-7.0-3.0-0.55","5","4","3","3","4","4","2","3","4","4","4","1","0","0","2","0","0","2","2","5","4","5","4","4","3","3","4","2","3","4","3","5","6","2","4","2","5","6","3","2","3","3","5","2","6","2","7","1","1","4","1","6","2","6","2","2","4","5","5","2","3","3","1","1","6","3","7","2","6","6","2","3","1","2","6","7","6","1","3","689594271669420032","李","592","Female","[""好她"",""坏她"",""好我"",""坏我""]","[""强她"",""弱她"",""强我"",""弱我""]","","","","","","","","no","","","","","","","","","SRET","EW_formal","","key","j","16.670796460176888","747","463","朋友","黑心","Negative","morality","","","","","","","","","","",""
"810","","f","psychophysics","70","437501","0.0-7.0-3.0-0.56","5","4","3","3","4","4","2","3","4","4","4","1","0","0","2","0","0","2","2","5","4","5","4","4","3","3","4","2","3","4","3","5","6","2","4","2","5","6","3","2","3","3","5","2","6","2","7","1","1","4","1","6","2","6","2","2","4","5","5","2","3","3","1","1","6","3","7","2","6","6","2","3","1","2","6","7","6","1","3","689594271669420032","李","592","Female","[""好她"",""坏她"",""好我"",""坏我""]","[""强她"",""弱她"",""强我"",""弱我""]","","","","","","","","yes","","","","","","","","","SRET","EW_formal","","key","f","16.667592592592378","747","463","自己","刻苦","Positive","ability","","","","","","","","","","",""
"805","","j","psychophysics","71","439312","0.0-7.0-3.0-0.57","5","4","3","3","4","4","2","3","4","4","4","1","0","0","2","0","0","2","2","5","4","5","4","4","3","3","4","2","3","4","3","5","6","2","4","2","5","6","3","2","3","3","5","2","6","2","7","1","1","4","1","6","2","6","2","2","4","5","5","2","3","3","1","1","6","3","7","2","6","6","2","3","1","2","6","7","6","1","3","689594271669420032","李","592","Female","[""好她"",""坏她"",""好我"",""坏我""]","[""强她"",""弱她"",""强我"",""弱我""]","","","","","","","","no","","","","","","","","","SRET","EW_formal","","key","j","16.670370370370048","747","463","自己","愚蠢","Negative","ability","","","","","","","","","","",""
"1386","","f","psychophysics","72","441709","0.0-7.0-3.0-0.58","5","4","3","3","4","4","2","3","4","4","4","1","0","0","2","0","0","2","2","5","4","5","4","4","3","3","4","2","3","4","3","5","6","2","4","2","5","6","3","2","3","3","5","2","6","2","7","1","1","4","1","6","2","6","2","2","4","5","5","2","3","3","1","1","6","3","7","2","6","6","2","3","1","2","6","7","6","1","3","689594271669420032","李","592","Female","[""好她"",""坏她"",""好我"",""坏我""]","[""强她"",""弱她"",""强我"",""弱我""]","","","","","","","","yes","","","","","","","","","SRET","EW_formal","","key","f","16.66573426573394","747","463","自己","君子","Positive","morality","","","","","","","","","","",""
"1100","","j","psychophysics","73","443835","0.0-7.0-3.0-0.59","5","4","3","3","4","4","2","3","4","4","4","1","0","0","2","0","0","2","2","5","4","5","4","4","3","3","4","2","3","4","3","5","6","2","4","2","5","6","3","2","3","3","5","2","6","2","7","1","1","4","1","6","2","6","2","2","4","5","5","2","3","3","1","1","6","3","7","2","6","6","2","3","1","2","6","7","6","1","3","689594271669420032","李","592","Female","[""好她"",""坏她"",""好我"",""坏我""]","[""强她"",""弱她"",""强我"",""弱我""]","","","","","","","","no","","","","","","","","","SRET","EW_formal","","key","j","16.666666666666668","747","463","朋友","拙笨","Negative","ability","","","","","","","","","","",""
"753","","j","psychophysics","74","445594","0.0-7.0-3.0-0.60","5","4","3","3","4","4","2","3","4","4","4","1","0","0","2","0","0","2","2","5","4","5","4","4","3","3","4","2","3","4","3","5","6","2","4","2","5","6","3","2","3","3","5","2","6","2","7","1","1","4","1","6","2","6","2","2","4","5","5","2","3","3","1","1","6","3","7","2","6","6","2","3","1","2","6","7","6","1","3","689594271669420032","李","592","Female","[""好她"",""坏她"",""好我"",""坏我""]","[""强她"",""弱她"",""强我"",""弱我""]","","","","","","","","no","","","","","","","","","SRET","EW_formal","","key","j","16.64952380952392","747","463","朋友","缺德","Negative","morality","","","","","","","","","","",""
"825","","j","psychophysics","75","447426","0.0-7.0-3.0-0.61","5","4","3","3","4","4","2","3","4","4","4","1","0","0","2","0","0","2","2","5","4","5","4","4","3","3","4","2","3","4","3","5","6","2","4","2","5","6","3","2","3","3","5","2","6","2","7","1","1","4","1","6","2","6","2","2","4","5","5","2","3","3","1","1","6","3","7","2","6","6","2","3","1","2","6","7","6","1","3","689594271669420032","李","592","Female","[""好她"",""坏她"",""好我"",""坏我""]","[""强她"",""弱她"",""强我"",""弱我""]","","","","","","","","no","","","","","","","","","SRET","EW_formal","","key","j","16.667592592592378","747","463","自己","诡诈","Negative","morality","","","","","","","","","","",""
"1021","","f","psychophysics","76","449460","0.0-7.0-3.0-0.62","5","4","3","3","4","4","2","3","4","4","4","1","0","0","2","0","0","2","2","5","4","5","4","4","3","3","4","2","3","4","3","5","6","2","4","2","5","6","3","2","3","3","5","2","6","2","7","1","1","4","1","6","2","6","2","2","4","5","5","2","3","3","1","1","6","3","7","2","6","6","2","3","1","2","6","7","6","1","3","689594271669420032","李","592","Female","[""好她"",""坏她"",""好我"",""坏我""]","[""强她"",""弱她"",""强我"",""弱我""]","","","","","","","","yes","","","","","","","","","SRET","EW_formal","","key","f","16.66639344262333","747","463","朋友","业余","Negative","ability","","","","","","","","","","",""
"988","","f","psychophysics","77","451455","0.0-7.0-3.0-0.63","5","4","3","3","4","4","2","3","4","4","4","1","0","0","2","0","0","2","2","5","4","5","4","4","3","3","4","2","3","4","3","5","6","2","4","2","5","6","3","2","3","3","5","2","6","2","7","1","1","4","1","6","2","6","2","2","4","5","5","2","3","3","1","1","6","3","7","2","6","6","2","3","1","2","6","7","6","1","3","689594271669420032","李","592","Female","[""好她"",""坏她"",""好我"",""坏我""]","[""强她"",""弱她"",""强我"",""弱我""]","","","","","","","","yes","","","","","","","","","SRET","EW_formal","","key","f","16.667796610169393","747","463","自己","努力","Positive","ability","","","","","","","","","","",""
"771","","j","psychophysics","78","453229","0.0-7.0-3.0-0.64","5","4","3","3","4","4","2","3","4","4","4","1","0","0","2","0","0","2","2","5","4","5","4","4","3","3","4","2","3","4","3","5","6","2","4","2","5","6","3","2","3","3","5","2","6","2","7","1","1","4","1","6","2","6","2","2","4","5","5","2","3","3","1","1","6","3","7","2","6","6","2","3","1","2","6","7","6","1","3","689594271669420032","李","592","Female","[""好她"",""坏她"",""好我"",""坏我""]","[""强她"",""弱她"",""强我"",""弱我""]","","","","","","","","no","","","","","","","","","SRET","EW_formal","","key","j","16.612264150943616","747","463","自己","歹毒","Negative","morality","","","","","","","","","","",""
"879","","f","psychophysics","79","455120","0.0-7.0-3.0-0.65","5","4","3","3","4","4","2","3","4","4","4","1","0","0","2","0","0","2","2","5","4","5","4","4","3","3","4","2","3","4","3","5","6","2","4","2","5","6","3","2","3","3","5","2","6","2","7","1","1","4","1","6","2","6","2","2","4","5","5","2","3","3","1","1","6","3","7","2","6","6","2","3","1","2","6","7","6","1","3","689594271669420032","李","592","Female","[""好她"",""坏她"",""好我"",""坏我""]","[""强她"",""弱她"",""强我"",""弱我""]","","","","","","","","yes","","","","","","","","","SRET","EW_formal","","key","f","16.66428571428592","747","463","朋友","爱国","Positive","morality","","","","","","","","","","",""
"960","","f","psychophysics","80","457085","0.0-7.0-3.0-0.66","5","4","3","3","4","4","2","3","4","4","4","1","0","0","2","0","0","2","2","5","4","5","4","4","3","3","4","2","3","4","3","5","6","2","4","2","5","6","3","2","3","3","5","2","6","2","7","1","1","4","1","6","2","6","2","2","4","5","5","2","3","3","1","1","6","3","7","2","6","6","2","3","1","2","6","7","6","1","3","689594271669420032","李","592","Female","[""好她"",""坏她"",""好我"",""坏我""]","[""强她"",""弱她"",""强我"",""弱我""]","","","","","","","","yes","","","","","","","","","SRET","EW_formal","","key","f","16.595726495726595","747","463","朋友","高效","Positive","ability","","","","","","","","","","",""
"849","","f","psychophysics","81","458944","0.0-7.0-3.0-0.67","5","4","3","3","4","4","2","3","4","4","4","1","0","0","2","0","0","2","2","5","4","5","4","4","3","3","4","2","3","4","3","5","6","2","4","2","5","6","3","2","3","3","5","2","6","2","7","1","1","4","1","6","2","6","2","2","4","5","5","2","3","3","1","1","6","3","7","2","6","6","2","3","1","2","6","7","6","1","3","689594271669420032","李","592","Female","[""好她"",""坏她"",""好我"",""坏我""]","[""强她"",""弱她"",""强我"",""弱我""]","","","","","","","","yes","","","","","","","","","SRET","EW_formal","","key","f","16.670000000000105","747","463","朋友","智慧","Positive","ability","","","","","","","","","","",""
"960","","j","psychophysics","82","460910","0.0-7.0-3.0-0.68","5","4","3","3","4","4","2","3","4","4","4","1","0","0","2","0","0","2","2","5","4","5","4","4","3","3","4","2","3","4","3","5","6","2","4","2","5","6","3","2","3","3","5","2","6","2","7","1","1","4","1","6","2","6","2","2","4","5","5","2","3","3","1","1","6","3","7","2","6","6","2","3","1","2","6","7","6","1","3","689594271669420032","李","592","Female","[""好她"",""坏她"",""好我"",""坏我""]","[""强她"",""弱她"",""强我"",""弱我""]","","","","","","","","no","","","","","","","","","SRET","EW_formal","","key","j","16.67008547008567","747","463","自己","昏庸","Negative","ability","","","","","","","","","","",""
"791","","f","psychophysics","83","462702","0.0-7.0-3.0-0.69","5","4","3","3","4","4","2","3","4","4","4","1","0","0","2","0","0","2","2","5","4","5","4","4","3","3","4","2","3","4","3","5","6","2","4","2","5","6","3","2","3","3","5","2","6","2","7","1","1","4","1","6","2","6","2","2","4","5","5","2","3","3","1","1","6","3","7","2","6","6","2","3","1","2","6","7","6","1","3","689594271669420032","李","592","Female","[""好她"",""坏她"",""好我"",""坏我""]","[""强她"",""弱她"",""强我"",""弱我""]","","","","","","","","yes","","","","","","","","","SRET","EW_formal","","key","f","16.669158878504454","747","463","朋友","守时","Positive","morality","","","","","","","","","","",""
"895","","f","psychophysics","84","464606","0.0-7.0-3.0-0.70","5","4","3","3","4","4","2","3","4","4","4","1","0","0","2","0","0","2","2","5","4","5","4","4","3","3","4","2","3","4","3","5","6","2","4","2","5","6","3","2","3","3","5","2","6","2","7","1","1","4","1","6","2","6","2","2","4","5","5","2","3","3","1","1","6","3","7","2","6","6","2","3","1","2","6","7","6","1","3","689594271669420032","李","592","Female","[""好她"",""坏她"",""好我"",""坏我""]","[""强她"",""弱她"",""强我"",""弱我""]","","","","","","","","yes","","","","","","","","","SRET","EW_formal","","key","f","16.670796460176888","747","463","自己","利落","Positive","ability","","","","","","","","","","",""
"1221","","f","psychophysics","85","466831","0.0-7.0-3.0-0.71","5","4","3","3","4","4","2","3","4","4","4","1","0","0","2","0","0","2","2","5","4","5","4","4","3","3","4","2","3","4","3","5","6","2","4","2","5","6","3","2","3","3","5","2","6","2","7","1","1","4","1","6","2","6","2","2","4","5","5","2","3","3","1","1","6","3","7","2","6","6","2","3","1","2","6","7","6","1","3","689594271669420032","李","592","Female","[""好她"",""坏她"",""好我"",""坏我""]","[""强她"",""弱她"",""强我"",""弱我""]","","","","","","","","yes","","","","","","","","","SRET","EW_formal","","key","f","16.667669172932243","747","463","朋友","新手","Negative","ability","","","","","","","","","","",""
"1371","","f","psychophysics","86","469216","0.0-7.0-3.0-0.72","5","4","3","3","4","4","2","3","4","4","4","1","0","0","2","0","0","2","2","5","4","5","4","4","3","3","4","2","3","4","3","5","6","2","4","2","5","6","3","2","3","3","5","2","6","2","7","1","1","4","1","6","2","6","2","2","4","5","5","2","3","3","1","1","6","3","7","2","6","6","2","3","1","2","6","7","6","1","3","689594271669420032","李","592","Female","[""好她"",""坏她"",""好我"",""坏我""]","[""强她"",""弱她"",""强我"",""弱我""]","","","","","","","","yes","","","","","","","","","SRET","EW_formal","","key","f","16.669014084507044","747","463","朋友","草率","Negative","ability","","","","","","","","","","",""
"854","","j","psychophysics","87","471075","0.0-7.0-3.0-0.73","5","4","3","3","4","4","2","3","4","4","4","1","0","0","2","0","0","2","2","5","4","5","4","4","3","3","4","2","3","4","3","5","6","2","4","2","5","6","3","2","3","3","5","2","6","2","7","1","1","4","1","6","2","6","2","2","4","5","5","2","3","3","1","1","6","3","7","2","6","6","2","3","1","2","6","7","6","1","3","689594271669420032","李","592","Female","[""好她"",""坏她"",""好我"",""坏我""]","[""强她"",""弱她"",""强我"",""弱我""]","","","","","","","","no","","","","","","","","","SRET","EW_formal","","key","j","16.670909090908985","747","463","自己","失信","Negative","morality","","","","","","","","","","",""
"1374","","f","psychophysics","88","473452","0.0-7.0-3.0-0.74","5","4","3","3","4","4","2","3","4","4","4","1","0","0","2","0","0","2","2","5","4","5","4","4","3","3","4","2","3","4","3","5","6","2","4","2","5","6","3","2","3","3","5","2","6","2","7","1","1","4","1","6","2","6","2","2","4","5","5","2","3","3","1","1","6","3","7","2","6","6","2","3","1","2","6","7","6","1","3","689594271669420032","李","592","Female","[""好她"",""坏她"",""好我"",""坏我""]","[""强她"",""弱她"",""强我"",""弱我""]","","","","","","","","yes","","","","","","","","","SRET","EW_formal","","key","f","16.642253521126843","747","463","朋友","高明","Positive","ability","","","","","","","","","","",""
"985","","f","psychophysics","89","475451","0.0-7.0-3.0-0.75","5","4","3","3","4","4","2","3","4","4","4","1","0","0","2","0","0","2","2","5","4","5","4","4","3","3","4","2","3","4","3","5","6","2","4","2","5","6","3","2","3","3","5","2","6","2","7","1","1","4","1","6","2","6","2","2","4","5","5","2","3","3","1","1","6","3","7","2","6","6","2","3","1","2","6","7","6","1","3","689594271669420032","李","592","Female","[""好她"",""坏她"",""好我"",""坏我""]","[""强她"",""弱她"",""强我"",""弱我""]","","","","","","","","yes","","","","","","","","","SRET","EW_formal","","key","f","16.668907563025016","747","463","朋友","变通","Positive","ability","","","","","","","","","","",""
"873","","j","psychophysics","90","477335","0.0-7.0-3.0-0.76","5","4","3","3","4","4","2","3","4","4","4","1","0","0","2","0","0","2","2","5","4","5","4","4","3","3","4","2","3","4","3","5","6","2","4","2","5","6","3","2","3","3","5","2","6","2","7","1","1","4","1","6","2","6","2","2","4","5","5","2","3","3","1","1","6","3","7","2","6","6","2","3","1","2","6","7","6","1","3","689594271669420032","李","592","Female","[""好她"",""坏她"",""好我"",""坏我""]","[""强她"",""弱她"",""强我"",""弱我""]","","","","","","","","no","","","","","","","","","SRET","EW_formal","","key","j","16.667857142857038","747","463","自己","贪腐","Negative","morality","","","","","","","","","","",""
"787","","f","psychophysics","91","479132","0.0-7.0-3.0-0.77","5","4","3","3","4","4","2","3","4","4","4","1","0","0","2","0","0","2","2","5","4","5","4","4","3","3","4","2","3","4","3","5","6","2","4","2","5","6","3","2","3","3","5","2","6","2","7","1","1","4","1","6","2","6","2","2","4","5","5","2","3","3","1","1","6","3","7","2","6","6","2","3","1","2","6","7","6","1","3","689594271669420032","李","592","Female","[""好她"",""坏她"",""好我"",""坏我""]","[""强她"",""弱她"",""强我"",""弱我""]","","","","","","","","yes","","","","","","","","","SRET","EW_formal","","key","f","16.671028037383067","747","463","自己","仁厚","Positive","morality","","","","","","","","","","",""
"1089","","j","psychophysics","92","481234","0.0-7.0-3.0-0.78","5","4","3","3","4","4","2","3","4","4","4","1","0","0","2","0","0","2","2","5","4","5","4","4","3","3","4","2","3","4","3","5","6","2","4","2","5","6","3","2","3","3","5","2","6","2","7","1","1","4","1","6","2","6","2","2","4","5","5","2","3","3","1","1","6","3","7","2","6","6","2","3","1","2","6","7","6","1","3","689594271669420032","李","592","Female","[""好她"",""坏她"",""好我"",""坏我""]","[""强她"",""弱她"",""强我"",""弱我""]","","","","","","","","no","","","","","","","","","SRET","EW_formal","","key","j","16.669599999999626","747","463","自己","独断","Negative","ability","","","","","","","","","","",""
"833","","f","psychophysics","93","483073","0.0-7.0-3.0-0.79","5","4","3","3","4","4","2","3","4","4","4","1","0","0","2","0","0","2","2","5","4","5","4","4","3","3","4","2","3","4","3","5","6","2","4","2","5","6","3","2","3","3","5","2","6","2","7","1","1","4","1","6","2","6","2","2","4","5","5","2","3","3","1","1","6","3","7","2","6","6","2","3","1","2","6","7","6","1","3","689594271669420032","李","592","Female","[""好她"",""坏她"",""好我"",""坏我""]","[""强她"",""弱她"",""强我"",""弱我""]","","","","","","","","yes","","","","","","","","","SRET","EW_formal","","key","f","16.67064220183465","747","463","自己","慷慨","Positive","morality","","","","","","","","","","",""
"877","","j","psychophysics","94","484956","0.0-7.0-3.0-0.80","5","4","3","3","4","4","2","3","4","4","4","1","0","0","2","0","0","2","2","5","4","5","4","4","3","3","4","2","3","4","3","5","6","2","4","2","5","6","3","2","3","3","5","2","6","2","7","1","1","4","1","6","2","6","2","2","4","5","5","2","3","3","1","1","6","3","7","2","6","6","2","3","1","2","6","7","6","1","3","689594271669420032","李","592","Female","[""好她"",""坏她"",""好我"",""坏我""]","[""强她"",""弱她"",""强我"",""弱我""]","","","","","","","","no","","","","","","","","","SRET","EW_formal","","key","j","16.668749999999687","747","463","自己","愚钝","Negative","ability","","","","","","","","","","",""
"871","","f","psychophysics","95","486834","0.0-7.0-3.0-0.81","5","4","3","3","4","4","2","3","4","4","4","1","0","0","2","0","0","2","2","5","4","5","4","4","3","3","4","2","3","4","3","5","6","2","4","2","5","6","3","2","3","3","5","2","6","2","7","1","1","4","1","6","2","6","2","2","4","5","5","2","3","3","1","1","6","3","7","2","6","6","2","3","1","2","6","7","6","1","3","689594271669420032","李","592","Female","[""好她"",""坏她"",""好我"",""坏我""]","[""强她"",""弱她"",""强我"",""弱我""]","","","","","","","","yes","","","","","","","","","SRET","EW_formal","","key","f","16.612500000000313","747","463","自己","毅力","Positive","ability","","","","","","","","","","",""
"988","","f","psychophysics","96","488833","0.0-7.0-3.0-0.82","5","4","3","3","4","4","2","3","4","4","4","1","0","0","2","0","0","2","2","5","4","5","4","4","3","3","4","2","3","4","3","5","6","2","4","2","5","6","3","2","3","3","5","2","6","2","7","1","1","4","1","6","2","6","2","2","4","5","5","2","3","3","1","1","6","3","7","2","6","6","2","3","1","2","6","7","6","1","3","689594271669420032","李","592","Female","[""好她"",""坏她"",""好我"",""坏我""]","[""强她"",""弱她"",""强我"",""弱我""]","","","","","","","","yes","","","","","","","","","SRET","EW_formal","","key","f","16.672268907563026","747","463","自己","拖拉","Negative","ability","","","","","","","","","","",""
"1028","","f","psychophysics","97","490874","0.0-7.0-3.0-0.83","5","4","3","3","4","4","2","3","4","4","4","1","0","0","2","0","0","2","2","5","4","5","4","4","3","3","4","2","3","4","3","5","6","2","4","2","5","6","3","2","3","3","5","2","6","2","7","1","1","4","1","6","2","6","2","2","4","5","5","2","3","3","1","1","6","3","7","2","6","6","2","3","1","2","6","7","6","1","3","689594271669420032","李","592","Female","[""好她"",""坏她"",""好我"",""坏我""]","[""强她"",""弱她"",""强我"",""弱我""]","","","","","","","","yes","","","","","","","","","SRET","EW_formal","","key","f","16.668595041322508","747","463","朋友","忠诚","Positive","morality","","","","","","","","","","",""
"927","","j","psychophysics","98","492807","0.0-7.0-3.0-0.84","5","4","3","3","4","4","2","3","4","4","4","1","0","0","2","0","0","2","2","5","4","5","4","4","3","3","4","2","3","4","3","5","6","2","4","2","5","6","3","2","3","3","5","2","6","2","7","1","1","4","1","6","2","6","2","2","4","5","5","2","3","3","1","1","6","3","7","2","6","6","2","3","1","2","6","7","6","1","3","689594271669420032","李","592","Female","[""好她"",""坏她"",""好我"",""坏我""]","[""强她"",""弱她"",""强我"",""弱我""]","","","","","","","","no","","","","","","","","","SRET","EW_formal","","key","j","16.667826086956925","747","463","自己","主见","Positive","ability","","","","","","","","","","",""
"923","","f","psychophysics","99","494736","0.0-7.0-3.0-0.85","5","4","3","3","4","4","2","3","4","4","4","1","0","0","2","0","0","2","2","5","4","5","4","4","3","3","4","2","3","4","3","5","6","2","4","2","5","6","3","2","3","3","5","2","6","2","7","1","1","4","1","6","2","6","2","2","4","5","5","2","3","3","1","1","6","3","7","2","6","6","2","3","1","2","6","7","6","1","3","689594271669420032","李","592","Female","[""好她"",""坏她"",""好我"",""坏我""]","[""强她"",""弱她"",""强我"",""弱我""]","","","","","","","","yes","","","","","","","","","SRET","EW_formal","","key","f","16.669565217391305","747","463","朋友","素养","Positive","morality","","","","","","","","","","",""
"762","","j","psychophysics","100","496501","0.0-7.0-3.0-0.86","5","4","3","3","4","4","2","3","4","4","4","1","0","0","2","0","0","2","2","5","4","5","4","4","3","3","4","2","3","4","3","5","6","2","4","2","5","6","3","2","3","3","5","2","6","2","7","1","1","4","1","6","2","6","2","2","4","5","5","2","3","3","1","1","6","3","7","2","6","6","2","3","1","2","6","7","6","1","3","689594271669420032","李","592","Female","[""好她"",""坏她"",""好我"",""坏我""]","[""强她"",""弱她"",""强我"",""弱我""]","","","","","","","","no","","","","","","","","","SRET","EW_formal","","key","j","16.67142857142857","747","463","朋友","低俗","Negative","morality","","","","","","","","","","",""
"864","","f","psychophysics","101","498369","0.0-7.0-3.0-0.87","5","4","3","3","4","4","2","3","4","4","4","1","0","0","2","0","0","2","2","5","4","5","4","4","3","3","4","2","3","4","3","5","6","2","4","2","5","6","3","2","3","3","5","2","6","2","7","1","1","4","1","6","2","6","2","2","4","5","5","2","3","3","1","1","6","3","7","2","6","6","2","3","1","2","6","7","6","1","3","689594271669420032","李","592","Female","[""好她"",""坏她"",""好我"",""坏我""]","[""强她"",""弱她"",""强我"",""弱我""]","","","","","","","","yes","","","","","","","","","SRET","EW_formal","","key","f","16.670270270269956","747","463","自己","缓慢","Negative","ability","","","","","","","","","","",""
"22773","
    <p><div style='color:white;font-size:35px; line-height:20px;'>计算任务</div></p><br>
    <p><div style='color:red;font-size:25px; line-height:20px;'>接下来，您将看到一些四则运算题，<b>请从键盘选择 0-9 进行反应。</b></div></p>
    <p><div style='color:red;font-size:25px; line-height:20px;'>请尽可能快地进行计算，计算的速度和正确率将影响报酬的发放。</div></p>
    <p><div class='footer' style='color:white;font-size:25px; line-height:20px;'>如果对本实验还有不清楚之处，请立即向实验员咨询。</p><p style='color:white;font-size:25px; line-height:20px;'>如果您明白了规则：</p><p style='color:white;font-size:22px; line-height:20px;'>请按 继续 进入练习</p>
    </div>
    ","0","html-button-response","102","521149","0.0-7.0-4.0","5","4","3","3","4","4","2","3","4","4","4","1","0","0","2","0","0","2","2","5","4","5","4","4","3","3","4","2","3","4","3","5","6","2","4","2","5","6","3","2","3","3","5","2","6","2","7","1","1","4","1","6","2","6","2","2","4","5","5","2","3","3","1","1","6","3","7","2","6","6","2","3","1","2","6","7","6","1","3","689594271669420032","李","592","Female","[""好她"",""坏她"",""好我"",""坏我""]","[""强她"",""弱她"",""强我"",""弱我""]","","","","","","","","","","","","","","","","","SRET_math","math_instructions","Wed Jan 31 2024 20:44:44 GMT+0800 (中国标准时间)","","","","","","","","","","","","","","","","","","","",""
"2265","","2","psychophysics","103","523420","0.0-7.0-5.0-0.0","5","4","3","3","4","4","2","3","4","4","4","1","0","0","2","0","0","2","2","5","4","5","4","4","3","3","4","2","3","4","3","5","6","2","4","2","5","6","3","2","3","3","5","2","6","2","7","1","1","4","1","6","2","6","2","2","4","5","5","2","3","3","1","1","6","3","7","2","6","6","2","3","1","2","6","7","6","1","3","689594271669420032","李","592","Female","[""好她"",""坏她"",""好我"",""坏我""]","[""强她"",""弱她"",""强我"",""弱我""]","","","","","","","","2","","","","","","","","","SRET","SRET_math_calculate","","key","2","16.585372262773696","747","463","","","","","1+1= ?","2","1","","","","","","","",""
"2287","","1","psychophysics","104","525709","0.0-7.0-5.0-0.1","5","4","3","3","4","4","2","3","4","4","4","1","0","0","2","0","0","2","2","5","4","5","4","4","3","3","4","2","3","4","3","5","6","2","4","2","5","6","3","2","3","3","5","2","6","2","7","1","1","4","1","6","2","6","2","2","4","5","5","2","3","3","1","1","6","3","7","2","6","6","2","3","1","2","6","7","6","1","3","689594271669420032","李","592","Female","[""好她"",""坏她"",""好我"",""坏我""]","[""强她"",""弱她"",""强我"",""弱我""]","","","","","","","","1","","","","","","","","","SRET","SRET_math_calculate","","key","1","16.66691176470554","747","463","","","","","4/4= ?","1","1","","","","","","","",""
"2205","","3","psychophysics","105","527928","0.0-7.0-5.0-0.2","5","4","3","3","4","4","2","3","4","4","4","1","0","0","2","0","0","2","2","5","4","5","4","4","3","3","4","2","3","4","3","5","6","2","4","2","5","6","3","2","3","3","5","2","6","2","7","1","1","4","1","6","2","6","2","2","4","5","5","2","3","3","1","1","6","3","7","2","6","6","2","3","1","2","6","7","6","1","3","689594271669420032","李","592","Female","[""好她"",""坏她"",""好我"",""坏我""]","[""强她"",""弱她"",""强我"",""弱我""]","","","","","","","","3","","","","","","","","","SRET","SRET_math_calculate","","key","3","16.669696969697146","747","463","","","","","3+0= ?","3","1","","","","","","","",""
"2039","","1","psychophysics","106","529970","0.0-7.0-5.0-0.3","5","4","3","3","4","4","2","3","4","4","4","1","0","0","2","0","0","2","2","5","4","5","4","4","3","3","4","2","3","4","3","5","6","2","4","2","5","6","3","2","3","3","5","2","6","2","7","1","1","4","1","6","2","6","2","2","4","5","5","2","3","3","1","1","6","3","7","2","6","6","2","3","1","2","6","7","6","1","3","689594271669420032","李","592","Female","[""好她"",""坏她"",""好我"",""坏我""]","[""强她"",""弱她"",""强我"",""弱我""]","","","","","","","","1","","","","","","","","","SRET","SRET_math_calculate","","key","1","16.67049180327907","747","463","","","","","10-9= ?","1","1","","","","","","","",""
"2495","","7","psychophysics","107","532467","0.0-7.0-5.0-0.4","5","4","3","3","4","4","2","3","4","4","4","1","0","0","2","0","0","2","2","5","4","5","4","4","3","3","4","2","3","4","3","5","6","2","4","2","5","6","3","2","3","3","5","2","6","2","7","1","1","4","1","6","2","6","2","2","4","5","5","2","3","3","1","1","6","3","7","2","6","6","2","3","1","2","6","7","6","1","3","689594271669420032","李","592","Female","[""好她"",""坏她"",""好我"",""坏我""]","[""强她"",""弱她"",""强我"",""弱我""]","","","","","","","","7","","","","","","","","","SRET","SRET_math_calculate","","key","7","16.66621621621606","747","463","","","","","13-6= ?","7","1","","","","","","","",""
"2066","","9","psychophysics","108","534538","0.0-7.0-5.0-0.5","5","4","3","3","4","4","2","3","4","4","4","1","0","0","2","0","0","2","2","5","4","5","4","4","3","3","4","2","3","4","3","5","6","2","4","2","5","6","3","2","3","3","5","2","6","2","7","1","1","4","1","6","2","6","2","2","4","5","5","2","3","3","1","1","6","3","7","2","6","6","2","3","1","2","6","7","6","1","3","689594271669420032","李","592","Female","[""好她"",""坏她"",""好我"",""坏我""]","[""强她"",""弱她"",""强我"",""弱我""]","","","","","","","","9","","","","","","","","","SRET","SRET_math_calculate","","key","9","16.666935483870592","747","463","","","","","9-9= ?","0","0","","","","","","","",""
"1812","","0","psychophysics","109","536351","0.0-7.0-5.0-0.6","5","4","3","3","4","4","2","3","4","4","4","1","0","0","2","0","0","2","2","5","4","5","4","4","3","3","4","2","3","4","3","5","6","2","4","2","5","6","3","2","3","3","5","2","6","2","7","1","1","4","1","6","2","6","2","2","4","5","5","2","3","3","1","1","6","3","7","2","6","6","2","3","1","2","6","7","6","1","3","689594271669420032","李","592","Female","[""好她"",""坏她"",""好我"",""坏我""]","[""强她"",""弱她"",""强我"",""弱我""]","","","","","","","","0","","","","","","","","","SRET","SRET_math_calculate","","key","0","16.66915887850554","747","463","","","","","1-1= ?","0","1","","","","","","","",""
"2253","","7","psychophysics","110","538608","0.0-7.0-5.0-0.7","5","4","3","3","4","4","2","3","4","4","4","1","0","0","2","0","0","2","2","5","4","5","4","4","3","3","4","2","3","4","3","5","6","2","4","2","5","6","3","2","3","3","5","2","6","2","7","1","1","4","1","6","2","6","2","2","4","5","5","2","3","3","1","1","6","3","7","2","6","6","2","3","1","2","6","7","6","1","3","689594271669420032","李","592","Female","[""好她"",""坏她"",""好我"",""坏我""]","[""强她"",""弱她"",""强我"",""弱我""]","","","","","","","","7","","","","","","","","","SRET","SRET_math_calculate","","key","7","16.668148148148667","747","463","","","","","11-4= ?","7","1","","","","","","","",""
"2565","","7","psychophysics","111","541175","0.0-7.0-5.0-0.8","5","4","3","3","4","4","2","3","4","4","4","1","0","0","2","0","0","2","2","5","4","5","4","4","3","3","4","2","3","4","3","5","6","2","4","2","5","6","3","2","3","3","5","2","6","2","7","1","1","4","1","6","2","6","2","2","4","5","5","2","3","3","1","1","6","3","7","2","6","6","2","3","1","2","6","7","6","1","3","689594271669420032","李","592","Female","[""好她"",""坏她"",""好我"",""坏我""]","[""强她"",""弱她"",""强我"",""弱我""]","","","","","","","","7","","","","","","","","","SRET","SRET_math_calculate","","key","7","16.669934640522875","747","463","","","","","13-5= ?","8","0","","","","","","","",""
"2779","","7","psychophysics","112","543955","0.0-7.0-5.0-0.9","5","4","3","3","4","4","2","3","4","4","4","1","0","0","2","0","0","2","2","5","4","5","4","4","3","3","4","2","3","4","3","5","6","2","4","2","5","6","3","2","3","3","5","2","6","2","7","1","1","4","1","6","2","6","2","2","4","5","5","2","3","3","1","1","6","3","7","2","6","6","2","3","1","2","6","7","6","1","3","689594271669420032","李","592","Female","[""好她"",""坏她"",""好我"",""坏我""]","[""强她"",""弱她"",""强我"",""弱我""]","","","","","","","","7","","","","","","","","","SRET","SRET_math_calculate","","key","7","16.66807228915677","747","463","","","","","49/7 = ?","7","1","","","","","","","",""
"2232","","3","psychophysics","113","546189","0.0-7.0-5.0-0.10","5","4","3","3","4","4","2","3","4","4","4","1","0","0","2","0","0","2","2","5","4","5","4","4","3","3","4","2","3","4","3","5","6","2","4","2","5","6","3","2","3","3","5","2","6","2","7","1","1","4","1","6","2","6","2","2","4","5","5","2","3","3","1","1","6","3","7","2","6","6","2","3","1","2","6","7","6","1","3","689594271669420032","李","592","Female","[""好她"",""坏她"",""好我"",""坏我""]","[""强她"",""弱她"",""强我"",""弱我""]","","","","","","","","3","","","","","","","","","SRET","SRET_math_calculate","","key","3","16.665413533834588","747","463","","","","","1+2= ?","3","1","","","","","","","",""
"2588","","2","psychophysics","114","548779","0.0-7.0-5.0-0.11","5","4","3","3","4","4","2","3","4","4","4","1","0","0","2","0","0","2","2","5","4","5","4","4","3","3","4","2","3","4","3","5","6","2","4","2","5","6","3","2","3","3","5","2","6","2","7","1","1","4","1","6","2","6","2","2","4","5","5","2","3","3","1","1","6","3","7","2","6","6","2","3","1","2","6","7","6","1","3","689594271669420032","李","592","Female","[""好她"",""坏她"",""好我"",""坏我""]","[""强她"",""弱她"",""强我"",""弱我""]","","","","","","","","2","","","","","","","","","SRET","SRET_math_calculate","","key","2","16.66948051948037","747","463","","","","","12/6= ?","2","1","","","","","","","",""
"2683","","5","psychophysics","115","551464","0.0-7.0-5.0-0.12","5","4","3","3","4","4","2","3","4","4","4","1","0","0","2","0","0","2","2","5","4","5","4","4","3","3","4","2","3","4","3","5","6","2","4","2","5","6","3","2","3","3","5","2","6","2","7","1","1","4","1","6","2","6","2","2","4","5","5","2","3","3","1","1","6","3","7","2","6","6","2","3","1","2","6","7","6","1","3","689594271669420032","李","592","Female","[""好她"",""坏她"",""好我"",""坏我""]","[""强她"",""弱她"",""强我"",""弱我""]","","","","","","","","5","","","","","","","","","SRET","SRET_math_calculate","","key","5","16.641875000000436","747","463","","","","","12-7= ?","5","1","","","","","","","",""
"2323","","5","psychophysics","116","553789","0.0-7.0-5.0-0.13","5","4","3","3","4","4","2","3","4","4","4","1","0","0","2","0","0","2","2","5","4","5","4","4","3","3","4","2","3","4","3","5","6","2","4","2","5","6","3","2","3","3","5","2","6","2","7","1","1","4","1","6","2","6","2","2","4","5","5","2","3","3","1","1","6","3","7","2","6","6","2","3","1","2","6","7","6","1","3","689594271669420032","李","592","Female","[""好她"",""坏她"",""好我"",""坏我""]","[""强她"",""弱她"",""强我"",""弱我""]","","","","","","","","5","","","","","","","","","SRET","SRET_math_calculate","","key","5","16.66906474820144","747","463","","","","","8-3= ? ","5","1","","","","","","","",""
"2710","","8","psychophysics","117","556511","0.0-7.0-5.0-0.14","5","4","3","3","4","4","2","3","4","4","4","1","0","0","2","0","0","2","2","5","4","5","4","4","3","3","4","2","3","4","3","5","6","2","4","2","5","6","3","2","3","3","5","2","6","2","7","1","1","4","1","6","2","6","2","2","4","5","5","2","3","3","1","1","6","3","7","2","6","6","2","3","1","2","6","7","6","1","3","689594271669420032","李","592","Female","[""好她"",""坏她"",""好我"",""坏我""]","[""强她"",""弱她"",""强我"",""弱我""]","","","","","","","","8","","","","","","","","","SRET","SRET_math_calculate","","key","8","16.669753086419753","747","463","","","","","1*8= ?","8","1","","","","","","","",""
"2420","","7","psychophysics","118","558935","0.0-7.0-5.0-0.15","5","4","3","3","4","4","2","3","4","4","4","1","0","0","2","0","0","2","2","5","4","5","4","4","3","3","4","2","3","4","3","5","6","2","4","2","5","6","3","2","3","3","5","2","6","2","7","1","1","4","1","6","2","6","2","2","4","5","5","2","3","3","1","1","6","3","7","2","6","6","2","3","1","2","6","7","6","1","3","689594271669420032","李","592","Female","[""好她"",""坏她"",""好我"",""坏我""]","[""强她"",""弱她"",""强我"",""弱我""]","","","","","","","","7","","","","","","","","","SRET","SRET_math_calculate","","key","7","16.669444444444608","747","463","","","","","21/3= ? ","7","1","","","","","","","",""
"2287","","9","psychophysics","119","561229","0.0-7.0-5.0-0.16","5","4","3","3","4","4","2","3","4","4","4","1","0","0","2","0","0","2","2","5","4","5","4","4","3","3","4","2","3","4","3","5","6","2","4","2","5","6","3","2","3","3","5","2","6","2","7","1","1","4","1","6","2","6","2","2","4","5","5","2","3","3","1","1","6","3","7","2","6","6","2","3","1","2","6","7","6","1","3","689594271669420032","李","592","Female","[""好她"",""坏她"",""好我"",""坏我""]","[""强她"",""弱她"",""强我"",""弱我""]","","","","","","","","9","","","","","","","","","SRET","SRET_math_calculate","","key","9","16.66934306569309","747","463","","","","","3*3= ?","9","1","","","","","","","",""
"2418","","8","psychophysics","120","563656","0.0-7.0-5.0-0.17","5","4","3","3","4","4","2","3","4","4","4","1","0","0","2","0","0","2","2","5","4","5","4","4","3","3","4","2","3","4","3","5","6","2","4","2","5","6","3","2","3","3","5","2","6","2","7","1","1","4","1","6","2","6","2","2","4","5","5","2","3","3","1","1","6","3","7","2","6","6","2","3","1","2","6","7","6","1","3","689594271669420032","李","592","Female","[""好她"",""坏她"",""好我"",""坏我""]","[""强她"",""弱她"",""强我"",""弱我""]","","","","","","","","8","","","","","","","","","SRET","SRET_math_calculate","","key","8","16.66758620689687","747","463","","","","","2+6= ?","8","1","","","","","","","",""
"2419","","2","psychophysics","121","566078","0.0-7.0-5.0-0.18","5","4","3","3","4","4","2","3","4","4","4","1","0","0","2","0","0","2","2","5","4","5","4","4","3","3","4","2","3","4","3","5","6","2","4","2","5","6","3","2","3","3","5","2","6","2","7","1","1","4","1","6","2","6","2","2","4","5","5","2","3","3","1","1","6","3","7","2","6","6","2","3","1","2","6","7","6","1","3","689594271669420032","李","592","Female","[""好她"",""坏她"",""好我"",""坏我""]","[""强她"",""弱她"",""强我"",""弱我""]","","","","","","","","2","","","","","","","","","SRET","SRET_math_calculate","","key","2","16.666666666666668","747","463","","","","","19-17= ?","2","1","","","","","","","",""
"2224","","2","psychophysics","122","568305","0.0-7.0-5.0-0.19","5","4","3","3","4","4","2","3","4","4","4","1","0","0","2","0","0","2","2","5","4","5","4","4","3","3","4","2","3","4","3","5","6","2","4","2","5","6","3","2","3","3","5","2","6","2","7","1","1","4","1","6","2","6","2","2","4","5","5","2","3","3","1","1","6","3","7","2","6","6","2","3","1","2","6","7","6","1","3","689594271669420032","李","592","Female","[""好她"",""坏她"",""好我"",""坏我""]","[""强她"",""弱她"",""强我"",""弱我""]","","","","","","","","2","","","","","","","","","SRET","SRET_math_calculate","","key","2","16.66766917293268","747","463","","","","","8-6= ?","2","1","","","","","","","",""
"2125","","4","psychophysics","123","570434","0.0-7.0-5.0-0.20","5","4","3","3","4","4","2","3","4","4","4","1","0","0","2","0","0","2","2","5","4","5","4","4","3","3","4","2","3","4","3","5","6","2","4","2","5","6","3","2","3","3","5","2","6","2","7","1","1","4","1","6","2","6","2","2","4","5","5","2","3","3","1","1","6","3","7","2","6","6","2","3","1","2","6","7","6","1","3","689594271669420032","李","592","Female","[""好她"",""坏她"",""好我"",""坏我""]","[""强她"",""弱她"",""强我"",""弱我""]","","","","","","","","4","","","","","","","","","SRET","SRET_math_calculate","","key","4","16.67063492063492","747","463","","","","","3+1= ?","4","1","","","","","","","",""
"2477","","8","psychophysics","124","572914","0.0-7.0-5.0-0.21","5","4","3","3","4","4","2","3","4","4","4","1","0","0","2","0","0","2","2","5","4","5","4","4","3","3","4","2","3","4","3","5","6","2","4","2","5","6","3","2","3","3","5","2","6","2","7","1","1","4","1","6","2","6","2","2","4","5","5","2","3","3","1","1","6","3","7","2","6","6","2","3","1","2","6","7","6","1","3","689594271669420032","李","592","Female","[""好她"",""坏她"",""好我"",""坏我""]","[""强她"",""弱她"",""强我"",""弱我""]","","","","","","","","8","","","","","","","","","SRET","SRET_math_calculate","","key","8","16.66891891891892","747","463","","","","","3+5= ?","8","1","","","","","","","",""
"2095","","8","psychophysics","125","575011","0.0-7.0-5.0-0.22","5","4","3","3","4","4","2","3","4","4","4","1","0","0","2","0","0","2","2","5","4","5","4","4","3","3","4","2","3","4","3","5","6","2","4","2","5","6","3","2","3","3","5","2","6","2","7","1","1","4","1","6","2","6","2","2","4","5","5","2","3","3","1","1","6","3","7","2","6","6","2","3","1","2","6","7","6","1","3","689594271669420032","李","592","Female","[""好她"",""坏她"",""好我"",""坏我""]","[""强她"",""弱她"",""强我"",""弱我""]","","","","","","","","8","","","","","","","","","SRET","SRET_math_calculate","","key","8","16.626400000000373","747","463","","","","","6+2= ?","8","1","","","","","","","",""
"2239","","4","psychophysics","126","577252","0.0-7.0-5.0-0.23","5","4","3","3","4","4","2","3","4","4","4","1","0","0","2","0","0","2","2","5","4","5","4","4","3","3","4","2","3","4","3","5","6","2","4","2","5","6","3","2","3","3","5","2","6","2","7","1","1","4","1","6","2","6","2","2","4","5","5","2","3","3","1","1","6","3","7","2","6","6","2","3","1","2","6","7","6","1","3","689594271669420032","李","592","Female","[""好她"",""坏她"",""好我"",""坏我""]","[""强她"",""弱她"",""强我"",""弱我""]","","","","","","","","4","","","","","","","","","SRET","SRET_math_calculate","","key","4","16.668421052631754","747","463","","","","","4*1= ?","4","1","","","","","","","",""
"2300","","0","psychophysics","127","579557","0.0-7.0-5.0-0.24","5","4","3","3","4","4","2","3","4","4","4","1","0","0","2","0","0","2","2","5","4","5","4","4","3","3","4","2","3","4","3","5","6","2","4","2","5","6","3","2","3","3","5","2","6","2","7","1","1","4","1","6","2","6","2","2","4","5","5","2","3","3","1","1","6","3","7","2","6","6","2","3","1","2","6","7","6","1","3","689594271669420032","李","592","Female","[""好她"",""坏她"",""好我"",""坏我""]","[""强她"",""弱她"",""强我"",""弱我""]","","","","","","","","0","","","","","","","","","SRET","SRET_math_calculate","","key","0","16.66956521739063","747","463","","","","","7*0= ?","0","1","","","","","","","",""
"2356","","8","psychophysics","128","581915","0.0-7.0-5.0-0.25","5","4","3","3","4","4","2","3","4","4","4","1","0","0","2","0","0","2","2","5","4","5","4","4","3","3","4","2","3","4","3","5","6","2","4","2","5","6","3","2","3","3","5","2","6","2","7","1","1","4","1","6","2","6","2","2","4","5","5","2","3","3","1","1","6","3","7","2","6","6","2","3","1","2","6","7","6","1","3","689594271669420032","李","592","Female","[""好她"",""坏她"",""好我"",""坏我""]","[""强她"",""弱她"",""强我"",""弱我""]","","","","","","","","8","","","","","","","","","SRET","SRET_math_calculate","","key","8","16.668571428571262","747","463","","","","","4*2= ?","8","1","","","","","","","",""
"2027","","9","psychophysics","129","583944","0.0-7.0-5.0-0.26","5","4","3","3","4","4","2","3","4","4","4","1","0","0","2","0","0","2","2","5","4","5","4","4","3","3","4","2","3","4","3","5","6","2","4","2","5","6","3","2","3","3","5","2","6","2","7","1","1","4","1","6","2","6","2","2","4","5","5","2","3","3","1","1","6","3","7","2","6","6","2","3","1","2","6","7","6","1","3","689594271669420032","李","592","Female","[""好她"",""坏她"",""好我"",""坏我""]","[""强她"",""弱她"",""强我"",""弱我""]","","","","","","","","9","","","","","","","","","SRET","SRET_math_calculate","","key","9","16.640495867768596","747","463","","","","","4+5= ?","9","1","","","","","","","",""
"2090","","7","psychophysics","130","586036","0.0-7.0-5.0-0.27","5","4","3","3","4","4","2","3","4","4","4","1","0","0","2","0","0","2","2","5","4","5","4","4","3","3","4","2","3","4","3","5","6","2","4","2","5","6","3","2","3","3","5","2","6","2","7","1","1","4","1","6","2","6","2","2","4","5","5","2","3","3","1","1","6","3","7","2","6","6","2","3","1","2","6","7","6","1","3","689594271669420032","李","592","Female","[""好她"",""坏她"",""好我"",""坏我""]","[""强她"",""弱她"",""强我"",""弱我""]","","","","","","","","7","","","","","","","","","SRET","SRET_math_calculate","","key","7","16.664516129032446","747","463","","","","","7*1=  ?","7","1","","","","","","","",""
"2304","","1","psychophysics","131","588344","0.0-7.0-5.0-0.28","5","4","3","3","4","4","2","3","4","4","4","1","0","0","2","0","0","2","2","5","4","5","4","4","3","3","4","2","3","4","3","5","6","2","4","2","5","6","3","2","3","3","5","2","6","2","7","1","1","4","1","6","2","6","2","2","4","5","5","2","3","3","1","1","6","3","7","2","6","6","2","3","1","2","6","7","6","1","3","689594271669420032","李","592","Female","[""好她"",""坏她"",""好我"",""坏我""]","[""强她"",""弱她"",""强我"",""弱我""]","","","","","","","","1","","","","","","","","","SRET","SRET_math_calculate","","key","1","16.669565217391472","747","463","","","","","12/12= ?","1","1","","","","","","","",""
"2253","","6","psychophysics","132","590599","0.0-7.0-5.0-0.29","5","4","3","3","4","4","2","3","4","4","4","1","0","0","2","0","0","2","2","5","4","5","4","4","3","3","4","2","3","4","3","5","6","2","4","2","5","6","3","2","3","3","5","2","6","2","7","1","1","4","1","6","2","6","2","2","4","5","5","2","3","3","1","1","6","3","7","2","6","6","2","3","1","2","6","7","6","1","3","689594271669420032","李","592","Female","[""好她"",""坏她"",""好我"",""坏我""]","[""强她"",""弱她"",""强我"",""弱我""]","","","","","","","","6","","","","","","","","","SRET","SRET_math_calculate","","key","6","16.667164179103782","747","463","","","","","5+1= ?","6","1","","","","","","","",""
"2155","","3","psychophysics","133","592756","0.0-7.0-5.0-0.30","5","4","3","3","4","4","2","3","4","4","4","1","0","0","2","0","0","2","2","5","4","5","4","4","3","3","4","2","3","4","3","5","6","2","4","2","5","6","3","2","3","3","5","2","6","2","7","1","1","4","1","6","2","6","2","2","4","5","5","2","3","3","1","1","6","3","7","2","6","6","2","3","1","2","6","7","6","1","3","689594271669420032","李","592","Female","[""好她"",""坏她"",""好我"",""坏我""]","[""强她"",""弱她"",""强我"",""弱我""]","","","","","","","","3","","","","","","","","","SRET","SRET_math_calculate","","key","3","16.6325581395347","747","463","","","","","6/2= ?","3","1","","","","","","","",""
"2142","","9","psychophysics","134","594899","0.0-7.0-5.0-0.31","5","4","3","3","4","4","2","3","4","4","4","1","0","0","2","0","0","2","2","5","4","5","4","4","3","3","4","2","3","4","3","5","6","2","4","2","5","6","3","2","3","3","5","2","6","2","7","1","1","4","1","6","2","6","2","2","4","5","5","2","3","3","1","1","6","3","7","2","6","6","2","3","1","2","6","7","6","1","3","689594271669420032","李","592","Female","[""好她"",""坏她"",""好我"",""坏我""]","[""强她"",""弱她"",""强我"",""弱我""]","","","","","","","","9","","","","","","","","","SRET","SRET_math_calculate","","key","9","16.668503937008058","747","463","","","","","2+7= ?","9","1","","","","","","","",""
"2756","","5","psychophysics","135","597657","0.0-7.0-5.0-0.32","5","4","3","3","4","4","2","3","4","4","4","1","0","0","2","0","0","2","2","5","4","5","4","4","3","3","4","2","3","4","3","5","6","2","4","2","5","6","3","2","3","3","5","2","6","2","7","1","1","4","1","6","2","6","2","2","4","5","5","2","3","3","1","1","6","3","7","2","6","6","2","3","1","2","6","7","6","1","3","689594271669420032","李","592","Female","[""好她"",""坏她"",""好我"",""坏我""]","[""强她"",""弱她"",""强我"",""弱我""]","","","","","","","","5","","","","","","","","","SRET","SRET_math_calculate","","key","5","16.63757575757618","747","463","","","","","14-9= ?","5","1","","","","","","","",""
"2315","","6","psychophysics","136","599974","0.0-7.0-5.0-0.33","5","4","3","3","4","4","2","3","4","4","4","1","0","0","2","0","0","2","2","5","4","5","4","4","3","3","4","2","3","4","3","5","6","2","4","2","5","6","3","2","3","3","5","2","6","2","7","1","1","4","1","6","2","6","2","2","4","5","5","2","3","3","1","1","6","3","7","2","6","6","2","3","1","2","6","7","6","1","3","689594271669420032","李","592","Female","[""好她"",""坏她"",""好我"",""坏我""]","[""强她"",""弱她"",""强我"",""弱我""]","","","","","","","","6","","","","","","","","","SRET","SRET_math_calculate","","key","6","16.667391304348502","747","463","","","","","2+4= ?","6","1","","","","","","","",""
"2381","","1","psychophysics","137","602358","0.0-7.0-5.0-0.34","5","4","3","3","4","4","2","3","4","4","4","1","0","0","2","0","0","2","2","5","4","5","4","4","3","3","4","2","3","4","3","5","6","2","4","2","5","6","3","2","3","3","5","2","6","2","7","1","1","4","1","6","2","6","2","2","4","5","5","2","3","3","1","1","6","3","7","2","6","6","2","3","1","2","6","7","6","1","3","689594271669420032","李","592","Female","[""好她"",""坏她"",""好我"",""坏我""]","[""强她"",""弱她"",""强我"",""弱我""]","","","","","","","","1","","","","","","","","","SRET","SRET_math_calculate","","key","1","16.667605633803145","747","463","","","","","30-29= ?","1","1","","","","","","","",""
"2022","","7","psychophysics","138","604381","0.0-7.0-5.0-0.35","5","4","3","3","4","4","2","3","4","4","4","1","0","0","2","0","0","2","2","5","4","5","4","4","3","3","4","2","3","4","3","5","6","2","4","2","5","6","3","2","3","3","5","2","6","2","7","1","1","4","1","6","2","6","2","2","4","5","5","2","3","3","1","1","6","3","7","2","6","6","2","3","1","2","6","7","6","1","3","689594271669420032","李","592","Female","[""好她"",""坏她"",""好我"",""坏我""]","[""强她"",""弱她"",""强我"",""弱我""]","","","","","","","","7","","","","","","","","","SRET","SRET_math_calculate","","key","7","16.668333333332946","747","463","","","","","1+6= ?","7","1","","","","","","","",""
"2127","","5","psychophysics","139","606510","0.0-7.0-5.0-0.36","5","4","3","3","4","4","2","3","4","4","4","1","0","0","2","0","0","2","2","5","4","5","4","4","3","3","4","2","3","4","3","5","6","2","4","2","5","6","3","2","3","3","5","2","6","2","7","1","1","4","1","6","2","6","2","2","4","5","5","2","3","3","1","1","6","3","7","2","6","6","2","3","1","2","6","7","6","1","3","689594271669420032","李","592","Female","[""好她"",""坏她"",""好我"",""坏我""]","[""强她"",""弱她"",""强我"",""弱我""]","","","","","","","","5","","","","","","","","","SRET","SRET_math_calculate","","key","5","16.65669291338601","747","463","","","","","2+3= ?","5","1","","","","","","","",""
"2298","","0","psychophysics","140","608809","0.0-7.0-5.0-0.37","5","4","3","3","4","4","2","3","4","4","4","1","0","0","2","0","0","2","2","5","4","5","4","4","3","3","4","2","3","4","3","5","6","2","4","2","5","6","3","2","3","3","5","2","6","2","7","1","1","4","1","6","2","6","2","2","4","5","5","2","3","3","1","1","6","3","7","2","6","6","2","3","1","2","6","7","6","1","3","689594271669420032","李","592","Female","[""好她"",""坏她"",""好我"",""坏我""]","[""强她"",""弱她"",""强我"",""弱我""]","","","","","","","","0","","","","","","","","","SRET","SRET_math_calculate","","key","0","16.668613138685963","747","463","","","","","22-22= ?","0","1","","","","","","","",""
"2303","","5","psychophysics","141","611113","0.0-7.0-5.0-0.38","5","4","3","3","4","4","2","3","4","4","4","1","0","0","2","0","0","2","2","5","4","5","4","4","3","3","4","2","3","4","3","5","6","2","4","2","5","6","3","2","3","3","5","2","6","2","7","1","1","4","1","6","2","6","2","2","4","5","5","2","3","3","1","1","6","3","7","2","6","6","2","3","1","2","6","7","6","1","3","689594271669420032","李","592","Female","[""好她"",""坏她"",""好我"",""坏我""]","[""强她"",""弱她"",""强我"",""弱我""]","","","","","","","","5","","","","","","","","","SRET","SRET_math_calculate","","key","5","16.666423357663724","747","463","","","","","10-5= ?","5","1","","","","","","","",""
"2682","","8","psychophysics","142","613796","0.0-7.0-5.0-0.39","5","4","3","3","4","4","2","3","4","4","4","1","0","0","2","0","0","2","2","5","4","5","4","4","3","3","4","2","3","4","3","5","6","2","4","2","5","6","3","2","3","3","5","2","6","2","7","1","1","4","1","6","2","6","2","2","4","5","5","2","3","3","1","1","6","3","7","2","6","6","2","3","1","2","6","7","6","1","3","689594271669420032","李","592","Female","[""好她"",""坏她"",""好我"",""坏我""]","[""强她"",""弱她"",""强我"",""弱我""]","","","","","","","","8","","","","","","","","","SRET","SRET_math_calculate","","key","8","16.669374999999853","747","463","","","","","56/7= ?","8","1","","","","","","","",""
