"rt","stimulus","response","trial_type","trial_index","time_elapsed","internal_node_id","swb_1","swb_2","swb_3","swb_4","swb_5","LOT_1","LOT_2","LOT_3","LOT_4","LOT_5","LOT_6","IPC_1","IPC_2","IPC_3","IPC_4","IPC_5","IPC_6","IPC_7","IPC_8","MorIden_1","MorIden_2","MorIden_3","MorIden_4","MorIden_5","MorIden_6","MorIden_7","MorIden_8","MorIden_9","MorIden_10","moralSeImag_1","moralSeImag_2","moralSeImag_3","moralSeImag_4","moralSeImag_5","moralSeImag_6","moralSeImag_7","moralSeImag_8","moralSeImag_9","sde_1","sde_2","sde_3","sde_4","sde_5","sde_6","sde_7","sde_8","sde_9","sde_10","trap2","sde_11","sde_12","sde_13","sde_14","sde_15","sde_16","sde_17","sde_18","sde_19","sde_20","IM_1","IM_2","IM_3","IM_4","IM_5","IM_6","IM_7","IM_8","IM_9","IM_10","IM_11","IM_12","IM_13","IM_14","IM_15","IM_16","IM_17","IM_18","IM_19","IM_20","subj_idx","friend_name","ParticipantID","Sex","Word","Word2","value","success","timeout","failed_images","failed_audio","failed_video","user_agent","responses","item_order","radio_event_ids","radio_event_times","key_event_times","mouse_event_times","straightlining","zigzagging","honeypot","task_id","screen_id","time_stamp","response_type","key_press","avg_frame_time","center_x","center_y","person","word","valence","domain","math","correct_response","correct","status","view_history","identity","duration","Image","condition","question_order","trap2_item"
"1864","
   <p><div style='color:white; font-size: 25px'>您好，欢迎参加本次实验。</div></p>
   <p><div style='color:white; font-size: 25px'>为充分保障您的权利，请确保您已经知晓并同意《参与实验同意书》以及《数据公开知情同意书》。</div></p>
   <p><div style='color:white; font-size: 25px'>如果您未见过上述内容，请咨询实验员。</div></p>
   <p style='color:white; font-size: 25px'>如果您选择继续实验，则表示您已经清楚两份知情同意书的内容并同意。</p>
   <p><div style = ""color: pink;font-size:30px;"">请确保您记得day0的实验编号，您将在本次实验输入该编号，若您忘记，请咨询实验员后作答。</div></p>
   <p><div style = ""color:lightblue;font-size:25px;"">请您尽可能认真地作答，我们将依据您在各问卷和按键任务中的作答质量发放报酬。</div></p>
   <p> <div style = ""color: green""><按空格键至下页></div> </p>
   "," ","html-keyboard-response","0","1868","0.0-0.0","5","4","5","5","6","4","4","4","5","5","5","-1","-1","0","1","-2","1","1","0","4","4","4","4","5","4","5","4","5","4","6","5","3","5","5","4","4","4","5","6","2","5","6","5","3","6","3","6","4","1","5","2","6","3","3","5","5","4","5","5","3","5","5","6","2","5","7","5","6","5","5","6","5","5","6","5","5","5","3","6","790214171080925186","李","430","Male","[""坏他"",""好他"",""好我"",""坏我""]","[""弱他"",""强他"",""强我"",""弱我""]","","","","","","","","","","","","","","","","","","","","","","","","","","","","","","","","","","","","","","",""
"","","","call-function","1","1869","0.0-1.0-0.0","5","4","5","5","6","4","4","4","5","5","5","-1","-1","0","1","-2","1","1","0","4","4","4","4","5","4","5","4","5","4","6","5","3","5","5","4","4","4","5","6","2","5","6","5","3","6","3","6","4","1","5","2","6","3","3","5","5","4","5","5","3","5","5","6","2","5","7","5","6","5","5","6","5","5","6","5","5","5","3","6","790214171080925186","李","430","Male","[""坏他"",""好他"",""好我"",""坏我""]","[""弱他"",""强他"",""强我"",""弱我""]","","","","","","","","","","","","","","","","","","","","","","","","","","","","","","","","","","","","","","",""
"17671","","[{""name"":""Sex"",""value"":""0""},{""name"":""friend_name"",""value"":""李""},{""name"":""ParticipantID"",""value"":""430""}]","survey-html-form","2","19544","0.0-1.0-1.0","5","4","5","5","6","4","4","4","5","5","5","-1","-1","0","1","-2","1","1","0","4","4","4","4","5","4","5","4","5","4","6","5","3","5","5","4","4","4","5","6","2","5","6","5","3","6","3","6","4","1","5","2","6","3","3","5","5","4","5","5","3","5","5","6","2","5","7","5","6","5","5","6","5","5","6","5","5","5","3","6","790214171080925186","李","430","Male","[""坏他"",""好他"",""好我"",""坏我""]","[""弱他"",""强他"",""强我"",""弱我""]","","","","","","","","","","","","","","","","","","","","","","","","","","","","","","","","","","","","","","",""
"","","","preload","3","20233","0.0-2.0","5","4","5","5","6","4","4","4","5","5","5","-1","-1","0","1","-2","1","1","0","4","4","4","4","5","4","5","4","5","4","6","5","3","5","5","4","4","4","5","6","2","5","6","5","3","6","3","6","4","1","5","2","6","3","3","5","5","4","5","5","3","5","5","6","2","5","7","5","6","5","5","6","5","5","6","5","5","5","3","6","790214171080925186","李","430","Male","[""坏他"",""好他"",""好我"",""坏我""]","[""弱他"",""强他"",""强我"",""弱我""]","","true","false","[]","[]","[]","","","","","","","","","","","","","","","","","","","","","","","","","","","","","","","","",""
"","","","fullscreen","4","21373","0.0-3.0","5","4","5","5","6","4","4","4","5","5","5","-1","-1","0","1","-2","1","1","0","4","4","4","4","5","4","5","4","5","4","6","5","3","5","5","4","4","4","5","6","2","5","6","5","3","6","3","6","4","1","5","2","6","3","3","5","5","4","5","5","3","5","5","6","2","5","7","5","6","5","5","6","5","5","6","5","5","5","3","6","790214171080925186","李","430","Male","[""坏他"",""好他"",""好我"",""坏我""]","[""弱他"",""强他"",""强我"",""弱我""]","","true","","","","","{}","","","","","","","","","","","","","","","","","","","","","","","","","","","","","","","",""
"20886.299999999814","","{""Q01"":""5"",""Q02"":""4"",""Q03"":""5"",""Q04"":""5"",""Q05"":""6""}","survey-template","5","42267","0.0-4.0","5","4","5","5","6","4","4","4","5","5","5","-1","-1","0","1","-2","1","1","0","4","4","4","4","5","4","5","4","5","4","6","5","3","5","5","4","4","4","5","6","2","5","6","5","3","6","3","6","4","1","5","2","6","3","3","5","5","4","5","5","3","5","5","6","2","5","7","5","6","5","5","6","5","5","6","5","5","5","3","6","790214171080925186","李","430","Male","[""坏他"",""好他"",""好我"",""坏我""]","[""弱他"",""强他"",""强我"",""弱我""]","","","","","","","","{""Q01"":""5"",""Q02"":""4"",""Q03"":""5"",""Q04"":""5"",""Q05"":""6""}","[0,1,2,3,4]","[""Q01"",""Q02"",""Q03"",""Q04"",""Q05""]","[7259.200000000186,7939.0999999996275,9019.200000000186,9810.799999999814,11435.099999999627]","[]","[7259.200000000186,7939.0999999996275,9019.200000000186,9810.799999999814,11435.099999999627,20882.89999999944]","0.6","0.75","0","","","","","","","","","","","","","","","","","","","","","","",""
"21574","","{""Q01"":""4"",""Q02"":""4"",""Q03"":""4"",""Q04"":""5"",""Q05"":""5"",""Q06"":""5""}","survey-template","6","63857","0.0-5.0","5","4","5","5","6","4","4","4","5","5","5","-1","-1","0","1","-2","1","1","0","4","4","4","4","5","4","5","4","5","4","6","5","3","5","5","4","4","4","5","6","2","5","6","5","3","6","3","6","4","1","5","2","6","3","3","5","5","4","5","5","3","5","5","6","2","5","7","5","6","5","5","6","5","5","6","5","5","5","3","6","790214171080925186","李","430","Male","[""坏他"",""好他"",""好我"",""坏我""]","[""弱他"",""强他"",""强我"",""弱我""]","","","","","","","","{""Q01"":""4"",""Q02"":""4"",""Q03"":""4"",""Q04"":""5"",""Q05"":""5"",""Q06"":""5""}","[0,1,2,3,4,5]","[""Q01"",""Q02"",""Q03"",""Q04"",""Q05"",""Q06""]","[2243.800000000745,3787.9000000003725,6411.700000000186,8251.700000000186,8619.900000000373,9907.900000000373]","[]","[1875.7000000001863,2243.800000000745,3787.9000000003725,6052.200000000186,6411.700000000186,7363.9000000003725,8251.700000000186,8619.900000000373,9483.900000000373,9907.900000000373,21571.700000000186]","0.3333333333333333","0.2","0","","","","","","","","","","","","","","","","","","","","","","",""
"22523.099999999627","","{""Q01"":""-1"",""Q02"":""-1"",""Q03"":""0"",""Q04"":""1"",""Q05"":""-2"",""Q06"":""1"",""Q07"":""1"",""Q08"":""0""}","survey-template","7","86395","0.0-6.0","5","4","5","5","6","4","4","4","5","5","5","-1","-1","0","1","-2","1","1","0","4","4","4","4","5","4","5","4","5","4","6","5","3","5","5","4","4","4","5","6","2","5","6","5","3","6","3","6","4","1","5","2","6","3","3","5","5","4","5","5","3","5","5","6","2","5","7","5","6","5","5","6","5","5","6","5","5","5","3","6","790214171080925186","李","430","Male","[""坏他"",""好他"",""好我"",""坏我""]","[""弱他"",""强他"",""强我"",""弱我""]","","","","","","","","{""Q01"":""-1"",""Q02"":""-1"",""Q03"":""0"",""Q04"":""1"",""Q05"":""-2"",""Q06"":""1"",""Q07"":""1"",""Q08"":""0""}","[0,1,2,3,4,5,6,7]","[""Q01"",""Q02"",""Q03"",""Q04"",""Q05"",""Q06"",""Q07"",""Q08""]","[1887.7999999998137,3415.9000000003725,4792,6583.5,8159.5999999996275,9895.599999999627,10823.700000000186,12455.599999999627]","[]","[1887.7999999998137,3415.9000000003725,4792,6583.5,8159.5999999996275,9895.599999999627,10823.700000000186,12455.599999999627,22519.700000000186]","0.375","0.42857142857142855","0","","","","","","","","","","","","","","","","","","","","","","",""
"11542","
    <p><div style='color:white;font-size:35px; line-height:20px;'>词汇评估任务</div></p><br>
    <p><div style='color:white;font-size:25px; line-height:20px;'>请再次回忆该亲密的朋友，你们至少2年前就认识了，并且最近2年经常见面。</div></p>
    <p><div style='color:white;font-size:25px; line-height:20px;'>在本实验中，您将会看到一些形容词。</div></p>
    <p><div style='color:yellow;font-size:25px; line-height:20px;'>您的任务是判断这些形容词是否符合对您自己或您的朋友的描述。</div></p><p style='font-size:35px'>符合按<span style=""color:lightgreen""> f 键</span>，不符合按<span style=""color:red""> j 键</span></p>","0","html-button-response","8","97950","0.0-7.0-0.0","5","4","5","5","6","4","4","4","5","5","5","-1","-1","0","1","-2","1","1","0","4","4","4","4","5","4","5","4","5","4","6","5","3","5","5","4","4","4","5","6","2","5","6","5","3","6","3","6","4","1","5","2","6","3","3","5","5","4","5","5","3","5","5","6","2","5","7","5","6","5","5","6","5","5","6","5","5","5","3","6","790214171080925186","李","430","Male","[""坏他"",""好他"",""好我"",""坏我""]","[""弱他"",""强他"",""强我"",""弱我""]","","","","","","","","","","","","","","","","","SRET_EW","EW_instructions","Tue Jan 30 2024 09:27:17 GMT+0800 (中国标准时间)","","","","","","","","","","","","","","","","","","","",""
"927","","f","psychophysics","9","99901","0.0-7.0-1.0-0.0","5","4","5","5","6","4","4","4","5","5","5","-1","-1","0","1","-2","1","1","0","4","4","4","4","5","4","5","4","5","4","6","5","3","5","5","4","4","4","5","6","2","5","6","5","3","6","3","6","4","1","5","2","6","3","3","5","5","4","5","5","3","5","5","6","2","5","7","5","6","5","5","6","5","5","6","5","5","5","3","6","790214171080925186","李","430","Male","[""坏他"",""好他"",""好我"",""坏我""]","[""弱他"",""强他"",""强我"",""弱我""]","","","","","","","","yes","","","","","","","","","SRET_EW","EW_practice","","key","f","16.955826086956506","680","380","自己","刻板","Negative","ability","","","","","","","","","","",""
"758","","f","psychophysics","10","101669","0.0-7.0-1.0-0.1","5","4","5","5","6","4","4","4","5","5","5","-1","-1","0","1","-2","1","1","0","4","4","4","4","5","4","5","4","5","4","6","5","3","5","5","4","4","4","5","6","2","5","6","5","3","6","3","6","4","1","5","2","6","3","3","5","5","4","5","5","3","5","5","6","2","5","7","5","6","5","5","6","5","5","6","5","5","5","3","6","790214171080925186","李","430","Male","[""坏他"",""好他"",""好我"",""坏我""]","[""弱他"",""强他"",""强我"",""弱我""]","","","","","","","","yes","","","","","","","","","SRET_EW","EW_practice","","key","f","16.82607692307689","680","380","自己","严谨","Positive","ability","","","","","","","","","","",""
"784","","f","psychophysics","11","103466","0.0-7.0-1.0-0.2","5","4","5","5","6","4","4","4","5","5","5","-1","-1","0","1","-2","1","1","0","4","4","4","4","5","4","5","4","5","4","6","5","3","5","5","4","4","4","5","6","2","5","6","5","3","6","3","6","4","1","5","2","6","3","3","5","5","4","5","5","3","5","5","6","2","5","7","5","6","5","5","6","5","5","6","5","5","5","3","6","790214171080925186","李","430","Male","[""坏他"",""好他"",""好我"",""坏我""]","[""弱他"",""强他"",""强我"",""弱我""]","","","","","","","","yes","","","","","","","","","SRET_EW","EW_practice","","key","f","16.665747663551407","680","380","朋友","忠实","Positive","morality","","","","","","","","","","",""
"729","","j","psychophysics","12","105199","0.0-7.0-1.0-0.3","5","4","5","5","6","4","4","4","5","5","5","-1","-1","0","1","-2","1","1","0","4","4","4","4","5","4","5","4","5","4","6","5","3","5","5","4","4","4","5","6","2","5","6","5","3","6","3","6","4","1","5","2","6","3","3","5","5","4","5","5","3","5","5","6","2","5","7","5","6","5","5","6","5","5","6","5","5","5","3","6","790214171080925186","李","430","Male","[""坏他"",""好他"",""好我"",""坏我""]","[""弱他"",""强他"",""强我"",""弱我""]","","","","","","","","no","","","","","","","","","SRET_EW","EW_practice","","key","j","16.666029126213544","680","380","朋友","徇私","Negative","morality","","","","","","","","","","",""
"2724","
    <p><div style='color:white;font-size:35px; line-height:20px;'>请您再次阅读实验要求</div></p><br>
    <p><div style='color:white;font-size:25px; line-height:20px;'>请回忆某一个亲密的朋友，你们至少2年前就认识了，并且最近2年经常见面。</div></p>
    <p><div style='color:white;font-size:25px; line-height:20px;'>在本实验中，您将会看到一些形容词。</div></p>
    <p><div style='color:yellow;font-size:25px; line-height:20px;'>您的任务是判断这些形容词是否符合对您自己或您的朋友的描述。</div></p>
    <p><div class='footer' style='font-size:25px; line-height:20px;'>如果对本实验还有不清楚之处，请立即向实验员咨询。</p><p style='font-size:25px; line-height:20px;'>如果您明白了规则：</p><p style='font-size:22px; line-height:20px;'>请按 继续 进入正式实验</p>
    </div>
    <p style='font-size:35px'>符合按<span style=""color:lightgreen""> f 键</span>，不符合按<span style=""color:red""> j 键</span></p>","0","html-button-response","13","107926","0.0-7.0-2.0","5","4","5","5","6","4","4","4","5","5","5","-1","-1","0","1","-2","1","1","0","4","4","4","4","5","4","5","4","5","4","6","5","3","5","5","4","4","4","5","6","2","5","6","5","3","6","3","6","4","1","5","2","6","3","3","5","5","4","5","5","3","5","5","6","2","5","7","5","6","5","5","6","5","5","6","5","5","5","3","6","790214171080925186","李","430","Male","[""坏他"",""好他"",""好我"",""坏我""]","[""弱他"",""强他"",""强我"",""弱我""]","","","","","","","","","","","","","","","","","SRET_EW","prac_instructions","Tue Jan 30 2024 09:27:17 GMT+0800 (中国标准时间)","","","","","","","","","","","","","","","","","","","",""
"975","","j","psychophysics","14","109908","0.0-7.0-3.0-0.0","5","4","5","5","6","4","4","4","5","5","5","-1","-1","0","1","-2","1","1","0","4","4","4","4","5","4","5","4","5","4","6","5","3","5","5","4","4","4","5","6","2","5","6","5","3","6","3","6","4","1","5","2","6","3","3","5","5","4","5","5","3","5","5","6","2","5","7","5","6","5","5","6","5","5","6","5","5","5","3","6","790214171080925186","李","430","Male","[""坏他"",""好他"",""好我"",""坏我""]","[""弱他"",""强他"",""强我"",""弱我""]","","","","","","","","no","","","","","","","","","SRET","EW_formal","","key","j","16.808228813559314","680","380","朋友","迷糊","Negative","ability","","","","","","","","","","",""
"835","","f","psychophysics","15","111749","0.0-7.0-3.0-0.1","5","4","5","5","6","4","4","4","5","5","5","-1","-1","0","1","-2","1","1","0","4","4","4","4","5","4","5","4","5","4","6","5","3","5","5","4","4","4","5","6","2","5","6","5","3","6","3","6","4","1","5","2","6","3","3","5","5","4","5","5","3","5","5","6","2","5","7","5","6","5","5","6","5","5","6","5","5","5","3","6","790214171080925186","李","430","Male","[""坏他"",""好他"",""好我"",""坏我""]","[""弱他"",""强他"",""强我"",""弱我""]","","","","","","","","yes","","","","","","","","","SRET","EW_formal","","key","f","16.660036363636426","680","380","自己","坚贞","Positive","morality","","","","","","","","","","",""
"734","","f","psychophysics","16","113492","0.0-7.0-3.0-0.2","5","4","5","5","6","4","4","4","5","5","5","-1","-1","0","1","-2","1","1","0","4","4","4","4","5","4","5","4","5","4","6","5","3","5","5","4","4","4","5","6","2","5","6","5","3","6","3","6","4","1","5","2","6","3","3","5","5","4","5","5","3","5","5","6","2","5","7","5","6","5","5","6","5","5","6","5","5","5","3","6","790214171080925186","李","430","Male","[""坏他"",""好他"",""好我"",""坏我""]","[""弱他"",""强他"",""强我"",""弱我""]","","","","","","","","yes","","","","","","","","","SRET","EW_formal","","key","f","16.835862745098055","680","380","朋友","务实","Positive","ability","","","","","","","","","","",""
"951","","f","psychophysics","17","115449","0.0-7.0-3.0-0.3","5","4","5","5","6","4","4","4","5","5","5","-1","-1","0","1","-2","1","1","0","4","4","4","4","5","4","5","4","5","4","6","5","3","5","5","4","4","4","5","6","2","5","6","5","3","6","3","6","4","1","5","2","6","3","3","5","5","4","5","5","3","5","5","6","2","5","7","5","6","5","5","6","5","5","6","5","5","5","3","6","790214171080925186","李","430","Male","[""坏他"",""好他"",""好我"",""坏我""]","[""弱他"",""强他"",""强我"",""弱我""]","","","","","","","","yes","","","","","","","","","SRET","EW_formal","","key","f","16.665606837606745","680","380","自己","说谎","Negative","morality","","","","","","","","","","",""
"830","","j","psychophysics","18","117284","0.0-7.0-3.0-0.4","5","4","5","5","6","4","4","4","5","5","5","-1","-1","0","1","-2","1","1","0","4","4","4","4","5","4","5","4","5","4","6","5","3","5","5","4","4","4","5","6","2","5","6","5","3","6","3","6","4","1","5","2","6","3","3","5","5","4","5","5","3","5","5","6","2","5","7","5","6","5","5","6","5","5","6","5","5","5","3","6","790214171080925186","李","430","Male","[""坏他"",""好他"",""好我"",""坏我""]","[""弱他"",""强他"",""强我"",""弱我""]","","","","","","","","no","","","","","","","","","SRET","EW_formal","","key","j","16.82031481481479","680","380","自己","狡诈","Negative","morality","","","","","","","","","","",""
"886","","j","psychophysics","19","119172","0.0-7.0-3.0-0.5","5","4","5","5","6","4","4","4","5","5","5","-1","-1","0","1","-2","1","1","0","4","4","4","4","5","4","5","4","5","4","6","5","3","5","5","4","4","4","5","6","2","5","6","5","3","6","3","6","4","1","5","2","6","3","3","5","5","4","5","5","3","5","5","6","2","5","7","5","6","5","5","6","5","5","6","5","5","5","3","6","790214171080925186","李","430","Male","[""坏他"",""好他"",""好我"",""坏我""]","[""弱他"",""强他"",""强我"",""弱我""]","","","","","","","","no","","","","","","","","","SRET","EW_formal","","key","j","16.666419642857104","680","380","自己","废物","Negative","ability","","","","","","","","","","",""
"890","","f","psychophysics","20","121065","0.0-7.0-3.0-0.6","5","4","5","5","6","4","4","4","5","5","5","-1","-1","0","1","-2","1","1","0","4","4","4","4","5","4","5","4","5","4","6","5","3","5","5","4","4","4","5","6","2","5","6","5","3","6","3","6","4","1","5","2","6","3","3","5","5","4","5","5","3","5","5","6","2","5","7","5","6","5","5","6","5","5","6","5","5","5","3","6","790214171080925186","李","430","Male","[""坏他"",""好他"",""好我"",""坏我""]","[""弱他"",""强他"",""强我"",""弱我""]","","","","","","","","yes","","","","","","","","","SRET","EW_formal","","key","f","16.666026785714298","680","380","朋友","刻苦","Positive","ability","","","","","","","","","","",""
"998","","f","psychophysics","21","123068","0.0-7.0-3.0-0.7","5","4","5","5","6","4","4","4","5","5","5","-1","-1","0","1","-2","1","1","0","4","4","4","4","5","4","5","4","5","4","6","5","3","5","5","4","4","4","5","6","2","5","6","5","3","6","3","6","4","1","5","2","6","3","3","5","5","4","5","5","3","5","5","6","2","5","7","5","6","5","5","6","5","5","6","5","5","5","3","6","790214171080925186","李","430","Male","[""坏他"",""好他"",""好我"",""坏我""]","[""弱他"",""强他"",""强我"",""弱我""]","","","","","","","","yes","","","","","","","","","SRET","EW_formal","","key","f","16.66549166666664","680","380","朋友","依靠","Negative","ability","","","","","","","","","","",""
"735","","f","psychophysics","22","124805","0.0-7.0-3.0-0.8","5","4","5","5","6","4","4","4","5","5","5","-1","-1","0","1","-2","1","1","0","4","4","4","4","5","4","5","4","5","4","6","5","3","5","5","4","4","4","5","6","2","5","6","5","3","6","3","6","4","1","5","2","6","3","3","5","5","4","5","5","3","5","5","6","2","5","7","5","6","5","5","6","5","5","6","5","5","5","3","6","790214171080925186","李","430","Male","[""坏他"",""好他"",""好我"",""坏我""]","[""弱他"",""强他"",""强我"",""弱我""]","","","","","","","","yes","","","","","","","","","SRET","EW_formal","","key","f","16.665864077669927","680","380","朋友","专注","Positive","ability","","","","","","","","","","",""
"834","","j","psychophysics","23","126648","0.0-7.0-3.0-0.9","5","4","5","5","6","4","4","4","5","5","5","-1","-1","0","1","-2","1","1","0","4","4","4","4","5","4","5","4","5","4","6","5","3","5","5","4","4","4","5","6","2","5","6","5","3","6","3","6","4","1","5","2","6","3","3","5","5","4","5","5","3","5","5","6","2","5","7","5","6","5","5","6","5","5","6","5","5","5","3","6","790214171080925186","李","430","Male","[""坏他"",""好他"",""好我"",""坏我""]","[""弱他"",""强他"",""强我"",""弱我""]","","","","","","","","no","","","","","","","","","SRET","EW_formal","","key","j","16.66545454545452","680","380","朋友","缺德","Negative","morality","","","","","","","","","","",""
"750","","j","psychophysics","24","128404","0.0-7.0-3.0-0.10","5","4","5","5","6","4","4","4","5","5","5","-1","-1","0","1","-2","1","1","0","4","4","4","4","5","4","5","4","5","4","6","5","3","5","5","4","4","4","5","6","2","5","6","5","3","6","3","6","4","1","5","2","6","3","3","5","5","4","5","5","3","5","5","6","2","5","7","5","6","5","5","6","5","5","6","5","5","5","3","6","790214171080925186","李","430","Male","[""坏他"",""好他"",""好我"",""坏我""]","[""弱他"",""强他"",""强我"",""弱我""]","","","","","","","","no","","","","","","","","","SRET","EW_formal","","key","j","16.66604807692308","680","380","朋友","虚假","Negative","morality","","","","","","","","","","",""
"1143","","f","psychophysics","25","130549","0.0-7.0-3.0-0.11","5","4","5","5","6","4","4","4","5","5","5","-1","-1","0","1","-2","1","1","0","4","4","4","4","5","4","5","4","5","4","6","5","3","5","5","4","4","4","5","6","2","5","6","5","3","6","3","6","4","1","5","2","6","3","3","5","5","4","5","5","3","5","5","6","2","5","7","5","6","5","5","6","5","5","6","5","5","5","3","6","790214171080925186","李","430","Male","[""坏他"",""好他"",""好我"",""坏我""]","[""弱他"",""强他"",""强我"",""弱我""]","","","","","","","","yes","","","","","","","","","SRET","EW_formal","","key","f","19.39287272727273","680","380","朋友","慈悲","Positive","morality","","","","","","","","","","",""
"751","","f","psychophysics","26","132310","0.0-7.0-3.0-0.12","5","4","5","5","6","4","4","4","5","5","5","-1","-1","0","1","-2","1","1","0","4","4","4","4","5","4","5","4","5","4","6","5","3","5","5","4","4","4","5","6","2","5","6","5","3","6","3","6","4","1","5","2","6","3","3","5","5","4","5","5","3","5","5","6","2","5","7","5","6","5","5","6","5","5","6","5","5","5","3","6","790214171080925186","李","430","Male","[""坏他"",""好他"",""好我"",""坏我""]","[""弱他"",""强他"",""强我"",""弱我""]","","","","","","","","yes","","","","","","","","","SRET","EW_formal","","key","f","16.66588461538469","680","380","朋友","忠良","Positive","morality","","","","","","","","","","",""
"1014","","j","psychophysics","27","134332","0.0-7.0-3.0-0.13","5","4","5","5","6","4","4","4","5","5","5","-1","-1","0","1","-2","1","1","0","4","4","4","4","5","4","5","4","5","4","6","5","3","5","5","4","4","4","5","6","2","5","6","5","3","6","3","6","4","1","5","2","6","3","3","5","5","4","5","5","3","5","5","6","2","5","7","5","6","5","5","6","5","5","6","5","5","5","3","6","790214171080925186","李","430","Male","[""坏他"",""好他"",""好我"",""坏我""]","[""弱他"",""强他"",""强我"",""弱我""]","","","","","","","","no","","","","","","","","","SRET","EW_formal","","key","j","19.578553398058116","680","380","朋友","恶劣","Negative","morality","","","","","","","","","","",""
"891","","j","psychophysics","28","136236","0.0-7.0-3.0-0.14","5","4","5","5","6","4","4","4","5","5","5","-1","-1","0","1","-2","1","1","0","4","4","4","4","5","4","5","4","5","4","6","5","3","5","5","4","4","4","5","6","2","5","6","5","3","6","3","6","4","1","5","2","6","3","3","5","5","4","5","5","3","5","5","6","2","5","7","5","6","5","5","6","5","5","6","5","5","5","3","6","790214171080925186","李","430","Male","[""坏他"",""好他"",""好我"",""坏我""]","[""弱他"",""强他"",""强我"",""弱我""]","","","","","","","","no","","","","","","","","","SRET","EW_formal","","key","j","16.665884955752173","680","380","朋友","自私","Negative","morality","","","","","","","","","","",""
"801","","j","psychophysics","29","138047","0.0-7.0-3.0-0.15","5","4","5","5","6","4","4","4","5","5","5","-1","-1","0","1","-2","1","1","0","4","4","4","4","5","4","5","4","5","4","6","5","3","5","5","4","4","4","5","6","2","5","6","5","3","6","3","6","4","1","5","2","6","3","3","5","5","4","5","5","3","5","5","6","2","5","7","5","6","5","5","6","5","5","6","5","5","5","3","6","790214171080925186","李","430","Male","[""坏他"",""好他"",""好我"",""坏我""]","[""弱他"",""强他"",""强我"",""弱我""]","","","","","","","","no","","","","","","","","","SRET","EW_formal","","key","j","16.666018518518452","680","380","朋友","迂拙","Negative","ability","","","","","","","","","","",""
"1085","","f","psychophysics","30","140140","0.0-7.0-3.0-0.16","5","4","5","5","6","4","4","4","5","5","5","-1","-1","0","1","-2","1","1","0","4","4","4","4","5","4","5","4","5","4","6","5","3","5","5","4","4","4","5","6","2","5","6","5","3","6","3","6","4","1","5","2","6","3","3","5","5","4","5","5","3","5","5","6","2","5","7","5","6","5","5","6","5","5","6","5","5","5","3","6","790214171080925186","李","430","Male","[""坏他"",""好他"",""好我"",""坏我""]","[""弱他"",""强他"",""强我"",""弱我""]","","","","","","","","yes","","","","","","","","","SRET","EW_formal","","key","f","16.665169354838707","680","380","自己","拖延","Negative","ability","","","","","","","","","","",""
"1087","","j","psychophysics","31","142230","0.0-7.0-3.0-0.17","5","4","5","5","6","4","4","4","5","5","5","-1","-1","0","1","-2","1","1","0","4","4","4","4","5","4","5","4","5","4","6","5","3","5","5","4","4","4","5","6","2","5","6","5","3","6","3","6","4","1","5","2","6","3","3","5","5","4","5","5","3","5","5","6","2","5","7","5","6","5","5","6","5","5","6","5","5","5","3","6","790214171080925186","李","430","Male","[""坏他"",""好他"",""好我"",""坏我""]","[""弱他"",""强他"",""强我"",""弱我""]","","","","","","","","no","","","","","","","","","SRET","EW_formal","","key","j","16.66572800000012","680","380","自己","窝囊","Negative","ability","","","","","","","","","","",""
"1246","","j","psychophysics","32","144484","0.0-7.0-3.0-0.18","5","4","5","5","6","4","4","4","5","5","5","-1","-1","0","1","-2","1","1","0","4","4","4","4","5","4","5","4","5","4","6","5","3","5","5","4","4","4","5","6","2","5","6","5","3","6","3","6","4","1","5","2","6","3","3","5","5","4","5","5","3","5","5","6","2","5","7","5","6","5","5","6","5","5","6","5","5","5","3","6","790214171080925186","李","430","Male","[""坏他"",""好他"",""好我"",""坏我""]","[""弱他"",""强他"",""强我"",""弱我""]","","","","","","","","no","","","","","","","","","SRET","EW_formal","","key","j","16.665649253731452","680","380","自己","果断","Positive","ability","","","","","","","","","","",""
"886","","f","psychophysics","33","146372","0.0-7.0-3.0-0.19","5","4","5","5","6","4","4","4","5","5","5","-1","-1","0","1","-2","1","1","0","4","4","4","4","5","4","5","4","5","4","6","5","3","5","5","4","4","4","5","6","2","5","6","5","3","6","3","6","4","1","5","2","6","3","3","5","5","4","5","5","3","5","5","6","2","5","7","5","6","5","5","6","5","5","6","5","5","5","3","6","790214171080925186","李","430","Male","[""坏他"",""好他"",""好我"",""坏我""]","[""弱他"",""强他"",""强我"",""弱我""]","","","","","","","","yes","","","","","","","","","SRET","EW_formal","","key","f","16.666000000000036","680","380","朋友","勤奋","Positive","ability","","","","","","","","","","",""
"1214","","j","psychophysics","34","148588","0.0-7.0-3.0-0.20","5","4","5","5","6","4","4","4","5","5","5","-1","-1","0","1","-2","1","1","0","4","4","4","4","5","4","5","4","5","4","6","5","3","5","5","4","4","4","5","6","2","5","6","5","3","6","3","6","4","1","5","2","6","3","3","5","5","4","5","5","3","5","5","6","2","5","7","5","6","5","5","6","5","5","6","5","5","5","3","6","790214171080925186","李","430","Male","[""坏他"",""好他"",""好我"",""坏我""]","[""弱他"",""强他"",""强我"",""弱我""]","","","","","","","","no","","","","","","","","","SRET","EW_formal","","key","j","19.128826086956543","680","380","朋友","庸碌","Negative","ability","","","","","","","","","","",""
"828","","j","psychophysics","35","150420","0.0-7.0-3.0-0.21","5","4","5","5","6","4","4","4","5","5","5","-1","-1","0","1","-2","1","1","0","4","4","4","4","5","4","5","4","5","4","6","5","3","5","5","4","4","4","5","6","2","5","6","5","3","6","3","6","4","1","5","2","6","3","3","5","5","4","5","5","3","5","5","6","2","5","7","5","6","5","5","6","5","5","6","5","5","5","3","6","790214171080925186","李","430","Male","[""坏他"",""好他"",""好我"",""坏我""]","[""弱他"",""强他"",""强我"",""弱我""]","","","","","","","","no","","","","","","","","","SRET","EW_formal","","key","j","16.820203703703655","680","380","自己","歹毒","Negative","morality","","","","","","","","","","",""
"887","","f","psychophysics","36","152316","0.0-7.0-3.0-0.22","5","4","5","5","6","4","4","4","5","5","5","-1","-1","0","1","-2","1","1","0","4","4","4","4","5","4","5","4","5","4","6","5","3","5","5","4","4","4","5","6","2","5","6","5","3","6","3","6","4","1","5","2","6","3","3","5","5","4","5","5","3","5","5","6","2","5","7","5","6","5","5","6","5","5","6","5","5","5","3","6","790214171080925186","李","430","Male","[""坏他"",""好他"",""好我"",""坏我""]","[""弱他"",""强他"",""强我"",""弱我""]","","","","","","","","yes","","","","","","","","","SRET","EW_formal","","key","f","16.81453571428574","680","380","自己","忠义","Positive","morality","","","","","","","","","","",""
"993","","j","psychophysics","37","154312","0.0-7.0-3.0-0.23","5","4","5","5","6","4","4","4","5","5","5","-1","-1","0","1","-2","1","1","0","4","4","4","4","5","4","5","4","5","4","6","5","3","5","5","4","4","4","5","6","2","5","6","5","3","6","3","6","4","1","5","2","6","3","3","5","5","4","5","5","3","5","5","6","2","5","7","5","6","5","5","6","5","5","6","5","5","5","3","6","790214171080925186","李","430","Male","[""坏他"",""好他"",""好我"",""坏我""]","[""弱他"",""强他"",""强我"",""弱我""]","","","","","","","","no","","","","","","","","","SRET","EW_formal","","key","j","19.63672277227702","680","380","朋友","奸诈","Negative","morality","","","","","","","","","","",""
"1086","","j","psychophysics","38","156404","0.0-7.0-3.0-0.24","5","4","5","5","6","4","4","4","5","5","5","-1","-1","0","1","-2","1","1","0","4","4","4","4","5","4","5","4","5","4","6","5","3","5","5","4","4","4","5","6","2","5","6","5","3","6","3","6","4","1","5","2","6","3","3","5","5","4","5","5","3","5","5","6","2","5","7","5","6","5","5","6","5","5","6","5","5","5","3","6","790214171080925186","李","430","Male","[""坏他"",""好他"",""好我"",""坏我""]","[""弱他"",""强他"",""强我"",""弱我""]","","","","","","","","no","","","","","","","","","SRET","EW_formal","","key","j","16.800081300813037","680","380","自己","愚痴","Negative","ability","","","","","","","","","","",""
"1077","","f","psychophysics","39","158484","0.0-7.0-3.0-0.25","5","4","5","5","6","4","4","4","5","5","5","-1","-1","0","1","-2","1","1","0","4","4","4","4","5","4","5","4","5","4","6","5","3","5","5","4","4","4","5","6","2","5","6","5","3","6","3","6","4","1","5","2","6","3","3","5","5","4","5","5","3","5","5","6","2","5","7","5","6","5","5","6","5","5","6","5","5","5","3","6","790214171080925186","李","430","Male","[""坏他"",""好他"",""好我"",""坏我""]","[""弱他"",""强他"",""强我"",""弱我""]","","","","","","","","yes","","","","","","","","","SRET","EW_formal","","key","f","16.666330645161292","680","380","自己","清廉","Positive","morality","","","","","","","","","","",""
"1053","","f","psychophysics","40","160540","0.0-7.0-3.0-0.26","5","4","5","5","6","4","4","4","5","5","5","-1","-1","0","1","-2","1","1","0","4","4","4","4","5","4","5","4","5","4","6","5","3","5","5","4","4","4","5","6","2","5","6","5","3","6","3","6","4","1","5","2","6","3","3","5","5","4","5","5","3","5","5","6","2","5","7","5","6","5","5","6","5","5","6","5","5","5","3","6","790214171080925186","李","430","Male","[""坏他"",""好他"",""好我"",""坏我""]","[""弱他"",""强他"",""强我"",""弱我""]","","","","","","","","yes","","","","","","","","","SRET","EW_formal","","key","f","19.36409523809506","680","380","自己","逞强","Negative","ability","","","","","","","","","","",""
"885","","j","psychophysics","41","162435","0.0-7.0-3.0-0.27","5","4","5","5","6","4","4","4","5","5","5","-1","-1","0","1","-2","1","1","0","4","4","4","4","5","4","5","4","5","4","6","5","3","5","5","4","4","4","5","6","2","5","6","5","3","6","3","6","4","1","5","2","6","3","3","5","5","4","5","5","3","5","5","6","2","5","7","5","6","5","5","6","5","5","6","5","5","5","3","6","790214171080925186","李","430","Male","[""坏他"",""好他"",""好我"",""坏我""]","[""弱他"",""强他"",""强我"",""弱我""]","","","","","","","","no","","","","","","","","","SRET","EW_formal","","key","j","16.66586725663706","680","380","朋友","草率","Negative","ability","","","","","","","","","","",""
"845","","j","psychophysics","42","164283","0.0-7.0-3.0-0.28","5","4","5","5","6","4","4","4","5","5","5","-1","-1","0","1","-2","1","1","0","4","4","4","4","5","4","5","4","5","4","6","5","3","5","5","4","4","4","5","6","2","5","6","5","3","6","3","6","4","1","5","2","6","3","3","5","5","4","5","5","3","5","5","6","2","5","7","5","6","5","5","6","5","5","6","5","5","5","3","6","790214171080925186","李","430","Male","[""坏他"",""好他"",""好我"",""坏我""]","[""弱他"",""强他"",""强我"",""弱我""]","","","","","","","","no","","","","","","","","","SRET","EW_formal","","key","j","16.66569999999986","680","380","朋友","毛糙","Negative","ability","","","","","","","","","","",""
"878","","j","psychophysics","43","166164","0.0-7.0-3.0-0.29","5","4","5","5","6","4","4","4","5","5","5","-1","-1","0","1","-2","1","1","0","4","4","4","4","5","4","5","4","5","4","6","5","3","5","5","4","4","4","5","6","2","5","6","5","3","6","3","6","4","1","5","2","6","3","3","5","5","4","5","5","3","5","5","6","2","5","7","5","6","5","5","6","5","5","6","5","5","5","3","6","790214171080925186","李","430","Male","[""坏他"",""好他"",""好我"",""坏我""]","[""弱他"",""强他"",""强我"",""弱我""]","","","","","","","","no","","","","","","","","","SRET","EW_formal","","key","j","16.6658214285713","680","380","自己","无敌","Positive","ability","","","","","","","","","","",""
"1080","","f","psychophysics","44","168246","0.0-7.0-3.0-0.30","5","4","5","5","6","4","4","4","5","5","5","-1","-1","0","1","-2","1","1","0","4","4","4","4","5","4","5","4","5","4","6","5","3","5","5","4","4","4","5","6","2","5","6","5","3","6","3","6","4","1","5","2","6","3","3","5","5","4","5","5","3","5","5","6","2","5","7","5","6","5","5","6","5","5","6","5","5","5","3","6","790214171080925186","李","430","Male","[""坏他"",""好他"",""好我"",""坏我""]","[""弱他"",""强他"",""强我"",""弱我""]","","","","","","","","yes","","","","","","","","","SRET","EW_formal","","key","f","16.666080645161387","680","380","自己","干练","Positive","ability","","","","","","","","","","",""
"1073","","j","psychophysics","45","170328","0.0-7.0-3.0-0.31","5","4","5","5","6","4","4","4","5","5","5","-1","-1","0","1","-2","1","1","0","4","4","4","4","5","4","5","4","5","4","6","5","3","5","5","4","4","4","5","6","2","5","6","5","3","6","3","6","4","1","5","2","6","3","3","5","5","4","5","5","3","5","5","6","2","5","7","5","6","5","5","6","5","5","6","5","5","5","3","6","790214171080925186","李","430","Male","[""坏他"",""好他"",""好我"",""坏我""]","[""弱他"",""强他"",""强我"",""弱我""]","","","","","","","","no","","","","","","","","","SRET","EW_formal","","key","j","19.313299065420434","680","380","自己","贪腐","Negative","morality","","","","","","","","","","",""
"838","","f","psychophysics","46","172172","0.0-7.0-3.0-0.32","5","4","5","5","6","4","4","4","5","5","5","-1","-1","0","1","-2","1","1","0","4","4","4","4","5","4","5","4","5","4","6","5","3","5","5","4","4","4","5","6","2","5","6","5","3","6","3","6","4","1","5","2","6","3","3","5","5","4","5","5","3","5","5","6","2","5","7","5","6","5","5","6","5","5","6","5","5","5","3","6","790214171080925186","李","430","Male","[""坏他"",""好他"",""好我"",""坏我""]","[""弱他"",""强他"",""强我"",""弱我""]","","","","","","","","yes","","","","","","","","","SRET","EW_formal","","key","f","16.665018348623796","680","380","自己","短浅","Negative","ability","","","","","","","","","","",""
"835","","f","psychophysics","47","174012","0.0-7.0-3.0-0.33","5","4","5","5","6","4","4","4","5","5","5","-1","-1","0","1","-2","1","1","0","4","4","4","4","5","4","5","4","5","4","6","5","3","5","5","4","4","4","5","6","2","5","6","5","3","6","3","6","4","1","5","2","6","3","3","5","5","4","5","5","3","5","5","6","2","5","7","5","6","5","5","6","5","5","6","5","5","5","3","6","790214171080925186","李","430","Male","[""坏他"",""好他"",""好我"",""坏我""]","[""弱他"",""强他"",""强我"",""弱我""]","","","","","","","","yes","","","","","","","","","SRET","EW_formal","","key","f","16.66574545454562","680","380","朋友","骁勇","Positive","ability","","","","","","","","","","",""
"1080","","j","psychophysics","48","176094","0.0-7.0-3.0-0.34","5","4","5","5","6","4","4","4","5","5","5","-1","-1","0","1","-2","1","1","0","4","4","4","4","5","4","5","4","5","4","6","5","3","5","5","4","4","4","5","6","2","5","6","5","3","6","3","6","4","1","5","2","6","3","3","5","5","4","5","5","3","5","5","6","2","5","7","5","6","5","5","6","5","5","6","5","5","5","3","6","790214171080925186","李","430","Male","[""坏他"",""好他"",""好我"",""坏我""]","[""弱他"",""强他"",""强我"",""弱我""]","","","","","","","","no","","","","","","","","","SRET","EW_formal","","key","j","16.66582926829266","680","380","自己","虚伪","Negative","morality","","","","","","","","","","",""
"793","","f","psychophysics","49","177895","0.0-7.0-3.0-0.35","5","4","5","5","6","4","4","4","5","5","5","-1","-1","0","1","-2","1","1","0","4","4","4","4","5","4","5","4","5","4","6","5","3","5","5","4","4","4","5","6","2","5","6","5","3","6","3","6","4","1","5","2","6","3","3","5","5","4","5","5","3","5","5","6","2","5","7","5","6","5","5","6","5","5","6","5","5","5","3","6","790214171080925186","李","430","Male","[""坏他"",""好他"",""好我"",""坏我""]","[""弱他"",""强他"",""强我"",""弱我""]","","","","","","","","yes","","","","","","","","","SRET","EW_formal","","key","f","16.665888888888865","680","380","朋友","善良","Positive","morality","","","","","","","","","","",""
"869","","j","psychophysics","50","179772","0.0-7.0-3.0-0.36","5","4","5","5","6","4","4","4","5","5","5","-1","-1","0","1","-2","1","1","0","4","4","4","4","5","4","5","4","5","4","6","5","3","5","5","4","4","4","5","6","2","5","6","5","3","6","3","6","4","1","5","2","6","3","3","5","5","4","5","5","3","5","5","6","2","5","7","5","6","5","5","6","5","5","6","5","5","5","3","6","790214171080925186","李","430","Male","[""坏他"",""好他"",""好我"",""坏我""]","[""弱他"",""强他"",""强我"",""弱我""]","","","","","","","","no","","","","","","","","","SRET","EW_formal","","key","j","16.665927927927974","680","380","自己","黑心","Negative","morality","","","","","","","","","","",""
"906","","j","psychophysics","51","181684","0.0-7.0-3.0-0.37","5","4","5","5","6","4","4","4","5","5","5","-1","-1","0","1","-2","1","1","0","4","4","4","4","5","4","5","4","5","4","6","5","3","5","5","4","4","4","5","6","2","5","6","5","3","6","3","6","4","1","5","2","6","3","3","5","5","4","5","5","3","5","5","6","2","5","7","5","6","5","5","6","5","5","6","5","5","5","3","6","790214171080925186","李","430","Male","[""坏他"",""好他"",""好我"",""坏我""]","[""弱他"",""强他"",""强我"",""弱我""]","","","","","","","","no","","","","","","","","","SRET","EW_formal","","key","j","16.81350442477882","680","380","自己","昏庸","Negative","ability","","","","","","","","","","",""
"829","","f","psychophysics","52","183515","0.0-7.0-3.0-0.38","5","4","5","5","6","4","4","4","5","5","5","-1","-1","0","1","-2","1","1","0","4","4","4","4","5","4","5","4","5","4","6","5","3","5","5","4","4","4","5","6","2","5","6","5","3","6","3","6","4","1","5","2","6","3","3","5","5","4","5","5","3","5","5","6","2","5","7","5","6","5","5","6","5","5","6","5","5","5","3","6","790214171080925186","李","430","Male","[""坏他"",""好他"",""好我"",""坏我""]","[""弱他"",""强他"",""强我"",""弱我""]","","","","","","","","yes","","","","","","","","","SRET","EW_formal","","key","f","16.665724770642054","680","380","朋友","中用","Positive","ability","","","","","","","","","","",""
"853","","f","psychophysics","53","185371","0.0-7.0-3.0-0.39","5","4","5","5","6","4","4","4","5","5","5","-1","-1","0","1","-2","1","1","0","4","4","4","4","5","4","5","4","5","4","6","5","3","5","5","4","4","4","5","6","2","5","6","5","3","6","3","6","4","1","5","2","6","3","3","5","5","4","5","5","3","5","5","6","2","5","7","5","6","5","5","6","5","5","6","5","5","5","3","6","790214171080925186","李","430","Male","[""坏他"",""好他"",""好我"",""坏我""]","[""弱他"",""强他"",""强我"",""弱我""]","","","","","","","","yes","","","","","","","","","SRET","EW_formal","","key","f","16.665663636363618","680","380","自己","新手","Negative","ability","","","","","","","","","","",""
"1043","","j","psychophysics","54","187420","0.0-7.0-3.0-0.40","5","4","5","5","6","4","4","4","5","5","5","-1","-1","0","1","-2","1","1","0","4","4","4","4","5","4","5","4","5","4","6","5","3","5","5","4","4","4","5","6","2","5","6","5","3","6","3","6","4","1","5","2","6","3","3","5","5","4","5","5","3","5","5","6","2","5","7","5","6","5","5","6","5","5","6","5","5","5","3","6","790214171080925186","李","430","Male","[""坏他"",""好他"",""好我"",""坏我""]","[""弱他"",""强他"",""强我"",""弱我""]","","","","","","","","no","","","","","","","","","SRET","EW_formal","","key","j","19.363695238095186","680","380","自己","愚蠢","Negative","ability","","","","","","","","","","",""
"949","","j","psychophysics","55","189371","0.0-7.0-3.0-0.41","5","4","5","5","6","4","4","4","5","5","5","-1","-1","0","1","-2","1","1","0","4","4","4","4","5","4","5","4","5","4","6","5","3","5","5","4","4","4","5","6","2","5","6","5","3","6","3","6","4","1","5","2","6","3","3","5","5","4","5","5","3","5","5","6","2","5","7","5","6","5","5","6","5","5","6","5","5","5","3","6","790214171080925186","李","430","Male","[""坏他"",""好他"",""好我"",""坏我""]","[""弱他"",""强他"",""强我"",""弱我""]","","","","","","","","no","","","","","","","","","SRET","EW_formal","","key","j","16.66616379310365","680","380","朋友","差生","Negative","ability","","","","","","","","","","",""
"1081","","f","psychophysics","56","191463","0.0-7.0-3.0-0.42","5","4","5","5","6","4","4","4","5","5","5","-1","-1","0","1","-2","1","1","0","4","4","4","4","5","4","5","4","5","4","6","5","3","5","5","4","4","4","5","6","2","5","6","5","3","6","3","6","4","1","5","2","6","3","3","5","5","4","5","5","3","5","5","6","2","5","7","5","6","5","5","6","5","5","6","5","5","5","3","6","790214171080925186","李","430","Male","[""坏他"",""好他"",""好我"",""坏我""]","[""弱他"",""强他"",""强我"",""弱我""]","","","","","","","","yes","","","","","","","","","SRET","EW_formal","","key","f","16.66603199999989","680","380","朋友","娴熟","Positive","ability","","","","","","","","","","",""
"857","","f","psychophysics","57","193329","0.0-7.0-3.0-0.43","5","4","5","5","6","4","4","4","5","5","5","-1","-1","0","1","-2","1","1","0","4","4","4","4","5","4","5","4","5","4","6","5","3","5","5","4","4","4","5","6","2","5","6","5","3","6","3","6","4","1","5","2","6","3","3","5","5","4","5","5","3","5","5","6","2","5","7","5","6","5","5","6","5","5","6","5","5","5","3","6","790214171080925186","李","430","Male","[""坏他"",""好他"",""好我"",""坏我""]","[""弱他"",""强他"",""强我"",""弱我""]","","","","","","","","yes","","","","","","","","","SRET","EW_formal","","key","f","16.81702727272747","680","380","朋友","廉正","Positive","morality","","","","","","","","","","",""
"1178","","f","psychophysics","58","195513","0.0-7.0-3.0-0.44","5","4","5","5","6","4","4","4","5","5","5","-1","-1","0","1","-2","1","1","0","4","4","4","4","5","4","5","4","5","4","6","5","3","5","5","4","4","4","5","6","2","5","6","5","3","6","3","6","4","1","5","2","6","3","3","5","5","4","5","5","3","5","5","6","2","5","7","5","6","5","5","6","5","5","6","5","5","5","3","6","790214171080925186","李","430","Male","[""坏他"",""好他"",""好我"",""坏我""]","[""弱他"",""强他"",""强我"",""弱我""]","","","","","","","","yes","","","","","","","","","SRET","EW_formal","","key","f","18.83981739130433","680","380","自己","坦荡","Positive","morality","","","","","","","","","","",""
"829","","j","psychophysics","59","197349","0.0-7.0-3.0-0.45","5","4","5","5","6","4","4","4","5","5","5","-1","-1","0","1","-2","1","1","0","4","4","4","4","5","4","5","4","5","4","6","5","3","5","5","4","4","4","5","6","2","5","6","5","3","6","3","6","4","1","5","2","6","3","3","5","5","4","5","5","3","5","5","6","2","5","7","5","6","5","5","6","5","5","6","5","5","5","3","6","790214171080925186","李","430","Male","[""坏他"",""好他"",""好我"",""坏我""]","[""弱他"",""强他"",""强我"",""弱我""]","","","","","","","","no","","","","","","","","","SRET","EW_formal","","key","j","16.665724770642054","680","380","自己","蛇蝎","Negative","morality","","","","","","","","","","",""
"1055","","f","psychophysics","60","199413","0.0-7.0-3.0-0.46","5","4","5","5","6","4","4","4","5","5","5","-1","-1","0","1","-2","1","1","0","4","4","4","4","5","4","5","4","5","4","6","5","3","5","5","4","4","4","5","6","2","5","6","5","3","6","3","6","4","1","5","2","6","3","3","5","5","4","5","5","3","5","5","6","2","5","7","5","6","5","5","6","5","5","6","5","5","5","3","6","790214171080925186","李","430","Male","[""坏他"",""好他"",""好我"",""坏我""]","[""弱他"",""强他"",""强我"",""弱我""]","","","","","","","","yes","","","","","","","","","SRET","EW_formal","","key","f","16.665544715447105","680","380","自己","智慧","Positive","ability","","","","","","","","","","",""
"729","","j","psychophysics","61","201145","0.0-7.0-3.0-0.47","5","4","5","5","6","4","4","4","5","5","5","-1","-1","0","1","-2","1","1","0","4","4","4","4","5","4","5","4","5","4","6","5","3","5","5","4","4","4","5","6","2","5","6","5","3","6","3","6","4","1","5","2","6","3","3","5","5","4","5","5","3","5","5","6","2","5","7","5","6","5","5","6","5","5","6","5","5","5","3","6","790214171080925186","李","430","Male","[""坏他"",""好他"",""好我"",""坏我""]","[""弱他"",""强他"",""强我"",""弱我""]","","","","","","","","no","","","","","","","","","SRET","EW_formal","","key","j","16.665300970873627","680","380","自己","狡狯","Negative","morality","","","","","","","","","","",""
"861","","j","psychophysics","62","203013","0.0-7.0-3.0-0.48","5","4","5","5","6","4","4","4","5","5","5","-1","-1","0","1","-2","1","1","0","4","4","4","4","5","4","5","4","5","4","6","5","3","5","5","4","4","4","5","6","2","5","6","5","3","6","3","6","4","1","5","2","6","3","3","5","5","4","5","5","3","5","5","6","2","5","7","5","6","5","5","6","5","5","6","5","5","5","3","6","790214171080925186","李","430","Male","[""坏他"",""好他"",""好我"",""坏我""]","[""弱他"",""强他"",""强我"",""弱我""]","","","","","","","","no","","","","","","","","","SRET","EW_formal","","key","j","16.665900900900713","680","380","自己","邪恶","Negative","morality","","","","","","","","","","",""
"997","","j","psychophysics","63","205012","0.0-7.0-3.0-0.49","5","4","5","5","6","4","4","4","5","5","5","-1","-1","0","1","-2","1","1","0","4","4","4","4","5","4","5","4","5","4","6","5","3","5","5","4","4","4","5","6","2","5","6","5","3","6","3","6","4","1","5","2","6","3","3","5","5","4","5","5","3","5","5","6","2","5","7","5","6","5","5","6","5","5","6","5","5","5","3","6","790214171080925186","李","430","Male","[""坏他"",""好他"",""好我"",""坏我""]","[""弱他"",""强他"",""强我"",""弱我""]","","","","","","","","no","","","","","","","","","SRET","EW_formal","","key","j","16.665420168067207","680","380","自己","博识","Positive","ability","","","","","","","","","","",""
"880","","j","psychophysics","64","206895","0.0-7.0-3.0-0.50","5","4","5","5","6","4","4","4","5","5","5","-1","-1","0","1","-2","1","1","0","4","4","4","4","5","4","5","4","5","4","6","5","3","5","5","4","4","4","5","6","2","5","6","5","3","6","3","6","4","1","5","2","6","3","3","5","5","4","5","5","3","5","5","6","2","5","7","5","6","5","5","6","5","5","6","5","5","5","3","6","790214171080925186","李","430","Male","[""坏他"",""好他"",""好我"",""坏我""]","[""弱他"",""强他"",""强我"",""弱我""]","","","","","","","","no","","","","","","","","","SRET","EW_formal","","key","j","16.665651785714413","680","380","自己","善心","Positive","morality","","","","","","","","","","",""
"894","","j","psychophysics","65","208797","0.0-7.0-3.0-0.51","5","4","5","5","6","4","4","4","5","5","5","-1","-1","0","1","-2","1","1","0","4","4","4","4","5","4","5","4","5","4","6","5","3","5","5","4","4","4","5","6","2","5","6","5","3","6","3","6","4","1","5","2","6","3","3","5","5","4","5","5","3","5","5","6","2","5","7","5","6","5","5","6","5","5","6","5","5","5","3","6","790214171080925186","李","430","Male","[""坏他"",""好他"",""好我"",""坏我""]","[""弱他"",""强他"",""强我"",""弱我""]","","","","","","","","no","","","","","","","","","SRET","EW_formal","","key","j","16.665353982300864","680","380","朋友","罪恶","Negative","morality","","","","","","","","","","",""
"1069","","j","psychophysics","66","210868","0.0-7.0-3.0-0.52","5","4","5","5","6","4","4","4","5","5","5","-1","-1","0","1","-2","1","1","0","4","4","4","4","5","4","5","4","5","4","6","5","3","5","5","4","4","4","5","6","2","5","6","5","3","6","3","6","4","1","5","2","6","3","3","5","5","4","5","5","3","5","5","6","2","5","7","5","6","5","5","6","5","5","6","5","5","5","3","6","790214171080925186","李","430","Male","[""坏他"",""好他"",""好我"",""坏我""]","[""弱他"",""强他"",""强我"",""弱我""]","","","","","","","","no","","","","","","","","","SRET","EW_formal","","key","j","16.665422764227714","680","380","自己","仁厚","Positive","morality","","","","","","","","","","",""
"1040","","f","psychophysics","67","212912","0.0-7.0-3.0-0.53","5","4","5","5","6","4","4","4","5","5","5","-1","-1","0","1","-2","1","1","0","4","4","4","4","5","4","5","4","5","4","6","5","3","5","5","4","4","4","5","6","2","5","6","5","3","6","3","6","4","1","5","2","6","3","3","5","5","4","5","5","3","5","5","6","2","5","7","5","6","5","5","6","5","5","6","5","5","5","3","6","790214171080925186","李","430","Male","[""坏他"",""好他"",""好我"",""坏我""]","[""弱他"",""强他"",""强我"",""弱我""]","","","","","","","","yes","","","","","","","","","SRET","EW_formal","","key","f","16.666065573770567","680","380","朋友","孝顺","Positive","morality","","","","","","","","","","",""
"829","","f","psychophysics","68","214748","0.0-7.0-3.0-0.54","5","4","5","5","6","4","4","4","5","5","5","-1","-1","0","1","-2","1","1","0","4","4","4","4","5","4","5","4","5","4","6","5","3","5","5","4","4","4","5","6","2","5","6","5","3","6","3","6","4","1","5","2","6","3","3","5","5","4","5","5","3","5","5","6","2","5","7","5","6","5","5","6","5","5","6","5","5","5","3","6","790214171080925186","李","430","Male","[""坏他"",""好他"",""好我"",""坏我""]","[""弱他"",""强他"",""强我"",""弱我""]","","","","","","","","yes","","","","","","","","","SRET","EW_formal","","key","f","16.66506422018347","680","380","朋友","能干","Positive","ability","","","","","","","","","","",""
"1253","","j","psychophysics","69","217004","0.0-7.0-3.0-0.55","5","4","5","5","6","4","4","4","5","5","5","-1","-1","0","1","-2","1","1","0","4","4","4","4","5","4","5","4","5","4","6","5","3","5","5","4","4","4","5","6","2","5","6","5","3","6","3","6","4","1","5","2","6","3","3","5","5","4","5","5","3","5","5","6","2","5","7","5","6","5","5","6","5","5","6","5","5","5","3","6","790214171080925186","李","430","Male","[""坏他"",""好他"",""好我"",""坏我""]","[""弱他"",""强他"",""强我"",""弱我""]","","","","","","","","no","","","","","","","","","SRET","EW_formal","","key","j","16.66549999999997","680","380","自己","敬业","Positive","morality","","","","","","","","","","",""
"1043","","f","psychophysics","70","219053","0.0-7.0-3.0-0.56","5","4","5","5","6","4","4","4","5","5","5","-1","-1","0","1","-2","1","1","0","4","4","4","4","5","4","5","4","5","4","6","5","3","5","5","4","4","4","5","6","2","5","6","5","3","6","3","6","4","1","5","2","6","3","3","5","5","4","5","5","3","5","5","6","2","5","7","5","6","5","5","6","5","5","6","5","5","5","3","6","790214171080925186","李","430","Male","[""坏他"",""好他"",""好我"",""坏我""]","[""弱他"",""强他"",""强我"",""弱我""]","","","","","","","","yes","","","","","","","","","SRET","EW_formal","","key","f","16.666557377049237","680","380","朋友","廉明","Positive","morality","","","","","","","","","","",""
"1086","","j","psychophysics","71","221145","0.0-7.0-3.0-0.57","5","4","5","5","6","4","4","4","5","5","5","-1","-1","0","1","-2","1","1","0","4","4","4","4","5","4","5","4","5","4","6","5","3","5","5","4","4","4","5","6","2","5","6","5","3","6","3","6","4","1","5","2","6","3","3","5","5","4","5","5","3","5","5","6","2","5","7","5","6","5","5","6","5","5","6","5","5","5","3","6","790214171080925186","李","430","Male","[""坏他"",""好他"",""好我"",""坏我""]","[""弱他"",""强他"",""强我"",""弱我""]","","","","","","","","no","","","","","","","","","SRET","EW_formal","","key","j","18.116217391304268","680","380","朋友","驽钝","Negative","ability","","","","","","","","","","",""
"781","","j","psychophysics","72","222933","0.0-7.0-3.0-0.58","5","4","5","5","6","4","4","4","5","5","5","-1","-1","0","1","-2","1","1","0","4","4","4","4","5","4","5","4","5","4","6","5","3","5","5","4","4","4","5","6","2","5","6","5","3","6","3","6","4","1","5","2","6","3","3","5","5","4","5","5","3","5","5","6","2","5","7","5","6","5","5","6","5","5","6","5","5","5","3","6","790214171080925186","李","430","Male","[""坏他"",""好他"",""好我"",""坏我""]","[""弱他"",""强他"",""强我"",""弱我""]","","","","","","","","no","","","","","","","","","SRET","EW_formal","","key","j","16.666547169811135","680","380","朋友","不良","Negative","morality","","","","","","","","","","",""
"1008","","f","psychophysics","73","224944","0.0-7.0-3.0-0.59","5","4","5","5","6","4","4","4","5","5","5","-1","-1","0","1","-2","1","1","0","4","4","4","4","5","4","5","4","5","4","6","5","3","5","5","4","4","4","5","6","2","5","6","5","3","6","3","6","4","1","5","2","6","3","3","5","5","4","5","5","3","5","5","6","2","5","7","5","6","5","5","6","5","5","6","5","5","5","3","6","790214171080925186","李","430","Male","[""坏他"",""好他"",""好我"",""坏我""]","[""弱他"",""强他"",""强我"",""弱我""]","","","","","","","","yes","","","","","","","","","SRET","EW_formal","","key","f","16.66575833333336","680","380","朋友","细心","Positive","ability","","","","","","","","","","",""
"1125","","j","psychophysics","74","227077","0.0-7.0-3.0-0.60","5","4","5","5","6","4","4","4","5","5","5","-1","-1","0","1","-2","1","1","0","4","4","4","4","5","4","5","4","5","4","6","5","3","5","5","4","4","4","5","6","2","5","6","5","3","6","3","6","4","1","5","2","6","3","3","5","5","4","5","5","3","5","5","6","2","5","7","5","6","5","5","6","5","5","6","5","5","5","3","6","790214171080925186","李","430","Male","[""坏他"",""好他"",""好我"",""坏我""]","[""弱他"",""强他"",""强我"",""弱我""]","","","","","","","","no","","","","","","","","","SRET","EW_formal","","key","j","16.66523622047233","680","380","自己","聪明","Positive","ability","","","","","","","","","","",""
"853","","f","psychophysics","75","228932","0.0-7.0-3.0-0.61","5","4","5","5","6","4","4","4","5","5","5","-1","-1","0","1","-2","1","1","0","4","4","4","4","5","4","5","4","5","4","6","5","3","5","5","4","4","4","5","6","2","5","6","5","3","6","3","6","4","1","5","2","6","3","3","5","5","4","5","5","3","5","5","6","2","5","7","5","6","5","5","6","5","5","6","5","5","5","3","6","790214171080925186","李","430","Male","[""坏他"",""好他"",""好我"",""坏我""]","[""弱他"",""强他"",""强我"",""弱我""]","","","","","","","","yes","","","","","","","","","SRET","EW_formal","","key","f","16.665736363636363","680","380","朋友","守信","Positive","morality","","","","","","","","","","",""
"781","","j","psychophysics","76","230716","0.0-7.0-3.0-0.62","5","4","5","5","6","4","4","4","5","5","5","-1","-1","0","1","-2","1","1","0","4","4","4","4","5","4","5","4","5","4","6","5","3","5","5","4","4","4","5","6","2","5","6","5","3","6","3","6","4","1","5","2","6","3","3","5","5","4","5","5","3","5","5","6","2","5","7","5","6","5","5","6","5","5","6","5","5","5","3","6","790214171080925186","李","430","Male","[""坏他"",""好他"",""好我"",""坏我""]","[""弱他"",""强他"",""强我"",""弱我""]","","","","","","","","no","","","","","","","","","SRET","EW_formal","","key","j","16.66560377358494","680","380","朋友","奸险","Negative","morality","","","","","","","","","","",""
"874","","j","psychophysics","77","232593","0.0-7.0-3.0-0.63","5","4","5","5","6","4","4","4","5","5","5","-1","-1","0","1","-2","1","1","0","4","4","4","4","5","4","5","4","5","4","6","5","3","5","5","4","4","4","5","6","2","5","6","5","3","6","3","6","4","1","5","2","6","3","3","5","5","4","5","5","3","5","5","6","2","5","7","5","6","5","5","6","5","5","6","5","5","5","3","6","790214171080925186","李","430","Male","[""坏他"",""好他"",""好我"",""坏我""]","[""弱他"",""强他"",""强我"",""弱我""]","","","","","","","","no","","","","","","","","","SRET","EW_formal","","key","j","16.665482142857268","680","380","朋友","盲目","Negative","ability","","","","","","","","","","",""
"1301","","j","psychophysics","78","234901","0.0-7.0-3.0-0.64","5","4","5","5","6","4","4","4","5","5","5","-1","-1","0","1","-2","1","1","0","4","4","4","4","5","4","5","4","5","4","6","5","3","5","5","4","4","4","5","6","2","5","6","5","3","6","3","6","4","1","5","2","6","3","3","5","5","4","5","5","3","5","5","6","2","5","7","5","6","5","5","6","5","5","6","5","5","5","3","6","790214171080925186","李","430","Male","[""坏他"",""好他"",""好我"",""坏我""]","[""弱他"",""强他"",""强我"",""弱我""]","","","","","","","","no","","","","","","","","","SRET","EW_formal","","key","j","19.186932773109206","680","380","自己","卑鄙","Negative","morality","","","","","","","","","","",""
"1175","","f","psychophysics","79","237078","0.0-7.0-3.0-0.65","5","4","5","5","6","4","4","4","5","5","5","-1","-1","0","1","-2","1","1","0","4","4","4","4","5","4","5","4","5","4","6","5","3","5","5","4","4","4","5","6","2","5","6","5","3","6","3","6","4","1","5","2","6","3","3","5","5","4","5","5","3","5","5","6","2","5","7","5","6","5","5","6","5","5","6","5","5","5","3","6","790214171080925186","李","430","Male","[""坏他"",""好他"",""好我"",""坏我""]","[""弱他"",""强他"",""强我"",""弱我""]","","","","","","","","yes","","","","","","","","","SRET","EW_formal","","key","f","16.665276923076956","680","380","自己","热心","Positive","morality","","","","","","","","","","",""
"1054","","j","psychophysics","80","239144","0.0-7.0-3.0-0.66","5","4","5","5","6","4","4","4","5","5","5","-1","-1","0","1","-2","1","1","0","4","4","4","4","5","4","5","4","5","4","6","5","3","5","5","4","4","4","5","6","2","5","6","5","3","6","3","6","4","1","5","2","6","3","3","5","5","4","5","5","3","5","5","6","2","5","7","5","6","5","5","6","5","5","6","5","5","5","3","6","790214171080925186","李","430","Male","[""坏他"",""好他"",""好我"",""坏我""]","[""弱他"",""强他"",""强我"",""弱我""]","","","","","","","","no","","","","","","","","","SRET","EW_formal","","key","j","16.665902439024293","680","380","自己","上进","Positive","ability","","","","","","","","","","",""
"797","","j","psychophysics","81","240948","0.0-7.0-3.0-0.67","5","4","5","5","6","4","4","4","5","5","5","-1","-1","0","1","-2","1","1","0","4","4","4","4","5","4","5","4","5","4","6","5","3","5","5","4","4","4","5","6","2","5","6","5","3","6","3","6","4","1","5","2","6","3","3","5","5","4","5","5","3","5","5","6","2","5","7","5","6","5","5","6","5","5","6","5","5","5","3","6","790214171080925186","李","430","Male","[""坏他"",""好他"",""好我"",""坏我""]","[""弱他"",""强他"",""强我"",""弱我""]","","","","","","","","no","","","","","","","","","SRET","EW_formal","","key","j","16.666495327102826","680","380","自己","博学","Positive","ability","","","","","","","","","","",""
"1071","","j","psychophysics","82","243023","0.0-7.0-3.0-0.68","5","4","5","5","6","4","4","4","5","5","5","-1","-1","0","1","-2","1","1","0","4","4","4","4","5","4","5","4","5","4","6","5","3","5","5","4","4","4","5","6","2","5","6","5","3","6","3","6","4","1","5","2","6","3","3","5","5","4","5","5","3","5","5","6","2","5","7","5","6","5","5","6","5","5","6","5","5","5","3","6","790214171080925186","李","430","Male","[""坏他"",""好他"",""好我"",""坏我""]","[""弱他"",""强他"",""强我"",""弱我""]","","","","","","","","no","","","","","","","","","SRET","EW_formal","","key","j","16.66593495934962","680","380","朋友","独断","Negative","ability","","","","","","","","","","",""
"857","","f","psychophysics","83","244884","0.0-7.0-3.0-0.69","5","4","5","5","6","4","4","4","5","5","5","-1","-1","0","1","-2","1","1","0","4","4","4","4","5","4","5","4","5","4","6","5","3","5","5","4","4","4","5","6","2","5","6","5","3","6","3","6","4","1","5","2","6","3","3","5","5","4","5","5","3","5","5","6","2","5","7","5","6","5","5","6","5","5","6","5","5","5","3","6","790214171080925186","李","430","Male","[""坏他"",""好他"",""好我"",""坏我""]","[""弱他"",""强他"",""强我"",""弱我""]","","","","","","","","yes","","","","","","","","","SRET","EW_formal","","key","f","16.66550450450463","680","380","朋友","顶事","Positive","ability","","","","","","","","","","",""
"812","","j","psychophysics","84","246700","0.0-7.0-3.0-0.70","5","4","5","5","6","4","4","4","5","5","5","-1","-1","0","1","-2","1","1","0","4","4","4","4","5","4","5","4","5","4","6","5","3","5","5","4","4","4","5","6","2","5","6","5","3","6","3","6","4","1","5","2","6","3","3","5","5","4","5","5","3","5","5","6","2","5","7","5","6","5","5","6","5","5","6","5","5","5","3","6","790214171080925186","李","430","Male","[""坏他"",""好他"",""好我"",""坏我""]","[""弱他"",""强他"",""强我"",""弱我""]","","","","","","","","no","","","","","","","","","SRET","EW_formal","","key","j","16.66542592592601","680","380","自己","全才","Positive","ability","","","","","","","","","","",""
"926","","f","psychophysics","85","248629","0.0-7.0-3.0-0.71","5","4","5","5","6","4","4","4","5","5","5","-1","-1","0","1","-2","1","1","0","4","4","4","4","5","4","5","4","5","4","6","5","3","5","5","4","4","4","5","6","2","5","6","5","3","6","3","6","4","1","5","2","6","3","3","5","5","4","5","5","3","5","5","6","2","5","7","5","6","5","5","6","5","5","6","5","5","5","3","6","790214171080925186","李","430","Male","[""坏他"",""好他"",""好我"",""坏我""]","[""弱他"",""强他"",""强我"",""弱我""]","","","","","","","","yes","","","","","","","","","SRET","EW_formal","","key","f","16.665208695652012","680","380","自己","浅薄","Negative","ability","","","","","","","","","","",""
"1333","","f","psychophysics","86","250964","0.0-7.0-3.0-0.72","5","4","5","5","6","4","4","4","5","5","5","-1","-1","0","1","-2","1","1","0","4","4","4","4","5","4","5","4","5","4","6","5","3","5","5","4","4","4","5","6","2","5","6","5","3","6","3","6","4","1","5","2","6","3","3","5","5","4","5","5","3","5","5","6","2","5","7","5","6","5","5","6","5","5","6","5","5","5","3","6","790214171080925186","李","430","Male","[""坏他"",""好他"",""好我"",""坏我""]","[""弱他"",""强他"",""强我"",""弱我""]","","","","","","","","yes","","","","","","","","","SRET","EW_formal","","key","f","16.66515827338126","680","380","自己","君子","Positive","morality","","","","","","","","","","",""
"885","","j","psychophysics","87","252852","0.0-7.0-3.0-0.73","5","4","5","5","6","4","4","4","5","5","5","-1","-1","0","1","-2","1","1","0","4","4","4","4","5","4","5","4","5","4","6","5","3","5","5","4","4","4","5","6","2","5","6","5","3","6","3","6","4","1","5","2","6","3","3","5","5","4","5","5","3","5","5","6","2","5","7","5","6","5","5","6","5","5","6","5","5","5","3","6","790214171080925186","李","430","Male","[""坏他"",""好他"",""好我"",""坏我""]","[""弱他"",""强他"",""强我"",""弱我""]","","","","","","","","no","","","","","","","","","SRET","EW_formal","","key","j","16.665562500000046","680","380","朋友","拖拉","Negative","ability","","","","","","","","","","",""
"1168","","f","psychophysics","88","255025","0.0-7.0-3.0-0.74","5","4","5","5","6","4","4","4","5","5","5","-1","-1","0","1","-2","1","1","0","4","4","4","4","5","4","5","4","5","4","6","5","3","5","5","4","4","4","5","6","2","5","6","5","3","6","3","6","4","1","5","2","6","3","3","5","5","4","5","5","3","5","5","6","2","5","7","5","6","5","5","6","5","5","6","5","5","5","3","6","790214171080925186","李","430","Male","[""坏他"",""好他"",""好我"",""坏我""]","[""弱他"",""强他"",""强我"",""弱我""]","","","","","","","","yes","","","","","","","","","SRET","EW_formal","","key","f","16.665884615384634","680","380","朋友","奉献","Positive","morality","","","","","","","","","","",""
"717","","f","psychophysics","89","256749","0.0-7.0-3.0-0.75","5","4","5","5","6","4","4","4","5","5","5","-1","-1","0","1","-2","1","1","0","4","4","4","4","5","4","5","4","5","4","6","5","3","5","5","4","4","4","5","6","2","5","6","5","3","6","3","6","4","1","5","2","6","3","3","5","5","4","5","5","3","5","5","6","2","5","7","5","6","5","5","6","5","5","6","5","5","5","3","6","790214171080925186","李","430","Male","[""坏他"",""好他"",""好我"",""坏我""]","[""弱他"",""强他"",""强我"",""弱我""]","","","","","","","","yes","","","","","","","","","SRET","EW_formal","","key","f","16.666186274509812","680","380","朋友","敏捷","Positive","ability","","","","","","","","","","",""
"981","","j","psychophysics","90","258733","0.0-7.0-3.0-0.76","5","4","5","5","6","4","4","4","5","5","5","-1","-1","0","1","-2","1","1","0","4","4","4","4","5","4","5","4","5","4","6","5","3","5","5","4","4","4","5","6","2","5","6","5","3","6","3","6","4","1","5","2","6","3","3","5","5","4","5","5","3","5","5","6","2","5","7","5","6","5","5","6","5","5","6","5","5","5","3","6","790214171080925186","李","430","Male","[""坏他"",""好他"",""好我"",""坏我""]","[""弱他"",""强他"",""强我"",""弱我""]","","","","","","","","no","","","","","","","","","SRET","EW_formal","","key","j","18.72861904761909","680","380","朋友","淫乱","Negative","morality","","","","","","","","","","",""
"923","","j","psychophysics","91","260661","0.0-7.0-3.0-0.77","5","4","5","5","6","4","4","4","5","5","5","-1","-1","0","1","-2","1","1","0","4","4","4","4","5","4","5","4","5","4","6","5","3","5","5","4","4","4","5","6","2","5","6","5","3","6","3","6","4","1","5","2","6","3","3","5","5","4","5","5","3","5","5","6","2","5","7","5","6","5","5","6","5","5","6","5","5","5","3","6","790214171080925186","李","430","Male","[""坏他"",""好他"",""好我"",""坏我""]","[""弱他"",""强他"",""强我"",""弱我""]","","","","","","","","no","","","","","","","","","SRET","EW_formal","","key","j","16.66582608695658","680","380","朋友","下流","Negative","morality","","","","","","","","","","",""
"1132","","j","psychophysics","92","262796","0.0-7.0-3.0-0.78","5","4","5","5","6","4","4","4","5","5","5","-1","-1","0","1","-2","1","1","0","4","4","4","4","5","4","5","4","5","4","6","5","3","5","5","4","4","4","5","6","2","5","6","5","3","6","3","6","4","1","5","2","6","3","3","5","5","4","5","5","3","5","5","6","2","5","7","5","6","5","5","6","5","5","6","5","5","5","3","6","790214171080925186","李","430","Male","[""坏他"",""好他"",""好我"",""坏我""]","[""弱他"",""强他"",""强我"",""弱我""]","","","","","","","","no","","","","","","","","","SRET","EW_formal","","key","j","16.665385826771775","680","380","自己","高洁","Positive","morality","","","","","","","","","","",""
"726","","f","psychophysics","93","264526","0.0-7.0-3.0-0.79","5","4","5","5","6","4","4","4","5","5","5","-1","-1","0","1","-2","1","1","0","4","4","4","4","5","4","5","4","5","4","6","5","3","5","5","4","4","4","5","6","2","5","6","5","3","6","3","6","4","1","5","2","6","3","3","5","5","4","5","5","3","5","5","6","2","5","7","5","6","5","5","6","5","5","6","5","5","5","3","6","790214171080925186","李","430","Male","[""坏他"",""好他"",""好我"",""坏我""]","[""弱他"",""强他"",""强我"",""弱我""]","","","","","","","","yes","","","","","","","","","SRET","EW_formal","","key","f","16.665504854369132","680","380","朋友","勤恳","Positive","morality","","","","","","","","","","",""
"871","","f","psychophysics","94","266409","0.0-7.0-3.0-0.80","5","4","5","5","6","4","4","4","5","5","5","-1","-1","0","1","-2","1","1","0","4","4","4","4","5","4","5","4","5","4","6","5","3","5","5","4","4","4","5","6","2","5","6","5","3","6","3","6","4","1","5","2","6","3","3","5","5","4","5","5","3","5","5","6","2","5","7","5","6","5","5","6","5","5","6","5","5","5","3","6","790214171080925186","李","430","Male","[""坏他"",""好他"",""好我"",""坏我""]","[""弱他"",""强他"",""强我"",""弱我""]","","","","","","","","yes","","","","","","","","","SRET","EW_formal","","key","f","16.665732142856932","680","380","朋友","守时","Positive","morality","","","","","","","","","","",""
"1028","","f","psychophysics","95","268444","0.0-7.0-3.0-0.81","5","4","5","5","6","4","4","4","5","5","5","-1","-1","0","1","-2","1","1","0","4","4","4","4","5","4","5","4","5","4","6","5","3","5","5","4","4","4","5","6","2","5","6","5","3","6","3","6","4","1","5","2","6","3","3","5","5","4","5","5","3","5","5","6","2","5","7","5","6","5","5","6","5","5","6","5","5","5","3","6","790214171080925186","李","430","Male","[""坏他"",""好他"",""好我"",""坏我""]","[""弱他"",""强他"",""强我"",""弱我""]","","","","","","","","yes","","","","","","","","","SRET","EW_formal","","key","f","16.6658677685951","680","380","自己","努力","Positive","ability","","","","","","","","","","",""
"837","","f","psychophysics","96","270284","0.0-7.0-3.0-0.82","5","4","5","5","6","4","4","4","5","5","5","-1","-1","0","1","-2","1","1","0","4","4","4","4","5","4","5","4","5","4","6","5","3","5","5","4","4","4","5","6","2","5","6","5","3","6","3","6","4","1","5","2","6","3","3","5","5","4","5","5","3","5","5","6","2","5","7","5","6","5","5","6","5","5","6","5","5","5","3","6","790214171080925186","李","430","Male","[""坏他"",""好他"",""好我"",""坏我""]","[""弱他"",""强他"",""强我"",""弱我""]","","","","","","","","yes","","","","","","","","","SRET","EW_formal","","key","f","16.66552293577996","680","380","自己","文明","Positive","morality","","","","","","","","","","",""
"953","","f","psychophysics","97","272244","0.0-7.0-3.0-0.83","5","4","5","5","6","4","4","4","5","5","5","-1","-1","0","1","-2","1","1","0","4","4","4","4","5","4","5","4","5","4","6","5","3","5","5","4","4","4","5","6","2","5","6","5","3","6","3","6","4","1","5","2","6","3","3","5","5","4","5","5","3","5","5","6","2","5","7","5","6","5","5","6","5","5","6","5","5","5","3","6","790214171080925186","李","430","Male","[""坏他"",""好他"",""好我"",""坏我""]","[""弱他"",""强他"",""强我"",""弱我""]","","","","","","","","yes","","","","","","","","","SRET","EW_formal","","key","f","16.666957264957635","680","380","自己","偏私","Negative","morality","","","","","","","","","","",""
"965","","f","psychophysics","98","274212","0.0-7.0-3.0-0.84","5","4","5","5","6","4","4","4","5","5","5","-1","-1","0","1","-2","1","1","0","4","4","4","4","5","4","5","4","5","4","6","5","3","5","5","4","4","4","5","6","2","5","6","5","3","6","3","6","4","1","5","2","6","3","3","5","5","4","5","5","3","5","5","6","2","5","7","5","6","5","5","6","5","5","6","5","5","5","3","6","790214171080925186","李","430","Male","[""坏他"",""好他"",""好我"",""坏我""]","[""弱他"",""强他"",""强我"",""弱我""]","","","","","","","","yes","","","","","","","","","SRET","EW_formal","","key","f","16.66605982905986","680","380","朋友","素养","Positive","morality","","","","","","","","","","",""
"965","","f","psychophysics","99","276180","0.0-7.0-3.0-0.85","5","4","5","5","6","4","4","4","5","5","5","-1","-1","0","1","-2","1","1","0","4","4","4","4","5","4","5","4","5","4","6","5","3","5","5","4","4","4","5","6","2","5","6","5","3","6","3","6","4","1","5","2","6","3","3","5","5","4","5","5","3","5","5","6","2","5","7","5","6","5","5","6","5","5","6","5","5","5","3","6","790214171080925186","李","430","Male","[""坏他"",""好他"",""好我"",""坏我""]","[""弱他"",""强他"",""强我"",""弱我""]","","","","","","","","yes","","","","","","","","","SRET","EW_formal","","key","f","16.6656153846152","680","380","自己","缓慢","Negative","ability","","","","","","","","","","",""
"841","","j","psychophysics","100","278024","0.0-7.0-3.0-0.86","5","4","5","5","6","4","4","4","5","5","5","-1","-1","0","1","-2","1","1","0","4","4","4","4","5","4","5","4","5","4","6","5","3","5","5","4","4","4","5","6","2","5","6","5","3","6","3","6","4","1","5","2","6","3","3","5","5","4","5","5","3","5","5","6","2","5","7","5","6","5","5","6","5","5","6","5","5","5","3","6","790214171080925186","李","430","Male","[""坏他"",""好他"",""好我"",""坏我""]","[""弱他"",""强他"",""强我"",""弱我""]","","","","","","","","no","","","","","","","","","SRET","EW_formal","","key","j","16.818266055045793","680","380","朋友","低俗","Negative","morality","","","","","","","","","","",""
"959","","j","psychophysics","101","279990","0.0-7.0-3.0-0.87","5","4","5","5","6","4","4","4","5","5","5","-1","-1","0","1","-2","1","1","0","4","4","4","4","5","4","5","4","5","4","6","5","3","5","5","4","4","4","5","6","2","5","6","5","3","6","3","6","4","1","5","2","6","3","3","5","5","4","5","5","3","5","5","6","2","5","7","5","6","5","5","6","5","5","6","5","5","5","3","6","790214171080925186","李","430","Male","[""坏他"",""好他"",""好我"",""坏我""]","[""弱他"",""强他"",""强我"",""弱我""]","","","","","","","","no","","","","","","","","","SRET","EW_formal","","key","j","16.665452991453055","680","380","自己","主见","Positive","ability","","","","","","","","","","",""
"1766","
    <p><div style='color:white;font-size:35px; line-height:20px;'>计算任务</div></p><br>
    <p><div style='color:red;font-size:25px; line-height:20px;'>接下来，您将看到一些四则运算题，<b>请从键盘选择 0-9 进行反应。</b></div></p>
    <p><div style='color:red;font-size:25px; line-height:20px;'>请尽可能快地进行计算，计算的速度和正确率将影响报酬的发放。</div></p>
    <p><div class='footer' style='color:white;font-size:25px; line-height:20px;'>如果对本实验还有不清楚之处，请立即向实验员咨询。</p><p style='color:white;font-size:25px; line-height:20px;'>如果您明白了规则：</p><p style='color:white;font-size:22px; line-height:20px;'>请按 继续 进入练习</p>
    </div>
    ","0","html-button-response","102","281759","0.0-7.0-4.0","5","4","5","5","6","4","4","4","5","5","5","-1","-1","0","1","-2","1","1","0","4","4","4","4","5","4","5","4","5","4","6","5","3","5","5","4","4","4","5","6","2","5","6","5","3","6","3","6","4","1","5","2","6","3","3","5","5","4","5","5","3","5","5","6","2","5","7","5","6","5","5","6","5","5","6","5","5","5","3","6","790214171080925186","李","430","Male","[""坏他"",""好他"",""好我"",""坏我""]","[""弱他"",""强他"",""强我"",""弱我""]","","","","","","","","","","","","","","","","","SRET_math","math_instructions","Tue Jan 30 2024 09:27:17 GMT+0800 (中国标准时间)","","","","","","","","","","","","","","","","","","","",""
"2055","","3","psychophysics","103","283822","0.0-7.0-5.0-0.0","5","4","5","5","6","4","4","4","5","5","5","-1","-1","0","1","-2","1","1","0","4","4","4","4","5","4","5","4","5","4","6","5","3","5","5","4","4","4","5","6","2","5","6","5","3","6","3","6","4","1","5","2","6","3","3","5","5","4","5","5","3","5","5","6","2","5","7","5","6","5","5","6","5","5","6","5","5","5","3","6","790214171080925186","李","430","Male","[""坏他"",""好他"",""好我"",""坏我""]","[""弱他"",""强他"",""强我"",""弱我""]","","","","","","","","3","","","","","","","","","SRET","SRET_math_calculate","","key","3","16.6660487804878","680","380","","","","","6/2= ?","3","1","","","","","","","",""
"1865","","5","psychophysics","104","285692","0.0-7.0-5.0-0.1","5","4","5","5","6","4","4","4","5","5","5","-1","-1","0","1","-2","1","1","0","4","4","4","4","5","4","5","4","5","4","6","5","3","5","5","4","4","4","5","6","2","5","6","5","3","6","3","6","4","1","5","2","6","3","3","5","5","4","5","5","3","5","5","6","2","5","7","5","6","5","5","6","5","5","6","5","5","5","3","6","790214171080925186","李","430","Male","[""坏他"",""好他"",""好我"",""坏我""]","[""弱他"",""强他"",""强我"",""弱我""]","","","","","","","","5","","","","","","","","","SRET","SRET_math_calculate","","key","5","16.665839285713965","680","380","","","","","10-5= ?","5","1","","","","","","","",""
"1997","","7","psychophysics","105","287692","0.0-7.0-5.0-0.2","5","4","5","5","6","4","4","4","5","5","5","-1","-1","0","1","-2","1","1","0","4","4","4","4","5","4","5","4","5","4","6","5","3","5","5","4","4","4","5","6","2","5","6","5","3","6","3","6","4","1","5","2","6","3","3","5","5","4","5","5","3","5","5","6","2","5","7","5","6","5","5","6","5","5","6","5","5","5","3","6","790214171080925186","李","430","Male","[""坏他"",""好他"",""好我"",""坏我""]","[""弱他"",""强他"",""强我"",""弱我""]","","","","","","","","7","","","","","","","","","SRET","SRET_math_calculate","","key","7","16.666109243697417","680","380","","","","","21/3= ? ","7","1","","","","","","","",""
"1788","","9","psychophysics","106","289484","0.0-7.0-5.0-0.3","5","4","5","5","6","4","4","4","5","5","5","-1","-1","0","1","-2","1","1","0","4","4","4","4","5","4","5","4","5","4","6","5","3","5","5","4","4","4","5","6","2","5","6","5","3","6","3","6","4","1","5","2","6","3","3","5","5","4","5","5","3","5","5","6","2","5","7","5","6","5","5","6","5","5","6","5","5","5","3","6","790214171080925186","李","430","Male","[""坏他"",""好他"",""好我"",""坏我""]","[""弱他"",""强他"",""强我"",""弱我""]","","","","","","","","9","","","","","","","","","SRET","SRET_math_calculate","","key","9","16.665915094339617","680","380","","","","","7+2= ?","9","1","","","","","","","",""
"1856","","9","psychophysics","107","291348","0.0-7.0-5.0-0.4","5","4","5","5","6","4","4","4","5","5","5","-1","-1","0","1","-2","1","1","0","4","4","4","4","5","4","5","4","5","4","6","5","3","5","5","4","4","4","5","6","2","5","6","5","3","6","3","6","4","1","5","2","6","3","3","5","5","4","5","5","3","5","5","6","2","5","7","5","6","5","5","6","5","5","6","5","5","5","3","6","790214171080925186","李","430","Male","[""坏他"",""好他"",""好我"",""坏我""]","[""弱他"",""强他"",""强我"",""弱我""]","","","","","","","","9","","","","","","","","","SRET","SRET_math_calculate","","key","9","16.66580180180215","680","380","","","","","18/2= ?","9","1","","","","","","","",""
"1886","","7","psychophysics","108","293244","0.0-7.0-5.0-0.5","5","4","5","5","6","4","4","4","5","5","5","-1","-1","0","1","-2","1","1","0","4","4","4","4","5","4","5","4","5","4","6","5","3","5","5","4","4","4","5","6","2","5","6","5","3","6","3","6","4","1","5","2","6","3","3","5","5","4","5","5","3","5","5","6","2","5","7","5","6","5","5","6","5","5","6","5","5","5","3","6","790214171080925186","李","430","Male","[""坏他"",""好他"",""好我"",""坏我""]","[""弱他"",""强他"",""强我"",""弱我""]","","","","","","","","7","","","","","","","","","SRET","SRET_math_calculate","","key","7","16.66577876106201","680","380","","","","","7*1=  ?","7","1","","","","","","","",""
"1694","","5","psychophysics","109","294940","0.0-7.0-5.0-0.6","5","4","5","5","6","4","4","4","5","5","5","-1","-1","0","1","-2","1","1","0","4","4","4","4","5","4","5","4","5","4","6","5","3","5","5","4","4","4","5","6","2","5","6","5","3","6","3","6","4","1","5","2","6","3","3","5","5","4","5","5","3","5","5","6","2","5","7","5","6","5","5","6","5","5","6","5","5","5","3","6","790214171080925186","李","430","Male","[""坏他"",""好他"",""好我"",""坏我""]","[""弱他"",""强他"",""强我"",""弱我""]","","","","","","","","5","","","","","","","","","SRET","SRET_math_calculate","","key","5","16.666000000000032","680","380","","","","","15-10= ?","5","1","","","","","","","",""
"1999","","0","psychophysics","110","296941","0.0-7.0-5.0-0.7","5","4","5","5","6","4","4","4","5","5","5","-1","-1","0","1","-2","1","1","0","4","4","4","4","5","4","5","4","5","4","6","5","3","5","5","4","4","4","5","6","2","5","6","5","3","6","3","6","4","1","5","2","6","3","3","5","5","4","5","5","3","5","5","6","2","5","7","5","6","5","5","6","5","5","6","5","5","5","3","6","790214171080925186","李","430","Male","[""坏他"",""好他"",""好我"",""坏我""]","[""弱他"",""强他"",""强我"",""弱我""]","","","","","","","","0","","","","","","","","","SRET","SRET_math_calculate","","key","0","16.66563865546227","680","380","","","","","22-22= ?","0","1","","","","","","","",""
"1780","","7","psychophysics","111","298724","0.0-7.0-5.0-0.8","5","4","5","5","6","4","4","4","5","5","5","-1","-1","0","1","-2","1","1","0","4","4","4","4","5","4","5","4","5","4","6","5","3","5","5","4","4","4","5","6","2","5","6","5","3","6","3","6","4","1","5","2","6","3","3","5","5","4","5","5","3","5","5","6","2","5","7","5","6","5","5","6","5","5","6","5","5","5","3","6","790214171080925186","李","430","Male","[""坏他"",""好他"",""好我"",""坏我""]","[""弱他"",""强他"",""强我"",""弱我""]","","","","","","","","7","","","","","","","","","SRET","SRET_math_calculate","","key","7","16.66605660377371","680","380","","","","","6+1= ?","7","1","","","","","","","",""
"1886","","2","psychophysics","112","300612","0.0-7.0-5.0-0.9","5","4","5","5","6","4","4","4","5","5","5","-1","-1","0","1","-2","1","1","0","4","4","4","4","5","4","5","4","5","4","6","5","3","5","5","4","4","4","5","6","2","5","6","5","3","6","3","6","4","1","5","2","6","3","3","5","5","4","5","5","3","5","5","6","2","5","7","5","6","5","5","6","5","5","6","5","5","5","3","6","790214171080925186","李","430","Male","[""坏他"",""好他"",""好我"",""坏我""]","[""弱他"",""强他"",""强我"",""弱我""]","","","","","","","","2","","","","","","","","","SRET","SRET_math_calculate","","key","2","16.665366071428643","680","380","","","","","8/4= ?","2","1","","","","","","","",""
"1858","","9","psychophysics","113","302472","0.0-7.0-5.0-0.10","5","4","5","5","6","4","4","4","5","5","5","-1","-1","0","1","-2","1","1","0","4","4","4","4","5","4","5","4","5","4","6","5","3","5","5","4","4","4","5","6","2","5","6","5","3","6","3","6","4","1","5","2","6","3","3","5","5","4","5","5","3","5","5","6","2","5","7","5","6","5","5","6","5","5","6","5","5","5","3","6","790214171080925186","李","430","Male","[""坏他"",""好他"",""好我"",""坏我""]","[""弱他"",""强他"",""强我"",""弱我""]","","","","","","","","9","","","","","","","","","SRET","SRET_math_calculate","","key","9","16.665819819819976","680","380","","","","","1*9= ?","9","1","","","","","","","",""
"1749","","8","psychophysics","114","304223","0.0-7.0-5.0-0.11","5","4","5","5","6","4","4","4","5","5","5","-1","-1","0","1","-2","1","1","0","4","4","4","4","5","4","5","4","5","4","6","5","3","5","5","4","4","4","5","6","2","5","6","5","3","6","3","6","4","1","5","2","6","3","3","5","5","4","5","5","3","5","5","6","2","5","7","5","6","5","5","6","5","5","6","5","5","5","3","6","790214171080925186","李","430","Male","[""坏他"",""好他"",""好我"",""坏我""]","[""弱他"",""强他"",""强我"",""弱我""]","","","","","","","","8","","","","","","","","","SRET","SRET_math_calculate","","key","8","16.66583653846129","680","380","","","","","9-1= ?","8","1","","","","","","","",""
"1913","","2","psychophysics","115","306141","0.0-7.0-5.0-0.12","5","4","5","5","6","4","4","4","5","5","5","-1","-1","0","1","-2","1","1","0","4","4","4","4","5","4","5","4","5","4","6","5","3","5","5","4","4","4","5","6","2","5","6","5","3","6","3","6","4","1","5","2","6","3","3","5","5","4","5","5","3","5","5","6","2","5","7","5","6","5","5","6","5","5","6","5","5","5","3","6","790214171080925186","李","430","Male","[""坏他"",""好他"",""好我"",""坏我""]","[""弱他"",""强他"",""强我"",""弱我""]","","","","","","","","2","","","","","","","","","SRET","SRET_math_calculate","","key","2","16.81362831858409","680","380","","","","","8-6= ?","2","1","","","","","","","",""
"1811","","4","psychophysics","116","307956","0.0-7.0-5.0-0.13","5","4","5","5","6","4","4","4","5","5","5","-1","-1","0","1","-2","1","1","0","4","4","4","4","5","4","5","4","5","4","6","5","3","5","5","4","4","4","5","6","2","5","6","5","3","6","3","6","4","1","5","2","6","3","3","5","5","4","5","5","3","5","5","6","2","5","7","5","6","5","5","6","5","5","6","5","5","5","3","6","790214171080925186","李","430","Male","[""坏他"",""好他"",""好我"",""坏我""]","[""弱他"",""强他"",""强我"",""弱我""]","","","","","","","","4","","","","","","","","","SRET","SRET_math_calculate","","key","4","16.666194444444113","680","380","","","","","2+2= ?","4","1","","","","","","","",""
"1822","","3","psychophysics","117","309780","0.0-7.0-5.0-0.14","5","4","5","5","6","4","4","4","5","5","5","-1","-1","0","1","-2","1","1","0","4","4","4","4","5","4","5","4","5","4","6","5","3","5","5","4","4","4","5","6","2","5","6","5","3","6","3","6","4","1","5","2","6","3","3","5","5","4","5","5","3","5","5","6","2","5","7","5","6","5","5","6","5","5","6","5","5","5","3","6","790214171080925186","李","430","Male","[""坏他"",""好他"",""好我"",""坏我""]","[""弱他"",""强他"",""强我"",""弱我""]","","","","","","","","3","","","","","","","","","SRET","SRET_math_calculate","","key","3","16.665916666666615","680","380","","","","","12/4= ?","3","1","","","","","","","",""
"1798","","3","psychophysics","118","311623","0.0-7.0-5.0-0.15","5","4","5","5","6","4","4","4","5","5","5","-1","-1","0","1","-2","1","1","0","4","4","4","4","5","4","5","4","5","4","6","5","3","5","5","4","4","4","5","6","2","5","6","5","3","6","3","6","4","1","5","2","6","3","3","5","5","4","5","5","3","5","5","6","2","5","7","5","6","5","5","6","5","5","6","5","5","5","3","6","790214171080925186","李","430","Male","[""坏他"",""好他"",""好我"",""坏我""]","[""弱他"",""强他"",""强我"",""弱我""]","","","","","","","","3","","","","","","","","","SRET","SRET_math_calculate","","key","3","16.8192660550463","680","380","","","","","8-5= ?","3","1","","","","","","","",""
"1787","","5","psychophysics","119","313413","0.0-7.0-5.0-0.16","5","4","5","5","6","4","4","4","5","5","5","-1","-1","0","1","-2","1","1","0","4","4","4","4","5","4","5","4","5","4","6","5","3","5","5","4","4","4","5","6","2","5","6","5","3","6","3","6","4","1","5","2","6","3","3","5","5","4","5","5","3","5","5","6","2","5","7","5","6","5","5","6","5","5","6","5","5","5","3","6","790214171080925186","李","430","Male","[""坏他"",""好他"",""好我"",""坏我""]","[""弱他"",""强他"",""强我"",""弱我""]","","","","","","","","5","","","","","","","","","SRET","SRET_math_calculate","","key","5","16.666056603773164","680","380","","","","","8-3= ? ","5","1","","","","","","","",""
"1889","","0","psychophysics","120","315304","0.0-7.0-5.0-0.17","5","4","5","5","6","4","4","4","5","5","5","-1","-1","0","1","-2","1","1","0","4","4","4","4","5","4","5","4","5","4","6","5","3","5","5","4","4","4","5","6","2","5","6","5","3","6","3","6","4","1","5","2","6","3","3","5","5","4","5","5","3","5","5","6","2","5","7","5","6","5","5","6","5","5","6","5","5","5","3","6","790214171080925186","李","430","Male","[""坏他"",""好他"",""好我"",""坏我""]","[""弱他"",""强他"",""强我"",""弱我""]","","","","","","","","0","","","","","","","","","SRET","SRET_math_calculate","","key","0","16.66609821428574","680","380","","","","","6*0= ?","0","1","","","","","","","",""
"1792","","6","psychophysics","121","317103","0.0-7.0-5.0-0.18","5","4","5","5","6","4","4","4","5","5","5","-1","-1","0","1","-2","1","1","0","4","4","4","4","5","4","5","4","5","4","6","5","3","5","5","4","4","4","5","6","2","5","6","5","3","6","3","6","4","1","5","2","6","3","3","5","5","4","5","5","3","5","5","6","2","5","7","5","6","5","5","6","5","5","6","5","5","5","3","6","790214171080925186","李","430","Male","[""坏他"",""好他"",""好我"",""坏我""]","[""弱他"",""强他"",""强我"",""弱我""]","","","","","","","","6","","","","","","","","","SRET","SRET_math_calculate","","key","6","16.665934579439295","680","380","","","","","9-3= ?","6","1","","","","","","","",""
"1946","","7","psychophysics","122","319055","0.0-7.0-5.0-0.19","5","4","5","5","6","4","4","4","5","5","5","-1","-1","0","1","-2","1","1","0","4","4","4","4","5","4","5","4","5","4","6","5","3","5","5","4","4","4","5","6","2","5","6","5","3","6","3","6","4","1","5","2","6","3","3","5","5","4","5","5","3","5","5","6","2","5","7","5","6","5","5","6","5","5","6","5","5","5","3","6","790214171080925186","李","430","Male","[""坏他"",""好他"",""好我"",""坏我""]","[""弱他"",""强他"",""强我"",""弱我""]","","","","","","","","7","","","","","","","","","SRET","SRET_math_calculate","","key","7","16.665991379310384","680","380","","","","","13-6= ?","7","1","","","","","","","",""
"2056","","8","psychophysics","123","321117","0.0-7.0-5.0-0.20","5","4","5","5","6","4","4","4","5","5","5","-1","-1","0","1","-2","1","1","0","4","4","4","4","5","4","5","4","5","4","6","5","3","5","5","4","4","4","5","6","2","5","6","5","3","6","3","6","4","1","5","2","6","3","3","5","5","4","5","5","3","5","5","6","2","5","7","5","6","5","5","6","5","5","6","5","5","5","3","6","790214171080925186","李","430","Male","[""坏他"",""好他"",""好我"",""坏我""]","[""弱他"",""强他"",""强我"",""弱我""]","","","","","","","","8","","","","","","","","","SRET","SRET_math_calculate","","key","8","16.66564227642285","680","380","","","","","1*8= ?","8","1","","","","","","","",""
"1829","","7","psychophysics","124","322956","0.0-7.0-5.0-0.21","5","4","5","5","6","4","4","4","5","5","5","-1","-1","0","1","-2","1","1","0","4","4","4","4","5","4","5","4","5","4","6","5","3","5","5","4","4","4","5","6","2","5","6","5","3","6","3","6","4","1","5","2","6","3","3","5","5","4","5","5","3","5","5","6","2","5","7","5","6","5","5","6","5","5","6","5","5","5","3","6","790214171080925186","李","430","Male","[""坏他"",""好他"",""好我"",""坏我""]","[""弱他"",""强他"",""强我"",""弱我""]","","","","","","","","7","","","","","","","","","SRET","SRET_math_calculate","","key","7","16.66574545454509","680","380","","","","","2+5= ?","7","1","","","","","","","",""
"1838","","9","psychophysics","125","324796","0.0-7.0-5.0-0.22","5","4","5","5","6","4","4","4","5","5","5","-1","-1","0","1","-2","1","1","0","4","4","4","4","5","4","5","4","5","4","6","5","3","5","5","4","4","4","5","6","2","5","6","5","3","6","3","6","4","1","5","2","6","3","3","5","5","4","5","5","3","5","5","6","2","5","7","5","6","5","5","6","5","5","6","5","5","5","3","6","790214171080925186","李","430","Male","[""坏他"",""好他"",""好我"",""坏我""]","[""弱他"",""强他"",""强我"",""弱我""]","","","","","","","","9","","","","","","","","","SRET","SRET_math_calculate","","key","9","16.66626605504607","680","380","","","","","4+5= ?","9","1","","","","","","","",""
"1824","","5","psychophysics","126","326623","0.0-7.0-5.0-0.23","5","4","5","5","6","4","4","4","5","5","5","-1","-1","0","1","-2","1","1","0","4","4","4","4","5","4","5","4","5","4","6","5","3","5","5","4","4","4","5","6","2","5","6","5","3","6","3","6","4","1","5","2","6","3","3","5","5","4","5","5","3","5","5","6","2","5","7","5","6","5","5","6","5","5","6","5","5","5","3","6","790214171080925186","李","430","Male","[""坏他"",""好他"",""好我"",""坏我""]","[""弱他"",""强他"",""强我"",""弱我""]","","","","","","","","5","","","","","","","","","SRET","SRET_math_calculate","","key","5","16.66507339449557","680","380","","","","","4+1= ?","5","1","","","","","","","",""
"1868","","9","psychophysics","127","328492","0.0-7.0-5.0-0.24","5","4","5","5","6","4","4","4","5","5","5","-1","-1","0","1","-2","1","1","0","4","4","4","4","5","4","5","4","5","4","6","5","3","5","5","4","4","4","5","6","2","5","6","5","3","6","3","6","4","1","5","2","6","3","3","5","5","4","5","5","3","5","5","6","2","5","7","5","6","5","5","6","5","5","6","5","5","5","3","6","790214171080925186","李","430","Male","[""坏他"",""好他"",""好我"",""坏我""]","[""弱他"",""强他"",""强我"",""弱我""]","","","","","","","","9","","","","","","","","","SRET","SRET_math_calculate","","key","9","16.66564864864854","680","380","","","","","3*3= ?","9","1","","","","","","","",""
"1998","","8","psychophysics","128","330493","0.0-7.0-5.0-0.25","5","4","5","5","6","4","4","4","5","5","5","-1","-1","0","1","-2","1","1","0","4","4","4","4","5","4","5","4","5","4","6","5","3","5","5","4","4","4","5","6","2","5","6","5","3","6","3","6","4","1","5","2","6","3","3","5","5","4","5","5","3","5","5","6","2","5","7","5","6","5","5","6","5","5","6","5","5","5","3","6","790214171080925186","李","430","Male","[""坏他"",""好他"",""好我"",""坏我""]","[""弱他"",""强他"",""强我"",""弱我""]","","","","","","","","8","","","","","","","","","SRET","SRET_math_calculate","","key","8","16.665495798319476","680","380","","","","","13-5= ?","8","1","","","","","","","",""
"1712","","9","psychophysics","129","332244","0.0-7.0-5.0-0.26","5","4","5","5","6","4","4","4","5","5","5","-1","-1","0","1","-2","1","1","0","4","4","4","4","5","4","5","4","5","4","6","5","3","5","5","4","4","4","5","6","2","5","6","5","3","6","3","6","4","1","5","2","6","3","3","5","5","4","5","5","3","5","5","6","2","5","7","5","6","5","5","6","5","5","6","5","5","5","3","6","790214171080925186","李","430","Male","[""坏他"",""好他"",""好我"",""坏我""]","[""弱他"",""强他"",""强我"",""弱我""]","","","","","","","","9","","","","","","","","","SRET","SRET_math_calculate","","key","9","16.827485436893483","680","380","","","","","5+4= ?","9","1","","","","","","","",""
"1750","","8","psychophysics","130","333997","0.0-7.0-5.0-0.27","5","4","5","5","6","4","4","4","5","5","5","-1","-1","0","1","-2","1","1","0","4","4","4","4","5","4","5","4","5","4","6","5","3","5","5","4","4","4","5","6","2","5","6","5","3","6","3","6","4","1","5","2","6","3","3","5","5","4","5","5","3","5","5","6","2","5","7","5","6","5","5","6","5","5","6","5","5","5","3","6","790214171080925186","李","430","Male","[""坏他"",""好他"",""好我"",""坏我""]","[""弱他"",""强他"",""强我"",""弱我""]","","","","","","","","8","","","","","","","","","SRET","SRET_math_calculate","","key","8","16.66573076923053","680","380","","","","","3+5= ?","8","1","","","","","","","",""
"1881","","4","psychophysics","131","335889","0.0-7.0-5.0-0.28","5","4","5","5","6","4","4","4","5","5","5","-1","-1","0","1","-2","1","1","0","4","4","4","4","5","4","5","4","5","4","6","5","3","5","5","4","4","4","5","6","2","5","6","5","3","6","3","6","4","1","5","2","6","3","3","5","5","4","5","5","3","5","5","6","2","5","7","5","6","5","5","6","5","5","6","5","5","5","3","6","790214171080925186","李","430","Male","[""坏他"",""好他"",""好我"",""坏我""]","[""弱他"",""强他"",""强我"",""弱我""]","","","","","","","","4","","","","","","","","","SRET","SRET_math_calculate","","key","4","16.665610619468833","680","380","","","","","4*1= ?","4","1","","","","","","","",""
"1762","","7","psychophysics","132","337655","0.0-7.0-5.0-0.29","5","4","5","5","6","4","4","4","5","5","5","-1","-1","0","1","-2","1","1","0","4","4","4","4","5","4","5","4","5","4","6","5","3","5","5","4","4","4","5","6","2","5","6","5","3","6","3","6","4","1","5","2","6","3","3","5","5","4","5","5","3","5","5","6","2","5","7","5","6","5","5","6","5","5","6","5","5","5","3","6","790214171080925186","李","430","Male","[""坏他"",""好他"",""好我"",""坏我""]","[""弱他"",""强他"",""强我"",""弱我""]","","","","","","","","7","","","","","","","","","SRET","SRET_math_calculate","","key","7","16.665666666666844","680","380","","","","","12-5= ?","7","1","","","","","","","",""
"1831","","3","psychophysics","133","339489","0.0-7.0-5.0-0.30","5","4","5","5","6","4","4","4","5","5","5","-1","-1","0","1","-2","1","1","0","4","4","4","4","5","4","5","4","5","4","6","5","3","5","5","4","4","4","5","6","2","5","6","5","3","6","3","6","4","1","5","2","6","3","3","5","5","4","5","5","3","5","5","6","2","5","7","5","6","5","5","6","5","5","6","5","5","5","3","6","790214171080925186","李","430","Male","[""坏他"",""好他"",""好我"",""坏我""]","[""弱他"",""强他"",""强我"",""弱我""]","","","","","","","","3","","","","","","","","","SRET","SRET_math_calculate","","key","3","16.665917431192852","680","380","","","","","3+0= ?","3","1","","","","","","","",""
"2095","","3","psychophysics","134","341588","0.0-7.0-5.0-0.31","5","4","5","5","6","4","4","4","5","5","5","-1","-1","0","1","-2","1","1","0","4","4","4","4","5","4","5","4","5","4","6","5","3","5","5","4","4","4","5","6","2","5","6","5","3","6","3","6","4","1","5","2","6","3","3","5","5","4","5","5","3","5","5","6","2","5","7","5","6","5","5","6","5","5","6","5","5","5","3","6","790214171080925186","李","430","Male","[""坏他"",""好他"",""好我"",""坏我""]","[""弱他"",""强他"",""强我"",""弱我""]","","","","","","","","3","","","","","","","","","SRET","SRET_math_calculate","","key","3","16.66547200000007","680","380","","","","","9/3= ?","3","1","","","","","","","",""
"1886","","7","psychophysics","135","343476","0.0-7.0-5.0-0.32","5","4","5","5","6","4","4","4","5","5","5","-1","-1","0","1","-2","1","1","0","4","4","4","4","5","4","5","4","5","4","6","5","3","5","5","4","4","4","5","6","2","5","6","5","3","6","3","6","4","1","5","2","6","3","3","5","5","4","5","5","3","5","5","6","2","5","7","5","6","5","5","6","5","5","6","5","5","5","3","6","790214171080925186","李","430","Male","[""坏他"",""好他"",""好我"",""坏我""]","[""弱他"",""强他"",""强我"",""弱我""]","","","","","","","","7","","","","","","","","","SRET","SRET_math_calculate","","key","7","16.665580357142712","680","380","","","","","11-4= ?","7","1","","","","","","","",""
"1950","","0","psychophysics","136","345429","0.0-7.0-5.0-0.33","5","4","5","5","6","4","4","4","5","5","5","-1","-1","0","1","-2","1","1","0","4","4","4","4","5","4","5","4","5","4","6","5","3","5","5","4","4","4","5","6","2","5","6","5","3","6","3","6","4","1","5","2","6","3","3","5","5","4","5","5","3","5","5","6","2","5","7","5","6","5","5","6","5","5","6","5","5","5","3","6","790214171080925186","李","430","Male","[""坏他"",""好他"",""好我"",""坏我""]","[""弱他"",""强他"",""强我"",""弱我""]","","","","","","","","0","","","","","","","","","SRET","SRET_math_calculate","","key","0","16.665724137930926","680","380","","","","","9-9= ?","0","1","","","","","","","",""
"1831","","5","psychophysics","137","347271","0.0-7.0-5.0-0.34","5","4","5","5","6","4","4","4","5","5","5","-1","-1","0","1","-2","1","1","0","4","4","4","4","5","4","5","4","5","4","6","5","3","5","5","4","4","4","5","6","2","5","6","5","3","6","3","6","4","1","5","2","6","3","3","5","5","4","5","5","3","5","5","6","2","5","7","5","6","5","5","6","5","5","6","5","5","5","3","6","790214171080925186","李","430","Male","[""坏他"",""好他"",""好我"",""坏我""]","[""弱他"",""强他"",""强我"",""弱我""]","","","","","","","","5","","","","","","","","","SRET","SRET_math_calculate","","key","5","16.66618181818207","680","380","","","","","9-4= ?","5","1","","","","","","","",""
"1862","","4","psychophysics","138","349137","0.0-7.0-5.0-0.35","5","4","5","5","6","4","4","4","5","5","5","-1","-1","0","1","-2","1","1","0","4","4","4","4","5","4","5","4","5","4","6","5","3","5","5","4","4","4","5","6","2","5","6","5","3","6","3","6","4","1","5","2","6","3","3","5","5","4","5","5","3","5","5","6","2","5","7","5","6","5","5","6","5","5","6","5","5","5","3","6","790214171080925186","李","430","Male","[""坏他"",""好他"",""好我"",""坏我""]","[""弱他"",""强他"",""强我"",""弱我""]","","","","","","","","4","","","","","","","","","SRET","SRET_math_calculate","","key","4","16.665081818182212","680","380","","","","","8-4= ?","4","1","","","","","","","",""
"1838","","9","psychophysics","139","350980","0.0-7.0-5.0-0.36","5","4","5","5","6","4","4","4","5","5","5","-1","-1","0","1","-2","1","1","0","4","4","4","4","5","4","5","4","5","4","6","5","3","5","5","4","4","4","5","6","2","5","6","5","3","6","3","6","4","1","5","2","6","3","3","5","5","4","5","5","3","5","5","6","2","5","7","5","6","5","5","6","5","5","6","5","5","5","3","6","790214171080925186","李","430","Male","[""坏他"",""好他"",""好我"",""坏我""]","[""弱他"",""强他"",""强我"",""弱我""]","","","","","","","","9","","","","","","","","","SRET","SRET_math_calculate","","key","9","16.665918181818085","680","380","","","","","1+8= ?","9","1","","","","","","","",""
"1959","","7","psychophysics","140","352940","0.0-7.0-5.0-0.37","5","4","5","5","6","4","4","4","5","5","5","-1","-1","0","1","-2","1","1","0","4","4","4","4","5","4","5","4","5","4","6","5","3","5","5","4","4","4","5","6","2","5","6","5","3","6","3","6","4","1","5","2","6","3","3","5","5","4","5","5","3","5","5","6","2","5","7","5","6","5","5","6","5","5","6","5","5","5","3","6","790214171080925186","李","430","Male","[""坏他"",""好他"",""好我"",""坏我""]","[""弱他"",""强他"",""强我"",""弱我""]","","","","","","","","7","","","","","","","","","SRET","SRET_math_calculate","","key","7","16.66539316239287","680","380","","","","","8-1= ?","7","1","","","","","","","",""
"1862","","7","psychophysics","141","354804","0.0-7.0-5.0-0.38","5","4","5","5","6","4","4","4","5","5","5","-1","-1","0","1","-2","1","1","0","4","4","4","4","5","4","5","4","5","4","6","5","3","5","5","4","4","4","5","6","2","5","6","5","3","6","3","6","4","1","5","2","6","3","3","5","5","4","5","5","3","5","5","6","2","5","7","5","6","5","5","6","5","5","6","5","5","5","3","6","790214171080925186","李","430","Male","[""坏他"",""好他"",""好我"",""坏我""]","[""弱他"",""强他"",""强我"",""弱我""]","","","","","","","","7","","","","","","","","","SRET","SRET_math_calculate","","key","7","16.665090090090196","680","380","","","","","3+4= ?","7","1","","","","","","","",""
"1917","","0","psychophysics","142","356724","0.0-7.0-5.0-0.39","5","4","5","5","6","4","4","4","5","5","5","-1","-1","0","1","-2","1","1","0","4","4","4","4","5","4","5","4","5","4","6","5","3","5","5","4","4","4","5","6","2","5","6","5","3","6","3","6","4","1","5","2","6","3","3","5","5","4","5","5","3","5","5","6","2","5","7","5","6","5","5","6","5","5","6","5","5","5","3","6","790214171080925186","李","430","Male","[""坏他"",""好他"",""好我"",""坏我""]","[""弱他"",""强他"",""强我"",""弱我""]","","","","","","","","0","","","","","","","","","SRET","SRET_math_calculate","","key","0","16.66597368421029","680","380","","","","","5*0= ?","0","1","","","","","","","",""
