"rt","stimulus","response","trial_type","trial_index","time_elapsed","internal_node_id","swb_1","swb_2","swb_3","swb_4","swb_5","LOT_1","LOT_2","LOT_3","LOT_4","LOT_5","LOT_6","IPC_1","IPC_2","IPC_3","IPC_4","IPC_5","IPC_6","IPC_7","IPC_8","MorIden_1","MorIden_2","MorIden_3","MorIden_4","MorIden_5","MorIden_6","MorIden_7","MorIden_8","MorIden_9","MorIden_10","moralSeImag_1","moralSeImag_2","moralSeImag_3","moralSeImag_4","moralSeImag_5","moralSeImag_6","moralSeImag_7","moralSeImag_8","moralSeImag_9","sde_1","sde_2","sde_3","sde_4","sde_5","sde_6","sde_7","sde_8","sde_9","sde_10","trap2","sde_11","sde_12","sde_13","sde_14","sde_15","sde_16","sde_17","sde_18","sde_19","sde_20","IM_1","IM_2","IM_3","IM_4","IM_5","IM_6","IM_7","IM_8","IM_9","IM_10","IM_11","IM_12","IM_13","IM_14","IM_15","IM_16","IM_17","IM_18","IM_19","IM_20","subj_idx","friend_name","ParticipantID","Sex","Word","Word2","value","success","timeout","failed_images","failed_audio","failed_video","user_agent","responses","item_order","radio_event_ids","radio_event_times","key_event_times","mouse_event_times","straightlining","zigzagging","honeypot","view_history","response_type","key_press","avg_frame_time","center_x","center_y","correct_response","correct","identity","Image","word","condition","task_id","screen_id","time_stamp","person","valence","domain","math","status","duration","question_order","trap2_item"
"1031","
   <p><div style='color:white; font-size: 25px'>您好，欢迎参加本次实验。</div></p>
   <p><div style='color:white; font-size: 25px'>为充分保障您的权利，请确保您已经知晓并同意《参与实验同意书》以及《数据公开知情同意书》。</div></p>
   <p><div style='color:white; font-size: 25px'>如果您未见过上述内容，请咨询实验员。</div></p>
   <p style='color:white; font-size: 25px'>如果您选择继续实验，则表示您已经清楚两份知情同意书的内容并同意。</p>
   <p><div style = ""color: pink;font-size:30px;"">请确保您记得day0的实验编号，您将在本次实验输入该编号，若您忘记，请咨询实验员后作答。</div></p>
   <p><div style = ""color:lightblue;font-size:25px;"">请您尽可能认真地作答，我们将依据您在各问卷和按键任务中的作答质量发放报酬。</div></p>
   <p> <div style = ""color: green""><按空格键至下页></div> </p>
   "," ","html-keyboard-response","0","1034","0.0-0.0","7","7","7","7","7","5","5","5","5","5","5","2","2","2","1","2","2","2","2","5","5","5","5","1","5","5","5","5","5","8","7","8","8","8","7","8","8","8","7","7","7","7","7","6","7","1","7","7","1","6","6","7","7","7","7","7","7","7","7","7","7","7","7","7","7","7","7","7","7","7","7","7","7","7","7","7","7","7","7","718592959586500608","陈","389","Male","[""好我"",""坏他"",""好他"",""坏我""]","[""强我"",""弱他"",""强他"",""弱我""]","","","","","","","","","","","","","","","","","","","","","","","","","","","","","","","","","","","","","","",""
"","","","call-function","1","1034","0.0-1.0-0.0","7","7","7","7","7","5","5","5","5","5","5","2","2","2","1","2","2","2","2","5","5","5","5","1","5","5","5","5","5","8","7","8","8","8","7","8","8","8","7","7","7","7","7","6","7","1","7","7","1","6","6","7","7","7","7","7","7","7","7","7","7","7","7","7","7","7","7","7","7","7","7","7","7","7","7","7","7","7","7","718592959586500608","陈","389","Male","[""好我"",""坏他"",""好他"",""坏我""]","[""强我"",""弱他"",""强他"",""弱我""]","","","","","","","","","","","","","","","","","","","","","","","","","","","","","","","","","","","","","","",""
"10822","","[{""name"":""Sex"",""value"":""0""},{""name"":""friend_name"",""value"":""陈""},{""name"":""ParticipantID"",""value"":""389""}]","survey-html-form","2","11857","0.0-1.0-1.0","7","7","7","7","7","5","5","5","5","5","5","2","2","2","1","2","2","2","2","5","5","5","5","1","5","5","5","5","5","8","7","8","8","8","7","8","8","8","7","7","7","7","7","6","7","1","7","7","1","6","6","7","7","7","7","7","7","7","7","7","7","7","7","7","7","7","7","7","7","7","7","7","7","7","7","7","7","7","7","718592959586500608","陈","389","Male","[""好我"",""坏他"",""好他"",""坏我""]","[""强我"",""弱他"",""强他"",""弱我""]","","","","","","","","","","","","","","","","","","","","","","","","","","","","","","","","","","","","","","",""
"","","","preload","3","12326","0.0-2.0","7","7","7","7","7","5","5","5","5","5","5","2","2","2","1","2","2","2","2","5","5","5","5","1","5","5","5","5","5","8","7","8","8","8","7","8","8","8","7","7","7","7","7","6","7","1","7","7","1","6","6","7","7","7","7","7","7","7","7","7","7","7","7","7","7","7","7","7","7","7","7","7","7","7","7","7","7","7","7","718592959586500608","陈","389","Male","[""好我"",""坏他"",""好他"",""坏我""]","[""强我"",""弱他"",""强他"",""弱我""]","","true","false","[]","[]","[]","","","","","","","","","","","","","","","","","","","","","","","","","","","","","","","","",""
"","","","fullscreen","4","13376","0.0-3.0","7","7","7","7","7","5","5","5","5","5","5","2","2","2","1","2","2","2","2","5","5","5","5","1","5","5","5","5","5","8","7","8","8","8","7","8","8","8","7","7","7","7","7","6","7","1","7","7","1","6","6","7","7","7","7","7","7","7","7","7","7","7","7","7","7","7","7","7","7","7","7","7","7","7","7","7","7","7","7","718592959586500608","陈","389","Male","[""好我"",""坏他"",""好他"",""坏我""]","[""强我"",""弱他"",""强他"",""弱我""]","","true","","","","","","","","","","","","","","","","","","","","","","","","","","","","","","","","","","","","",""
"5581.834999960847","","{""Q01"":""7"",""Q02"":""7"",""Q03"":""7"",""Q04"":""7"",""Q05"":""7""}","survey-template","5","18961","0.0-4.0","7","7","7","7","7","5","5","5","5","5","5","2","2","2","1","2","2","2","2","5","5","5","5","1","5","5","5","5","5","8","7","8","8","8","7","8","8","8","7","7","7","7","7","6","7","1","7","7","1","6","6","7","7","7","7","7","7","7","7","7","7","7","7","7","7","7","7","7","7","7","7","7","7","7","7","7","7","7","7","718592959586500608","陈","389","Male","[""好我"",""坏他"",""好他"",""坏我""]","[""强我"",""弱他"",""强他"",""弱我""]","","","","","","","","{""Q01"":""7"",""Q02"":""7"",""Q03"":""7"",""Q04"":""7"",""Q05"":""7""}","[0,1,2,3,4]","[""Q01"",""Q02"",""Q03"",""Q04"",""Q05""]","[2364.5549999782816,3052.404999965802,3637.8350000013597,3988.1249999743886,4724.344999995083]","[]","[1860.0449999794364,2364.5549999782816,2748.159999959171,3052.404999965802,3396.359999955166,3637.8350000013597,3988.1249999743886,4533.389999996871,4724.344999995083,5580.459999968298]","1","0","0","","","","","","","","","","","","","","","","","","","","","","",""
"10641.639999987092","","{""Q01"":""5"",""Q02"":""5"",""Q03"":""5"",""Q04"":""5"",""Q05"":""5"",""Q06"":""5""}","survey-template","6","29608","0.0-5.0","7","7","7","7","7","5","5","5","5","5","5","2","2","2","1","2","2","2","2","5","5","5","5","1","5","5","5","5","5","8","7","8","8","8","7","8","8","8","7","7","7","7","7","6","7","1","7","7","1","6","6","7","7","7","7","7","7","7","7","7","7","7","7","7","7","7","7","7","7","7","7","7","7","7","7","7","7","7","7","718592959586500608","陈","389","Male","[""好我"",""坏他"",""好他"",""坏我""]","[""强我"",""弱他"",""强他"",""弱我""]","","","","","","","","{""Q01"":""5"",""Q02"":""5"",""Q03"":""5"",""Q04"":""5"",""Q05"":""5"",""Q06"":""5""}","[0,1,2,3,4,5]","[""Q01"",""Q03"",""Q04"",""Q02"",""Q05"",""Q06""]","[3689.7250000038184,4785.9649999882095,6256.869999982882,7345.244999974966,8090.894999972079,9960.915000003297]","[]","[2738.0949999787845,3689.7250000038184,4785.9649999882095,6256.869999982882,7345.244999974966,8090.894999972079,9464.839999971446,9960.915000003297,10640.92500001425]","0.5","0.8","0","","","","","","","","","","","","","","","","","","","","","","",""
"9797.064999991562","","{""Q01"":""2"",""Q02"":""2"",""Q03"":""2"",""Q04"":""1"",""Q05"":""2"",""Q06"":""2"",""Q07"":""2"",""Q08"":""2""}","survey-template","7","39409","0.0-6.0","7","7","7","7","7","5","5","5","5","5","5","2","2","2","1","2","2","2","2","5","5","5","5","1","5","5","5","5","5","8","7","8","8","8","7","8","8","8","7","7","7","7","7","6","7","1","7","7","1","6","6","7","7","7","7","7","7","7","7","7","7","7","7","7","7","7","7","7","7","7","7","7","7","7","7","7","7","7","7","718592959586500608","陈","389","Male","[""好我"",""坏他"",""好他"",""坏我""]","[""强我"",""弱他"",""强他"",""弱我""]","","","","","","","","{""Q01"":""2"",""Q02"":""2"",""Q03"":""2"",""Q04"":""1"",""Q05"":""2"",""Q06"":""2"",""Q07"":""2"",""Q08"":""2""}","[0,1,2,3,4,5,6,7]","[""Q01"",""Q02"",""Q03"",""Q04"",""Q04"",""Q05"",""Q06"",""Q07"",""Q08"",""Q04""]","[1524.7049999888986,1842.884999990929,2259.2099999892525,3011.3000000128523,3291.4350000210106,3739.564999996219,4099.545000004582,5458.875000011176,6363.275000010617,8523.59500003513]","[]","[1524.7049999888986,1842.884999990929,2259.2099999892525,2827.7300000190735,3011.3000000128523,3291.4350000210106,3739.564999996219,4099.545000004582,4652.694999997038,4899.22000002116,5458.875000011176,6363.275000010617,8050.93999998644,8523.59500003513,9796.195000002626]","0.875","0.2857142857142857","0","","","","","","","","","","","","","","","","","","","","","","",""
"3500","","","instructions","8","42911","0.0-7.0","7","7","7","7","7","5","5","5","5","5","5","2","2","2","1","2","2","2","2","5","5","5","5","1","5","5","5","5","5","8","7","8","8","8","7","8","8","8","7","7","7","7","7","6","7","1","7","7","1","6","6","7","7","7","7","7","7","7","7","7","7","7","7","7","7","7","7","7","7","7","7","7","7","7","7","7","7","7","7","718592959586500608","陈","389","Male","[""好我"",""坏他"",""好他"",""坏我""]","[""强我"",""弱他"",""强他"",""弱我""]","","","","","","","","","","","","","","","","","[{""page_index"":0,""viewing_time"":3499}]","","","","","","","","","","","","","","","","","","","","","",""
"62542","","","instructions","9","105456","0.0-8.0-0.0-0.0","7","7","7","7","7","5","5","5","5","5","5","2","2","2","1","2","2","2","2","5","5","5","5","1","5","5","5","5","5","8","7","8","8","8","7","8","8","8","7","7","7","7","7","6","7","1","7","7","1","6","6","7","7","7","7","7","7","7","7","7","7","7","7","7","7","7","7","7","7","7","7","7","7","7","7","7","7","7","7","718592959586500608","陈","389","Male","[""好我"",""坏他"",""好他"",""坏我""]","[""强我"",""弱他"",""强他"",""弱我""]","","","","","","","","","","","","","","","","","[{""page_index"":0,""viewing_time"":33304},{""page_index"":1,""viewing_time"":27934},{""page_index"":2,""viewing_time"":665},{""page_index"":3,""viewing_time"":639}]","","","","","","","","","","","","","","","","","","","","","",""
"712","","j","psychophysics","10","107173","0.0-8.0-0.0-1.0-0.0-0.0","7","7","7","7","7","5","5","5","5","5","5","2","2","2","1","2","2","2","2","5","5","5","5","1","5","5","5","5","5","8","7","8","8","8","7","8","8","8","7","7","7","7","7","6","7","1","7","7","1","6","6","7","7","7","7","7","7","7","7","7","7","7","7","7","7","7","7","7","7","7","7","7","7","7","7","7","7","7","7","718592959586500608","陈","389","Male","[""好我"",""坏他"",""好他"",""坏我""]","[""强我"",""弱他"",""强他"",""弱我""]","","","","","","","","match","","","","","","","","","","key","j","16.665633663366403","768","428","f","false","nonmatch","img/hexagon.png","坏我","好他","prac_ALT2_moral","practice_moral","","","","","","","","",""
"null","<span style='color:red; font-size: 70px;'>错误! </span>","null","html-keyboard-response","11","107676","0.0-8.0-0.0-1.0-0.0-1.0","7","7","7","7","7","5","5","5","5","5","5","2","2","2","1","2","2","2","2","5","5","5","5","1","5","5","5","5","5","8","7","8","8","8","7","8","8","8","7","7","7","7","7","6","7","1","7","7","1","6","6","7","7","7","7","7","7","7","7","7","7","7","7","7","7","7","7","7","7","7","7","7","7","7","7","7","7","7","7","718592959586500608","陈","389","Male","[""好我"",""坏他"",""好他"",""坏我""]","[""强我"",""弱他"",""强他"",""弱我""]","","","","","","","","","","","","","","","","","","","","","","","","","","","","","","feedback_test","","","","","","","","",""
"741","","j","psychophysics","12","109421","0.0-8.0-0.0-1.0-0.0-0.1","7","7","7","7","7","5","5","5","5","5","5","2","2","2","1","2","2","2","2","5","5","5","5","1","5","5","5","5","5","8","7","8","8","8","7","8","8","8","7","7","7","7","7","6","7","1","7","7","1","6","6","7","7","7","7","7","7","7","7","7","7","7","7","7","7","7","7","7","7","7","7","7","7","7","7","7","7","7","7","718592959586500608","陈","389","Male","[""好我"",""坏他"",""好他"",""坏我""]","[""强我"",""弱他"",""强他"",""弱我""]","","","","","","","","match","","","","","","","","","","key","j","16.665388349514597","768","428","j","true","match","img/hexagon.png","好他","好他","prac_ALT2_moral","practice_moral","","","","","","","","",""
"null","<span style='color:GreenYellow; font-size: 70px;'>正确! </span>","null","html-keyboard-response","13","109924","0.0-8.0-0.0-1.0-0.0-1.1","7","7","7","7","7","5","5","5","5","5","5","2","2","2","1","2","2","2","2","5","5","5","5","1","5","5","5","5","5","8","7","8","8","8","7","8","8","8","7","7","7","7","7","6","7","1","7","7","1","6","6","7","7","7","7","7","7","7","7","7","7","7","7","7","7","7","7","7","7","7","7","7","7","7","7","7","7","7","7","718592959586500608","陈","389","Male","[""好我"",""坏他"",""好他"",""坏我""]","[""强我"",""弱他"",""强他"",""弱我""]","","","","","","","","","","","","","","","","","","","","","","","","","","","","","","feedback_test","","","","","","","","",""
"629","","f","psychophysics","14","111555","0.0-8.0-0.0-1.0-0.0-0.2","7","7","7","7","7","5","5","5","5","5","5","2","2","2","1","2","2","2","2","5","5","5","5","1","5","5","5","5","5","8","7","8","8","8","7","8","8","8","7","7","7","7","7","6","7","1","7","7","1","6","6","7","7","7","7","7","7","7","7","7","7","7","7","7","7","7","7","7","7","7","7","7","7","7","7","7","7","7","7","718592959586500608","陈","389","Male","[""好我"",""坏他"",""好他"",""坏我""]","[""强我"",""弱他"",""强他"",""弱我""]","","","","","","","","nonmatch","","","","","","","","","","key","f","16.667917525773202","768","428","j","false","match","img/hexagon.png","好他","好他","prac_ALT2_moral","practice_moral","","","","","","","","",""
"null","<span style='color:red; font-size: 70px;'>错误! </span>","null","html-keyboard-response","15","112057","0.0-8.0-0.0-1.0-0.0-1.2","7","7","7","7","7","5","5","5","5","5","5","2","2","2","1","2","2","2","2","5","5","5","5","1","5","5","5","5","5","8","7","8","8","8","7","8","8","8","7","7","7","7","7","6","7","1","7","7","1","6","6","7","7","7","7","7","7","7","7","7","7","7","7","7","7","7","7","7","7","7","7","7","7","7","7","7","7","7","7","718592959586500608","陈","389","Male","[""好我"",""坏他"",""好他"",""坏我""]","[""强我"",""弱他"",""强他"",""弱我""]","","","","","","","","","","","","","","","","","","","","","","","","","","","","","","feedback_test","","","","","","","","",""
"700","","j","psychophysics","16","113759","0.0-8.0-0.0-1.0-0.0-0.3","7","7","7","7","7","5","5","5","5","5","5","2","2","2","1","2","2","2","2","5","5","5","5","1","5","5","5","5","5","8","7","8","8","8","7","8","8","8","7","7","7","7","7","6","7","1","7","7","1","6","6","7","7","7","7","7","7","7","7","7","7","7","7","7","7","7","7","7","7","7","7","7","7","7","7","7","7","7","7","718592959586500608","陈","389","Male","[""好我"",""坏他"",""好他"",""坏我""]","[""强我"",""弱他"",""强他"",""弱我""]","","","","","","","","match","","","","","","","","","","key","j","16.667683168316845","768","428","j","true","match","img/circle.png","好我","好我","prac_ALT2_moral","practice_moral","","","","","","","","",""
"null","<span style='color:GreenYellow; font-size: 70px;'>正确! </span>","null","html-keyboard-response","17","114261","0.0-8.0-0.0-1.0-0.0-1.3","7","7","7","7","7","5","5","5","5","5","5","2","2","2","1","2","2","2","2","5","5","5","5","1","5","5","5","5","5","8","7","8","8","8","7","8","8","8","7","7","7","7","7","6","7","1","7","7","1","6","6","7","7","7","7","7","7","7","7","7","7","7","7","7","7","7","7","7","7","7","7","7","7","7","7","7","7","7","7","718592959586500608","陈","389","Male","[""好我"",""坏他"",""好他"",""坏我""]","[""强我"",""弱他"",""强他"",""弱我""]","","","","","","","","","","","","","","","","","","","","","","","","","","","","","","feedback_test","","","","","","","","",""
"537","","f","psychophysics","18","115800","0.0-8.0-0.0-1.0-0.0-0.4","7","7","7","7","7","5","5","5","5","5","5","2","2","2","1","2","2","2","2","5","5","5","5","1","5","5","5","5","5","8","7","8","8","8","7","8","8","8","7","7","7","7","7","6","7","1","7","7","1","6","6","7","7","7","7","7","7","7","7","7","7","7","7","7","7","7","7","7","7","7","7","7","7","7","7","7","7","7","7","718592959586500608","陈","389","Male","[""好我"",""坏他"",""好他"",""坏我""]","[""强我"",""弱他"",""强他"",""弱我""]","","","","","","","","nonmatch","","","","","","","","","","key","f","16.665175824175694","768","428","f","true","nonmatch","img/square.png","坏他","坏我","prac_ALT2_moral","practice_moral","","","","","","","","",""
"null","<span style='color:GreenYellow; font-size: 70px;'>正确! </span>","null","html-keyboard-response","19","116301","0.0-8.0-0.0-1.0-0.0-1.4","7","7","7","7","7","5","5","5","5","5","5","2","2","2","1","2","2","2","2","5","5","5","5","1","5","5","5","5","5","8","7","8","8","8","7","8","8","8","7","7","7","7","7","6","7","1","7","7","1","6","6","7","7","7","7","7","7","7","7","7","7","7","7","7","7","7","7","7","7","7","7","7","7","7","7","7","7","7","7","718592959586500608","陈","389","Male","[""好我"",""坏他"",""好他"",""坏我""]","[""强我"",""弱他"",""强他"",""弱我""]","","","","","","","","","","","","","","","","","","","","","","","","","","","","","","feedback_test","","","","","","","","",""
"860","","f","psychophysics","20","118162","0.0-8.0-0.0-1.0-0.0-0.5","7","7","7","7","7","5","5","5","5","5","5","2","2","2","1","2","2","2","2","5","5","5","5","1","5","5","5","5","5","8","7","8","8","8","7","8","8","8","7","7","7","7","7","6","7","1","7","7","1","6","6","7","7","7","7","7","7","7","7","7","7","7","7","7","7","7","7","7","7","7","7","7","7","7","7","7","7","7","7","718592959586500608","陈","389","Male","[""好我"",""坏他"",""好他"",""坏我""]","[""强我"",""弱他"",""强他"",""弱我""]","","","","","","","","nonmatch","","","","","","","","","","key","f","16.667864864864878","768","428","f","true","nonmatch","img/diamond.png","好他","坏他","prac_ALT2_moral","practice_moral","","","","","","","","",""
"null","<span style='color:GreenYellow; font-size: 70px;'>正确! </span>","null","html-keyboard-response","21","118665","0.0-8.0-0.0-1.0-0.0-1.5","7","7","7","7","7","5","5","5","5","5","5","2","2","2","1","2","2","2","2","5","5","5","5","1","5","5","5","5","5","8","7","8","8","8","7","8","8","8","7","7","7","7","7","6","7","1","7","7","1","6","6","7","7","7","7","7","7","7","7","7","7","7","7","7","7","7","7","7","7","7","7","7","7","7","7","7","7","7","7","718592959586500608","陈","389","Male","[""好我"",""坏他"",""好他"",""坏我""]","[""强我"",""弱他"",""强他"",""弱我""]","","","","","","","","","","","","","","","","","","","","","","","","","","","","","","feedback_test","","","","","","","","",""
"980","","j","psychophysics","22","120648","0.0-8.0-0.0-1.0-0.0-0.6","7","7","7","7","7","5","5","5","5","5","5","2","2","2","1","2","2","2","2","5","5","5","5","1","5","5","5","5","5","8","7","8","8","8","7","8","8","8","7","7","7","7","7","6","7","1","7","7","1","6","6","7","7","7","7","7","7","7","7","7","7","7","7","7","7","7","7","7","7","7","7","7","7","7","7","7","7","7","7","718592959586500608","陈","389","Male","[""好我"",""坏他"",""好他"",""坏我""]","[""强我"",""弱他"",""强他"",""弱我""]","","","","","","","","match","","","","","","","","","","key","j","16.665406779660987","768","428","j","true","match","img/square.png","坏我","坏我","prac_ALT2_moral","practice_moral","","","","","","","","",""
"null","<span style='color:GreenYellow; font-size: 70px;'>正确! </span>","null","html-keyboard-response","23","121165","0.0-8.0-0.0-1.0-0.0-1.6","7","7","7","7","7","5","5","5","5","5","5","2","2","2","1","2","2","2","2","5","5","5","5","1","5","5","5","5","5","8","7","8","8","8","7","8","8","8","7","7","7","7","7","6","7","1","7","7","1","6","6","7","7","7","7","7","7","7","7","7","7","7","7","7","7","7","7","7","7","7","7","7","7","7","7","7","7","7","7","718592959586500608","陈","389","Male","[""好我"",""坏他"",""好他"",""坏我""]","[""强我"",""弱他"",""强他"",""弱我""]","","","","","","","","","","","","","","","","","","","","","","","","","","","","","","feedback_test","","","","","","","","",""
"592","","f","psychophysics","24","122761","0.0-8.0-0.0-1.0-0.0-0.7","7","7","7","7","7","5","5","5","5","5","5","2","2","2","1","2","2","2","2","5","5","5","5","1","5","5","5","5","5","8","7","8","8","8","7","8","8","8","7","7","7","7","7","6","7","1","7","7","1","6","6","7","7","7","7","7","7","7","7","7","7","7","7","7","7","7","7","7","7","7","7","7","7","7","7","7","7","7","7","718592959586500608","陈","389","Male","[""好我"",""坏他"",""好他"",""坏我""]","[""强我"",""弱他"",""强他"",""弱我""]","","","","","","","","nonmatch","","","","","","","","","","key","f","16.665357894736868","768","428","f","true","nonmatch","img/circle.png","好他","好我","prac_ALT2_moral","practice_moral","","","","","","","","",""
"null","<span style='color:GreenYellow; font-size: 70px;'>正确! </span>","null","html-keyboard-response","25","123264","0.0-8.0-0.0-1.0-0.0-1.7","7","7","7","7","7","5","5","5","5","5","5","2","2","2","1","2","2","2","2","5","5","5","5","1","5","5","5","5","5","8","7","8","8","8","7","8","8","8","7","7","7","7","7","6","7","1","7","7","1","6","6","7","7","7","7","7","7","7","7","7","7","7","7","7","7","7","7","7","7","7","7","7","7","7","7","7","7","7","7","718592959586500608","陈","389","Male","[""好我"",""坏他"",""好他"",""坏我""]","[""强我"",""弱他"",""强他"",""弱我""]","","","","","","","","","","","","","","","","","","","","","","","","","","","","","","feedback_test","","","","","","","","",""
"683","","f","psychophysics","26","124949","0.0-8.0-0.0-1.0-0.0-0.8","7","7","7","7","7","5","5","5","5","5","5","2","2","2","1","2","2","2","2","5","5","5","5","1","5","5","5","5","5","8","7","8","8","8","7","8","8","8","7","7","7","7","7","6","7","1","7","7","1","6","6","7","7","7","7","7","7","7","7","7","7","7","7","7","7","7","7","7","7","7","7","7","7","7","7","7","7","7","7","718592959586500608","陈","389","Male","[""好我"",""坏他"",""好他"",""坏我""]","[""强我"",""弱他"",""强他"",""弱我""]","","","","","","","","nonmatch","","","","","","","","","","key","f","16.668369999999996","768","428","f","true","nonmatch","img/diamond.png","好我","坏他","prac_ALT2_moral","practice_moral","","","","","","","","",""
"null","<span style='color:GreenYellow; font-size: 70px;'>正确! </span>","null","html-keyboard-response","27","125451","0.0-8.0-0.0-1.0-0.0-1.8","7","7","7","7","7","5","5","5","5","5","5","2","2","2","1","2","2","2","2","5","5","5","5","1","5","5","5","5","5","8","7","8","8","8","7","8","8","8","7","7","7","7","7","6","7","1","7","7","1","6","6","7","7","7","7","7","7","7","7","7","7","7","7","7","7","7","7","7","7","7","7","7","7","7","7","7","7","7","7","718592959586500608","陈","389","Male","[""好我"",""坏他"",""好他"",""坏我""]","[""强我"",""弱他"",""强他"",""弱我""]","","","","","","","","","","","","","","","","","","","","","","","","","","","","","","feedback_test","","","","","","","","",""
"463","","j","psychophysics","28","126915","0.0-8.0-0.0-1.0-0.0-0.9","7","7","7","7","7","5","5","5","5","5","5","2","2","2","1","2","2","2","2","5","5","5","5","1","5","5","5","5","5","8","7","8","8","8","7","8","8","8","7","7","7","7","7","6","7","1","7","7","1","6","6","7","7","7","7","7","7","7","7","7","7","7","7","7","7","7","7","7","7","7","7","7","7","7","7","7","7","7","7","718592959586500608","陈","389","Male","[""好我"",""坏他"",""好他"",""坏我""]","[""强我"",""弱他"",""强他"",""弱我""]","","","","","","","","match","","","","","","","","","","key","j","16.6660344827587","768","428","j","true","match","img/circle.png","好我","好我","prac_ALT2_moral","practice_moral","","","","","","","","",""
"null","<span style='color:GreenYellow; font-size: 70px;'>正确! </span>","null","html-keyboard-response","29","127416","0.0-8.0-0.0-1.0-0.0-1.9","7","7","7","7","7","5","5","5","5","5","5","2","2","2","1","2","2","2","2","5","5","5","5","1","5","5","5","5","5","8","7","8","8","8","7","8","8","8","7","7","7","7","7","6","7","1","7","7","1","6","6","7","7","7","7","7","7","7","7","7","7","7","7","7","7","7","7","7","7","7","7","7","7","7","7","7","7","7","7","718592959586500608","陈","389","Male","[""好我"",""坏他"",""好他"",""坏我""]","[""强我"",""弱他"",""强他"",""弱我""]","","","","","","","","","","","","","","","","","","","","","","","","","","","","","","feedback_test","","","","","","","","",""
"775","","j","psychophysics","30","129192","0.0-8.0-0.0-1.0-0.0-0.10","7","7","7","7","7","5","5","5","5","5","5","2","2","2","1","2","2","2","2","5","5","5","5","1","5","5","5","5","5","8","7","8","8","8","7","8","8","8","7","7","7","7","7","6","7","1","7","7","1","6","6","7","7","7","7","7","7","7","7","7","7","7","7","7","7","7","7","7","7","7","7","7","7","7","7","7","7","7","7","718592959586500608","陈","389","Male","[""好我"",""坏他"",""好他"",""坏我""]","[""强我"",""弱他"",""强他"",""弱我""]","","","","","","","","match","","","","","","","","","","key","j","16.66693396226408","768","428","j","true","match","img/square.png","坏我","坏我","prac_ALT2_moral","practice_moral","","","","","","","","",""
"null","<span style='color:GreenYellow; font-size: 70px;'>正确! </span>","null","html-keyboard-response","31","129694","0.0-8.0-0.0-1.0-0.0-1.10","7","7","7","7","7","5","5","5","5","5","5","2","2","2","1","2","2","2","2","5","5","5","5","1","5","5","5","5","5","8","7","8","8","8","7","8","8","8","7","7","7","7","7","6","7","1","7","7","1","6","6","7","7","7","7","7","7","7","7","7","7","7","7","7","7","7","7","7","7","7","7","7","7","7","7","7","7","7","7","718592959586500608","陈","389","Male","[""好我"",""坏他"",""好他"",""坏我""]","[""强我"",""弱他"",""强他"",""弱我""]","","","","","","","","","","","","","","","","","","","","","","","","","","","","","","feedback_test","","","","","","","","",""
"863","","f","psychophysics","32","131558","0.0-8.0-0.0-1.0-0.0-0.11","7","7","7","7","7","5","5","5","5","5","5","2","2","2","1","2","2","2","2","5","5","5","5","1","5","5","5","5","5","8","7","8","8","8","7","8","8","8","7","7","7","7","7","6","7","1","7","7","1","6","6","7","7","7","7","7","7","7","7","7","7","7","7","7","7","7","7","7","7","7","7","7","7","7","7","7","7","7","7","718592959586500608","陈","389","Male","[""好我"",""坏他"",""好他"",""坏我""]","[""强我"",""弱他"",""强他"",""弱我""]","","","","","","","","nonmatch","","","","","","","","","","key","f","16.666981981982012","768","428","j","false","match","img/square.png","坏我","坏我","prac_ALT2_moral","practice_moral","","","","","","","","",""
"null","<span style='color:red; font-size: 70px;'>错误! </span>","null","html-keyboard-response","33","132061","0.0-8.0-0.0-1.0-0.0-1.11","7","7","7","7","7","5","5","5","5","5","5","2","2","2","1","2","2","2","2","5","5","5","5","1","5","5","5","5","5","8","7","8","8","8","7","8","8","8","7","7","7","7","7","6","7","1","7","7","1","6","6","7","7","7","7","7","7","7","7","7","7","7","7","7","7","7","7","7","7","7","7","7","7","7","7","7","7","7","7","718592959586500608","陈","389","Male","[""好我"",""坏他"",""好他"",""坏我""]","[""强我"",""弱他"",""强他"",""弱我""]","","","","","","","","","","","","","","","","","","","","","","","","","","","","","","feedback_test","","","","","","","","",""
"808","","j","psychophysics","34","133871","0.0-8.0-0.0-1.0-0.0-0.12","7","7","7","7","7","5","5","5","5","5","5","2","2","2","1","2","2","2","2","5","5","5","5","1","5","5","5","5","5","8","7","8","8","8","7","8","8","8","7","7","7","7","7","6","7","1","7","7","1","6","6","7","7","7","7","7","7","7","7","7","7","7","7","7","7","7","7","7","7","7","7","7","7","7","7","7","7","7","7","718592959586500608","陈","389","Male","[""好我"",""坏他"",""好他"",""坏我""]","[""强我"",""弱他"",""强他"",""弱我""]","","","","","","","","match","","","","","","","","","","key","j","16.665990654205594","768","428","j","true","match","img/diamond.png","坏他","坏他","prac_ALT2_moral","practice_moral","","","","","","","","",""
"null","<span style='color:GreenYellow; font-size: 70px;'>正确! </span>","null","html-keyboard-response","35","134372","0.0-8.0-0.0-1.0-0.0-1.12","7","7","7","7","7","5","5","5","5","5","5","2","2","2","1","2","2","2","2","5","5","5","5","1","5","5","5","5","5","8","7","8","8","8","7","8","8","8","7","7","7","7","7","6","7","1","7","7","1","6","6","7","7","7","7","7","7","7","7","7","7","7","7","7","7","7","7","7","7","7","7","7","7","7","7","7","7","7","7","718592959586500608","陈","389","Male","[""好我"",""坏他"",""好他"",""坏我""]","[""强我"",""弱他"",""强他"",""弱我""]","","","","","","","","","","","","","","","","","","","","","","","","","","","","","","feedback_test","","","","","","","","",""
"765","","j","psychophysics","36","136139","0.0-8.0-0.0-1.0-0.0-0.13","7","7","7","7","7","5","5","5","5","5","5","2","2","2","1","2","2","2","2","5","5","5","5","1","5","5","5","5","5","8","7","8","8","8","7","8","8","8","7","7","7","7","7","6","7","1","7","7","1","6","6","7","7","7","7","7","7","7","7","7","7","7","7","7","7","7","7","7","7","7","7","7","7","7","7","7","7","7","7","718592959586500608","陈","389","Male","[""好我"",""坏他"",""好他"",""坏我""]","[""强我"",""弱他"",""强他"",""弱我""]","","","","","","","","match","","","","","","","","","","key","j","16.665076923076974","768","428","j","true","match","img/diamond.png","坏他","坏他","prac_ALT2_moral","practice_moral","","","","","","","","",""
"null","<span style='color:GreenYellow; font-size: 70px;'>正确! </span>","null","html-keyboard-response","37","136640","0.0-8.0-0.0-1.0-0.0-1.13","7","7","7","7","7","5","5","5","5","5","5","2","2","2","1","2","2","2","2","5","5","5","5","1","5","5","5","5","5","8","7","8","8","8","7","8","8","8","7","7","7","7","7","6","7","1","7","7","1","6","6","7","7","7","7","7","7","7","7","7","7","7","7","7","7","7","7","7","7","7","7","7","7","7","7","7","7","7","7","718592959586500608","陈","389","Male","[""好我"",""坏他"",""好他"",""坏我""]","[""强我"",""弱他"",""强他"",""弱我""]","","","","","","","","","","","","","","","","","","","","","","","","","","","","","","feedback_test","","","","","","","","",""
"1079","","j","psychophysics","38","138720","0.0-8.0-0.0-1.0-0.0-0.14","7","7","7","7","7","5","5","5","5","5","5","2","2","2","1","2","2","2","2","5","5","5","5","1","5","5","5","5","5","8","7","8","8","8","7","8","8","8","7","7","7","7","7","6","7","1","7","7","1","6","6","7","7","7","7","7","7","7","7","7","7","7","7","7","7","7","7","7","7","7","7","7","7","7","7","7","7","7","7","718592959586500608","陈","389","Male","[""好我"",""坏他"",""好他"",""坏我""]","[""强我"",""弱他"",""强他"",""弱我""]","","","","","","","","match","","","","","","","","","","key","j","16.664975609755988","768","428","f","false","nonmatch","img/circle.png","坏我","好我","prac_ALT2_moral","practice_moral","","","","","","","","",""
"null","<span style='color:red; font-size: 70px;'>错误! </span>","null","html-keyboard-response","39","139221","0.0-8.0-0.0-1.0-0.0-1.14","7","7","7","7","7","5","5","5","5","5","5","2","2","2","1","2","2","2","2","5","5","5","5","1","5","5","5","5","5","8","7","8","8","8","7","8","8","8","7","7","7","7","7","6","7","1","7","7","1","6","6","7","7","7","7","7","7","7","7","7","7","7","7","7","7","7","7","7","7","7","7","7","7","7","7","7","7","7","7","718592959586500608","陈","389","Male","[""好我"",""坏他"",""好他"",""坏我""]","[""强我"",""弱他"",""强他"",""弱我""]","","","","","","","","","","","","","","","","","","","","","","","","","","","","","","feedback_test","","","","","","","","",""
"1033","","j","psychophysics","40","141255","0.0-8.0-0.0-1.0-0.0-0.15","7","7","7","7","7","5","5","5","5","5","5","2","2","2","1","2","2","2","2","5","5","5","5","1","5","5","5","5","5","8","7","8","8","8","7","8","8","8","7","7","7","7","7","6","7","1","7","7","1","6","6","7","7","7","7","7","7","7","7","7","7","7","7","7","7","7","7","7","7","7","7","7","7","7","7","7","7","7","7","718592959586500608","陈","389","Male","[""好我"",""坏他"",""好他"",""坏我""]","[""强我"",""弱他"",""强他"",""弱我""]","","","","","","","","match","","","","","","","","","","key","j","16.665366666666767","768","428","j","true","match","img/hexagon.png","好他","好他","prac_ALT2_moral","practice_moral","","","","","","","","",""
"null","<span style='color:GreenYellow; font-size: 70px;'>正确! </span>","null","html-keyboard-response","41","141757","0.0-8.0-0.0-1.0-0.0-1.15","7","7","7","7","7","5","5","5","5","5","5","2","2","2","1","2","2","2","2","5","5","5","5","1","5","5","5","5","5","8","7","8","8","8","7","8","8","8","7","7","7","7","7","6","7","1","7","7","1","6","6","7","7","7","7","7","7","7","7","7","7","7","7","7","7","7","7","7","7","7","7","7","7","7","7","7","7","7","7","718592959586500608","陈","389","Male","[""好我"",""坏他"",""好他"",""坏我""]","[""强我"",""弱他"",""强他"",""弱我""]","","","","","","","","","","","","","","","","","","","","","","","","","","","","","","feedback_test","","","","","","","","",""
"559","","j","psychophysics","42","143319","0.0-8.0-0.0-1.0-0.0-0.16","7","7","7","7","7","5","5","5","5","5","5","2","2","2","1","2","2","2","2","5","5","5","5","1","5","5","5","5","5","8","7","8","8","8","7","8","8","8","7","7","7","7","7","6","7","1","7","7","1","6","6","7","7","7","7","7","7","7","7","7","7","7","7","7","7","7","7","7","7","7","7","7","7","7","7","7","7","7","7","718592959586500608","陈","389","Male","[""好我"",""坏他"",""好他"",""坏我""]","[""强我"",""弱他"",""强他"",""弱我""]","","","","","","","","match","","","","","","","","","","key","j","16.66564130434784","768","428","j","true","match","img/circle.png","好我","好我","prac_ALT2_moral","practice_moral","","","","","","","","",""
"null","<span style='color:GreenYellow; font-size: 70px;'>正确! </span>","null","html-keyboard-response","43","143820","0.0-8.0-0.0-1.0-0.0-1.16","7","7","7","7","7","5","5","5","5","5","5","2","2","2","1","2","2","2","2","5","5","5","5","1","5","5","5","5","5","8","7","8","8","8","7","8","8","8","7","7","7","7","7","6","7","1","7","7","1","6","6","7","7","7","7","7","7","7","7","7","7","7","7","7","7","7","7","7","7","7","7","7","7","7","7","7","7","7","7","718592959586500608","陈","389","Male","[""好我"",""坏他"",""好他"",""坏我""]","[""强我"",""弱他"",""强他"",""弱我""]","","","","","","","","","","","","","","","","","","","","","","","","","","","","","","feedback_test","","","","","","","","",""
"863","","j","psychophysics","44","145684","0.0-8.0-0.0-1.0-0.0-0.17","7","7","7","7","7","5","5","5","5","5","5","2","2","2","1","2","2","2","2","5","5","5","5","1","5","5","5","5","5","8","7","8","8","8","7","8","8","8","7","7","7","7","7","6","7","1","7","7","1","6","6","7","7","7","7","7","7","7","7","7","7","7","7","7","7","7","7","7","7","7","7","7","7","7","7","7","7","7","7","718592959586500608","陈","389","Male","[""好我"",""坏他"",""好他"",""坏我""]","[""强我"",""弱他"",""强他"",""弱我""]","","","","","","","","match","","","","","","","","","","key","j","16.665171171171195","768","428","j","true","match","img/diamond.png","坏他","坏他","prac_ALT2_moral","practice_moral","","","","","","","","",""
"null","<span style='color:GreenYellow; font-size: 70px;'>正确! </span>","null","html-keyboard-response","45","146185","0.0-8.0-0.0-1.0-0.0-1.17","7","7","7","7","7","5","5","5","5","5","5","2","2","2","1","2","2","2","2","5","5","5","5","1","5","5","5","5","5","8","7","8","8","8","7","8","8","8","7","7","7","7","7","6","7","1","7","7","1","6","6","7","7","7","7","7","7","7","7","7","7","7","7","7","7","7","7","7","7","7","7","7","7","7","7","7","7","7","7","718592959586500608","陈","389","Male","[""好我"",""坏他"",""好他"",""坏我""]","[""强我"",""弱他"",""强他"",""弱我""]","","","","","","","","","","","","","","","","","","","","","","","","","","","","","","feedback_test","","","","","","","","",""
"671","","j","psychophysics","46","147860","0.0-8.0-0.0-1.0-0.0-0.18","7","7","7","7","7","5","5","5","5","5","5","2","2","2","1","2","2","2","2","5","5","5","5","1","5","5","5","5","5","8","7","8","8","8","7","8","8","8","7","7","7","7","7","6","7","1","7","7","1","6","6","7","7","7","7","7","7","7","7","7","7","7","7","7","7","7","7","7","7","7","7","7","7","7","7","7","7","7","7","718592959586500608","陈","389","Male","[""好我"",""坏他"",""好他"",""坏我""]","[""强我"",""弱他"",""强他"",""弱我""]","","","","","","","","match","","","","","","","","","","key","j","16.665840000000024","768","428","f","false","nonmatch","img/square.png","好他","坏我","prac_ALT2_moral","practice_moral","","","","","","","","",""
"null","<span style='color:red; font-size: 70px;'>错误! </span>","null","html-keyboard-response","47","148361","0.0-8.0-0.0-1.0-0.0-1.18","7","7","7","7","7","5","5","5","5","5","5","2","2","2","1","2","2","2","2","5","5","5","5","1","5","5","5","5","5","8","7","8","8","8","7","8","8","8","7","7","7","7","7","6","7","1","7","7","1","6","6","7","7","7","7","7","7","7","7","7","7","7","7","7","7","7","7","7","7","7","7","7","7","7","7","7","7","7","7","718592959586500608","陈","389","Male","[""好我"",""坏他"",""好他"",""坏我""]","[""强我"",""弱他"",""强他"",""弱我""]","","","","","","","","","","","","","","","","","","","","","","","","","","","","","","feedback_test","","","","","","","","",""
"1076","","f","psychophysics","48","150439","0.0-8.0-0.0-1.0-0.0-0.19","7","7","7","7","7","5","5","5","5","5","5","2","2","2","1","2","2","2","2","5","5","5","5","1","5","5","5","5","5","8","7","8","8","8","7","8","8","8","7","7","7","7","7","6","7","1","7","7","1","6","6","7","7","7","7","7","7","7","7","7","7","7","7","7","7","7","7","7","7","7","7","7","7","7","7","7","7","7","7","718592959586500608","陈","389","Male","[""好我"",""坏他"",""好他"",""坏我""]","[""强我"",""弱他"",""强他"",""弱我""]","","","","","","","","nonmatch","","","","","","","","","","key","f","16.665709677419198","768","428","f","true","nonmatch","img/hexagon.png","好我","好他","prac_ALT2_moral","practice_moral","","","","","","","","",""
"null","<span style='color:GreenYellow; font-size: 70px;'>正确! </span>","null","html-keyboard-response","49","150941","0.0-8.0-0.0-1.0-0.0-1.19","7","7","7","7","7","5","5","5","5","5","5","2","2","2","1","2","2","2","2","5","5","5","5","1","5","5","5","5","5","8","7","8","8","8","7","8","8","8","7","7","7","7","7","6","7","1","7","7","1","6","6","7","7","7","7","7","7","7","7","7","7","7","7","7","7","7","7","7","7","7","7","7","7","7","7","7","7","7","7","718592959586500608","陈","389","Male","[""好我"",""坏他"",""好他"",""坏我""]","[""强我"",""弱他"",""强他"",""弱我""]","","","","","","","","","","","","","","","","","","","","","","","","","","","","","","feedback_test","","","","","","","","",""
"785","","f","psychophysics","50","152728","0.0-8.0-0.0-1.0-0.0-0.20","7","7","7","7","7","5","5","5","5","5","5","2","2","2","1","2","2","2","2","5","5","5","5","1","5","5","5","5","5","8","7","8","8","8","7","8","8","8","7","7","7","7","7","6","7","1","7","7","1","6","6","7","7","7","7","7","7","7","7","7","7","7","7","7","7","7","7","7","7","7","7","7","7","7","7","7","7","7","7","718592959586500608","陈","389","Male","[""好我"",""坏他"",""好他"",""坏我""]","[""强我"",""弱他"",""强他"",""弱我""]","","","","","","","","nonmatch","","","","","","","","","","key","f","16.663896226415023","768","428","f","true","nonmatch","img/circle.png","坏他","好我","prac_ALT2_moral","practice_moral","","","","","","","","",""
"null","<span style='color:GreenYellow; font-size: 70px;'>正确! </span>","null","html-keyboard-response","51","153229","0.0-8.0-0.0-1.0-0.0-1.20","7","7","7","7","7","5","5","5","5","5","5","2","2","2","1","2","2","2","2","5","5","5","5","1","5","5","5","5","5","8","7","8","8","8","7","8","8","8","7","7","7","7","7","6","7","1","7","7","1","6","6","7","7","7","7","7","7","7","7","7","7","7","7","7","7","7","7","7","7","7","7","7","7","7","7","7","7","7","7","718592959586500608","陈","389","Male","[""好我"",""坏他"",""好他"",""坏我""]","[""强我"",""弱他"",""强他"",""弱我""]","","","","","","","","","","","","","","","","","","","","","","","","","","","","","","feedback_test","","","","","","","","",""
"784","","f","psychophysics","52","155016","0.0-8.0-0.0-1.0-0.0-0.21","7","7","7","7","7","5","5","5","5","5","5","2","2","2","1","2","2","2","2","5","5","5","5","1","5","5","5","5","5","8","7","8","8","8","7","8","8","8","7","7","7","7","7","6","7","1","7","7","1","6","6","7","7","7","7","7","7","7","7","7","7","7","7","7","7","7","7","7","7","7","7","7","7","7","7","7","7","7","7","718592959586500608","陈","389","Male","[""好我"",""坏他"",""好他"",""坏我""]","[""强我"",""弱他"",""强他"",""弱我""]","","","","","","","","nonmatch","","","","","","","","","","key","f","16.668858490566084","768","428","f","true","nonmatch","img/diamond.png","坏我","坏他","prac_ALT2_moral","practice_moral","","","","","","","","",""
"null","<span style='color:GreenYellow; font-size: 70px;'>正确! </span>","null","html-keyboard-response","53","155516","0.0-8.0-0.0-1.0-0.0-1.21","7","7","7","7","7","5","5","5","5","5","5","2","2","2","1","2","2","2","2","5","5","5","5","1","5","5","5","5","5","8","7","8","8","8","7","8","8","8","7","7","7","7","7","6","7","1","7","7","1","6","6","7","7","7","7","7","7","7","7","7","7","7","7","7","7","7","7","7","7","7","7","7","7","7","7","7","7","7","7","718592959586500608","陈","389","Male","[""好我"",""坏他"",""好他"",""坏我""]","[""强我"",""弱他"",""强他"",""弱我""]","","","","","","","","","","","","","","","","","","","","","","","","","","","","","","feedback_test","","","","","","","","",""
"603","","j","psychophysics","54","157123","0.0-8.0-0.0-1.0-0.0-0.22","7","7","7","7","7","5","5","5","5","5","5","2","2","2","1","2","2","2","2","5","5","5","5","1","5","5","5","5","5","8","7","8","8","8","7","8","8","8","7","7","7","7","7","6","7","1","7","7","1","6","6","7","7","7","7","7","7","7","7","7","7","7","7","7","7","7","7","7","7","7","7","7","7","7","7","7","7","7","7","718592959586500608","陈","389","Male","[""好我"",""坏他"",""好他"",""坏我""]","[""强我"",""弱他"",""强他"",""弱我""]","","","","","","","","match","","","","","","","","","","key","j","16.665499999999764","768","428","f","false","nonmatch","img/square.png","好我","坏我","prac_ALT2_moral","practice_moral","","","","","","","","",""
"null","<span style='color:red; font-size: 70px;'>错误! </span>","null","html-keyboard-response","55","157626","0.0-8.0-0.0-1.0-0.0-1.22","7","7","7","7","7","5","5","5","5","5","5","2","2","2","1","2","2","2","2","5","5","5","5","1","5","5","5","5","5","8","7","8","8","8","7","8","8","8","7","7","7","7","7","6","7","1","7","7","1","6","6","7","7","7","7","7","7","7","7","7","7","7","7","7","7","7","7","7","7","7","7","7","7","7","7","7","7","7","7","718592959586500608","陈","389","Male","[""好我"",""坏他"",""好他"",""坏我""]","[""强我"",""弱他"",""强他"",""弱我""]","","","","","","","","","","","","","","","","","","","","","","","","","","","","","","feedback_test","","","","","","","","",""
"958","","f","psychophysics","56","159587","0.0-8.0-0.0-1.0-0.0-0.23","7","7","7","7","7","5","5","5","5","5","5","2","2","2","1","2","2","2","2","5","5","5","5","1","5","5","5","5","5","8","7","8","8","8","7","8","8","8","7","7","7","7","7","6","7","1","7","7","1","6","6","7","7","7","7","7","7","7","7","7","7","7","7","7","7","7","7","7","7","7","7","7","7","7","7","7","7","7","7","718592959586500608","陈","389","Male","[""好我"",""坏他"",""好他"",""坏我""]","[""强我"",""弱他"",""强他"",""弱我""]","","","","","","","","nonmatch","","","","","","","","","","key","f","16.665743589743776","768","428","f","true","nonmatch","img/hexagon.png","坏他","好他","prac_ALT2_moral","practice_moral","","","","","","","","",""
"null","<span style='color:GreenYellow; font-size: 70px;'>正确! </span>","null","html-keyboard-response","57","160088","0.0-8.0-0.0-1.0-0.0-1.23","7","7","7","7","7","5","5","5","5","5","5","2","2","2","1","2","2","2","2","5","5","5","5","1","5","5","5","5","5","8","7","8","8","8","7","8","8","8","7","7","7","7","7","6","7","1","7","7","1","6","6","7","7","7","7","7","7","7","7","7","7","7","7","7","7","7","7","7","7","7","7","7","7","7","7","7","7","7","7","718592959586500608","陈","389","Male","[""好我"",""坏他"",""好他"",""坏我""]","[""强我"",""弱他"",""强他"",""弱我""]","","","","","","","","","","","","","","","","","","","","","","","","","","","","","","feedback_test","","","","","","","","",""
"935","","j","psychophysics","58","162025","0.0-8.0-0.0-1.0-0.0-0.24","7","7","7","7","7","5","5","5","5","5","5","2","2","2","1","2","2","2","2","5","5","5","5","1","5","5","5","5","5","8","7","8","8","8","7","8","8","8","7","7","7","7","7","6","7","1","7","7","1","6","6","7","7","7","7","7","7","7","7","7","7","7","7","7","7","7","7","7","7","7","7","7","7","7","7","7","7","7","7","718592959586500608","陈","389","Male","[""好我"",""坏他"",""好他"",""坏我""]","[""强我"",""弱他"",""强他"",""弱我""]","","","","","","","","match","","","","","","","","","","key","j","16.664008695652214","768","428","f","false","nonmatch","img/hexagon.png","坏我","好他","prac_ALT2_moral","practice_moral","","","","","","","","",""
"null","<span style='color:red; font-size: 70px;'>错误! </span>","null","html-keyboard-response","59","162526","0.0-8.0-0.0-1.0-0.0-1.24","7","7","7","7","7","5","5","5","5","5","5","2","2","2","1","2","2","2","2","5","5","5","5","1","5","5","5","5","5","8","7","8","8","8","7","8","8","8","7","7","7","7","7","6","7","1","7","7","1","6","6","7","7","7","7","7","7","7","7","7","7","7","7","7","7","7","7","7","7","7","7","7","7","7","7","7","7","7","7","718592959586500608","陈","389","Male","[""好我"",""坏他"",""好他"",""坏我""]","[""强我"",""弱他"",""强他"",""弱我""]","","","","","","","","","","","","","","","","","","","","","","","","","","","","","","feedback_test","","","","","","","","",""
"798","","j","psychophysics","60","164325","0.0-8.0-0.0-1.0-0.0-0.25","7","7","7","7","7","5","5","5","5","5","5","2","2","2","1","2","2","2","2","5","5","5","5","1","5","5","5","5","5","8","7","8","8","8","7","8","8","8","7","7","7","7","7","6","7","1","7","7","1","6","6","7","7","7","7","7","7","7","7","7","7","7","7","7","7","7","7","7","7","7","7","7","7","7","7","7","7","7","7","718592959586500608","陈","389","Male","[""好我"",""坏他"",""好他"",""坏我""]","[""强我"",""弱他"",""强他"",""弱我""]","","","","","","","","match","","","","","","","","","","key","j","16.663588785046873","768","428","j","true","match","img/square.png","坏我","坏我","prac_ALT2_moral","practice_moral","","","","","","","","",""
"null","<span style='color:GreenYellow; font-size: 70px;'>正确! </span>","null","html-keyboard-response","61","164839","0.0-8.0-0.0-1.0-0.0-1.25","7","7","7","7","7","5","5","5","5","5","5","2","2","2","1","2","2","2","2","5","5","5","5","1","5","5","5","5","5","8","7","8","8","8","7","8","8","8","7","7","7","7","7","6","7","1","7","7","1","6","6","7","7","7","7","7","7","7","7","7","7","7","7","7","7","7","7","7","7","7","7","7","7","7","7","7","7","7","7","718592959586500608","陈","389","Male","[""好我"",""坏他"",""好他"",""坏我""]","[""强我"",""弱他"",""强他"",""弱我""]","","","","","","","","","","","","","","","","","","","","","","","","","","","","","","feedback_test","","","","","","","","",""
"828","","f","psychophysics","62","166670","0.0-8.0-0.0-1.0-0.0-0.26","7","7","7","7","7","5","5","5","5","5","5","2","2","2","1","2","2","2","2","5","5","5","5","1","5","5","5","5","5","8","7","8","8","8","7","8","8","8","7","7","7","7","7","6","7","1","7","7","1","6","6","7","7","7","7","7","7","7","7","7","7","7","7","7","7","7","7","7","7","7","7","7","7","7","7","7","7","7","7","718592959586500608","陈","389","Male","[""好我"",""坏他"",""好他"",""坏我""]","[""强我"",""弱他"",""强他"",""弱我""]","","","","","","","","nonmatch","","","","","","","","","","key","f","16.665036697247718","768","428","f","true","nonmatch","img/square.png","好我","坏我","prac_ALT2_moral","practice_moral","","","","","","","","",""
"null","<span style='color:GreenYellow; font-size: 70px;'>正确! </span>","null","html-keyboard-response","63","167171","0.0-8.0-0.0-1.0-0.0-1.26","7","7","7","7","7","5","5","5","5","5","5","2","2","2","1","2","2","2","2","5","5","5","5","1","5","5","5","5","5","8","7","8","8","8","7","8","8","8","7","7","7","7","7","6","7","1","7","7","1","6","6","7","7","7","7","7","7","7","7","7","7","7","7","7","7","7","7","7","7","7","7","7","7","7","7","7","7","7","7","718592959586500608","陈","389","Male","[""好我"",""坏他"",""好他"",""坏我""]","[""强我"",""弱他"",""强他"",""弱我""]","","","","","","","","","","","","","","","","","","","","","","","","","","","","","","feedback_test","","","","","","","","",""
"840","","f","psychophysics","64","169015","0.0-8.0-0.0-1.0-0.0-0.27","7","7","7","7","7","5","5","5","5","5","5","2","2","2","1","2","2","2","2","5","5","5","5","1","5","5","5","5","5","8","7","8","8","8","7","8","8","8","7","7","7","7","7","6","7","1","7","7","1","6","6","7","7","7","7","7","7","7","7","7","7","7","7","7","7","7","7","7","7","7","7","7","7","7","7","7","7","7","7","718592959586500608","陈","389","Male","[""好我"",""坏他"",""好他"",""坏我""]","[""强我"",""弱他"",""强他"",""弱我""]","","","","","","","","nonmatch","","","","","","","","","","key","f","16.66607339449527","768","428","f","true","nonmatch","img/hexagon.png","坏他","好他","prac_ALT2_moral","practice_moral","","","","","","","","",""
"null","<span style='color:GreenYellow; font-size: 70px;'>正确! </span>","null","html-keyboard-response","65","169516","0.0-8.0-0.0-1.0-0.0-1.27","7","7","7","7","7","5","5","5","5","5","5","2","2","2","1","2","2","2","2","5","5","5","5","1","5","5","5","5","5","8","7","8","8","8","7","8","8","8","7","7","7","7","7","6","7","1","7","7","1","6","6","7","7","7","7","7","7","7","7","7","7","7","7","7","7","7","7","7","7","7","7","7","7","7","7","7","7","7","7","718592959586500608","陈","389","Male","[""好我"",""坏他"",""好他"",""坏我""]","[""强我"",""弱他"",""强他"",""弱我""]","","","","","","","","","","","","","","","","","","","","","","","","","","","","","","feedback_test","","","","","","","","",""
"1031","","j","psychophysics","66","171549","0.0-8.0-0.0-1.0-0.0-0.28","7","7","7","7","7","5","5","5","5","5","5","2","2","2","1","2","2","2","2","5","5","5","5","1","5","5","5","5","5","8","7","8","8","8","7","8","8","8","7","7","7","7","7","6","7","1","7","7","1","6","6","7","7","7","7","7","7","7","7","7","7","7","7","7","7","7","7","7","7","7","7","7","7","7","7","7","7","7","7","718592959586500608","陈","389","Male","[""好我"",""坏他"",""好他"",""坏我""]","[""强我"",""弱他"",""强他"",""弱我""]","","","","","","","","match","","","","","","","","","","key","j","16.666041322313934","768","428","j","true","match","img/diamond.png","坏他","坏他","prac_ALT2_moral","practice_moral","","","","","","","","",""
"null","<span style='color:GreenYellow; font-size: 70px;'>正确! </span>","null","html-keyboard-response","67","172050","0.0-8.0-0.0-1.0-0.0-1.28","7","7","7","7","7","5","5","5","5","5","5","2","2","2","1","2","2","2","2","5","5","5","5","1","5","5","5","5","5","8","7","8","8","8","7","8","8","8","7","7","7","7","7","6","7","1","7","7","1","6","6","7","7","7","7","7","7","7","7","7","7","7","7","7","7","7","7","7","7","7","7","7","7","7","7","7","7","7","7","718592959586500608","陈","389","Male","[""好我"",""坏他"",""好他"",""坏我""]","[""强我"",""弱他"",""强他"",""弱我""]","","","","","","","","","","","","","","","","","","","","","","","","","","","","","","feedback_test","","","","","","","","",""
"979","","f","psychophysics","68","174031","0.0-8.0-0.0-1.0-0.0-0.29","7","7","7","7","7","5","5","5","5","5","5","2","2","2","1","2","2","2","2","5","5","5","5","1","5","5","5","5","5","8","7","8","8","8","7","8","8","8","7","7","7","7","7","6","7","1","7","7","1","6","6","7","7","7","7","7","7","7","7","7","7","7","7","7","7","7","7","7","7","7","7","7","7","7","7","7","7","7","7","718592959586500608","陈","389","Male","[""好我"",""坏他"",""好他"",""坏我""]","[""强我"",""弱他"",""强他"",""弱我""]","","","","","","","","nonmatch","","","","","","","","","","key","f","16.609444444444385","768","428","f","true","nonmatch","img/circle.png","好他","好我","prac_ALT2_moral","practice_moral","","","","","","","","",""
"null","<span style='color:GreenYellow; font-size: 70px;'>正确! </span>","null","html-keyboard-response","69","174532","0.0-8.0-0.0-1.0-0.0-1.29","7","7","7","7","7","5","5","5","5","5","5","2","2","2","1","2","2","2","2","5","5","5","5","1","5","5","5","5","5","8","7","8","8","8","7","8","8","8","7","7","7","7","7","6","7","1","7","7","1","6","6","7","7","7","7","7","7","7","7","7","7","7","7","7","7","7","7","7","7","7","7","7","7","7","7","7","7","7","7","718592959586500608","陈","389","Male","[""好我"",""坏他"",""好他"",""坏我""]","[""强我"",""弱他"",""强他"",""弱我""]","","","","","","","","","","","","","","","","","","","","","","","","","","","","","","feedback_test","","","","","","","","",""
"883","","j","psychophysics","70","176417","0.0-8.0-0.0-1.0-0.0-0.30","7","7","7","7","7","5","5","5","5","5","5","2","2","2","1","2","2","2","2","5","5","5","5","1","5","5","5","5","5","8","7","8","8","8","7","8","8","8","7","7","7","7","7","6","7","1","7","7","1","6","6","7","7","7","7","7","7","7","7","7","7","7","7","7","7","7","7","7","7","7","7","7","7","7","7","7","7","7","7","718592959586500608","陈","389","Male","[""好我"",""坏他"",""好他"",""坏我""]","[""强我"",""弱他"",""强他"",""弱我""]","","","","","","","","match","","","","","","","","","","key","j","16.66616071428559","768","428","j","true","match","img/square.png","坏我","坏我","prac_ALT2_moral","practice_moral","","","","","","","","",""
"null","<span style='color:GreenYellow; font-size: 70px;'>正确! </span>","null","html-keyboard-response","71","176921","0.0-8.0-0.0-1.0-0.0-1.30","7","7","7","7","7","5","5","5","5","5","5","2","2","2","1","2","2","2","2","5","5","5","5","1","5","5","5","5","5","8","7","8","8","8","7","8","8","8","7","7","7","7","7","6","7","1","7","7","1","6","6","7","7","7","7","7","7","7","7","7","7","7","7","7","7","7","7","7","7","7","7","7","7","7","7","7","7","7","7","718592959586500608","陈","389","Male","[""好我"",""坏他"",""好他"",""坏我""]","[""强我"",""弱他"",""强他"",""弱我""]","","","","","","","","","","","","","","","","","","","","","","","","","","","","","","feedback_test","","","","","","","","",""
"866","","j","psychophysics","72","178790","0.0-8.0-0.0-1.0-0.0-0.31","7","7","7","7","7","5","5","5","5","5","5","2","2","2","1","2","2","2","2","5","5","5","5","1","5","5","5","5","5","8","7","8","8","8","7","8","8","8","7","7","7","7","7","6","7","1","7","7","1","6","6","7","7","7","7","7","7","7","7","7","7","7","7","7","7","7","7","7","7","7","7","7","7","7","7","7","7","7","7","718592959586500608","陈","389","Male","[""好我"",""坏他"",""好他"",""坏我""]","[""强我"",""弱他"",""强他"",""弱我""]","","","","","","","","match","","","","","","","","","","key","j","16.665225225225456","768","428","j","true","match","img/hexagon.png","好他","好他","prac_ALT2_moral","practice_moral","","","","","","","","",""
"null","<span style='color:GreenYellow; font-size: 70px;'>正确! </span>","null","html-keyboard-response","73","179293","0.0-8.0-0.0-1.0-0.0-1.31","7","7","7","7","7","5","5","5","5","5","5","2","2","2","1","2","2","2","2","5","5","5","5","1","5","5","5","5","5","8","7","8","8","8","7","8","8","8","7","7","7","7","7","6","7","1","7","7","1","6","6","7","7","7","7","7","7","7","7","7","7","7","7","7","7","7","7","7","7","7","7","7","7","7","7","7","7","7","7","718592959586500608","陈","389","Male","[""好我"",""坏他"",""好他"",""坏我""]","[""强我"",""弱他"",""强他"",""弱我""]","","","","","","","","","","","","","","","","","","","","","","","","","","","","","","feedback_test","","","","","","","","",""
"955","","f","psychophysics","74","181250","0.0-8.0-0.0-1.0-0.0-0.32","7","7","7","7","7","5","5","5","5","5","5","2","2","2","1","2","2","2","2","5","5","5","5","1","5","5","5","5","5","8","7","8","8","8","7","8","8","8","7","7","7","7","7","6","7","1","7","7","1","6","6","7","7","7","7","7","7","7","7","7","7","7","7","7","7","7","7","7","7","7","7","7","7","7","7","7","7","7","7","718592959586500608","陈","389","Male","[""好我"",""坏他"",""好他"",""坏我""]","[""强我"",""弱他"",""强他"",""弱我""]","","","","","","","","nonmatch","","","","","","","","","","key","f","16.668508620689583","768","428","f","true","nonmatch","img/square.png","好他","坏我","prac_ALT2_moral","practice_moral","","","","","","","","",""
"null","<span style='color:GreenYellow; font-size: 70px;'>正确! </span>","null","html-keyboard-response","75","181752","0.0-8.0-0.0-1.0-0.0-1.32","7","7","7","7","7","5","5","5","5","5","5","2","2","2","1","2","2","2","2","5","5","5","5","1","5","5","5","5","5","8","7","8","8","8","7","8","8","8","7","7","7","7","7","6","7","1","7","7","1","6","6","7","7","7","7","7","7","7","7","7","7","7","7","7","7","7","7","7","7","7","7","7","7","7","7","7","7","7","7","718592959586500608","陈","389","Male","[""好我"",""坏他"",""好他"",""坏我""]","[""强我"",""弱他"",""强他"",""弱我""]","","","","","","","","","","","","","","","","","","","","","","","","","","","","","","feedback_test","","","","","","","","",""
"818","","j","psychophysics","76","183571","0.0-8.0-0.0-1.0-0.0-0.33","7","7","7","7","7","5","5","5","5","5","5","2","2","2","1","2","2","2","2","5","5","5","5","1","5","5","5","5","5","8","7","8","8","8","7","8","8","8","7","7","7","7","7","6","7","1","7","7","1","6","6","7","7","7","7","7","7","7","7","7","7","7","7","7","7","7","7","7","7","7","7","7","7","7","7","7","7","7","7","718592959586500608","陈","389","Male","[""好我"",""坏他"",""好他"",""坏我""]","[""强我"",""弱他"",""强他"",""弱我""]","","","","","","","","match","","","","","","","","","","key","j","16.666092592592545","768","428","j","true","match","img/diamond.png","坏他","坏他","prac_ALT2_moral","practice_moral","","","","","","","","",""
"null","<span style='color:GreenYellow; font-size: 70px;'>正确! </span>","null","html-keyboard-response","77","184075","0.0-8.0-0.0-1.0-0.0-1.33","7","7","7","7","7","5","5","5","5","5","5","2","2","2","1","2","2","2","2","5","5","5","5","1","5","5","5","5","5","8","7","8","8","8","7","8","8","8","7","7","7","7","7","6","7","1","7","7","1","6","6","7","7","7","7","7","7","7","7","7","7","7","7","7","7","7","7","7","7","7","7","7","7","7","7","7","7","7","7","718592959586500608","陈","389","Male","[""好我"",""坏他"",""好他"",""坏我""]","[""强我"",""弱他"",""强他"",""弱我""]","","","","","","","","","","","","","","","","","","","","","","","","","","","","","","feedback_test","","","","","","","","",""
"716","","f","psychophysics","78","185792","0.0-8.0-0.0-1.0-0.0-0.34","7","7","7","7","7","5","5","5","5","5","5","2","2","2","1","2","2","2","2","5","5","5","5","1","5","5","5","5","5","8","7","8","8","8","7","8","8","8","7","7","7","7","7","6","7","1","7","7","1","6","6","7","7","7","7","7","7","7","7","7","7","7","7","7","7","7","7","7","7","7","7","7","7","7","7","7","7","7","7","718592959586500608","陈","389","Male","[""好我"",""坏他"",""好他"",""坏我""]","[""强我"",""弱他"",""强他"",""弱我""]","","","","","","","","nonmatch","","","","","","","","","","key","f","16.66805882352934","768","428","f","true","nonmatch","img/circle.png","坏他","好我","prac_ALT2_moral","practice_moral","","","","","","","","",""
"null","<span style='color:GreenYellow; font-size: 70px;'>正确! </span>","null","html-keyboard-response","79","186294","0.0-8.0-0.0-1.0-0.0-1.34","7","7","7","7","7","5","5","5","5","5","5","2","2","2","1","2","2","2","2","5","5","5","5","1","5","5","5","5","5","8","7","8","8","8","7","8","8","8","7","7","7","7","7","6","7","1","7","7","1","6","6","7","7","7","7","7","7","7","7","7","7","7","7","7","7","7","7","7","7","7","7","7","7","7","7","7","7","7","7","718592959586500608","陈","389","Male","[""好我"",""坏他"",""好他"",""坏我""]","[""强我"",""弱他"",""强他"",""弱我""]","","","","","","","","","","","","","","","","","","","","","","","","","","","","","","feedback_test","","","","","","","","",""
"721","","j","psychophysics","80","188017","0.0-8.0-0.0-1.0-0.0-0.35","7","7","7","7","7","5","5","5","5","5","5","2","2","2","1","2","2","2","2","5","5","5","5","1","5","5","5","5","5","8","7","8","8","8","7","8","8","8","7","7","7","7","7","6","7","1","7","7","1","6","6","7","7","7","7","7","7","7","7","7","7","7","7","7","7","7","7","7","7","7","7","7","7","7","7","7","7","7","7","718592959586500608","陈","389","Male","[""好我"",""坏他"",""好他"",""坏我""]","[""强我"",""弱他"",""强他"",""弱我""]","","","","","","","","match","","","","","","","","","","key","j","16.666029411764683","768","428","j","true","match","img/hexagon.png","好他","好他","prac_ALT2_moral","practice_moral","","","","","","","","",""
"null","<span style='color:GreenYellow; font-size: 70px;'>正确! </span>","null","html-keyboard-response","81","188520","0.0-8.0-0.0-1.0-0.0-1.35","7","7","7","7","7","5","5","5","5","5","5","2","2","2","1","2","2","2","2","5","5","5","5","1","5","5","5","5","5","8","7","8","8","8","7","8","8","8","7","7","7","7","7","6","7","1","7","7","1","6","6","7","7","7","7","7","7","7","7","7","7","7","7","7","7","7","7","7","7","7","7","7","7","7","7","7","7","7","7","718592959586500608","陈","389","Male","[""好我"",""坏他"",""好他"",""坏我""]","[""强我"",""弱他"",""强他"",""弱我""]","","","","","","","","","","","","","","","","","","","","","","","","","","","","","","feedback_test","","","","","","","","",""
"702","","f","psychophysics","82","190225","0.0-8.0-0.0-1.0-0.0-0.36","7","7","7","7","7","5","5","5","5","5","5","2","2","2","1","2","2","2","2","5","5","5","5","1","5","5","5","5","5","8","7","8","8","8","7","8","8","8","7","7","7","7","7","6","7","1","7","7","1","6","6","7","7","7","7","7","7","7","7","7","7","7","7","7","7","7","7","7","7","7","7","7","7","7","7","7","7","7","7","718592959586500608","陈","389","Male","[""好我"",""坏他"",""好他"",""坏我""]","[""强我"",""弱他"",""强他"",""弱我""]","","","","","","","","nonmatch","","","","","","","","","","key","f","16.66749504950482","768","428","j","false","match","img/diamond.png","坏他","坏他","prac_ALT2_moral","practice_moral","","","","","","","","",""
"null","<span style='color:red; font-size: 70px;'>错误! </span>","null","html-keyboard-response","83","190727","0.0-8.0-0.0-1.0-0.0-1.36","7","7","7","7","7","5","5","5","5","5","5","2","2","2","1","2","2","2","2","5","5","5","5","1","5","5","5","5","5","8","7","8","8","8","7","8","8","8","7","7","7","7","7","6","7","1","7","7","1","6","6","7","7","7","7","7","7","7","7","7","7","7","7","7","7","7","7","7","7","7","7","7","7","7","7","7","7","7","7","718592959586500608","陈","389","Male","[""好我"",""坏他"",""好他"",""坏我""]","[""强我"",""弱他"",""强他"",""弱我""]","","","","","","","","","","","","","","","","","","","","","","","","","","","","","","feedback_test","","","","","","","","",""
"970","","f","psychophysics","84","192700","0.0-8.0-0.0-1.0-0.0-0.37","7","7","7","7","7","5","5","5","5","5","5","2","2","2","1","2","2","2","2","5","5","5","5","1","5","5","5","5","5","8","7","8","8","8","7","8","8","8","7","7","7","7","7","6","7","1","7","7","1","6","6","7","7","7","7","7","7","7","7","7","7","7","7","7","7","7","7","7","7","7","7","7","7","7","7","7","7","7","7","718592959586500608","陈","389","Male","[""好我"",""坏他"",""好他"",""坏我""]","[""强我"",""弱他"",""强他"",""弱我""]","","","","","","","","nonmatch","","","","","","","","","","key","f","16.664068376068343","768","428","f","true","nonmatch","img/square.png","坏他","坏我","prac_ALT2_moral","practice_moral","","","","","","","","",""
"null","<span style='color:GreenYellow; font-size: 70px;'>正确! </span>","null","html-keyboard-response","85","193201","0.0-8.0-0.0-1.0-0.0-1.37","7","7","7","7","7","5","5","5","5","5","5","2","2","2","1","2","2","2","2","5","5","5","5","1","5","5","5","5","5","8","7","8","8","8","7","8","8","8","7","7","7","7","7","6","7","1","7","7","1","6","6","7","7","7","7","7","7","7","7","7","7","7","7","7","7","7","7","7","7","7","7","7","7","7","7","7","7","7","7","718592959586500608","陈","389","Male","[""好我"",""坏他"",""好他"",""坏我""]","[""强我"",""弱他"",""强他"",""弱我""]","","","","","","","","","","","","","","","","","","","","","","","","","","","","","","feedback_test","","","","","","","","",""
"717","","f","psychophysics","86","194919","0.0-8.0-0.0-1.0-0.0-0.38","7","7","7","7","7","5","5","5","5","5","5","2","2","2","1","2","2","2","2","5","5","5","5","1","5","5","5","5","5","8","7","8","8","8","7","8","8","8","7","7","7","7","7","6","7","1","7","7","1","6","6","7","7","7","7","7","7","7","7","7","7","7","7","7","7","7","7","7","7","7","7","7","7","7","7","7","7","7","7","718592959586500608","陈","389","Male","[""好我"",""坏他"",""好他"",""坏我""]","[""强我"",""弱他"",""强他"",""弱我""]","","","","","","","","nonmatch","","","","","","","","","","key","f","16.667274509803974","768","428","f","true","nonmatch","img/diamond.png","坏我","坏他","prac_ALT2_moral","practice_moral","","","","","","","","",""
"null","<span style='color:GreenYellow; font-size: 70px;'>正确! </span>","null","html-keyboard-response","87","195422","0.0-8.0-0.0-1.0-0.0-1.38","7","7","7","7","7","5","5","5","5","5","5","2","2","2","1","2","2","2","2","5","5","5","5","1","5","5","5","5","5","8","7","8","8","8","7","8","8","8","7","7","7","7","7","6","7","1","7","7","1","6","6","7","7","7","7","7","7","7","7","7","7","7","7","7","7","7","7","7","7","7","7","7","7","7","7","7","7","7","7","718592959586500608","陈","389","Male","[""好我"",""坏他"",""好他"",""坏我""]","[""强我"",""弱他"",""强他"",""弱我""]","","","","","","","","","","","","","","","","","","","","","","","","","","","","","","feedback_test","","","","","","","","",""
"597","","j","psychophysics","88","197022","0.0-8.0-0.0-1.0-0.0-0.39","7","7","7","7","7","5","5","5","5","5","5","2","2","2","1","2","2","2","2","5","5","5","5","1","5","5","5","5","5","8","7","8","8","8","7","8","8","8","7","7","7","7","7","6","7","1","7","7","1","6","6","7","7","7","7","7","7","7","7","7","7","7","7","7","7","7","7","7","7","7","7","7","7","7","7","7","7","7","7","718592959586500608","陈","389","Male","[""好我"",""坏他"",""好他"",""坏我""]","[""强我"",""弱他"",""强他"",""弱我""]","","","","","","","","match","","","","","","","","","","key","j","16.666094736842204","768","428","j","true","match","img/circle.png","好我","好我","prac_ALT2_moral","practice_moral","","","","","","","","",""
"null","<span style='color:GreenYellow; font-size: 70px;'>正确! </span>","null","html-keyboard-response","89","197524","0.0-8.0-0.0-1.0-0.0-1.39","7","7","7","7","7","5","5","5","5","5","5","2","2","2","1","2","2","2","2","5","5","5","5","1","5","5","5","5","5","8","7","8","8","8","7","8","8","8","7","7","7","7","7","6","7","1","7","7","1","6","6","7","7","7","7","7","7","7","7","7","7","7","7","7","7","7","7","7","7","7","7","7","7","7","7","7","7","7","7","718592959586500608","陈","389","Male","[""好我"",""坏他"",""好他"",""坏我""]","[""强我"",""弱他"",""强他"",""弱我""]","","","","","","","","","","","","","","","","","","","","","","","","","","","","","","feedback_test","","","","","","","","",""
"536","","j","psychophysics","90","199064","0.0-8.0-0.0-1.0-0.0-0.40","7","7","7","7","7","5","5","5","5","5","5","2","2","2","1","2","2","2","2","5","5","5","5","1","5","5","5","5","5","8","7","8","8","8","7","8","8","8","7","7","7","7","7","6","7","1","7","7","1","6","6","7","7","7","7","7","7","7","7","7","7","7","7","7","7","7","7","7","7","7","7","7","7","7","7","7","7","7","7","718592959586500608","陈","389","Male","[""好我"",""坏他"",""好他"",""坏我""]","[""强我"",""弱他"",""强他"",""弱我""]","","","","","","","","match","","","","","","","","","","key","j","16.668329670329662","768","428","j","true","match","img/circle.png","好我","好我","prac_ALT2_moral","practice_moral","","","","","","","","",""
"null","<span style='color:GreenYellow; font-size: 70px;'>正确! </span>","null","html-keyboard-response","91","199566","0.0-8.0-0.0-1.0-0.0-1.40","7","7","7","7","7","5","5","5","5","5","5","2","2","2","1","2","2","2","2","5","5","5","5","1","5","5","5","5","5","8","7","8","8","8","7","8","8","8","7","7","7","7","7","6","7","1","7","7","1","6","6","7","7","7","7","7","7","7","7","7","7","7","7","7","7","7","7","7","7","7","7","7","7","7","7","7","7","7","7","718592959586500608","陈","389","Male","[""好我"",""坏他"",""好他"",""坏我""]","[""强我"",""弱他"",""强他"",""弱我""]","","","","","","","","","","","","","","","","","","","","","","","","","","","","","","feedback_test","","","","","","","","",""
"553","","f","psychophysics","92","201121","0.0-8.0-0.0-1.0-0.0-0.41","7","7","7","7","7","5","5","5","5","5","5","2","2","2","1","2","2","2","2","5","5","5","5","1","5","5","5","5","5","8","7","8","8","8","7","8","8","8","7","7","7","7","7","6","7","1","7","7","1","6","6","7","7","7","7","7","7","7","7","7","7","7","7","7","7","7","7","7","7","7","7","7","7","7","7","7","7","7","7","718592959586500608","陈","389","Male","[""好我"",""坏他"",""好他"",""坏我""]","[""强我"",""弱他"",""强他"",""弱我""]","","","","","","","","nonmatch","","","","","","","","","","key","f","16.665358695652053","768","428","j","false","match","img/hexagon.png","好他","好他","prac_ALT2_moral","practice_moral","","","","","","","","",""
"null","<span style='color:red; font-size: 70px;'>错误! </span>","null","html-keyboard-response","93","201623","0.0-8.0-0.0-1.0-0.0-1.41","7","7","7","7","7","5","5","5","5","5","5","2","2","2","1","2","2","2","2","5","5","5","5","1","5","5","5","5","5","8","7","8","8","8","7","8","8","8","7","7","7","7","7","6","7","1","7","7","1","6","6","7","7","7","7","7","7","7","7","7","7","7","7","7","7","7","7","7","7","7","7","7","7","7","7","7","7","7","7","718592959586500608","陈","389","Male","[""好我"",""坏他"",""好他"",""坏我""]","[""强我"",""弱他"",""强他"",""弱我""]","","","","","","","","","","","","","","","","","","","","","","","","","","","","","","feedback_test","","","","","","","","",""
"628","","j","psychophysics","94","203255","0.0-8.0-0.0-1.0-0.0-0.42","7","7","7","7","7","5","5","5","5","5","5","2","2","2","1","2","2","2","2","5","5","5","5","1","5","5","5","5","5","8","7","8","8","8","7","8","8","8","7","7","7","7","7","6","7","1","7","7","1","6","6","7","7","7","7","7","7","7","7","7","7","7","7","7","7","7","7","7","7","7","7","7","7","7","7","7","7","7","7","718592959586500608","陈","389","Male","[""好我"",""坏他"",""好他"",""坏我""]","[""强我"",""弱他"",""强他"",""弱我""]","","","","","","","","match","","","","","","","","","","key","j","16.667350515463696","768","428","j","true","match","img/circle.png","好我","好我","prac_ALT2_moral","practice_moral","","","","","","","","",""
"null","<span style='color:GreenYellow; font-size: 70px;'>正确! </span>","null","html-keyboard-response","95","203756","0.0-8.0-0.0-1.0-0.0-1.42","7","7","7","7","7","5","5","5","5","5","5","2","2","2","1","2","2","2","2","5","5","5","5","1","5","5","5","5","5","8","7","8","8","8","7","8","8","8","7","7","7","7","7","6","7","1","7","7","1","6","6","7","7","7","7","7","7","7","7","7","7","7","7","7","7","7","7","7","7","7","7","7","7","7","7","7","7","7","7","718592959586500608","陈","389","Male","[""好我"",""坏他"",""好他"",""坏我""]","[""强我"",""弱他"",""强他"",""弱我""]","","","","","","","","","","","","","","","","","","","","","","","","","","","","","","feedback_test","","","","","","","","",""
"577","","f","psychophysics","96","205335","0.0-8.0-0.0-1.0-0.0-0.43","7","7","7","7","7","5","5","5","5","5","5","2","2","2","1","2","2","2","2","5","5","5","5","1","5","5","5","5","5","8","7","8","8","8","7","8","8","8","7","7","7","7","7","6","7","1","7","7","1","6","6","7","7","7","7","7","7","7","7","7","7","7","7","7","7","7","7","7","7","7","7","7","7","7","7","7","7","7","7","718592959586500608","陈","389","Male","[""好我"",""坏他"",""好他"",""坏我""]","[""强我"",""弱他"",""强他"",""弱我""]","","","","","","","","nonmatch","","","","","","","","","","key","f","16.668574468085314","768","428","f","true","nonmatch","img/diamond.png","好我","坏他","prac_ALT2_moral","practice_moral","","","","","","","","",""
"null","<span style='color:GreenYellow; font-size: 70px;'>正确! </span>","null","html-keyboard-response","97","205836","0.0-8.0-0.0-1.0-0.0-1.43","7","7","7","7","7","5","5","5","5","5","5","2","2","2","1","2","2","2","2","5","5","5","5","1","5","5","5","5","5","8","7","8","8","8","7","8","8","8","7","7","7","7","7","6","7","1","7","7","1","6","6","7","7","7","7","7","7","7","7","7","7","7","7","7","7","7","7","7","7","7","7","7","7","7","7","7","7","7","7","718592959586500608","陈","389","Male","[""好我"",""坏他"",""好他"",""坏我""]","[""强我"",""弱他"",""强他"",""弱我""]","","","","","","","","","","","","","","","","","","","","","","","","","","","","","","feedback_test","","","","","","","","",""
"855","","j","psychophysics","98","207693","0.0-8.0-0.0-1.0-0.0-0.44","7","7","7","7","7","5","5","5","5","5","5","2","2","2","1","2","2","2","2","5","5","5","5","1","5","5","5","5","5","8","7","8","8","8","7","8","8","8","7","7","7","7","7","6","7","1","7","7","1","6","6","7","7","7","7","7","7","7","7","7","7","7","7","7","7","7","7","7","7","7","7","7","7","7","7","7","7","7","7","718592959586500608","陈","389","Male","[""好我"",""坏他"",""好他"",""坏我""]","[""强我"",""弱他"",""强他"",""弱我""]","","","","","","","","match","","","","","","","","","","key","j","16.665572727272625","768","428","f","false","nonmatch","img/diamond.png","好他","坏他","prac_ALT2_moral","practice_moral","","","","","","","","",""
"null","<span style='color:red; font-size: 70px;'>错误! </span>","null","html-keyboard-response","99","208200","0.0-8.0-0.0-1.0-0.0-1.44","7","7","7","7","7","5","5","5","5","5","5","2","2","2","1","2","2","2","2","5","5","5","5","1","5","5","5","5","5","8","7","8","8","8","7","8","8","8","7","7","7","7","7","6","7","1","7","7","1","6","6","7","7","7","7","7","7","7","7","7","7","7","7","7","7","7","7","7","7","7","7","7","7","7","7","7","7","7","7","718592959586500608","陈","389","Male","[""好我"",""坏他"",""好他"",""坏我""]","[""强我"",""弱他"",""强他"",""弱我""]","","","","","","","","","","","","","","","","","","","","","","","","","","","","","","feedback_test","","","","","","","","",""
"803","","f","psychophysics","100","210006","0.0-8.0-0.0-1.0-0.0-0.45","7","7","7","7","7","5","5","5","5","5","5","2","2","2","1","2","2","2","2","5","5","5","5","1","5","5","5","5","5","8","7","8","8","8","7","8","8","8","7","7","7","7","7","6","7","1","7","7","1","6","6","7","7","7","7","7","7","7","7","7","7","7","7","7","7","7","7","7","7","7","7","7","7","7","7","7","7","7","7","718592959586500608","陈","389","Male","[""好我"",""坏他"",""好他"",""坏我""]","[""强我"",""弱他"",""强他"",""弱我""]","","","","","","","","nonmatch","","","","","","","","","","key","f","16.66605607476646","768","428","f","true","nonmatch","img/hexagon.png","好我","好他","prac_ALT2_moral","practice_moral","","","","","","","","",""
"null","<span style='color:GreenYellow; font-size: 70px;'>正确! </span>","null","html-keyboard-response","101","210507","0.0-8.0-0.0-1.0-0.0-1.45","7","7","7","7","7","5","5","5","5","5","5","2","2","2","1","2","2","2","2","5","5","5","5","1","5","5","5","5","5","8","7","8","8","8","7","8","8","8","7","7","7","7","7","6","7","1","7","7","1","6","6","7","7","7","7","7","7","7","7","7","7","7","7","7","7","7","7","7","7","7","7","7","7","7","7","7","7","7","7","718592959586500608","陈","389","Male","[""好我"",""坏他"",""好他"",""坏我""]","[""强我"",""弱他"",""强他"",""弱我""]","","","","","","","","","","","","","","","","","","","","","","","","","","","","","","feedback_test","","","","","","","","",""
"630","","f","psychophysics","102","212140","0.0-8.0-0.0-1.0-0.0-0.46","7","7","7","7","7","5","5","5","5","5","5","2","2","2","1","2","2","2","2","5","5","5","5","1","5","5","5","5","5","8","7","8","8","8","7","8","8","8","7","7","7","7","7","6","7","1","7","7","1","6","6","7","7","7","7","7","7","7","7","7","7","7","7","7","7","7","7","7","7","7","7","7","7","7","7","7","7","7","7","718592959586500608","陈","389","Male","[""好我"",""坏他"",""好他"",""坏我""]","[""强我"",""弱他"",""强他"",""弱我""]","","","","","","","","nonmatch","","","","","","","","","","key","f","16.666474226803984","768","428","f","true","nonmatch","img/circle.png","坏我","好我","prac_ALT2_moral","practice_moral","","","","","","","","",""
"null","<span style='color:GreenYellow; font-size: 70px;'>正确! </span>","null","html-keyboard-response","103","212642","0.0-8.0-0.0-1.0-0.0-1.46","7","7","7","7","7","5","5","5","5","5","5","2","2","2","1","2","2","2","2","5","5","5","5","1","5","5","5","5","5","8","7","8","8","8","7","8","8","8","7","7","7","7","7","6","7","1","7","7","1","6","6","7","7","7","7","7","7","7","7","7","7","7","7","7","7","7","7","7","7","7","7","7","7","7","7","7","7","7","7","718592959586500608","陈","389","Male","[""好我"",""坏他"",""好他"",""坏我""]","[""强我"",""弱他"",""强他"",""弱我""]","","","","","","","","","","","","","","","","","","","","","","","","","","","","","","feedback_test","","","","","","","","",""
"824","","f","psychophysics","104","214469","0.0-8.0-0.0-1.0-0.0-0.47","7","7","7","7","7","5","5","5","5","5","5","2","2","2","1","2","2","2","2","5","5","5","5","1","5","5","5","5","5","8","7","8","8","8","7","8","8","8","7","7","7","7","7","6","7","1","7","7","1","6","6","7","7","7","7","7","7","7","7","7","7","7","7","7","7","7","7","7","7","7","7","7","7","7","7","7","7","7","7","718592959586500608","陈","389","Male","[""好我"",""坏他"",""好他"",""坏我""]","[""强我"",""弱他"",""强他"",""弱我""]","","","","","","","","nonmatch","","","","","","","","","","key","f","16.666825688073203","768","428","j","false","match","img/square.png","坏我","坏我","prac_ALT2_moral","practice_moral","","","","","","","","",""
"null","<span style='color:red; font-size: 70px;'>错误! </span>","null","html-keyboard-response","105","214971","0.0-8.0-0.0-1.0-0.0-1.47","7","7","7","7","7","5","5","5","5","5","5","2","2","2","1","2","2","2","2","5","5","5","5","1","5","5","5","5","5","8","7","8","8","8","7","8","8","8","7","7","7","7","7","6","7","1","7","7","1","6","6","7","7","7","7","7","7","7","7","7","7","7","7","7","7","7","7","7","7","7","7","7","7","7","7","7","7","7","7","718592959586500608","陈","389","Male","[""好我"",""坏他"",""好他"",""坏我""]","[""强我"",""弱他"",""强他"",""弱我""]","","","","","","","","","","","","","","","","","","","","","","","","","","","","","","feedback_test","","","","","","","","",""
"935","<style>.context{color:white; font-size: 35px; line-height:40px}</style>                            <div><p class='context'>您正确回答了77% 的试次。</p><p class='context'>您的平均反应时为780毫秒。</p><p class='context'>恭喜您完成练习。按空格键进入正式实验。</p><p class='footer' style='font-size: 35px; line-height:40px;'>请在进入正式实验实验之前将您的<span style='color: lightgreen;'>食指</span>放在电脑键盘的相应键位上进行按键。</p>"," ","html-keyboard-response","106","215908","0.0-8.0-0.0-2.0","7","7","7","7","7","5","5","5","5","5","5","2","2","2","1","2","2","2","2","5","5","5","5","1","5","5","5","5","5","8","7","8","8","8","7","8","8","8","7","7","7","7","7","6","7","1","7","7","1","6","6","7","7","7","7","7","7","7","7","7","7","7","7","7","7","7","7","7","7","7","7","7","7","7","7","7","7","7","7","718592959586500608","陈","389","Male","[""好我"",""坏他"",""好他"",""坏我""]","[""强我"",""弱他"",""强他"",""弱我""]","","","","","","","","","","","","","","","","","","","","","","","","","","","","","","","","","","","","","","",""
"648","
    <p style='color: white; font-size: 22px'>请您将手指放在按键上，准备进入正式的匹配任务。</p>
    <p> <div style = ""color: green""><按空格键进入下一阶段的匹配任务></div></p>
    "," ","html-keyboard-response","107","216558","0.0-8.0-0.0-3.0","7","7","7","7","7","5","5","5","5","5","5","2","2","2","1","2","2","2","2","5","5","5","5","1","5","5","5","5","5","8","7","8","8","8","7","8","8","8","7","7","7","7","7","6","7","1","7","7","1","6","6","7","7","7","7","7","7","7","7","7","7","7","7","7","7","7","7","7","7","7","7","7","7","7","7","7","7","7","7","718592959586500608","陈","389","Male","[""好我"",""坏他"",""好他"",""坏我""]","[""强我"",""弱他"",""强他"",""弱我""]","","","","","","","","","","","","","","","","","","","","","","","","","","","","","","","","","","","","","","",""
"731","","f","psychophysics","108","218290","0.0-8.0-0.0-4.0-0.0-0.0","7","7","7","7","7","5","5","5","5","5","5","2","2","2","1","2","2","2","2","5","5","5","5","1","5","5","5","5","5","8","7","8","8","8","7","8","8","8","7","7","7","7","7","6","7","1","7","7","1","6","6","7","7","7","7","7","7","7","7","7","7","7","7","7","7","7","7","7","7","7","7","7","7","7","7","7","7","7","7","718592959586500608","陈","389","Male","[""好我"",""坏他"",""好他"",""坏我""]","[""强我"",""弱他"",""强他"",""弱我""]","","","","","","","","nonmatch","","","","","","","","","","key","f","16.66644660194175","768","428","f","true","nonmatch","img/circle.png","好他","好我","ALT2","moral","","","","","","","","",""
"null","<span style='color:GreenYellow; font-size: 70px;'>正确! </span>","null","html-keyboard-response","109","218792","0.0-8.0-0.0-4.0-0.0-1.0","7","7","7","7","7","5","5","5","5","5","5","2","2","2","1","2","2","2","2","5","5","5","5","1","5","5","5","5","5","8","7","8","8","8","7","8","8","8","7","7","7","7","7","6","7","1","7","7","1","6","6","7","7","7","7","7","7","7","7","7","7","7","7","7","7","7","7","7","7","7","7","7","7","7","7","7","7","7","7","718592959586500608","陈","389","Male","[""好我"",""坏他"",""好他"",""坏我""]","[""强我"",""弱他"",""强他"",""弱我""]","","","","","","","","","","","","","","","","","","","","","","","","","","","","","","feedback_test","","","","","","","","",""
"904","","f","psychophysics","110","220698","0.0-8.0-0.0-4.0-0.0-0.1","7","7","7","7","7","5","5","5","5","5","5","2","2","2","1","2","2","2","2","5","5","5","5","1","5","5","5","5","5","8","7","8","8","8","7","8","8","8","7","7","7","7","7","6","7","1","7","7","1","6","6","7","7","7","7","7","7","7","7","7","7","7","7","7","7","7","7","7","7","7","7","7","7","7","7","7","7","7","7","718592959586500608","陈","389","Male","[""好我"",""坏他"",""好他"",""坏我""]","[""强我"",""弱他"",""强他"",""弱我""]","","","","","","","","nonmatch","","","","","","","","","","key","f","16.665517543859703","768","428","f","true","nonmatch","img/square.png","坏他","坏我","ALT2","moral","","","","","","","","",""
"null","<span style='color:GreenYellow; font-size: 70px;'>正确! </span>","null","html-keyboard-response","111","221199","0.0-8.0-0.0-4.0-0.0-1.1","7","7","7","7","7","5","5","5","5","5","5","2","2","2","1","2","2","2","2","5","5","5","5","1","5","5","5","5","5","8","7","8","8","8","7","8","8","8","7","7","7","7","7","6","7","1","7","7","1","6","6","7","7","7","7","7","7","7","7","7","7","7","7","7","7","7","7","7","7","7","7","7","7","7","7","7","7","7","7","718592959586500608","陈","389","Male","[""好我"",""坏他"",""好他"",""坏我""]","[""强我"",""弱他"",""强他"",""弱我""]","","","","","","","","","","","","","","","","","","","","","","","","","","","","","","feedback_test","","","","","","","","",""
"660","","j","psychophysics","112","222862","0.0-8.0-0.0-4.0-0.0-0.2","7","7","7","7","7","5","5","5","5","5","5","2","2","2","1","2","2","2","2","5","5","5","5","1","5","5","5","5","5","8","7","8","8","8","7","8","8","8","7","7","7","7","7","6","7","1","7","7","1","6","6","7","7","7","7","7","7","7","7","7","7","7","7","7","7","7","7","7","7","7","7","7","7","7","7","7","7","7","7","718592959586500608","陈","389","Male","[""好我"",""坏他"",""好他"",""坏我""]","[""强我"",""弱他"",""强他"",""弱我""]","","","","","","","","match","","","","","","","","","","key","j","16.665326530612145","768","428","j","true","match","img/circle.png","好我","好我","ALT2","moral","","","","","","","","",""
"null","<span style='color:GreenYellow; font-size: 70px;'>正确! </span>","null","html-keyboard-response","113","223363","0.0-8.0-0.0-4.0-0.0-1.2","7","7","7","7","7","5","5","5","5","5","5","2","2","2","1","2","2","2","2","5","5","5","5","1","5","5","5","5","5","8","7","8","8","8","7","8","8","8","7","7","7","7","7","6","7","1","7","7","1","6","6","7","7","7","7","7","7","7","7","7","7","7","7","7","7","7","7","7","7","7","7","7","7","7","7","7","7","7","7","718592959586500608","陈","389","Male","[""好我"",""坏他"",""好他"",""坏我""]","[""强我"",""弱他"",""强他"",""弱我""]","","","","","","","","","","","","","","","","","","","","","","","","","","","","","","feedback_test","","","","","","","","",""
"698","","f","psychophysics","114","225064","0.0-8.0-0.0-4.0-0.0-0.3","7","7","7","7","7","5","5","5","5","5","5","2","2","2","1","2","2","2","2","5","5","5","5","1","5","5","5","5","5","8","7","8","8","8","7","8","8","8","7","7","7","7","7","6","7","1","7","7","1","6","6","7","7","7","7","7","7","7","7","7","7","7","7","7","7","7","7","7","7","7","7","7","7","7","7","7","7","7","7","718592959586500608","陈","389","Male","[""好我"",""坏他"",""好他"",""坏我""]","[""强我"",""弱他"",""强他"",""弱我""]","","","","","","","","nonmatch","","","","","","","","","","key","f","16.663544554455555","768","428","f","true","nonmatch","img/hexagon.png","坏我","好他","ALT2","moral","","","","","","","","",""
"null","<span style='color:GreenYellow; font-size: 70px;'>正确! </span>","null","html-keyboard-response","115","225565","0.0-8.0-0.0-4.0-0.0-1.3","7","7","7","7","7","5","5","5","5","5","5","2","2","2","1","2","2","2","2","5","5","5","5","1","5","5","5","5","5","8","7","8","8","8","7","8","8","8","7","7","7","7","7","6","7","1","7","7","1","6","6","7","7","7","7","7","7","7","7","7","7","7","7","7","7","7","7","7","7","7","7","7","7","7","7","7","7","7","7","718592959586500608","陈","389","Male","[""好我"",""坏他"",""好他"",""坏我""]","[""强我"",""弱他"",""强他"",""弱我""]","","","","","","","","","","","","","","","","","","","","","","","","","","","","","","feedback_test","","","","","","","","",""
"689","","f","psychophysics","116","227256","0.0-8.0-0.0-4.0-0.0-0.4","7","7","7","7","7","5","5","5","5","5","5","2","2","2","1","2","2","2","2","5","5","5","5","1","5","5","5","5","5","8","7","8","8","8","7","8","8","8","7","7","7","7","7","6","7","1","7","7","1","6","6","7","7","7","7","7","7","7","7","7","7","7","7","7","7","7","7","7","7","7","7","7","7","7","7","7","7","7","7","718592959586500608","陈","389","Male","[""好我"",""坏他"",""好他"",""坏我""]","[""强我"",""弱他"",""强他"",""弱我""]","","","","","","","","nonmatch","","","","","","","","","","key","f","16.66622000000003","768","428","j","false","match","img/hexagon.png","好他","好他","ALT2","moral","","","","","","","","",""
"null","<span style='color:red; font-size: 70px;'>错误! </span>","null","html-keyboard-response","117","227757","0.0-8.0-0.0-4.0-0.0-1.4","7","7","7","7","7","5","5","5","5","5","5","2","2","2","1","2","2","2","2","5","5","5","5","1","5","5","5","5","5","8","7","8","8","8","7","8","8","8","7","7","7","7","7","6","7","1","7","7","1","6","6","7","7","7","7","7","7","7","7","7","7","7","7","7","7","7","7","7","7","7","7","7","7","7","7","7","7","7","7","718592959586500608","陈","389","Male","[""好我"",""坏他"",""好他"",""坏我""]","[""强我"",""弱他"",""强他"",""弱我""]","","","","","","","","","","","","","","","","","","","","","","","","","","","","","","feedback_test","","","","","","","","",""
"660","","j","psychophysics","118","229419","0.0-8.0-0.0-4.0-0.0-0.5","7","7","7","7","7","5","5","5","5","5","5","2","2","2","1","2","2","2","2","5","5","5","5","1","5","5","5","5","5","8","7","8","8","8","7","8","8","8","7","7","7","7","7","6","7","1","7","7","1","6","6","7","7","7","7","7","7","7","7","7","7","7","7","7","7","7","7","7","7","7","7","7","7","7","7","7","7","7","7","718592959586500608","陈","389","Male","[""好我"",""坏他"",""好他"",""坏我""]","[""强我"",""弱他"",""强他"",""弱我""]","","","","","","","","match","","","","","","","","","","key","j","16.66775757575765","768","428","j","true","match","img/square.png","坏我","坏我","ALT2","moral","","","","","","","","",""
"null","<span style='color:GreenYellow; font-size: 70px;'>正确! </span>","null","html-keyboard-response","119","229921","0.0-8.0-0.0-4.0-0.0-1.5","7","7","7","7","7","5","5","5","5","5","5","2","2","2","1","2","2","2","2","5","5","5","5","1","5","5","5","5","5","8","7","8","8","8","7","8","8","8","7","7","7","7","7","6","7","1","7","7","1","6","6","7","7","7","7","7","7","7","7","7","7","7","7","7","7","7","7","7","7","7","7","7","7","7","7","7","7","7","7","718592959586500608","陈","389","Male","[""好我"",""坏他"",""好他"",""坏我""]","[""强我"",""弱他"",""强他"",""弱我""]","","","","","","","","","","","","","","","","","","","","","","","","","","","","","","feedback_test","","","","","","","","",""
"567","","j","psychophysics","120","231490","0.0-8.0-0.0-4.0-0.0-0.6","7","7","7","7","7","5","5","5","5","5","5","2","2","2","1","2","2","2","2","5","5","5","5","1","5","5","5","5","5","8","7","8","8","8","7","8","8","8","7","7","7","7","7","6","7","1","7","7","1","6","6","7","7","7","7","7","7","7","7","7","7","7","7","7","7","7","7","7","7","7","7","7","7","7","7","7","7","7","7","718592959586500608","陈","389","Male","[""好我"",""坏他"",""好他"",""坏我""]","[""强我"",""弱他"",""强他"",""弱我""]","","","","","","","","match","","","","","","","","","","key","j","16.666967741935387","768","428","j","true","match","img/circle.png","好我","好我","ALT2","moral","","","","","","","","",""
"null","<span style='color:GreenYellow; font-size: 70px;'>正确! </span>","null","html-keyboard-response","121","231991","0.0-8.0-0.0-4.0-0.0-1.6","7","7","7","7","7","5","5","5","5","5","5","2","2","2","1","2","2","2","2","5","5","5","5","1","5","5","5","5","5","8","7","8","8","8","7","8","8","8","7","7","7","7","7","6","7","1","7","7","1","6","6","7","7","7","7","7","7","7","7","7","7","7","7","7","7","7","7","7","7","7","7","7","7","7","7","7","7","7","7","718592959586500608","陈","389","Male","[""好我"",""坏他"",""好他"",""坏我""]","[""强我"",""弱他"",""强他"",""弱我""]","","","","","","","","","","","","","","","","","","","","","","","","","","","","","","feedback_test","","","","","","","","",""
"814","","f","psychophysics","122","233807","0.0-8.0-0.0-4.0-0.0-0.7","7","7","7","7","7","5","5","5","5","5","5","2","2","2","1","2","2","2","2","5","5","5","5","1","5","5","5","5","5","8","7","8","8","8","7","8","8","8","7","7","7","7","7","6","7","1","7","7","1","6","6","7","7","7","7","7","7","7","7","7","7","7","7","7","7","7","7","7","7","7","7","7","7","7","7","7","7","7","7","718592959586500608","陈","389","Male","[""好我"",""坏他"",""好他"",""坏我""]","[""强我"",""弱他"",""强他"",""弱我""]","","","","","","","","nonmatch","","","","","","","","","","key","f","16.665898148148024","768","428","f","true","nonmatch","img/diamond.png","好他","坏他","ALT2","moral","","","","","","","","",""
"null","<span style='color:GreenYellow; font-size: 70px;'>正确! </span>","null","html-keyboard-response","123","234307","0.0-8.0-0.0-4.0-0.0-1.7","7","7","7","7","7","5","5","5","5","5","5","2","2","2","1","2","2","2","2","5","5","5","5","1","5","5","5","5","5","8","7","8","8","8","7","8","8","8","7","7","7","7","7","6","7","1","7","7","1","6","6","7","7","7","7","7","7","7","7","7","7","7","7","7","7","7","7","7","7","7","7","7","7","7","7","7","7","7","7","718592959586500608","陈","389","Male","[""好我"",""坏他"",""好他"",""坏我""]","[""强我"",""弱他"",""强他"",""弱我""]","","","","","","","","","","","","","","","","","","","","","","","","","","","","","","feedback_test","","","","","","","","",""
"635","","f","psychophysics","124","235945","0.0-8.0-0.0-4.0-0.0-0.8","7","7","7","7","7","5","5","5","5","5","5","2","2","2","1","2","2","2","2","5","5","5","5","1","5","5","5","5","5","8","7","8","8","8","7","8","8","8","7","7","7","7","7","6","7","1","7","7","1","6","6","7","7","7","7","7","7","7","7","7","7","7","7","7","7","7","7","7","7","7","7","7","7","7","7","7","7","7","7","718592959586500608","陈","389","Male","[""好我"",""坏他"",""好他"",""坏我""]","[""强我"",""弱他"",""强他"",""弱我""]","","","","","","","","nonmatch","","","","","","","","","","key","f","16.664989690721807","768","428","f","true","nonmatch","img/square.png","好我","坏我","ALT2","moral","","","","","","","","",""
"null","<span style='color:GreenYellow; font-size: 70px;'>正确! </span>","null","html-keyboard-response","125","236446","0.0-8.0-0.0-4.0-0.0-1.8","7","7","7","7","7","5","5","5","5","5","5","2","2","2","1","2","2","2","2","5","5","5","5","1","5","5","5","5","5","8","7","8","8","8","7","8","8","8","7","7","7","7","7","6","7","1","7","7","1","6","6","7","7","7","7","7","7","7","7","7","7","7","7","7","7","7","7","7","7","7","7","7","7","7","7","7","7","7","7","718592959586500608","陈","389","Male","[""好我"",""坏他"",""好他"",""坏我""]","[""强我"",""弱他"",""强他"",""弱我""]","","","","","","","","","","","","","","","","","","","","","","","","","","","","","","feedback_test","","","","","","","","",""
"926","","f","psychophysics","126","238375","0.0-8.0-0.0-4.0-0.0-0.9","7","7","7","7","7","5","5","5","5","5","5","2","2","2","1","2","2","2","2","5","5","5","5","1","5","5","5","5","5","8","7","8","8","8","7","8","8","8","7","7","7","7","7","6","7","1","7","7","1","6","6","7","7","7","7","7","7","7","7","7","7","7","7","7","7","7","7","7","7","7","7","7","7","7","7","7","7","7","7","718592959586500608","陈","389","Male","[""好我"",""坏他"",""好他"",""坏我""]","[""强我"",""弱他"",""强他"",""弱我""]","","","","","","","","nonmatch","","","","","","","","","","key","f","16.666245614035258","768","428","f","true","nonmatch","img/square.png","好他","坏我","ALT2","moral","","","","","","","","",""
"null","<span style='color:GreenYellow; font-size: 70px;'>正确! </span>","null","html-keyboard-response","127","238878","0.0-8.0-0.0-4.0-0.0-1.9","7","7","7","7","7","5","5","5","5","5","5","2","2","2","1","2","2","2","2","5","5","5","5","1","5","5","5","5","5","8","7","8","8","8","7","8","8","8","7","7","7","7","7","6","7","1","7","7","1","6","6","7","7","7","7","7","7","7","7","7","7","7","7","7","7","7","7","7","7","7","7","7","7","7","7","7","7","7","7","718592959586500608","陈","389","Male","[""好我"",""坏他"",""好他"",""坏我""]","[""强我"",""弱他"",""强他"",""弱我""]","","","","","","","","","","","","","","","","","","","","","","","","","","","","","","feedback_test","","","","","","","","",""
"713","","f","psychophysics","128","240598","0.0-8.0-0.0-4.0-0.0-0.10","7","7","7","7","7","5","5","5","5","5","5","2","2","2","1","2","2","2","2","5","5","5","5","1","5","5","5","5","5","8","7","8","8","8","7","8","8","8","7","7","7","7","7","6","7","1","7","7","1","6","6","7","7","7","7","7","7","7","7","7","7","7","7","7","7","7","7","7","7","7","7","7","7","7","7","7","7","7","7","718592959586500608","陈","389","Male","[""好我"",""坏他"",""好他"",""坏我""]","[""强我"",""弱他"",""强他"",""弱我""]","","","","","","","","nonmatch","","","","","","","","","","key","f","16.666088235294037","768","428","f","true","nonmatch","img/diamond.png","坏我","坏他","ALT2","moral","","","","","","","","",""
"null","<span style='color:GreenYellow; font-size: 70px;'>正确! </span>","null","html-keyboard-response","129","241102","0.0-8.0-0.0-4.0-0.0-1.10","7","7","7","7","7","5","5","5","5","5","5","2","2","2","1","2","2","2","2","5","5","5","5","1","5","5","5","5","5","8","7","8","8","8","7","8","8","8","7","7","7","7","7","6","7","1","7","7","1","6","6","7","7","7","7","7","7","7","7","7","7","7","7","7","7","7","7","7","7","7","7","7","7","7","7","7","7","7","7","718592959586500608","陈","389","Male","[""好我"",""坏他"",""好他"",""坏我""]","[""强我"",""弱他"",""强他"",""弱我""]","","","","","","","","","","","","","","","","","","","","","","","","","","","","","","feedback_test","","","","","","","","",""
"590","","j","psychophysics","130","242695","0.0-8.0-0.0-4.0-0.0-0.11","7","7","7","7","7","5","5","5","5","5","5","2","2","2","1","2","2","2","2","5","5","5","5","1","5","5","5","5","5","8","7","8","8","8","7","8","8","8","7","7","7","7","7","6","7","1","7","7","1","6","6","7","7","7","7","7","7","7","7","7","7","7","7","7","7","7","7","7","7","7","7","7","7","7","7","7","7","7","7","718592959586500608","陈","389","Male","[""好我"",""坏他"",""好他"",""坏我""]","[""强我"",""弱他"",""强他"",""弱我""]","","","","","","","","match","","","","","","","","","","key","j","16.664431578947205","768","428","f","false","nonmatch","img/circle.png","坏他","好我","ALT2","moral","","","","","","","","",""
"null","<span style='color:red; font-size: 70px;'>错误! </span>","null","html-keyboard-response","131","243196","0.0-8.0-0.0-4.0-0.0-1.11","7","7","7","7","7","5","5","5","5","5","5","2","2","2","1","2","2","2","2","5","5","5","5","1","5","5","5","5","5","8","7","8","8","8","7","8","8","8","7","7","7","7","7","6","7","1","7","7","1","6","6","7","7","7","7","7","7","7","7","7","7","7","7","7","7","7","7","7","7","7","7","7","7","7","7","7","7","7","7","718592959586500608","陈","389","Male","[""好我"",""坏他"",""好他"",""坏我""]","[""强我"",""弱他"",""强他"",""弱我""]","","","","","","","","","","","","","","","","","","","","","","","","","","","","","","feedback_test","","","","","","","","",""
"880","","j","psychophysics","132","245079","0.0-8.0-0.0-4.0-0.0-0.12","7","7","7","7","7","5","5","5","5","5","5","2","2","2","1","2","2","2","2","5","5","5","5","1","5","5","5","5","5","8","7","8","8","8","7","8","8","8","7","7","7","7","7","6","7","1","7","7","1","6","6","7","7","7","7","7","7","7","7","7","7","7","7","7","7","7","7","7","7","7","7","7","7","7","7","7","7","7","7","718592959586500608","陈","389","Male","[""好我"",""坏他"",""好他"",""坏我""]","[""强我"",""弱他"",""强他"",""弱我""]","","","","","","","","match","","","","","","","","","","key","j","16.66572321428586","768","428","f","false","nonmatch","img/circle.png","坏我","好我","ALT2","moral","","","","","","","","",""
"null","<span style='color:red; font-size: 70px;'>错误! </span>","null","html-keyboard-response","133","245580","0.0-8.0-0.0-4.0-0.0-1.12","7","7","7","7","7","5","5","5","5","5","5","2","2","2","1","2","2","2","2","5","5","5","5","1","5","5","5","5","5","8","7","8","8","8","7","8","8","8","7","7","7","7","7","6","7","1","7","7","1","6","6","7","7","7","7","7","7","7","7","7","7","7","7","7","7","7","7","7","7","7","7","7","7","7","7","7","7","7","7","718592959586500608","陈","389","Male","[""好我"",""坏他"",""好他"",""坏我""]","[""强我"",""弱他"",""强他"",""弱我""]","","","","","","","","","","","","","","","","","","","","","","","","","","","","","","feedback_test","","","","","","","","",""
"997","","f","psychophysics","134","247579","0.0-8.0-0.0-4.0-0.0-0.13","7","7","7","7","7","5","5","5","5","5","5","2","2","2","1","2","2","2","2","5","5","5","5","1","5","5","5","5","5","8","7","8","8","8","7","8","8","8","7","7","7","7","7","6","7","1","7","7","1","6","6","7","7","7","7","7","7","7","7","7","7","7","7","7","7","7","7","7","7","7","7","7","7","7","7","7","7","7","7","718592959586500608","陈","389","Male","[""好我"",""坏他"",""好他"",""坏我""]","[""强我"",""弱他"",""强他"",""弱我""]","","","","","","","","nonmatch","","","","","","","","","","key","f","16.66631932773098","768","428","f","true","nonmatch","img/hexagon.png","好我","好他","ALT2","moral","","","","","","","","",""
"null","<span style='color:GreenYellow; font-size: 70px;'>正确! </span>","null","html-keyboard-response","135","248080","0.0-8.0-0.0-4.0-0.0-1.13","7","7","7","7","7","5","5","5","5","5","5","2","2","2","1","2","2","2","2","5","5","5","5","1","5","5","5","5","5","8","7","8","8","8","7","8","8","8","7","7","7","7","7","6","7","1","7","7","1","6","6","7","7","7","7","7","7","7","7","7","7","7","7","7","7","7","7","7","7","7","7","7","7","7","7","7","7","7","7","718592959586500608","陈","389","Male","[""好我"",""坏他"",""好他"",""坏我""]","[""强我"",""弱他"",""强他"",""弱我""]","","","","","","","","","","","","","","","","","","","","","","","","","","","","","","feedback_test","","","","","","","","",""
"1014","","j","psychophysics","136","250096","0.0-8.0-0.0-4.0-0.0-0.14","7","7","7","7","7","5","5","5","5","5","5","2","2","2","1","2","2","2","2","5","5","5","5","1","5","5","5","5","5","8","7","8","8","8","7","8","8","8","7","7","7","7","7","6","7","1","7","7","1","6","6","7","7","7","7","7","7","7","7","7","7","7","7","7","7","7","7","7","7","7","7","7","7","7","7","7","7","7","7","718592959586500608","陈","389","Male","[""好我"",""坏他"",""好他"",""坏我""]","[""强我"",""弱他"",""强他"",""弱我""]","","","","","","","","match","","","","","","","","","","key","j","16.663233333333242","768","428","j","true","match","img/diamond.png","坏他","坏他","ALT2","moral","","","","","","","","",""
"null","<span style='color:GreenYellow; font-size: 70px;'>正确! </span>","null","html-keyboard-response","137","250597","0.0-8.0-0.0-4.0-0.0-1.14","7","7","7","7","7","5","5","5","5","5","5","2","2","2","1","2","2","2","2","5","5","5","5","1","5","5","5","5","5","8","7","8","8","8","7","8","8","8","7","7","7","7","7","6","7","1","7","7","1","6","6","7","7","7","7","7","7","7","7","7","7","7","7","7","7","7","7","7","7","7","7","7","7","7","7","7","7","7","7","718592959586500608","陈","389","Male","[""好我"",""坏他"",""好他"",""坏我""]","[""强我"",""弱他"",""强他"",""弱我""]","","","","","","","","","","","","","","","","","","","","","","","","","","","","","","feedback_test","","","","","","","","",""
"951","","j","psychophysics","138","252551","0.0-8.0-0.0-4.0-0.0-0.15","7","7","7","7","7","5","5","5","5","5","5","2","2","2","1","2","2","2","2","5","5","5","5","1","5","5","5","5","5","8","7","8","8","8","7","8","8","8","7","7","7","7","7","6","7","1","7","7","1","6","6","7","7","7","7","7","7","7","7","7","7","7","7","7","7","7","7","7","7","7","7","7","7","7","7","7","7","7","7","718592959586500608","陈","389","Male","[""好我"",""坏他"",""好他"",""坏我""]","[""强我"",""弱他"",""强他"",""弱我""]","","","","","","","","match","","","","","","","","","","key","j","16.665689655172425","768","428","j","true","match","img/diamond.png","坏他","坏他","ALT2","moral","","","","","","","","",""
