"rt","stimulus","response","trial_type","trial_index","time_elapsed","internal_node_id","swb_1","swb_2","swb_3","swb_4","swb_5","LOT_1","LOT_2","LOT_3","LOT_4","LOT_5","LOT_6","IPC_1","IPC_2","IPC_3","IPC_4","IPC_5","IPC_6","IPC_7","IPC_8","MorIden_1","MorIden_2","MorIden_3","MorIden_4","MorIden_5","MorIden_6","MorIden_7","MorIden_8","MorIden_9","MorIden_10","moralSeImag_1","moralSeImag_2","moralSeImag_3","moralSeImag_4","moralSeImag_5","moralSeImag_6","moralSeImag_7","moralSeImag_8","moralSeImag_9","sde_1","sde_2","sde_3","sde_4","sde_5","sde_6","sde_7","sde_8","sde_9","sde_10","trap2","sde_11","sde_12","sde_13","sde_14","sde_15","sde_16","sde_17","sde_18","sde_19","sde_20","IM_1","IM_2","IM_3","IM_4","IM_5","IM_6","IM_7","IM_8","IM_9","IM_10","IM_11","IM_12","IM_13","IM_14","IM_15","IM_16","IM_17","IM_18","IM_19","IM_20","subj_idx","friend_name","ParticipantID","Sex","Word","Word2","value","success","timeout","failed_images","failed_audio","failed_video","user_agent","responses","item_order","radio_event_ids","radio_event_times","key_event_times","mouse_event_times","straightlining","zigzagging","honeypot","task_id","screen_id","time_stamp","response_type","key_press","avg_frame_time","center_x","center_y","person","word","valence","domain","math","correct_response","correct","status","view_history","identity","duration","Image","condition","question_order","trap2_item"
"5241","
   <p><div style='color:white; font-size: 25px'>您好，欢迎参加本次实验。</div></p>
   <p><div style='color:white; font-size: 25px'>为充分保障您的权利，请确保您已经知晓并同意《参与实验同意书》以及《数据公开知情同意书》。</div></p>
   <p><div style='color:white; font-size: 25px'>如果您未见过上述内容，请咨询实验员。</div></p>
   <p style='color:white; font-size: 25px'>如果您选择继续实验，则表示您已经清楚两份知情同意书的内容并同意。</p>
   <p><div style = ""color: pink;font-size:30px;"">请确保您记得day0的实验编号，您将在本次实验输入该编号，若您忘记，请咨询实验员后作答。</div></p>
   <p><div style = ""color:lightblue;font-size:25px;"">请您尽可能认真地作答，我们将依据您在各问卷和按键任务中的作答质量发放报酬。</div></p>
   <p> <div style = ""color: green""><按空格键至下页></div> </p>
   "," ","html-keyboard-response","0","5251","0.0-0.0","1","1","2","1","1","2","1","1","2","1","1","-2","0","-3","-2","-2","-1","-1","-1","3","2","2","4","1","1","1","1","2","2","2","4","3","4","2","2","2","2","3","2","3","1","3","2","1","1","3","2","2","1","1","3","3","2","1","1","2","2","2","3","3","1","3","1","2","7","2","3","1","7","3","1","3","2","2","3","3","7","3","2","688842330605617152","罗","571","Male","[""坏他"",""好我"",""好他"",""坏我""]","[""弱他"",""强我"",""强他"",""弱我""]","","","","","","","","","","","","","","","","","","","","","","","","","","","","","","","","","","","","","","",""
"","","","call-function","1","5256","0.0-1.0-0.0","1","1","2","1","1","2","1","1","2","1","1","-2","0","-3","-2","-2","-1","-1","-1","3","2","2","4","1","1","1","1","2","2","2","4","3","4","2","2","2","2","3","2","3","1","3","2","1","1","3","2","2","1","1","3","3","2","1","1","2","2","2","3","3","1","3","1","2","7","2","3","1","7","3","1","3","2","2","3","3","7","3","2","688842330605617152","罗","571","Male","[""坏他"",""好我"",""好他"",""坏我""]","[""弱他"",""强我"",""强他"",""弱我""]","","","","","","","","","","","","","","","","","","","","","","","","","","","","","","","","","","","","","","",""
"24987","","[{""name"":""friend_name"",""value"":""罗""},{""name"":""ParticipantID"",""value"":""571""}]","survey-html-form","2","30244","0.0-1.0-1.0","1","1","2","1","1","2","1","1","2","1","1","-2","0","-3","-2","-2","-1","-1","-1","3","2","2","4","1","1","1","1","2","2","2","4","3","4","2","2","2","2","3","2","3","1","3","2","1","1","3","2","2","1","1","3","3","2","1","1","2","2","2","3","3","1","3","1","2","7","2","3","1","7","3","1","3","2","2","3","3","7","3","2","688842330605617152","罗","571","Male","[""坏他"",""好我"",""好他"",""坏我""]","[""弱他"",""强我"",""强他"",""弱我""]","","","","","","","","","","","","","","","","","","","","","","","","","","","","","","","","","","","","","","",""
"","","","preload","3","30803","0.0-2.0","1","1","2","1","1","2","1","1","2","1","1","-2","0","-3","-2","-2","-1","-1","-1","3","2","2","4","1","1","1","1","2","2","2","4","3","4","2","2","2","2","3","2","3","1","3","2","1","1","3","2","2","1","1","3","3","2","1","1","2","2","2","3","3","1","3","1","2","7","2","3","1","7","3","1","3","2","2","3","3","7","3","2","688842330605617152","罗","571","Male","[""坏他"",""好我"",""好他"",""坏我""]","[""弱他"",""强我"",""强他"",""弱我""]","","true","false","[]","[]","[]","","","","","","","","","","","","","","","","","","","","","","","","","","","","","","","","",""
"","","","fullscreen","4","33413","0.0-3.0","1","1","2","1","1","2","1","1","2","1","1","-2","0","-3","-2","-2","-1","-1","-1","3","2","2","4","1","1","1","1","2","2","2","4","3","4","2","2","2","2","3","2","3","1","3","2","1","1","3","2","2","1","1","3","3","2","1","1","2","2","2","3","3","1","3","1","2","7","2","3","1","7","3","1","3","2","2","3","3","7","3","2","688842330605617152","罗","571","Male","[""坏他"",""好我"",""好他"",""坏我""]","[""弱他"",""强我"",""强他"",""弱我""]","","true","","","","","{}","","","","","","","","","","","","","","","","","","","","","","","","","","","","","","","",""
"22309.099999904633","","{""Q01"":""1"",""Q02"":""1"",""Q03"":""2"",""Q04"":""1"",""Q05"":""1""}","survey-template","5","55724","0.0-4.0","1","1","2","1","1","2","1","1","2","1","1","-2","0","-3","-2","-2","-1","-1","-1","3","2","2","4","1","1","1","1","2","2","2","4","3","4","2","2","2","2","3","2","3","1","3","2","1","1","3","2","2","1","1","3","3","2","1","1","2","2","2","3","3","1","3","1","2","7","2","3","1","7","3","1","3","2","2","3","3","7","3","2","688842330605617152","罗","571","Male","[""坏他"",""好我"",""好他"",""坏我""]","[""弱他"",""强我"",""强他"",""弱我""]","","","","","","","","{""Q01"":""1"",""Q02"":""1"",""Q03"":""2"",""Q04"":""1"",""Q05"":""1""}","[0,1,2,3,4]","[""Q01"",""Q02"",""Q03"",""Q04"",""Q05""]","[4283.299999713898,7726.5,9815.099999904633,11308,16686.699999809265]","[]","[4283.299999713898,7726.5,9815.099999904633,11308,15533.599999904633,16686.699999809265,22306.099999904633]","0.8","0.5","0","","","","","","","","","","","","","","","","","","","","","","",""
"37541.90000009537","","{""Q01"":""2"",""Q02"":""1"",""Q03"":""1"",""Q04"":""2"",""Q05"":""1"",""Q06"":""1""}","survey-template","6","93273","0.0-5.0","1","1","2","1","1","2","1","1","2","1","1","-2","0","-3","-2","-2","-1","-1","-1","3","2","2","4","1","1","1","1","2","2","2","4","3","4","2","2","2","2","3","2","3","1","3","2","1","1","3","2","2","1","1","3","3","2","1","1","2","2","2","3","3","1","3","1","2","7","2","3","1","7","3","1","3","2","2","3","3","7","3","2","688842330605617152","罗","571","Male","[""坏他"",""好我"",""好他"",""坏我""]","[""弱他"",""强我"",""强他"",""弱我""]","","","","","","","","{""Q01"":""2"",""Q02"":""1"",""Q03"":""1"",""Q04"":""2"",""Q05"":""1"",""Q06"":""1""}","[0,1,2,3,4,5]","[""Q01"",""Q01"",""Q02"",""Q03"",""Q04"",""Q05"",""Q06"",""Q06""]","[4032.199999809265,4335.699999809265,6158.800000190735,8779.900000095367,11183.5,14425.099999904633,18223.599999904633,18543.900000095367]","[]","[4032.199999809265,4335.699999809265,6158.800000190735,8779.900000095367,11183.5,14425.099999904633,18223.599999904633,18543.900000095367,37539.59999990463]","0.3333333333333333","0.6","0","","","","","","","","","","","","","","","","","","","","","","",""
"49471.7999997139","","{""Q01"":""-2"",""Q02"":""0"",""Q03"":""-3"",""Q04"":""-2"",""Q05"":""-2"",""Q06"":""-1"",""Q07"":""-1"",""Q08"":""-1""}","survey-template","7","142755","0.0-6.0","1","1","2","1","1","2","1","1","2","1","1","-2","0","-3","-2","-2","-1","-1","-1","3","2","2","4","1","1","1","1","2","2","2","4","3","4","2","2","2","2","3","2","3","1","3","2","1","1","3","2","2","1","1","3","3","2","1","1","2","2","2","3","3","1","3","1","2","7","2","3","1","7","3","1","3","2","2","3","3","7","3","2","688842330605617152","罗","571","Male","[""坏他"",""好我"",""好他"",""坏我""]","[""弱他"",""强我"",""强他"",""弱我""]","","","","","","","","{""Q01"":""-2"",""Q02"":""0"",""Q03"":""-3"",""Q04"":""-2"",""Q05"":""-2"",""Q06"":""-1"",""Q07"":""-1"",""Q08"":""-1""}","[0,1,2,3,4,5,6,7]","[""Q01"",""Q02"",""Q03"",""Q04"",""Q05"",""Q06"",""Q07"",""Q08""]","[3754.7999997138977,8524.099999904633,11341.900000095367,13635.400000095367,16838,20589.400000095367,25212.299999713898,28271.699999809265]","[]","[3754.7999997138977,8136,8524.099999904633,11341.900000095367,13635.400000095367,16838,20589.400000095367,25212.299999713898,28271.699999809265,49468.7999997139]","0.375","0.2857142857142857","0","","","","","","","","","","","","","","","","","","","","","","",""
"28263","
    <p><div style='color:white;font-size:35px; line-height:20px;'>词汇评估任务</div></p><br>
    <p><div style='color:white;font-size:25px; line-height:20px;'>请再次回忆该亲密的朋友，你们至少2年前就认识了，并且最近2年经常见面。</div></p>
    <p><div style='color:white;font-size:25px; line-height:20px;'>在本实验中，您将会看到一些形容词。</div></p>
    <p><div style='color:yellow;font-size:25px; line-height:20px;'>您的任务是判断这些形容词是否符合对您自己或您的朋友的描述。</div></p><p style='font-size:35px'>符合按<span style=""color:lightgreen""> j 键</span>，不符合按<span style=""color:red""> f 键</span></p>","0","html-button-response","8","171028","0.0-7.0-0.0","1","1","2","1","1","2","1","1","2","1","1","-2","0","-3","-2","-2","-1","-1","-1","3","2","2","4","1","1","1","1","2","2","2","4","3","4","2","2","2","2","3","2","3","1","3","2","1","1","3","2","2","1","1","3","3","2","1","1","2","2","2","3","3","1","3","1","2","7","2","3","1","7","3","1","3","2","2","3","3","7","3","2","688842330605617152","罗","571","Male","[""坏他"",""好我"",""好他"",""坏我""]","[""弱他"",""强我"",""强他"",""弱我""]","","","","","","","","","","","","","","","","","SRET_EW","EW_instructions","Wed Jan 31 2024 09:17:41 GMT+0800 (中国标准时间)","","","","","","","","","","","","","","","","","","","",""
"1034","","j","psychophysics","9","173106","0.0-7.0-1.0-0.0","1","1","2","1","1","2","1","1","2","1","1","-2","0","-3","-2","-2","-1","-1","-1","3","2","2","4","1","1","1","1","2","2","2","4","3","4","2","2","2","2","3","2","3","1","3","2","1","1","3","2","2","1","1","3","3","2","1","1","2","2","2","3","3","1","3","1","2","7","2","3","1","7","3","1","3","2","2","3","3","7","3","2","688842330605617152","罗","571","Male","[""坏他"",""好我"",""好他"",""坏我""]","[""弱他"",""强我"",""强他"",""弱我""]","","","","","","","","yes","","","","","","","","","SRET_EW","EW_practice","","key","j","16.93811475409822","640","356","自己","严谨","Positive","ability","","","","","","","","","","",""
"null","","null","psychophysics","10","176187","0.0-7.0-1.0-0.1","1","1","2","1","1","2","1","1","2","1","1","-2","0","-3","-2","-2","-1","-1","-1","3","2","2","4","1","1","1","1","2","2","2","4","3","4","2","2","2","2","3","2","3","1","3","2","1","1","3","2","2","1","1","3","3","2","1","1","2","2","2","3","3","1","3","1","2","7","2","3","1","7","3","1","3","2","2","3","3","7","3","2","688842330605617152","罗","571","Male","[""坏他"",""好我"",""好他"",""坏我""]","[""弱他"",""强我"",""强他"",""弱我""]","","","","","","","","","","","","","","","","","SRET_EW","EW_practice","","key","null","17.22630337078639","640","356","自己","刻板","Negative","ability","","","","","","","","","","",""
"1101","","f","psychophysics","11","178301","0.0-7.0-1.0-0.2","1","1","2","1","1","2","1","1","2","1","1","-2","0","-3","-2","-2","-1","-1","-1","3","2","2","4","1","1","1","1","2","2","2","4","3","4","2","2","2","2","3","2","3","1","3","2","1","1","3","2","2","1","1","3","3","2","1","1","2","2","2","3","3","1","3","1","2","7","2","3","1","7","3","1","3","2","2","3","3","7","3","2","688842330605617152","罗","571","Male","[""坏他"",""好我"",""好他"",""坏我""]","[""弱他"",""强我"",""强他"",""弱我""]","","","","","","","","no","","","","","","","","","SRET_EW","EW_practice","","key","f","17.354388429752017","640","356","朋友","忠实","Positive","morality","","","","","","","","","","",""
"null","","null","psychophysics","12","181311","0.0-7.0-1.0-0.3","1","1","2","1","1","2","1","1","2","1","1","-2","0","-3","-2","-2","-1","-1","-1","3","2","2","4","1","1","1","1","2","2","2","4","3","4","2","2","2","2","3","2","3","1","3","2","1","1","3","2","2","1","1","3","3","2","1","1","2","2","2","3","3","1","3","1","2","7","2","3","1","7","3","1","3","2","2","3","3","7","3","2","688842330605617152","罗","571","Male","[""坏他"",""好我"",""好他"",""坏我""]","[""弱他"",""强我"",""强他"",""弱我""]","","","","","","","","","","","","","","","","","SRET_EW","EW_practice","","key","null","16.757703910614612","640","356","朋友","徇私","Negative","morality","","","","","","","","","","",""
"15770","
    <p><div style='color:white;font-size:35px; line-height:20px;'>请您再次阅读实验要求</div></p><br>
    <p><div style='color:white;font-size:25px; line-height:20px;'>请回忆某一个亲密的朋友，你们至少2年前就认识了，并且最近2年经常见面。</div></p>
    <p><div style='color:white;font-size:25px; line-height:20px;'>在本实验中，您将会看到一些形容词。</div></p>
    <p><div style='color:yellow;font-size:25px; line-height:20px;'>您的任务是判断这些形容词是否符合对您自己或您的朋友的描述。</div></p>
    <p><div class='footer' style='font-size:25px; line-height:20px;'>如果对本实验还有不清楚之处，请立即向实验员咨询。</p><p style='font-size:25px; line-height:20px;'>如果您明白了规则：</p><p style='font-size:22px; line-height:20px;'>请按 继续 进入正式实验</p>
    </div>
    <p style='font-size:35px'>符合按<span style=""color:lightgreen""> j 键</span>，不符合按<span style=""color:red""> f 键</span></p>","0","html-button-response","13","197084","0.0-7.0-2.0","1","1","2","1","1","2","1","1","2","1","1","-2","0","-3","-2","-2","-1","-1","-1","3","2","2","4","1","1","1","1","2","2","2","4","3","4","2","2","2","2","3","2","3","1","3","2","1","1","3","2","2","1","1","3","3","2","1","1","2","2","2","3","3","1","3","1","2","7","2","3","1","7","3","1","3","2","2","3","3","7","3","2","688842330605617152","罗","571","Male","[""坏他"",""好我"",""好他"",""坏我""]","[""弱他"",""强我"",""强他"",""弱我""]","","","","","","","","","","","","","","","","","SRET_EW","prac_instructions","Wed Jan 31 2024 09:17:41 GMT+0800 (中国标准时间)","","","","","","","","","","","","","","","","","","","",""
"880","","j","psychophysics","14","198975","0.0-7.0-3.0-0.0","1","1","2","1","1","2","1","1","2","1","1","-2","0","-3","-2","-2","-1","-1","-1","3","2","2","4","1","1","1","1","2","2","2","4","3","4","2","2","2","2","3","2","3","1","3","2","1","1","3","2","2","1","1","3","3","2","1","1","2","2","2","3","3","1","3","1","2","7","2","3","1","7","3","1","3","2","2","3","3","7","3","2","688842330605617152","罗","571","Male","[""坏他"",""好我"",""好他"",""坏我""]","[""弱他"",""强我"",""强他"",""弱我""]","","","","","","","","yes","","","","","","","","","SRET","EW_formal","","key","j","16.664353982300756","640","356","朋友","务实","Positive","ability","","","","","","","","","","",""
"1218","","f","psychophysics","15","201230","0.0-7.0-3.0-0.1","1","1","2","1","1","2","1","1","2","1","1","-2","0","-3","-2","-2","-1","-1","-1","3","2","2","4","1","1","1","1","2","2","2","4","3","4","2","2","2","2","3","2","3","1","3","2","1","1","3","2","2","1","1","3","3","2","1","1","2","2","2","3","3","1","3","1","2","7","2","3","1","7","3","1","3","2","2","3","3","7","3","2","688842330605617152","罗","571","Male","[""坏他"",""好我"",""好他"",""坏我""]","[""弱他"",""强我"",""强他"",""弱我""]","","","","","","","","no","","","","","","","","","SRET","EW_formal","","key","f","16.789716417910558","640","356","自己","坚贞","Positive","morality","","","","","","","","","","",""
"1429","","j","psychophysics","16","203680","0.0-7.0-3.0-0.2","1","1","2","1","1","2","1","1","2","1","1","-2","0","-3","-2","-2","-1","-1","-1","3","2","2","4","1","1","1","1","2","2","2","4","3","4","2","2","2","2","3","2","3","1","3","2","1","1","3","2","2","1","1","3","3","2","1","1","2","2","2","3","3","1","3","1","2","7","2","3","1","7","3","1","3","2","2","3","3","7","3","2","688842330605617152","罗","571","Male","[""坏他"",""好我"",""好他"",""坏我""]","[""弱他"",""强我"",""强他"",""弱我""]","","","","","","","","yes","","","","","","","","","SRET","EW_formal","","key","j","17.013314685314754","640","356","朋友","迷糊","Negative","ability","","","","","","","","","","",""
"1301","","f","psychophysics","17","205989","0.0-7.0-3.0-0.3","1","1","2","1","1","2","1","1","2","1","1","-2","0","-3","-2","-2","-1","-1","-1","3","2","2","4","1","1","1","1","2","2","2","4","3","4","2","2","2","2","3","2","3","1","3","2","1","1","3","2","2","1","1","3","3","2","1","1","2","2","2","3","3","1","3","1","2","7","2","3","1","7","3","1","3","2","2","3","3","7","3","2","688842330605617152","罗","571","Male","[""坏他"",""好我"",""好他"",""坏我""]","[""弱他"",""强我"",""强他"",""弱我""]","","","","","","","","no","","","","","","","","","SRET","EW_formal","","key","f","16.665218978102047","640","356","自己","说谎","Negative","morality","","","","","","","","","","",""
"1154","","f","psychophysics","18","208151","0.0-7.0-3.0-0.4","1","1","2","1","1","2","1","1","2","1","1","-2","0","-3","-2","-2","-1","-1","-1","3","2","2","4","1","1","1","1","2","2","2","4","3","4","2","2","2","2","3","2","3","1","3","2","1","1","3","2","2","1","1","3","3","2","1","1","2","2","2","3","3","1","3","1","2","7","2","3","1","7","3","1","3","2","2","3","3","7","3","2","688842330605617152","罗","571","Male","[""坏他"",""好我"",""好他"",""坏我""]","[""弱他"",""强我"",""强他"",""弱我""]","","","","","","","","no","","","","","","","","","SRET","EW_formal","","key","f","16.92739370078725","640","356","朋友","淡泊","Positive","morality","","","","","","","","","","",""
"959","","j","psychophysics","19","210128","0.0-7.0-3.0-0.5","1","1","2","1","1","2","1","1","2","1","1","-2","0","-3","-2","-2","-1","-1","-1","3","2","2","4","1","1","1","1","2","2","2","4","3","4","2","2","2","2","3","2","3","1","3","2","1","1","3","2","2","1","1","3","3","2","1","1","2","2","2","3","3","1","3","1","2","7","2","3","1","7","3","1","3","2","2","3","3","7","3","2","688842330605617152","罗","571","Male","[""坏他"",""好我"",""好他"",""坏我""]","[""弱他"",""强我"",""强他"",""弱我""]","","","","","","","","yes","","","","","","","","","SRET","EW_formal","","key","j","17.099217391304126","640","356","朋友","逞强","Negative","ability","","","","","","","","","","",""
"961","","f","psychophysics","20","212101","0.0-7.0-3.0-0.6","1","1","2","1","1","2","1","1","2","1","1","-2","0","-3","-2","-2","-1","-1","-1","3","2","2","4","1","1","1","1","2","2","2","4","3","4","2","2","2","2","3","2","3","1","3","2","1","1","3","2","2","1","1","3","3","2","1","1","2","2","2","3","3","1","3","1","2","7","2","3","1","7","3","1","3","2","2","3","3","7","3","2","688842330605617152","罗","571","Male","[""坏他"",""好我"",""好他"",""坏我""]","[""弱他"",""强我"",""强他"",""弱我""]","","","","","","","","no","","","","","","","","","SRET","EW_formal","","key","f","16.66515384615388","640","356","朋友","虚假","Negative","morality","","","","","","","","","","",""
"1274","","f","psychophysics","21","214440","0.0-7.0-3.0-0.7","1","1","2","1","1","2","1","1","2","1","1","-2","0","-3","-2","-2","-1","-1","-1","3","2","2","4","1","1","1","1","2","2","2","4","3","4","2","2","2","2","3","2","3","1","3","2","1","1","3","2","2","1","1","3","3","2","1","1","2","2","2","3","3","1","3","1","2","7","2","3","1","7","3","1","3","2","2","3","3","7","3","2","688842330605617152","罗","571","Male","[""坏他"",""好我"",""好他"",""坏我""]","[""弱他"",""强我"",""强他"",""弱我""]","","","","","","","","no","","","","","","","","","SRET","EW_formal","","key","f","17.15371323529411","640","356","自己","伪善","Negative","morality","","","","","","","","","","",""
"1458","","f","psychophysics","22","216915","0.0-7.0-3.0-0.8","1","1","2","1","1","2","1","1","2","1","1","-2","0","-3","-2","-2","-1","-1","-1","3","2","2","4","1","1","1","1","2","2","2","4","3","4","2","2","2","2","3","2","3","1","3","2","1","1","3","2","2","1","1","3","3","2","1","1","2","2","2","3","3","1","3","1","2","7","2","3","1","7","3","1","3","2","2","3","3","7","3","2","688842330605617152","罗","571","Male","[""坏他"",""好我"",""好他"",""坏我""]","[""弱他"",""强我"",""强他"",""弱我""]","","","","","","","","no","","","","","","","","","SRET","EW_formal","","key","f","16.66487074829935","640","356","朋友","卑鄙","Negative","morality","","","","","","","","","","",""
"1204","","j","psychophysics","23","219128","0.0-7.0-3.0-0.9","1","1","2","1","1","2","1","1","2","1","1","-2","0","-3","-2","-2","-1","-1","-1","3","2","2","4","1","1","1","1","2","2","2","4","3","4","2","2","2","2","3","2","3","1","3","2","1","1","3","2","2","1","1","3","3","2","1","1","2","2","2","3","3","1","3","1","2","7","2","3","1","7","3","1","3","2","2","3","3","7","3","2","688842330605617152","罗","571","Male","[""坏他"",""好我"",""好他"",""坏我""]","[""弱他"",""强我"",""强他"",""弱我""]","","","","","","","","yes","","","","","","","","","SRET","EW_formal","","key","j","16.920992307692245","640","356","朋友","独断","Negative","ability","","","","","","","","","","",""
"1269","","j","psychophysics","24","221415","0.0-7.0-3.0-0.10","1","1","2","1","1","2","1","1","2","1","1","-2","0","-3","-2","-2","-1","-1","-1","3","2","2","4","1","1","1","1","2","2","2","4","3","4","2","2","2","2","3","2","3","1","3","2","1","1","3","2","2","1","1","3","3","2","1","1","2","2","2","3","3","1","3","1","2","7","2","3","1","7","3","1","3","2","2","3","3","7","3","2","688842330605617152","罗","571","Male","[""坏他"",""好我"",""好他"",""坏我""]","[""弱他"",""强我"",""强他"",""弱我""]","","","","","","","","yes","","","","","","","","","SRET","EW_formal","","key","j","16.913679104477538","640","356","自己","歹毒","Negative","morality","","","","","","","","","","",""
"1531","","j","psychophysics","25","223956","0.0-7.0-3.0-0.11","1","1","2","1","1","2","1","1","2","1","1","-2","0","-3","-2","-2","-1","-1","-1","3","2","2","4","1","1","1","1","2","2","2","4","3","4","2","2","2","2","3","2","3","1","3","2","1","1","3","2","2","1","1","3","3","2","1","1","2","2","2","3","3","1","3","1","2","7","2","3","1","7","3","1","3","2","2","3","3","7","3","2","688842330605617152","罗","571","Male","[""坏他"",""好我"",""好他"",""坏我""]","[""弱他"",""强我"",""强他"",""弱我""]","","","","","","","","yes","","","","","","","","","SRET","EW_formal","","key","j","17.114418918918975","640","356","朋友","依靠","Negative","ability","","","","","","","","","","",""
"1045","","j","psychophysics","26","226009","0.0-7.0-3.0-0.12","1","1","2","1","1","2","1","1","2","1","1","-2","0","-3","-2","-2","-1","-1","-1","3","2","2","4","1","1","1","1","2","2","2","4","3","4","2","2","2","2","3","2","3","1","3","2","1","1","3","2","2","1","1","3","3","2","1","1","2","2","2","3","3","1","3","1","2","7","2","3","1","7","3","1","3","2","2","3","3","7","3","2","688842330605617152","罗","571","Male","[""坏他"",""好我"",""好他"",""坏我""]","[""弱他"",""强我"",""强他"",""弱我""]","","","","","","","","yes","","","","","","","","","SRET","EW_formal","","key","j","16.66435245901621","640","356","自己","刻苦","Positive","ability","","","","","","","","","","",""
"1148","","j","psychophysics","27","228164","0.0-7.0-3.0-0.13","1","1","2","1","1","2","1","1","2","1","1","-2","0","-3","-2","-2","-1","-1","-1","3","2","2","4","1","1","1","1","2","2","2","4","3","4","2","2","2","2","3","2","3","1","3","2","1","1","3","2","2","1","1","3","3","2","1","1","2","2","2","3","3","1","3","1","2","7","2","3","1","7","3","1","3","2","2","3","3","7","3","2","688842330605617152","罗","571","Male","[""坏他"",""好我"",""好他"",""坏我""]","[""弱他"",""强我"",""强他"",""弱我""]","","","","","","","","yes","","","","","","","","","SRET","EW_formal","","key","j","16.798500000000036","640","356","朋友","狡诈","Negative","morality","","","","","","","","","","",""
"1492","","j","psychophysics","28","230700","0.0-7.0-3.0-0.14","1","1","2","1","1","2","1","1","2","1","1","-2","0","-3","-2","-2","-1","-1","-1","3","2","2","4","1","1","1","1","2","2","2","4","3","4","2","2","2","2","3","2","3","1","3","2","1","1","3","2","2","1","1","3","3","2","1","1","2","2","2","3","3","1","3","1","2","7","2","3","1","7","3","1","3","2","2","3","3","7","3","2","688842330605617152","罗","571","Male","[""坏他"",""好我"",""好他"",""坏我""]","[""弱他"",""强我"",""强他"",""弱我""]","","","","","","","","yes","","","","","","","","","SRET","EW_formal","","key","j","17.11431756756753","640","356","自己","坦荡","Positive","morality","","","","","","","","","","",""
"979","","f","psychophysics","29","232689","0.0-7.0-3.0-0.15","1","1","2","1","1","2","1","1","2","1","1","-2","0","-3","-2","-2","-1","-1","-1","3","2","2","4","1","1","1","1","2","2","2","4","3","4","2","2","2","2","3","2","3","1","3","2","1","1","3","2","2","1","1","3","3","2","1","1","2","2","2","3","3","1","3","1","2","7","2","3","1","7","3","1","3","2","2","3","3","7","3","2","688842330605617152","罗","571","Male","[""坏他"",""好我"",""好他"",""坏我""]","[""弱他"",""强我"",""强他"",""弱我""]","","","","","","","","no","","","","","","","","","SRET","EW_formal","","key","f","16.807111111111116","640","356","自己","废物","Negative","ability","","","","","","","","","","",""
"1633","","j","psychophysics","30","235327","0.0-7.0-3.0-0.16","1","1","2","1","1","2","1","1","2","1","1","-2","0","-3","-2","-2","-1","-1","-1","3","2","2","4","1","1","1","1","2","2","2","4","3","4","2","2","2","2","3","2","3","1","3","2","1","1","3","2","2","1","1","3","3","2","1","1","2","2","2","3","3","1","3","1","2","7","2","3","1","7","3","1","3","2","2","3","3","7","3","2","688842330605617152","罗","571","Male","[""坏他"",""好我"",""好他"",""坏我""]","[""弱他"",""强我"",""强他"",""弱我""]","","","","","","","","yes","","","","","","","","","SRET","EW_formal","","key","j","16.98676774193544","640","356","朋友","守法","Positive","morality","","","","","","","","","","",""
"null","","null","psychophysics","31","238344","0.0-7.0-3.0-0.17","1","1","2","1","1","2","1","1","2","1","1","-2","0","-3","-2","-2","-1","-1","-1","3","2","2","4","1","1","1","1","2","2","2","4","3","4","2","2","2","2","3","2","3","1","3","2","1","1","3","2","2","1","1","3","3","2","1","1","2","2","2","3","3","1","3","1","2","7","2","3","1","7","3","1","3","2","2","3","3","7","3","2","688842330605617152","罗","571","Male","[""坏他"",""好我"",""好他"",""坏我""]","[""弱他"",""强我"",""强他"",""弱我""]","","","","","","","","","","","","","","","","","SRET","EW_formal","","key","null","16.664644444444438","640","356","朋友","慈悲","Positive","morality","","","","","","","","","","",""
"834","","j","psychophysics","32","240229","0.0-7.0-3.0-0.18","1","1","2","1","1","2","1","1","2","1","1","-2","0","-3","-2","-2","-1","-1","-1","3","2","2","4","1","1","1","1","2","2","2","4","3","4","2","2","2","2","3","2","3","1","3","2","1","1","3","2","2","1","1","3","3","2","1","1","2","2","2","3","3","1","3","1","2","7","2","3","1","7","3","1","3","2","2","3","3","7","3","2","688842330605617152","罗","571","Male","[""坏他"",""好我"",""好他"",""坏我""]","[""弱他"",""强我"",""强他"",""弱我""]","","","","","","","","yes","","","","","","","","","SRET","EW_formal","","key","j","17.442065420560812","640","356","自己","刚正","Positive","morality","","","","","","","","","","",""
"952","","j","psychophysics","33","242204","0.0-7.0-3.0-0.19","1","1","2","1","1","2","1","1","2","1","1","-2","0","-3","-2","-2","-1","-1","-1","3","2","2","4","1","1","1","1","2","2","2","4","3","4","2","2","2","2","3","2","3","1","3","2","1","1","3","2","2","1","1","3","3","2","1","1","2","2","2","3","3","1","3","1","2","7","2","3","1","7","3","1","3","2","2","3","3","7","3","2","688842330605617152","罗","571","Male","[""坏他"",""好我"",""好他"",""坏我""]","[""弱他"",""强我"",""强他"",""弱我""]","","","","","","","","yes","","","","","","","","","SRET","EW_formal","","key","j","16.664889830508432","640","356","自己","扎实","Positive","ability","","","","","","","","","","",""
"1316","","f","psychophysics","34","244527","0.0-7.0-3.0-0.20","1","1","2","1","1","2","1","1","2","1","1","-2","0","-3","-2","-2","-1","-1","-1","3","2","2","4","1","1","1","1","2","2","2","4","3","4","2","2","2","2","3","2","3","1","3","2","1","1","3","2","2","1","1","3","3","2","1","1","2","2","2","3","3","1","3","1","2","7","2","3","1","7","3","1","3","2","2","3","3","7","3","2","688842330605617152","罗","571","Male","[""坏他"",""好我"",""好他"",""坏我""]","[""弱他"",""强我"",""强他"",""弱我""]","","","","","","","","no","","","","","","","","","SRET","EW_formal","","key","f","16.786459854014563","640","356","自己","浅薄","Negative","ability","","","","","","","","","","",""
"1378","","j","psychophysics","35","246918","0.0-7.0-3.0-0.21","1","1","2","1","1","2","1","1","2","1","1","-2","0","-3","-2","-2","-1","-1","-1","3","2","2","4","1","1","1","1","2","2","2","4","3","4","2","2","2","2","3","2","3","1","3","2","1","1","3","2","2","1","1","3","3","2","1","1","2","2","2","3","3","1","3","1","2","7","2","3","1","7","3","1","3","2","2","3","3","7","3","2","688842330605617152","罗","571","Male","[""坏他"",""好我"",""好他"",""坏我""]","[""弱他"",""强我"",""强他"",""弱我""]","","","","","","","","yes","","","","","","","","","SRET","EW_formal","","key","j","16.781539007092096","640","356","朋友","博学","Positive","ability","","","","","","","","","","",""
"1525","","f","psychophysics","36","249453","0.0-7.0-3.0-0.22","1","1","2","1","1","2","1","1","2","1","1","-2","0","-3","-2","-2","-1","-1","-1","3","2","2","4","1","1","1","1","2","2","2","4","3","4","2","2","2","2","3","2","3","1","3","2","1","1","3","2","2","1","1","3","3","2","1","1","2","2","2","3","3","1","3","1","2","7","2","3","1","7","3","1","3","2","2","3","3","7","3","2","688842330605617152","罗","571","Male","[""坏他"",""好我"",""好他"",""坏我""]","[""弱他"",""强我"",""强他"",""弱我""]","","","","","","","","no","","","","","","","","","SRET","EW_formal","","key","f","16.775251655629297","640","356","自己","无知","Negative","ability","","","","","","","","","","",""
"1848","","j","psychophysics","37","252308","0.0-7.0-3.0-0.23","1","1","2","1","1","2","1","1","2","1","1","-2","0","-3","-2","-2","-1","-1","-1","3","2","2","4","1","1","1","1","2","2","2","4","3","4","2","2","2","2","3","2","3","1","3","2","1","1","3","2","2","1","1","3","3","2","1","1","2","2","2","3","3","1","3","1","2","7","2","3","1","7","3","1","3","2","2","3","3","7","3","2","688842330605617152","罗","571","Male","[""坏他"",""好我"",""好他"",""坏我""]","[""弱他"",""强我"",""强他"",""弱我""]","","","","","","","","yes","","","","","","","","","SRET","EW_formal","","key","j","16.664805882352898","640","356","自己","诚信","Positive","morality","","","","","","","","","","",""
"1279","","f","psychophysics","38","254591","0.0-7.0-3.0-0.24","1","1","2","1","1","2","1","1","2","1","1","-2","0","-3","-2","-2","-1","-1","-1","3","2","2","4","1","1","1","1","2","2","2","4","3","4","2","2","2","2","3","2","3","1","3","2","1","1","3","2","2","1","1","3","3","2","1","1","2","2","2","3","3","1","3","1","2","7","2","3","1","7","3","1","3","2","2","3","3","7","3","2","688842330605617152","罗","571","Male","[""坏他"",""好我"",""好他"",""坏我""]","[""弱他"",""强我"",""强他"",""弱我""]","","","","","","","","no","","","","","","","","","SRET","EW_formal","","key","f","16.789207407407446","640","356","朋友","思辨","Positive","ability","","","","","","","","","","",""
"1304","","j","psychophysics","39","256904","0.0-7.0-3.0-0.25","1","1","2","1","1","2","1","1","2","1","1","-2","0","-3","-2","-2","-1","-1","-1","3","2","2","4","1","1","1","1","2","2","2","4","3","4","2","2","2","2","3","2","3","1","3","2","1","1","3","2","2","1","1","3","3","2","1","1","2","2","2","3","3","1","3","1","2","7","2","3","1","7","3","1","3","2","2","3","3","7","3","2","688842330605617152","罗","571","Male","[""坏他"",""好我"",""好他"",""坏我""]","[""弱他"",""强我"",""强他"",""弱我""]","","","","","","","","yes","","","","","","","","","SRET","EW_formal","","key","j","16.787189781021905","640","356","自己","龌龊","Negative","morality","","","","","","","","","","",""
"1319","","f","psychophysics","40","259236","0.0-7.0-3.0-0.26","1","1","2","1","1","2","1","1","2","1","1","-2","0","-3","-2","-2","-1","-1","-1","3","2","2","4","1","1","1","1","2","2","2","4","3","4","2","2","2","2","3","2","3","1","3","2","1","1","3","2","2","1","1","3","3","2","1","1","2","2","2","3","3","1","3","1","2","7","2","3","1","7","3","1","3","2","2","3","3","7","3","2","688842330605617152","罗","571","Male","[""坏他"",""好我"",""好他"",""坏我""]","[""弱他"",""强我"",""强他"",""弱我""]","","","","","","","","no","","","","","","","","","SRET","EW_formal","","key","f","16.664079710144797","640","356","自己","细心","Positive","ability","","","","","","","","","","",""
"1110","","f","psychophysics","41","261379","0.0-7.0-3.0-0.27","1","1","2","1","1","2","1","1","2","1","1","-2","0","-3","-2","-2","-1","-1","-1","3","2","2","4","1","1","1","1","2","2","2","4","3","4","2","2","2","2","3","2","3","1","3","2","1","1","3","2","2","1","1","3","3","2","1","1","2","2","2","3","3","1","3","1","2","7","2","3","1","7","3","1","3","2","2","3","3","7","3","2","688842330605617152","罗","571","Male","[""坏他"",""好我"",""好他"",""坏我""]","[""弱他"",""强我"",""强他"",""弱我""]","","","","","","","","no","","","","","","","","","SRET","EW_formal","","key","f","16.660570312499885","640","356","自己","奉献","Positive","morality","","","","","","","","","","",""
"822","","j","psychophysics","42","263215","0.0-7.0-3.0-0.28","1","1","2","1","1","2","1","1","2","1","1","-2","0","-3","-2","-2","-1","-1","-1","3","2","2","4","1","1","1","1","2","2","2","4","3","4","2","2","2","2","3","2","3","1","3","2","1","1","3","2","2","1","1","3","3","2","1","1","2","2","2","3","3","1","3","1","2","7","2","3","1","7","3","1","3","2","2","3","3","7","3","2","688842330605617152","罗","571","Male","[""坏他"",""好我"",""好他"",""坏我""]","[""弱他"",""强我"",""强他"",""弱我""]","","","","","","","","yes","","","","","","","","","SRET","EW_formal","","key","j","17.135556603773093","640","356","自己","虚伪","Negative","morality","","","","","","","","","","",""
"982","","f","psychophysics","43","265220","0.0-7.0-3.0-0.29","1","1","2","1","1","2","1","1","2","1","1","-2","0","-3","-2","-2","-1","-1","-1","3","2","2","4","1","1","1","1","2","2","2","4","3","4","2","2","2","2","3","2","3","1","3","2","1","1","3","2","2","1","1","3","3","2","1","1","2","2","2","3","3","1","3","1","2","7","2","3","1","7","3","1","3","2","2","3","3","7","3","2","688842330605617152","罗","571","Male","[""坏他"",""好我"",""好他"",""坏我""]","[""弱他"",""强我"",""强他"",""弱我""]","","","","","","","","no","","","","","","","","","SRET","EW_formal","","key","f","16.804932203389985","640","356","朋友","蛇蝎","Negative","morality","","","","","","","","","","",""
"1188","","f","psychophysics","44","267456","0.0-7.0-3.0-0.30","1","1","2","1","1","2","1","1","2","1","1","-2","0","-3","-2","-2","-1","-1","-1","3","2","2","4","1","1","1","1","2","2","2","4","3","4","2","2","2","2","3","2","3","1","3","2","1","1","3","2","2","1","1","3","3","2","1","1","2","2","2","3","3","1","3","1","2","7","2","3","1","7","3","1","3","2","2","3","3","7","3","2","688842330605617152","罗","571","Male","[""坏他"",""好我"",""好他"",""坏我""]","[""弱他"",""强我"",""强他"",""弱我""]","","","","","","","","no","","","","","","","","","SRET","EW_formal","","key","f","17.311457364341198","640","356","自己","清廉","Positive","morality","","","","","","","","","","",""
"1355","","f","psychophysics","45","269822","0.0-7.0-3.0-0.31","1","1","2","1","1","2","1","1","2","1","1","-2","0","-3","-2","-2","-1","-1","-1","3","2","2","4","1","1","1","1","2","2","2","4","3","4","2","2","2","2","3","2","3","1","3","2","1","1","3","2","2","1","1","3","3","2","1","1","2","2","2","3","3","1","3","1","2","7","2","3","1","7","3","1","3","2","2","3","3","7","3","2","688842330605617152","罗","571","Male","[""坏他"",""好我"",""好他"",""坏我""]","[""弱他"",""强我"",""强他"",""弱我""]","","","","","","","","no","","","","","","","","","SRET","EW_formal","","key","f","16.903949640287596","640","356","自己","学霸","Positive","ability","","","","","","","","","","",""
"1193","","j","psychophysics","46","272026","0.0-7.0-3.0-0.32","1","1","2","1","1","2","1","1","2","1","1","-2","0","-3","-2","-2","-1","-1","-1","3","2","2","4","1","1","1","1","2","2","2","4","3","4","2","2","2","2","3","2","3","1","3","2","1","1","3","2","2","1","1","3","3","2","1","1","2","2","2","3","3","1","3","1","2","7","2","3","1","7","3","1","3","2","2","3","3","7","3","2","688842330605617152","罗","571","Male","[""坏他"",""好我"",""好他"",""坏我""]","[""弱他"",""强我"",""强他"",""弱我""]","","","","","","","","yes","","","","","","","","","SRET","EW_formal","","key","j","17.332452380952578","640","356","朋友","偏私","Negative","morality","","","","","","","","","","",""
"1844","","j","psychophysics","47","274888","0.0-7.0-3.0-0.33","1","1","2","1","1","2","1","1","2","1","1","-2","0","-3","-2","-2","-1","-1","-1","3","2","2","4","1","1","1","1","2","2","2","4","3","4","2","2","2","2","3","2","3","1","3","2","1","1","3","2","2","1","1","3","3","2","1","1","2","2","2","3","3","1","3","1","2","7","2","3","1","7","3","1","3","2","2","3","3","7","3","2","688842330605617152","罗","571","Male","[""坏他"",""好我"",""好他"",""坏我""]","[""弱他"",""强我"",""强他"",""弱我""]","","","","","","","","yes","","","","","","","","","SRET","EW_formal","","key","j","16.861781065088778","640","356","自己","恶劣","Negative","morality","","","","","","","","","","",""
"1407","","j","psychophysics","48","277306","0.0-7.0-3.0-0.34","1","1","2","1","1","2","1","1","2","1","1","-2","0","-3","-2","-2","-1","-1","-1","3","2","2","4","1","1","1","1","2","2","2","4","3","4","2","2","2","2","3","2","3","1","3","2","1","1","3","2","2","1","1","3","3","2","1","1","2","2","2","3","3","1","3","1","2","7","2","3","1","7","3","1","3","2","2","3","3","7","3","2","688842330605617152","罗","571","Male","[""坏他"",""好我"",""好他"",""坏我""]","[""弱他"",""强我"",""强他"",""弱我""]","","","","","","","","yes","","","","","","","","","SRET","EW_formal","","key","j","16.900232394366085","640","356","朋友","稳健","Positive","ability","","","","","","","","","","",""
"1199","","f","psychophysics","49","279510","0.0-7.0-3.0-0.35","1","1","2","1","1","2","1","1","2","1","1","-2","0","-3","-2","-2","-1","-1","-1","3","2","2","4","1","1","1","1","2","2","2","4","3","4","2","2","2","2","3","2","3","1","3","2","1","1","3","2","2","1","1","3","3","2","1","1","2","2","2","3","3","1","3","1","2","7","2","3","1","7","3","1","3","2","2","3","3","7","3","2","688842330605617152","罗","571","Male","[""坏他"",""好我"",""好他"",""坏我""]","[""弱他"",""强我"",""强他"",""弱我""]","","","","","","","","no","","","","","","","","","SRET","EW_formal","","key","f","17.05527343750009","640","356","朋友","低劣","Negative","morality","","","","","","","","","","",""
"1293","","j","psychophysics","50","281806","0.0-7.0-3.0-0.36","1","1","2","1","1","2","1","1","2","1","1","-2","0","-3","-2","-2","-1","-1","-1","3","2","2","4","1","1","1","1","2","2","2","4","3","4","2","2","2","2","3","2","3","1","3","2","1","1","3","2","2","1","1","3","3","2","1","1","2","2","2","3","3","1","3","1","2","7","2","3","1","7","3","1","3","2","2","3","3","7","3","2","688842330605617152","罗","571","Male","[""坏他"",""好我"",""好他"",""坏我""]","[""弱他"",""强我"",""强他"",""弱我""]","","","","","","","","yes","","","","","","","","","SRET","EW_formal","","key","j","16.664868613138683","640","356","自己","盲目","Negative","ability","","","","","","","","","","",""
"1073","","j","psychophysics","51","283884","0.0-7.0-3.0-0.37","1","1","2","1","1","2","1","1","2","1","1","-2","0","-3","-2","-2","-1","-1","-1","3","2","2","4","1","1","1","1","2","2","2","4","3","4","2","2","2","2","3","2","3","1","3","2","1","1","3","2","2","1","1","3","3","2","1","1","2","2","2","3","3","1","3","1","2","7","2","3","1","7","3","1","3","2","2","3","3","7","3","2","688842330605617152","罗","571","Male","[""坏他"",""好我"",""好他"",""坏我""]","[""弱他"",""强我"",""强他"",""弱我""]","","","","","","","","yes","","","","","","","","","SRET","EW_formal","","key","j","16.80190163934422","640","356","自己","高洁","Positive","morality","","","","","","","","","","",""
"909","","j","psychophysics","52","285813","0.0-7.0-3.0-0.38","1","1","2","1","1","2","1","1","2","1","1","-2","0","-3","-2","-2","-1","-1","-1","3","2","2","4","1","1","1","1","2","2","2","4","3","4","2","2","2","2","3","2","3","1","3","2","1","1","3","2","2","1","1","3","3","2","1","1","2","2","2","3","3","1","3","1","2","7","2","3","1","7","3","1","3","2","2","3","3","7","3","2","688842330605617152","罗","571","Male","[""坏他"",""好我"",""好他"",""坏我""]","[""弱他"",""强我"",""强他"",""弱我""]","","","","","","","","yes","","","","","","","","","SRET","EW_formal","","key","j","16.959371681415796","640","356","自己","业余","Negative","ability","","","","","","","","","","",""
"1082","","f","psychophysics","53","287937","0.0-7.0-3.0-0.39","1","1","2","1","1","2","1","1","2","1","1","-2","0","-3","-2","-2","-1","-1","-1","3","2","2","4","1","1","1","1","2","2","2","4","3","4","2","2","2","2","3","2","3","1","3","2","1","1","3","2","2","1","1","3","3","2","1","1","2","2","2","3","3","1","3","1","2","7","2","3","1","7","3","1","3","2","2","3","3","7","3","2","688842330605617152","罗","571","Male","[""坏他"",""好我"",""好他"",""坏我""]","[""弱他"",""强我"",""强他"",""弱我""]","","","","","","","","no","","","","","","","","","SRET","EW_formal","","key","f","16.78880158730132","640","356","自己","变通","Positive","ability","","","","","","","","","","",""
"1300","","f","psychophysics","54","290247","0.0-7.0-3.0-0.40","1","1","2","1","1","2","1","1","2","1","1","-2","0","-3","-2","-2","-1","-1","-1","3","2","2","4","1","1","1","1","2","2","2","4","3","4","2","2","2","2","3","2","3","1","3","2","1","1","3","2","2","1","1","3","3","2","1","1","2","2","2","3","3","1","3","1","2","7","2","3","1","7","3","1","3","2","2","3","3","7","3","2","688842330605617152","罗","571","Male","[""坏他"",""好我"",""好他"",""坏我""]","[""弱他"",""强我"",""强他"",""弱我""]","","","","","","","","no","","","","","","","","","SRET","EW_formal","","key","f","16.66375182481758","640","356","自己","奸险","Negative","morality","","","","","","","","","","",""
"1290","","f","psychophysics","55","292550","0.0-7.0-3.0-0.41","1","1","2","1","1","2","1","1","2","1","1","-2","0","-3","-2","-2","-1","-1","-1","3","2","2","4","1","1","1","1","2","2","2","4","3","4","2","2","2","2","3","2","3","1","3","2","1","1","3","2","2","1","1","3","3","2","1","1","2","2","2","3","3","1","3","1","2","7","2","3","1","7","3","1","3","2","2","3","3","7","3","2","688842330605617152","罗","571","Male","[""坏他"",""好我"",""好他"",""坏我""]","[""弱他"",""强我"",""强他"",""弱我""]","","","","","","","","no","","","","","","","","","SRET","EW_formal","","key","f","16.66557971014476","640","356","朋友","外行","Negative","ability","","","","","","","","","","",""
"792","","f","psychophysics","56","294348","0.0-7.0-3.0-0.42","1","1","2","1","1","2","1","1","2","1","1","-2","0","-3","-2","-2","-1","-1","-1","3","2","2","4","1","1","1","1","2","2","2","4","3","4","2","2","2","2","3","2","3","1","3","2","1","1","3","2","2","1","1","3","3","2","1","1","2","2","2","3","3","1","3","1","2","7","2","3","1","7","3","1","3","2","2","3","3","7","3","2","688842330605617152","罗","571","Male","[""坏他"",""好我"",""好他"",""坏我""]","[""弱他"",""强我"",""强他"",""弱我""]","","","","","","","","no","","","","","","","","","SRET","EW_formal","","key","f","16.821679245283","640","356","自己","精干","Positive","ability","","","","","","","","","","",""
"894","","j","psychophysics","57","296249","0.0-7.0-3.0-0.43","1","1","2","1","1","2","1","1","2","1","1","-2","0","-3","-2","-2","-1","-1","-1","3","2","2","4","1","1","1","1","2","2","2","4","3","4","2","2","2","2","3","2","3","1","3","2","1","1","3","2","2","1","1","3","3","2","1","1","2","2","2","3","3","1","3","1","2","7","2","3","1","7","3","1","3","2","2","3","3","7","3","2","688842330605617152","罗","571","Male","[""坏他"",""好我"",""好他"",""坏我""]","[""弱他"",""强我"",""强他"",""弱我""]","","","","","","","","yes","","","","","","","","","SRET","EW_formal","","key","j","16.812598214285703","640","356","朋友","慷慨","Positive","morality","","","","","","","","","","",""
"1198","","j","psychophysics","58","298454","0.0-7.0-3.0-0.44","1","1","2","1","1","2","1","1","2","1","1","-2","0","-3","-2","-2","-1","-1","-1","3","2","2","4","1","1","1","1","2","2","2","4","3","4","2","2","2","2","3","2","3","1","3","2","1","1","3","2","2","1","1","3","3","2","1","1","2","2","2","3","3","1","3","1","2","7","2","3","1","7","3","1","3","2","2","3","3","7","3","2","688842330605617152","罗","571","Male","[""坏他"",""好我"",""好他"",""坏我""]","[""弱他"",""强我"",""强他"",""弱我""]","","","","","","","","yes","","","","","","","","","SRET","EW_formal","","key","j","16.664427480915872","640","356","自己","窝囊","Negative","ability","","","","","","","","","","",""
"1346","","j","psychophysics","59","300805","0.0-7.0-3.0-0.45","1","1","2","1","1","2","1","1","2","1","1","-2","0","-3","-2","-2","-1","-1","-1","3","2","2","4","1","1","1","1","2","2","2","4","3","4","2","2","2","2","3","2","3","1","3","2","1","1","3","2","2","1","1","3","3","2","1","1","2","2","2","3","3","1","3","1","2","7","2","3","1","7","3","1","3","2","2","3","3","7","3","2","688842330605617152","罗","571","Male","[""坏他"",""好我"",""好他"",""坏我""]","[""弱他"",""强我"",""强他"",""弱我""]","","","","","","","","yes","","","","","","","","","SRET","EW_formal","","key","j","16.905913043478286","640","356","朋友","弱智","Negative","ability","","","","","","","","","","",""
"901","","f","psychophysics","60","302713","0.0-7.0-3.0-0.46","1","1","2","1","1","2","1","1","2","1","1","-2","0","-3","-2","-2","-1","-1","-1","3","2","2","4","1","1","1","1","2","2","2","4","3","4","2","2","2","2","3","2","3","1","3","2","1","1","3","2","2","1","1","3","3","2","1","1","2","2","2","3","3","1","3","1","2","7","2","3","1","7","3","1","3","2","2","3","3","7","3","2","688842330605617152","罗","571","Male","[""坏他"",""好我"",""好他"",""坏我""]","[""弱他"",""强我"",""强他"",""弱我""]","","","","","","","","no","","","","","","","","","SRET","EW_formal","","key","f","16.664692982456344","640","356","朋友","势利","Negative","morality","","","","","","","","","","",""
"1444","","j","psychophysics","61","305163","0.0-7.0-3.0-0.47","1","1","2","1","1","2","1","1","2","1","1","-2","0","-3","-2","-2","-1","-1","-1","3","2","2","4","1","1","1","1","2","2","2","4","3","4","2","2","2","2","3","2","3","1","3","2","1","1","3","2","2","1","1","3","3","2","1","1","2","2","2","3","3","1","3","1","2","7","2","3","1","7","3","1","3","2","2","3","3","7","3","2","688842330605617152","罗","571","Male","[""坏他"",""好我"",""好他"",""坏我""]","[""弱他"",""强我"",""强他"",""弱我""]","","","","","","","","yes","","","","","","","","","SRET","EW_formal","","key","j","16.89521527777793","640","356","自己","自私","Negative","morality","","","","","","","","","","",""
"836","","j","psychophysics","62","307008","0.0-7.0-3.0-0.48","1","1","2","1","1","2","1","1","2","1","1","-2","0","-3","-2","-2","-1","-1","-1","3","2","2","4","1","1","1","1","2","2","2","4","3","4","2","2","2","2","3","2","3","1","3","2","1","1","3","2","2","1","1","3","3","2","1","1","2","2","2","3","3","1","3","1","2","7","2","3","1","7","3","1","3","2","2","3","3","7","3","2","688842330605617152","罗","571","Male","[""坏他"",""好我"",""好他"",""坏我""]","[""弱他"",""强我"",""强他"",""弱我""]","","","","","","","","yes","","","","","","","","","SRET","EW_formal","","key","j","16.664247706421936","640","356","朋友","爱国","Positive","morality","","","","","","","","","","",""
"951","","j","psychophysics","63","308969","0.0-7.0-3.0-0.49","1","1","2","1","1","2","1","1","2","1","1","-2","0","-3","-2","-2","-1","-1","-1","3","2","2","4","1","1","1","1","2","2","2","4","3","4","2","2","2","2","3","2","3","1","3","2","1","1","3","2","2","1","1","3","3","2","1","1","2","2","2","3","3","1","3","1","2","7","2","3","1","7","3","1","3","2","2","3","3","7","3","2","688842330605617152","罗","571","Male","[""坏他"",""好我"",""好他"",""坏我""]","[""弱他"",""强我"",""强他"",""弱我""]","","","","","","","","yes","","","","","","","","","SRET","EW_formal","","key","j","16.664529914529915","640","356","朋友","拖延","Negative","ability","","","","","","","","","","",""
"673","","j","psychophysics","64","310645","0.0-7.0-3.0-0.50","1","1","2","1","1","2","1","1","2","1","1","-2","0","-3","-2","-2","-1","-1","-1","3","2","2","4","1","1","1","1","2","2","2","4","3","4","2","2","2","2","3","2","3","1","3","2","1","1","3","2","2","1","1","3","3","2","1","1","2","2","2","3","3","1","3","1","2","7","2","3","1","7","3","1","3","2","2","3","3","7","3","2","688842330605617152","罗","571","Male","[""坏他"",""好我"",""好他"",""坏我""]","[""弱他"",""强我"",""强他"",""弱我""]","","","","","","","","yes","","","","","","","","","SRET","EW_formal","","key","j","16.664590000000317","640","356","自己","毛糙","Negative","ability","","","","","","","","","","",""
"1387","","f","psychophysics","65","313041","0.0-7.0-3.0-0.51","1","1","2","1","1","2","1","1","2","1","1","-2","0","-3","-2","-2","-1","-1","-1","3","2","2","4","1","1","1","1","2","2","2","4","3","4","2","2","2","2","3","2","3","1","3","2","1","1","3","2","2","1","1","3","3","2","1","1","2","2","2","3","3","1","3","1","2","7","2","3","1","7","3","1","3","2","2","3","3","7","3","2","688842330605617152","罗","571","Male","[""坏他"",""好我"",""好他"",""坏我""]","[""弱他"",""强我"",""强他"",""弱我""]","","","","","","","","no","","","","","","","","","SRET","EW_formal","","key","f","16.788780141843926","640","356","朋友","不良","Negative","morality","","","","","","","","","","",""
"978","","f","psychophysics","66","315028","0.0-7.0-3.0-0.52","1","1","2","1","1","2","1","1","2","1","1","-2","0","-3","-2","-2","-1","-1","-1","3","2","2","4","1","1","1","1","2","2","2","4","3","4","2","2","2","2","3","2","3","1","3","2","1","1","3","2","2","1","1","3","3","2","1","1","2","2","2","3","3","1","3","1","2","7","2","3","1","7","3","1","3","2","2","3","3","7","3","2","688842330605617152","罗","571","Male","[""坏他"",""好我"",""好他"",""坏我""]","[""弱他"",""强我"",""强他"",""弱我""]","","","","","","","","no","","","","","","","","","SRET","EW_formal","","key","f","17.09478448275858","640","356","自己","腐败","Negative","morality","","","","","","","","","","",""
"null","","null","psychophysics","67","318037","0.0-7.0-3.0-0.53","1","1","2","1","1","2","1","1","2","1","1","-2","0","-3","-2","-2","-1","-1","-1","3","2","2","4","1","1","1","1","2","2","2","4","3","4","2","2","2","2","3","2","3","1","3","2","1","1","3","2","2","1","1","3","3","2","1","1","2","2","2","3","3","1","3","1","2","7","2","3","1","7","3","1","3","2","2","3","3","7","3","2","688842330605617152","罗","571","Male","[""坏他"",""好我"",""好他"",""坏我""]","[""弱他"",""强我"",""强他"",""弱我""]","","","","","","","","","","","","","","","","","SRET","EW_formal","","key","null","16.664625698323984","640","356","自己","无私","Positive","morality","","","","","","","","","","",""
"788","","f","psychophysics","68","319830","0.0-7.0-3.0-0.54","1","1","2","1","1","2","1","1","2","1","1","-2","0","-3","-2","-2","-1","-1","-1","3","2","2","4","1","1","1","1","2","2","2","4","3","4","2","2","2","2","3","2","3","1","3","2","1","1","3","2","2","1","1","3","3","2","1","1","2","2","2","3","3","1","3","1","2","7","2","3","1","7","3","1","3","2","2","3","3","7","3","2","688842330605617152","罗","571","Male","[""坏他"",""好我"",""好他"",""坏我""]","[""弱他"",""强我"",""强他"",""弱我""]","","","","","","","","no","","","","","","","","","SRET","EW_formal","","key","f","16.66476635514023","640","356","自己","正气","Positive","morality","","","","","","","","","","",""
"822","","j","psychophysics","69","321656","0.0-7.0-3.0-0.55","1","1","2","1","1","2","1","1","2","1","1","-2","0","-3","-2","-2","-1","-1","-1","3","2","2","4","1","1","1","1","2","2","2","4","3","4","2","2","2","2","3","2","3","1","3","2","1","1","3","2","2","1","1","3","3","2","1","1","2","2","2","3","3","1","3","1","2","7","2","3","1","7","3","1","3","2","2","3","3","7","3","2","688842330605617152","罗","571","Male","[""坏他"",""好我"",""好他"",""坏我""]","[""弱他"",""强我"",""强他"",""弱我""]","","","","","","","","yes","","","","","","","","","SRET","EW_formal","","key","j","16.66543518518544","640","356","自己","拙笨","Negative","ability","","","","","","","","","","",""
"992","","j","psychophysics","70","323651","0.0-7.0-3.0-0.56","1","1","2","1","1","2","1","1","2","1","1","-2","0","-3","-2","-2","-1","-1","-1","3","2","2","4","1","1","1","1","2","2","2","4","3","4","2","2","2","2","3","2","3","1","3","2","1","1","3","2","2","1","1","3","3","2","1","1","2","2","2","3","3","1","3","1","2","7","2","3","1","7","3","1","3","2","2","3","3","7","3","2","688842330605617152","罗","571","Male","[""坏他"",""好我"",""好他"",""坏我""]","[""弱他"",""强我"",""强他"",""弱我""]","","","","","","","","yes","","","","","","","","","SRET","EW_formal","","key","j","16.664243697478856","640","356","自己","愚钝","Negative","ability","","","","","","","","","","",""
"943","","f","psychophysics","71","325601","0.0-7.0-3.0-0.57","1","1","2","1","1","2","1","1","2","1","1","-2","0","-3","-2","-2","-1","-1","-1","3","2","2","4","1","1","1","1","2","2","2","4","3","4","2","2","2","2","3","2","3","1","3","2","1","1","3","2","2","1","1","3","3","2","1","1","2","2","2","3","3","1","3","1","2","7","2","3","1","7","3","1","3","2","2","3","3","7","3","2","688842330605617152","罗","571","Male","[""坏他"",""好我"",""好他"",""坏我""]","[""弱他"",""强我"",""强他"",""弱我""]","","","","","","","","no","","","","","","","","","SRET","EW_formal","","key","f","16.66448275862083","640","356","自己","远见","Positive","ability","","","","","","","","","","",""
"1080","","f","psychophysics","72","327688","0.0-7.0-3.0-0.58","1","1","2","1","1","2","1","1","2","1","1","-2","0","-3","-2","-2","-1","-1","-1","3","2","2","4","1","1","1","1","2","2","2","4","3","4","2","2","2","2","3","2","3","1","3","2","1","1","3","2","2","1","1","3","3","2","1","1","2","2","2","3","3","1","3","1","2","7","2","3","1","7","3","1","3","2","2","3","3","7","3","2","688842330605617152","罗","571","Male","[""坏他"",""好我"",""好他"",""坏我""]","[""弱他"",""强我"",""强他"",""弱我""]","","","","","","","","no","","","","","","","","","SRET","EW_formal","","key","f","16.664427419354567","640","356","朋友","利落","Positive","ability","","","","","","","","","","",""
"1088","","j","psychophysics","73","329780","0.0-7.0-3.0-0.59","1","1","2","1","1","2","1","1","2","1","1","-2","0","-3","-2","-2","-1","-1","-1","3","2","2","4","1","1","1","1","2","2","2","4","3","4","2","2","2","2","3","2","3","1","3","2","1","1","3","2","2","1","1","3","3","2","1","1","2","2","2","3","3","1","3","1","2","7","2","3","1","7","3","1","3","2","2","3","3","7","3","2","688842330605617152","罗","571","Male","[""坏他"",""好我"",""好他"",""坏我""]","[""弱他"",""强我"",""强他"",""弱我""]","","","","","","","","yes","","","","","","","","","SRET","EW_formal","","key","j","16.798274193548657","640","356","朋友","上进","Positive","ability","","","","","","","","","","",""
"994","","j","psychophysics","74","331778","0.0-7.0-3.0-0.60","1","1","2","1","1","2","1","1","2","1","1","-2","0","-3","-2","-2","-1","-1","-1","3","2","2","4","1","1","1","1","2","2","2","4","3","4","2","2","2","2","3","2","3","1","3","2","1","1","3","2","2","1","1","3","3","2","1","1","2","2","2","3","3","1","3","1","2","7","2","3","1","7","3","1","3","2","2","3","3","7","3","2","688842330605617152","罗","571","Male","[""坏他"",""好我"",""好他"",""坏我""]","[""弱他"",""强我"",""强他"",""弱我""]","","","","","","","","yes","","","","","","","","","SRET","EW_formal","","key","j","16.664411764705903","640","356","朋友","孝顺","Positive","morality","","","","","","","","","","",""
"1593","","j","psychophysics","75","334376","0.0-7.0-3.0-0.61","1","1","2","1","1","2","1","1","2","1","1","-2","0","-3","-2","-2","-1","-1","-1","3","2","2","4","1","1","1","1","2","2","2","4","3","4","2","2","2","2","3","2","3","1","3","2","1","1","3","2","2","1","1","3","3","2","1","1","2","2","2","3","3","1","3","1","2","7","2","3","1","7","3","1","3","2","2","3","3","7","3","2","688842330605617152","罗","571","Male","[""坏他"",""好我"",""好他"",""坏我""]","[""弱他"",""强我"",""强他"",""弱我""]","","","","","","","","yes","","","","","","","","","SRET","EW_formal","","key","j","16.66436774193557","640","356","朋友","无为","Negative","ability","","","","","","","","","","",""
"1039","","j","psychophysics","76","336429","0.0-7.0-3.0-0.62","1","1","2","1","1","2","1","1","2","1","1","-2","0","-3","-2","-2","-1","-1","-1","3","2","2","4","1","1","1","1","2","2","2","4","3","4","2","2","2","2","3","2","3","1","3","2","1","1","3","2","2","1","1","3","3","2","1","1","2","2","2","3","3","1","3","1","2","7","2","3","1","7","3","1","3","2","2","3","3","7","3","2","688842330605617152","罗","571","Male","[""坏他"",""好我"",""好他"",""坏我""]","[""弱他"",""强我"",""强他"",""弱我""]","","","","","","","","yes","","","","","","","","","SRET","EW_formal","","key","j","16.664418032786955","640","356","自己","短视","Negative","ability","","","","","","","","","","",""
"909","","j","psychophysics","77","338343","0.0-7.0-3.0-0.63","1","1","2","1","1","2","1","1","2","1","1","-2","0","-3","-2","-2","-1","-1","-1","3","2","2","4","1","1","1","1","2","2","2","4","3","4","2","2","2","2","3","2","3","1","3","2","1","1","3","2","2","1","1","3","3","2","1","1","2","2","2","3","3","1","3","1","2","7","2","3","1","7","3","1","3","2","2","3","3","7","3","2","688842330605617152","罗","571","Male","[""坏他"",""好我"",""好他"",""坏我""]","[""弱他"",""强我"",""强他"",""弱我""]","","","","","","","","yes","","","","","","","","","SRET","EW_formal","","key","j","16.665203539823054","640","356","朋友","好心","Positive","morality","","","","","","","","","","",""
"997","","f","psychophysics","78","340360","0.0-7.0-3.0-0.64","1","1","2","1","1","2","1","1","2","1","1","-2","0","-3","-2","-2","-1","-1","-1","3","2","2","4","1","1","1","1","2","2","2","4","3","4","2","2","2","2","3","2","3","1","3","2","1","1","3","2","2","1","1","3","3","2","1","1","2","2","2","3","3","1","3","1","2","7","2","3","1","7","3","1","3","2","2","3","3","7","3","2","688842330605617152","罗","571","Male","[""坏他"",""好我"",""好他"",""坏我""]","[""弱他"",""强我"",""强他"",""弱我""]","","","","","","","","no","","","","","","","","","SRET","EW_formal","","key","f","17.388669565217267","640","356","自己","智慧","Positive","ability","","","","","","","","","","",""
"1291","","f","psychophysics","79","342698","0.0-7.0-3.0-0.65","1","1","2","1","1","2","1","1","2","1","1","-2","0","-3","-2","-2","-1","-1","-1","3","2","2","4","1","1","1","1","2","2","2","4","3","4","2","2","2","2","3","2","3","1","3","2","1","1","3","2","2","1","1","3","3","2","1","1","2","2","2","3","3","1","3","1","2","7","2","3","1","7","3","1","3","2","2","3","3","7","3","2","688842330605617152","罗","571","Male","[""坏他"",""好我"",""好他"",""坏我""]","[""弱他"",""强我"",""强他"",""弱我""]","","","","","","","","no","","","","","","","","","SRET","EW_formal","","key","f","16.664921428571272","640","356","朋友","贪污","Negative","morality","","","","","","","","","","",""
"927","","j","psychophysics","80","344730","0.0-7.0-3.0-0.66","1","1","2","1","1","2","1","1","2","1","1","-2","0","-3","-2","-2","-1","-1","-1","3","2","2","4","1","1","1","1","2","2","2","4","3","4","2","2","2","2","3","2","3","1","3","2","1","1","3","2","2","1","1","3","3","2","1","1","2","2","2","3","3","1","3","1","2","7","2","3","1","7","3","1","3","2","2","3","3","7","3","2","688842330605617152","罗","571","Male","[""坏他"",""好我"",""好他"",""坏我""]","[""弱他"",""强我"",""强他"",""弱我""]","","","","","","","","yes","","","","","","","","","SRET","EW_formal","","key","j","17.542070175438358","640","356","朋友","马虎","Negative","ability","","","","","","","","","","",""
"1616","","j","psychophysics","81","347361","0.0-7.0-3.0-0.67","1","1","2","1","1","2","1","1","2","1","1","-2","0","-3","-2","-2","-1","-1","-1","3","2","2","4","1","1","1","1","2","2","2","4","3","4","2","2","2","2","3","2","3","1","3","2","1","1","3","2","2","1","1","3","3","2","1","1","2","2","2","3","3","1","3","1","2","7","2","3","1","7","3","1","3","2","2","3","3","7","3","2","688842330605617152","罗","571","Male","[""坏他"",""好我"",""好他"",""坏我""]","[""弱他"",""强我"",""强他"",""弱我""]","","","","","","","","yes","","","","","","","","","SRET","EW_formal","","key","j","16.877987179487274","640","356","朋友","独立","Positive","ability","","","","","","","","","","",""
"1124","","f","psychophysics","82","349510","0.0-7.0-3.0-0.68","1","1","2","1","1","2","1","1","2","1","1","-2","0","-3","-2","-2","-1","-1","-1","3","2","2","4","1","1","1","1","2","2","2","4","3","4","2","2","2","2","3","2","3","1","3","2","1","1","3","2","2","1","1","3","3","2","1","1","2","2","2","3","3","1","3","1","2","7","2","3","1","7","3","1","3","2","2","3","3","7","3","2","688842330605617152","罗","571","Male","[""坏他"",""好我"",""好他"",""坏我""]","[""弱他"",""强我"",""强他"",""弱我""]","","","","","","","","no","","","","","","","","","SRET","EW_formal","","key","f","16.93118399999989","640","356","朋友","不孝","Negative","morality","","","","","","","","","","",""
"1199","","j","psychophysics","83","351726","0.0-7.0-3.0-0.69","1","1","2","1","1","2","1","1","2","1","1","-2","0","-3","-2","-2","-1","-1","-1","3","2","2","4","1","1","1","1","2","2","2","4","3","4","2","2","2","2","3","2","3","1","3","2","1","1","3","2","2","1","1","3","3","2","1","1","2","2","2","3","3","1","3","1","2","7","2","3","1","7","3","1","3","2","2","3","3","7","3","2","688842330605617152","罗","571","Male","[""坏他"",""好我"",""好他"",""坏我""]","[""弱他"",""强我"",""强他"",""弱我""]","","","","","","","","yes","","","","","","","","","SRET","EW_formal","","key","j","16.66348120300721","640","356","朋友","草率","Negative","ability","","","","","","","","","","",""
"1291","","f","psychophysics","84","354028","0.0-7.0-3.0-0.70","1","1","2","1","1","2","1","1","2","1","1","-2","0","-3","-2","-2","-1","-1","-1","3","2","2","4","1","1","1","1","2","2","2","4","3","4","2","2","2","2","3","2","3","1","3","2","1","1","3","2","2","1","1","3","3","2","1","1","2","2","2","3","3","1","3","1","2","7","2","3","1","7","3","1","3","2","2","3","3","7","3","2","688842330605617152","罗","571","Male","[""坏他"",""好我"",""好他"",""坏我""]","[""弱他"",""强我"",""强他"",""弱我""]","","","","","","","","no","","","","","","","","","SRET","EW_formal","","key","f","17.03752985074612","640","356","自己","失信","Negative","morality","","","","","","","","","","",""
"1176","","f","psychophysics","85","356217","0.0-7.0-3.0-0.71","1","1","2","1","1","2","1","1","2","1","1","-2","0","-3","-2","-2","-1","-1","-1","3","2","2","4","1","1","1","1","2","2","2","4","3","4","2","2","2","2","3","2","3","1","3","2","1","1","3","2","2","1","1","3","3","2","1","1","2","2","2","3","3","1","3","1","2","7","2","3","1","7","3","1","3","2","2","3","3","7","3","2","688842330605617152","罗","571","Male","[""坏他"",""好我"",""好他"",""坏我""]","[""弱他"",""强我"",""强他"",""弱我""]","","","","","","","","no","","","","","","","","","SRET","EW_formal","","key","f","16.664615384615562","640","356","自己","拜金","Negative","morality","","","","","","","","","","",""
"1307","","j","psychophysics","86","358534","0.0-7.0-3.0-0.72","1","1","2","1","1","2","1","1","2","1","1","-2","0","-3","-2","-2","-1","-1","-1","3","2","2","4","1","1","1","1","2","2","2","4","3","4","2","2","2","2","3","2","3","1","3","2","1","1","3","2","2","1","1","3","3","2","1","1","2","2","2","3","3","1","3","1","2","7","2","3","1","7","3","1","3","2","2","3","3","7","3","2","688842330605617152","罗","571","Male","[""坏他"",""好我"",""好他"",""坏我""]","[""弱他"",""强我"",""强他"",""弱我""]","","","","","","","","yes","","","","","","","","","SRET","EW_formal","","key","j","17.161328358208646","640","356","朋友","忠诚","Positive","morality","","","","","","","","","","",""
"987","","j","psychophysics","87","360530","0.0-7.0-3.0-0.73","1","1","2","1","1","2","1","1","2","1","1","-2","0","-3","-2","-2","-1","-1","-1","3","2","2","4","1","1","1","1","2","2","2","4","3","4","2","2","2","2","3","2","3","1","3","2","1","1","3","2","2","1","1","3","3","2","1","1","2","2","2","3","3","1","3","1","2","7","2","3","1","7","3","1","3","2","2","3","3","7","3","2","688842330605617152","罗","571","Male","[""坏他"",""好我"",""好他"",""坏我""]","[""弱他"",""强我"",""强他"",""弱我""]","","","","","","","","yes","","","","","","","","","SRET","EW_formal","","key","j","16.66560169491548","640","356","朋友","能干","Positive","ability","","","","","","","","","","",""
"1221","","f","psychophysics","88","362774","0.0-7.0-3.0-0.74","1","1","2","1","1","2","1","1","2","1","1","-2","0","-3","-2","-2","-1","-1","-1","3","2","2","4","1","1","1","1","2","2","2","4","3","4","2","2","2","2","3","2","3","1","3","2","1","1","3","2","2","1","1","3","3","2","1","1","2","2","2","3","3","1","3","1","2","7","2","3","1","7","3","1","3","2","2","3","3","7","3","2","688842330605617152","罗","571","Male","[""坏他"",""好我"",""好他"",""坏我""]","[""弱他"",""强我"",""强他"",""弱我""]","","","","","","","","no","","","","","","","","","SRET","EW_formal","","key","f","17.181286821705417","640","356","自己","骁勇","Positive","ability","","","","","","","","","","",""
"1265","","j","psychophysics","89","365046","0.0-7.0-3.0-0.75","1","1","2","1","1","2","1","1","2","1","1","-2","0","-3","-2","-2","-1","-1","-1","3","2","2","4","1","1","1","1","2","2","2","4","3","4","2","2","2","2","3","2","3","1","3","2","1","1","3","2","2","1","1","3","3","2","1","1","2","2","2","3","3","1","3","1","2","7","2","3","1","7","3","1","3","2","2","3","3","7","3","2","688842330605617152","罗","571","Male","[""坏他"",""好我"",""好他"",""坏我""]","[""弱他"",""强我"",""强他"",""弱我""]","","","","","","","","yes","","","","","","","","","SRET","EW_formal","","key","j","16.913552238805735","640","356","朋友","迟钝","Negative","ability","","","","","","","","","","",""
"1318","","j","psychophysics","90","367367","0.0-7.0-3.0-0.76","1","1","2","1","1","2","1","1","2","1","1","-2","0","-3","-2","-2","-1","-1","-1","3","2","2","4","1","1","1","1","2","2","2","4","3","4","2","2","2","2","3","2","3","1","3","2","1","1","3","2","2","1","1","3","3","2","1","1","2","2","2","3","3","1","3","1","2","7","2","3","1","7","3","1","3","2","2","3","3","7","3","2","688842330605617152","罗","571","Male","[""坏他"",""好我"",""好他"",""坏我""]","[""弱他"",""强我"",""强他"",""弱我""]","","","","","","","","yes","","","","","","","","","SRET","EW_formal","","key","j","16.664920289855218","640","356","朋友","努力","Positive","ability","","","","","","","","","","",""
"1084","","f","psychophysics","91","369471","0.0-7.0-3.0-0.77","1","1","2","1","1","2","1","1","2","1","1","-2","0","-3","-2","-2","-1","-1","-1","3","2","2","4","1","1","1","1","2","2","2","4","3","4","2","2","2","2","3","2","3","1","3","2","1","1","3","2","2","1","1","3","3","2","1","1","2","2","2","3","3","1","3","1","2","7","2","3","1","7","3","1","3","2","2","3","3","7","3","2","688842330605617152","罗","571","Male","[""坏他"",""好我"",""好他"",""坏我""]","[""弱他"",""强我"",""强他"",""弱我""]","","","","","","","","no","","","","","","","","","SRET","EW_formal","","key","f","16.932556451612804","640","356","朋友","高效","Positive","ability","","","","","","","","","","",""
"1174","","f","psychophysics","92","371655","0.0-7.0-3.0-0.78","1","1","2","1","1","2","1","1","2","1","1","-2","0","-3","-2","-2","-1","-1","-1","3","2","2","4","1","1","1","1","2","2","2","4","3","4","2","2","2","2","3","2","3","1","3","2","1","1","3","2","2","1","1","3","3","2","1","1","2","2","2","3","3","1","3","1","2","7","2","3","1","7","3","1","3","2","2","3","3","7","3","2","688842330605617152","罗","571","Male","[""坏他"",""好我"",""好他"",""坏我""]","[""弱他"",""强我"",""强他"",""弱我""]","","","","","","","","no","","","","","","","","","SRET","EW_formal","","key","f","16.793170542635796","640","356","朋友","聪明","Positive","ability","","","","","","","","","","",""
"1175","","j","psychophysics","93","373833","0.0-7.0-3.0-0.79","1","1","2","1","1","2","1","1","2","1","1","-2","0","-3","-2","-2","-1","-1","-1","3","2","2","4","1","1","1","1","2","2","2","4","3","4","2","2","2","2","3","2","3","1","3","2","1","1","3","2","2","1","1","3","3","2","1","1","2","2","2","3","3","1","3","1","2","7","2","3","1","7","3","1","3","2","2","3","3","7","3","2","688842330605617152","罗","571","Male","[""坏他"",""好我"",""好他"",""坏我""]","[""弱他"",""强我"",""强他"",""弱我""]","","","","","","","","yes","","","","","","","","","SRET","EW_formal","","key","j","16.665054263566013","640","356","自己","善良","Positive","morality","","","","","","","","","","",""
"1344","","f","psychophysics","94","376188","0.0-7.0-3.0-0.80","1","1","2","1","1","2","1","1","2","1","1","-2","0","-3","-2","-2","-1","-1","-1","3","2","2","4","1","1","1","1","2","2","2","4","3","4","2","2","2","2","3","2","3","1","3","2","1","1","3","2","2","1","1","3","3","2","1","1","2","2","2","3","3","1","3","1","2","7","2","3","1","7","3","1","3","2","2","3","3","7","3","2","688842330605617152","罗","571","Male","[""坏他"",""好我"",""好他"",""坏我""]","[""弱他"",""强我"",""强他"",""弱我""]","","","","","","","","no","","","","","","","","","SRET","EW_formal","","key","f","16.898460431654666","640","356","朋友","君子","Positive","morality","","","","","","","","","","",""
"1461","","f","psychophysics","95","378655","0.0-7.0-3.0-0.81","1","1","2","1","1","2","1","1","2","1","1","-2","0","-3","-2","-2","-1","-1","-1","3","2","2","4","1","1","1","1","2","2","2","4","3","4","2","2","2","2","3","2","3","1","3","2","1","1","3","2","2","1","1","3","3","2","1","1","2","2","2","3","3","1","3","1","2","7","2","3","1","7","3","1","3","2","2","3","3","7","3","2","688842330605617152","罗","571","Male","[""坏他"",""好我"",""好他"",""坏我""]","[""弱他"",""强我"",""强他"",""弱我""]","","","","","","","","no","","","","","","","","","SRET","EW_formal","","key","f","16.66334693877543","640","356","朋友","宽容","Positive","morality","","","","","","","","","","",""
"1349","","j","psychophysics","96","381008","0.0-7.0-3.0-0.82","1","1","2","1","1","2","1","1","2","1","1","-2","0","-3","-2","-2","-1","-1","-1","3","2","2","4","1","1","1","1","2","2","2","4","3","4","2","2","2","2","3","2","3","1","3","2","1","1","3","2","2","1","1","3","3","2","1","1","2","2","2","3","3","1","3","1","2","7","2","3","1","7","3","1","3","2","2","3","3","7","3","2","688842330605617152","罗","571","Male","[""坏他"",""好我"",""好他"",""坏我""]","[""弱他"",""强我"",""强他"",""弱我""]","","","","","","","","yes","","","","","","","","","SRET","EW_formal","","key","j","16.664628571428224","640","356","自己","礼貌","Positive","morality","","","","","","","","","","",""
"901","","f","psychophysics","97","382924","0.0-7.0-3.0-0.83","1","1","2","1","1","2","1","1","2","1","1","-2","0","-3","-2","-2","-1","-1","-1","3","2","2","4","1","1","1","1","2","2","2","4","3","4","2","2","2","2","3","2","3","1","3","2","1","1","3","2","2","1","1","3","3","2","1","1","2","2","2","3","3","1","3","1","2","7","2","3","1","7","3","1","3","2","2","3","3","7","3","2","688842330605617152","罗","571","Male","[""坏他"",""好我"",""好他"",""坏我""]","[""弱他"",""强我"",""强他"",""弱我""]","","","","","","","","no","","","","","","","","","SRET","EW_formal","","key","f","16.812482142857334","640","356","自己","专注","Positive","ability","","","","","","","","","","",""
"794","","f","psychophysics","98","384803","0.0-7.0-3.0-0.84","1","1","2","1","1","2","1","1","2","1","1","-2","0","-3","-2","-2","-1","-1","-1","3","2","2","4","1","1","1","1","2","2","2","4","3","4","2","2","2","2","3","2","3","1","3","2","1","1","3","2","2","1","1","3","3","2","1","1","2","2","2","3","3","1","3","1","2","7","2","3","1","7","3","1","3","2","2","3","3","7","3","2","688842330605617152","罗","571","Male","[""坏他"",""好我"",""好他"",""坏我""]","[""弱他"",""强我"",""强他"",""弱我""]","","","","","","","","no","","","","","","","","","SRET","EW_formal","","key","f","17.281333333333517","640","356","朋友","素养","Positive","morality","","","","","","","","","","",""
"1103","","f","psychophysics","99","386909","0.0-7.0-3.0-0.85","1","1","2","1","1","2","1","1","2","1","1","-2","0","-3","-2","-2","-1","-1","-1","3","2","2","4","1","1","1","1","2","2","2","4","3","4","2","2","2","2","3","2","3","1","3","2","1","1","3","2","2","1","1","3","3","2","1","1","2","2","2","3","3","1","3","1","2","7","2","3","1","7","3","1","3","2","2","3","3","7","3","2","688842330605617152","罗","571","Male","[""坏他"",""好我"",""好他"",""坏我""]","[""弱他"",""强我"",""强他"",""弱我""]","","","","","","","","no","","","","","","","","","SRET","EW_formal","","key","f","16.665280000000262","640","356","自己","主见","Positive","ability","","","","","","","","","","",""
"1203","","j","psychophysics","100","389119","0.0-7.0-3.0-0.86","1","1","2","1","1","2","1","1","2","1","1","-2","0","-3","-2","-2","-1","-1","-1","3","2","2","4","1","1","1","1","2","2","2","4","3","4","2","2","2","2","3","2","3","1","3","2","1","1","3","2","2","1","1","3","3","2","1","1","2","2","2","3","3","1","3","1","2","7","2","3","1","7","3","1","3","2","2","3","3","7","3","2","688842330605617152","罗","571","Male","[""坏他"",""好我"",""好他"",""坏我""]","[""弱他"",""强我"",""强他"",""弱我""]","","","","","","","","yes","","","","","","","","","SRET","EW_formal","","key","j","16.79375384615358","640","356","自己","缓慢","Negative","ability","","","","","","","","","","",""
"886","","j","psychophysics","101","391038","0.0-7.0-3.0-0.87","1","1","2","1","1","2","1","1","2","1","1","-2","0","-3","-2","-2","-1","-1","-1","3","2","2","4","1","1","1","1","2","2","2","4","3","4","2","2","2","2","3","2","3","1","3","2","1","1","3","2","2","1","1","3","3","2","1","1","2","2","2","3","3","1","3","1","2","7","2","3","1","7","3","1","3","2","2","3","3","7","3","2","688842330605617152","罗","571","Male","[""坏他"",""好我"",""好他"",""坏我""]","[""弱他"",""强我"",""强他"",""弱我""]","","","","","","","","yes","","","","","","","","","SRET","EW_formal","","key","j","17.111276785714185","640","356","朋友","低俗","Negative","morality","","","","","","","","","","",""
"21644","
    <p><div style='color:white;font-size:35px; line-height:20px;'>计算任务</div></p><br>
    <p><div style='color:red;font-size:25px; line-height:20px;'>接下来，您将看到一些四则运算题，<b>请从键盘选择 0-9 进行反应。</b></div></p>
    <p><div style='color:red;font-size:25px; line-height:20px;'>请尽可能快地进行计算，计算的速度和正确率将影响报酬的发放。</div></p>
    <p><div class='footer' style='color:white;font-size:25px; line-height:20px;'>如果对本实验还有不清楚之处，请立即向实验员咨询。</p><p style='color:white;font-size:25px; line-height:20px;'>如果您明白了规则：</p><p style='color:white;font-size:22px; line-height:20px;'>请按 继续 进入练习</p>
    </div>
    ","0","html-button-response","102","412684","0.0-7.0-4.0","1","1","2","1","1","2","1","1","2","1","1","-2","0","-3","-2","-2","-1","-1","-1","3","2","2","4","1","1","1","1","2","2","2","4","3","4","2","2","2","2","3","2","3","1","3","2","1","1","3","2","2","1","1","3","3","2","1","1","2","2","2","3","3","1","3","1","2","7","2","3","1","7","3","1","3","2","2","3","3","7","3","2","688842330605617152","罗","571","Male","[""坏他"",""好我"",""好他"",""坏我""]","[""弱他"",""强我"",""强他"",""弱我""]","","","","","","","","","","","","","","","","","SRET_math","math_instructions","Wed Jan 31 2024 09:17:41 GMT+0800 (中国标准时间)","","","","","","","","","","","","","","","","","","","",""
"2847","","2","psychophysics","103","415537","0.0-7.0-5.0-0.0","1","1","2","1","1","2","1","1","2","1","1","-2","0","-3","-2","-2","-1","-1","-1","3","2","2","4","1","1","1","1","2","2","2","4","3","4","2","2","2","2","3","2","3","1","3","2","1","1","3","2","2","1","1","3","3","2","1","1","2","2","2","3","3","1","3","1","2","7","2","3","1","7","3","1","3","2","2","3","3","7","3","2","688842330605617152","罗","571","Male","[""坏他"",""好我"",""好他"",""坏我""]","[""弱他"",""强我"",""强他"",""弱我""]","","","","","","","","2","","","","","","","","","SRET","SRET_math_calculate","","key","2","16.861053254437763","640","356","","","","","1+1= ?","2","1","","","","","","","",""
"2946","","3","psychophysics","104","418492","0.0-7.0-5.0-0.1","1","1","2","1","1","2","1","1","2","1","1","-2","0","-3","-2","-2","-1","-1","-1","3","2","2","4","1","1","1","1","2","2","2","4","3","4","2","2","2","2","3","2","3","1","3","2","1","1","3","2","2","1","1","3","3","2","1","1","2","2","2","3","3","1","3","1","2","7","2","3","1","7","3","1","3","2","2","3","3","7","3","2","688842330605617152","罗","571","Male","[""坏他"",""好我"",""好他"",""坏我""]","[""弱他"",""强我"",""强他"",""弱我""]","","","","","","","","3","","","","","","","","","SRET","SRET_math_calculate","","key","3","16.664448863636526","640","356","","","","","11-8= ?","3","1","","","","","","","",""
"2550","","5","psychophysics","105","421065","0.0-7.0-5.0-0.2","1","1","2","1","1","2","1","1","2","1","1","-2","0","-3","-2","-2","-1","-1","-1","3","2","2","4","1","1","1","1","2","2","2","4","3","4","2","2","2","2","3","2","3","1","3","2","1","1","3","2","2","1","1","3","3","2","1","1","2","2","2","3","3","1","3","1","2","7","2","3","1","7","3","1","3","2","2","3","3","7","3","2","688842330605617152","罗","571","Male","[""坏他"",""好我"",""好他"",""坏我""]","[""弱他"",""强我"",""强他"",""弱我""]","","","","","","","","5","","","","","","","","","SRET","SRET_math_calculate","","key","5","16.665311688311586","640","356","","","","","5/1= ?","5","1","","","","","","","",""
"2376","","5","psychophysics","106","423446","0.0-7.0-5.0-0.3","1","1","2","1","1","2","1","1","2","1","1","-2","0","-3","-2","-2","-1","-1","-1","3","2","2","4","1","1","1","1","2","2","2","4","3","4","2","2","2","2","3","2","3","1","3","2","1","1","3","2","2","1","1","3","3","2","1","1","2","2","2","3","3","1","3","1","2","7","2","3","1","7","3","1","3","2","2","3","3","7","3","2","688842330605617152","罗","571","Male","[""坏他"",""好我"",""好他"",""坏我""]","[""弱他"",""强我"",""强他"",""弱我""]","","","","","","","","5","","","","","","","","","SRET","SRET_math_calculate","","key","5","16.662852112676056","640","356","","","","","2+3= ?","5","1","","","","","","","",""
"2881","","9","psychophysics","107","426333","0.0-7.0-5.0-0.4","1","1","2","1","1","2","1","1","2","1","1","-2","0","-3","-2","-2","-1","-1","-1","3","2","2","4","1","1","1","1","2","2","2","4","3","4","2","2","2","2","3","2","3","1","3","2","1","1","3","2","2","1","1","3","3","2","1","1","2","2","2","3","3","1","3","1","2","7","2","3","1","7","3","1","3","2","2","3","3","7","3","2","688842330605617152","罗","571","Male","[""坏他"",""好我"",""好他"",""坏我""]","[""弱他"",""强我"",""强他"",""弱我""]","","","","","","","","9","","","","","","","","","SRET","SRET_math_calculate","","key","9","16.665075581395243","640","356","","","","","2+7= ?","9","1","","","","","","","",""
"3890","","6","psychophysics","108","430227","0.0-7.0-5.0-0.5","1","1","2","1","1","2","1","1","2","1","1","-2","0","-3","-2","-2","-1","-1","-1","3","2","2","4","1","1","1","1","2","2","2","4","3","4","2","2","2","2","3","2","3","1","3","2","1","1","3","2","2","1","1","3","3","2","1","1","2","2","2","3","3","1","3","1","2","7","2","3","1","7","3","1","3","2","2","3","3","7","3","2","688842330605617152","罗","571","Male","[""坏他"",""好我"",""好他"",""坏我""]","[""弱他"",""强我"",""强他"",""弱我""]","","","","","","","","6","","","","","","","","","SRET","SRET_math_calculate","","key","6","16.664090128755397","640","356","","","","","2*3= ?","6","1","","","","","","","",""
"2463","","9","psychophysics","109","432696","0.0-7.0-5.0-0.6","1","1","2","1","1","2","1","1","2","1","1","-2","0","-3","-2","-2","-1","-1","-1","3","2","2","4","1","1","1","1","2","2","2","4","3","4","2","2","2","2","3","2","3","1","3","2","1","1","3","2","2","1","1","3","3","2","1","1","2","2","2","3","3","1","3","1","2","7","2","3","1","7","3","1","3","2","2","3","3","7","3","2","688842330605617152","罗","571","Male","[""坏他"",""好我"",""好他"",""坏我""]","[""弱他"",""强我"",""强他"",""弱我""]","","","","","","","","9","","","","","","","","","SRET","SRET_math_calculate","","key","9","16.66442176870737","640","356","","","","","5+4= ?","9","1","","","","","","","",""
"2700","","3","psychophysics","110","435401","0.0-7.0-5.0-0.7","1","1","2","1","1","2","1","1","2","1","1","-2","0","-3","-2","-2","-1","-1","-1","3","2","2","4","1","1","1","1","2","2","2","4","3","4","2","2","2","2","3","2","3","1","3","2","1","1","3","2","2","1","1","3","3","2","1","1","2","2","2","3","3","1","3","1","2","7","2","3","1","7","3","1","3","2","2","3","3","7","3","2","688842330605617152","罗","571","Male","[""坏他"",""好我"",""好他"",""坏我""]","[""弱他"",""强我"",""强他"",""弱我""]","","","","","","","","3","","","","","","","","","SRET","SRET_math_calculate","","key","3","16.66316770186347","640","356","","","","","8/4= ?","2","0","","","","","","","",""
"3218","","2","psychophysics","111","438635","0.0-7.0-5.0-0.8","1","1","2","1","1","2","1","1","2","1","1","-2","0","-3","-2","-2","-1","-1","-1","3","2","2","4","1","1","1","1","2","2","2","4","3","4","2","2","2","2","3","2","3","1","3","2","1","1","3","2","2","1","1","3","3","2","1","1","2","2","2","3","3","1","3","1","2","7","2","3","1","7","3","1","3","2","2","3","3","7","3","2","688842330605617152","罗","571","Male","[""坏他"",""好我"",""好他"",""坏我""]","[""弱他"",""强我"",""强他"",""弱我""]","","","","","","","","2","","","","","","","","","SRET","SRET_math_calculate","","key","2","16.664373056995053","640","356","","","","","18/9= ?","2","1","","","","","","","",""
"4026","","7","psychophysics","112","442672","0.0-7.0-5.0-0.9","1","1","2","1","1","2","1","1","2","1","1","-2","0","-3","-2","-2","-1","-1","-1","3","2","2","4","1","1","1","1","2","2","2","4","3","4","2","2","2","2","3","2","3","1","3","2","1","1","3","2","2","1","1","3","3","2","1","1","2","2","2","3","3","1","3","1","2","7","2","3","1","7","3","1","3","2","2","3","3","7","3","2","688842330605617152","罗","571","Male","[""坏他"",""好我"",""好他"",""坏我""]","[""弱他"",""强我"",""强他"",""弱我""]","","","","","","","","7","","","","","","","","","SRET","SRET_math_calculate","","key","7","16.664609958506354","640","356","","","","","7*1=  ?","7","1","","","","","","","",""
"2695","","3","psychophysics","113","445375","0.0-7.0-5.0-0.10","1","1","2","1","1","2","1","1","2","1","1","-2","0","-3","-2","-2","-1","-1","-1","3","2","2","4","1","1","1","1","2","2","2","4","3","4","2","2","2","2","3","2","3","1","3","2","1","1","3","2","2","1","1","3","3","2","1","1","2","2","2","3","3","1","3","1","2","7","2","3","1","7","3","1","3","2","2","3","3","7","3","2","688842330605617152","罗","571","Male","[""坏他"",""好我"",""好他"",""坏我""]","[""弱他"",""强我"",""强他"",""弱我""]","","","","","","","","3","","","","","","","","","SRET","SRET_math_calculate","","key","3","16.664858024691327","640","356","","","","","9-6= ?","3","1","","","","","","","",""
"2337","","8","psychophysics","114","447717","0.0-7.0-5.0-0.11","1","1","2","1","1","2","1","1","2","1","1","-2","0","-3","-2","-2","-1","-1","-1","3","2","2","4","1","1","1","1","2","2","2","4","3","4","2","2","2","2","3","2","3","1","3","2","1","1","3","2","2","1","1","3","3","2","1","1","2","2","2","3","3","1","3","1","2","7","2","3","1","7","3","1","3","2","2","3","3","7","3","2","688842330605617152","罗","571","Male","[""坏他"",""好我"",""好他"",""坏我""]","[""弱他"",""强我"",""强他"",""弱我""]","","","","","","","","8","","","","","","","","","SRET","SRET_math_calculate","","key","8","16.6641798561155","640","356","","","","","5+3= ?","8","1","","","","","","","",""
"2981","","0","psychophysics","115","450714","0.0-7.0-5.0-0.12","1","1","2","1","1","2","1","1","2","1","1","-2","0","-3","-2","-2","-1","-1","-1","3","2","2","4","1","1","1","1","2","2","2","4","3","4","2","2","2","2","3","2","3","1","3","2","1","1","3","2","2","1","1","3","3","2","1","1","2","2","2","3","3","1","3","1","2","7","2","3","1","7","3","1","3","2","2","3","3","7","3","2","688842330605617152","罗","571","Male","[""坏他"",""好我"",""好他"",""坏我""]","[""弱他"",""强我"",""强他"",""弱我""]","","","","","","","","0","","","","","","","","","SRET","SRET_math_calculate","","key","0","16.949056818181734","640","356","","","","","12-12= ?","0","1","","","","","","","",""
"2244","","8","psychophysics","116","452961","0.0-7.0-5.0-0.13","1","1","2","1","1","2","1","1","2","1","1","-2","0","-3","-2","-2","-1","-1","-1","3","2","2","4","1","1","1","1","2","2","2","4","3","4","2","2","2","2","3","2","3","1","3","2","1","1","3","2","2","1","1","3","3","2","1","1","2","2","2","3","3","1","3","1","2","7","2","3","1","7","3","1","3","2","2","3","3","7","3","2","688842330605617152","罗","571","Male","[""坏他"",""好我"",""好他"",""坏我""]","[""弱他"",""强我"",""强他"",""弱我""]","","","","","","","","8","","","","","","","","","SRET","SRET_math_calculate","","key","8","16.66598507462707","640","356","","","","","6+2= ?","8","1","","","","","","","",""
"2910","","0","psychophysics","117","455876","0.0-7.0-5.0-0.14","1","1","2","1","1","2","1","1","2","1","1","-2","0","-3","-2","-2","-1","-1","-1","3","2","2","4","1","1","1","1","2","2","2","4","3","4","2","2","2","2","3","2","3","1","3","2","1","1","3","2","2","1","1","3","3","2","1","1","2","2","2","3","3","1","3","1","2","7","2","3","1","7","3","1","3","2","2","3","3","7","3","2","688842330605617152","罗","571","Male","[""坏他"",""好我"",""好他"",""坏我""]","[""弱他"",""强我"",""强他"",""弱我""]","","","","","","","","0","","","","","","","","","SRET","SRET_math_calculate","","key","0","16.76083815028902","640","356","","","","","1-1= ?","0","1","","","","","","","",""
"2532","","5","psychophysics","118","458411","0.0-7.0-5.0-0.15","1","1","2","1","1","2","1","1","2","1","1","-2","0","-3","-2","-2","-1","-1","-1","3","2","2","4","1","1","1","1","2","2","2","4","3","4","2","2","2","2","3","2","3","1","3","2","1","1","3","2","2","1","1","3","3","2","1","1","2","2","2","3","3","1","3","1","2","7","2","3","1","7","3","1","3","2","2","3","3","7","3","2","688842330605617152","罗","571","Male","[""坏他"",""好我"",""好他"",""坏我""]","[""弱他"",""强我"",""强他"",""弱我""]","","","","","","","","5","","","","","","","","","SRET","SRET_math_calculate","","key","5","16.664185430463682","640","356","","","","","15-10= ?","5","1","","","","","","","",""
"2012","","3","psychophysics","119","460428","0.0-7.0-5.0-0.16","1","1","2","1","1","2","1","1","2","1","1","-2","0","-3","-2","-2","-1","-1","-1","3","2","2","4","1","1","1","1","2","2","2","4","3","4","2","2","2","2","3","2","3","1","3","2","1","1","3","2","2","1","1","3","3","2","1","1","2","2","2","3","3","1","3","1","2","7","2","3","1","7","3","1","3","2","2","3","3","7","3","2","688842330605617152","罗","571","Male","[""坏他"",""好我"",""好他"",""坏我""]","[""弱他"",""强我"",""强他"",""弱我""]","","","","","","","","3","","","","","","","","","SRET","SRET_math_calculate","","key","3","16.664400000000022","640","356","","","","","1+2= ?","3","1","","","","","","","",""
"3237","","8","psychophysics","120","463670","0.0-7.0-5.0-0.17","1","1","2","1","1","2","1","1","2","1","1","-2","0","-3","-2","-2","-1","-1","-1","3","2","2","4","1","1","1","1","2","2","2","4","3","4","2","2","2","2","3","2","3","1","3","2","1","1","3","2","2","1","1","3","3","2","1","1","2","2","2","3","3","1","3","1","2","7","2","3","1","7","3","1","3","2","2","3","3","7","3","2","688842330605617152","罗","571","Male","[""坏他"",""好我"",""好他"",""坏我""]","[""弱他"",""强我"",""强他"",""弱我""]","","","","","","","","8","","","","","","","","","SRET","SRET_math_calculate","","key","8","16.929031578947384","640","356","","","","","56/7= ?","8","1","","","","","","","",""
"2479","","6","psychophysics","121","466173","0.0-7.0-5.0-0.18","1","1","2","1","1","2","1","1","2","1","1","-2","0","-3","-2","-2","-1","-1","-1","3","2","2","4","1","1","1","1","2","2","2","4","3","4","2","2","2","2","3","2","3","1","3","2","1","1","3","2","2","1","1","3","3","2","1","1","2","2","2","3","3","1","3","1","2","7","2","3","1","7","3","1","3","2","2","3","3","7","3","2","688842330605617152","罗","571","Male","[""坏他"",""好我"",""好他"",""坏我""]","[""弱他"",""强我"",""强他"",""弱我""]","","","","","","","","6","","","","","","","","","SRET","SRET_math_calculate","","key","6","16.663400000000063","640","356","","","","","9-3= ?","6","1","","","","","","","",""
"2911","","6","psychophysics","122","469090","0.0-7.0-5.0-0.19","1","1","2","1","1","2","1","1","2","1","1","-2","0","-3","-2","-2","-1","-1","-1","3","2","2","4","1","1","1","1","2","2","2","4","3","4","2","2","2","2","3","2","3","1","3","2","1","1","3","2","2","1","1","3","3","2","1","1","2","2","2","3","3","1","3","1","2","7","2","3","1","7","3","1","3","2","2","3","3","7","3","2","688842330605617152","罗","571","Male","[""坏他"",""好我"",""好他"",""坏我""]","[""弱他"",""强我"",""强他"",""弱我""]","","","","","","","","6","","","","","","","","","SRET","SRET_math_calculate","","key","6","16.664281609195523","640","356","","","","","3*2= ?","6","1","","","","","","","",""
"2795","","9","psychophysics","123","471910","0.0-7.0-5.0-0.20","1","1","2","1","1","2","1","1","2","1","1","-2","0","-3","-2","-2","-1","-1","-1","3","2","2","4","1","1","1","1","2","2","2","4","3","4","2","2","2","2","3","2","3","1","3","2","1","1","3","2","2","1","1","3","3","2","1","1","2","2","2","3","3","1","3","1","2","7","2","3","1","7","3","1","3","2","2","3","3","7","3","2","688842330605617152","罗","571","Male","[""坏他"",""好我"",""好他"",""坏我""]","[""弱他"",""强我"",""强他"",""弱我""]","","","","","","","","9","","","","","","","","","SRET","SRET_math_calculate","","key","9","16.66441666666651","640","356","","","","","8+1= ?","9","1","","","","","","","",""
"2705","","8","psychophysics","124","474642","0.0-7.0-5.0-0.21","1","1","2","1","1","2","1","1","2","1","1","-2","0","-3","-2","-2","-1","-1","-1","3","2","2","4","1","1","1","1","2","2","2","4","3","4","2","2","2","2","3","2","3","1","3","2","1","1","3","2","2","1","1","3","3","2","1","1","2","2","2","3","3","1","3","1","2","7","2","3","1","7","3","1","3","2","2","3","3","7","3","2","688842330605617152","罗","571","Male","[""坏他"",""好我"",""好他"",""坏我""]","[""弱他"",""强我"",""强他"",""弱我""]","","","","","","","","8","","","","","","","","","SRET","SRET_math_calculate","","key","8","16.763639751552773","640","356","","","","","13-5= ?","8","1","","","","","","","",""
"2819","","9","psychophysics","125","477502","0.0-7.0-5.0-0.22","1","1","2","1","1","2","1","1","2","1","1","-2","0","-3","-2","-2","-1","-1","-1","3","2","2","4","1","1","1","1","2","2","2","4","3","4","2","2","2","2","3","2","3","1","3","2","1","1","3","2","2","1","1","3","3","2","1","1","2","2","2","3","3","1","3","1","2","7","2","3","1","7","3","1","3","2","2","3","3","7","3","2","688842330605617152","罗","571","Male","[""坏他"",""好我"",""好他"",""坏我""]","[""弱他"",""强我"",""强他"",""弱我""]","","","","","","","","9","","","","","","","","","SRET","SRET_math_calculate","","key","9","16.76338823529419","640","356","","","","","81/9= ?","9","1","","","","","","","",""
"2666","","8","psychophysics","126","480264","0.0-7.0-5.0-0.23","1","1","2","1","1","2","1","1","2","1","1","-2","0","-3","-2","-2","-1","-1","-1","3","2","2","4","1","1","1","1","2","2","2","4","3","4","2","2","2","2","3","2","3","1","3","2","1","1","3","2","2","1","1","3","3","2","1","1","2","2","2","3","3","1","3","1","2","7","2","3","1","7","3","1","3","2","2","3","3","7","3","2","688842330605617152","罗","571","Male","[""坏他"",""好我"",""好他"",""坏我""]","[""弱他"",""强我"",""强他"",""弱我""]","","","","","","","","8","","","","","","","","","SRET","SRET_math_calculate","","key","8","17.078602484471862","640","356","","","","","1*8= ?","8","1","","","","","","","",""
"2768","","9","psychophysics","127","483093","0.0-7.0-5.0-0.24","1","1","2","1","1","2","1","1","2","1","1","-2","0","-3","-2","-2","-1","-1","-1","3","2","2","4","1","1","1","1","2","2","2","4","3","4","2","2","2","2","3","2","3","1","3","2","1","1","3","2","2","1","1","3","3","2","1","1","2","2","2","3","3","1","3","1","2","7","2","3","1","7","3","1","3","2","2","3","3","7","3","2","688842330605617152","罗","571","Male","[""坏他"",""好我"",""好他"",""坏我""]","[""弱他"",""强我"",""强他"",""弱我""]","","","","","","","","9","","","","","","","","","SRET","SRET_math_calculate","","key","9","16.764287425149693","640","356","","","","","3+6= ?","9","1","","","","","","","",""
"2221","","4","psychophysics","128","485405","0.0-7.0-5.0-0.25","1","1","2","1","1","2","1","1","2","1","1","-2","0","-3","-2","-2","-1","-1","-1","3","2","2","4","1","1","1","1","2","2","2","4","3","4","2","2","2","2","3","2","3","1","3","2","1","1","3","2","2","1","1","3","3","2","1","1","2","2","2","3","3","1","3","1","2","7","2","3","1","7","3","1","3","2","2","3","3","7","3","2","688842330605617152","罗","571","Male","[""坏他"",""好我"",""好他"",""坏我""]","[""弱他"",""强我"",""强他"",""弱我""]","","","","","","","","4","","","","","","","","","SRET","SRET_math_calculate","","key","4","17.130822222222385","640","356","","","","","2+2= ?","4","1","","","","","","","",""
"2431","","9","psychophysics","129","487842","0.0-7.0-5.0-0.26","1","1","2","1","1","2","1","1","2","1","1","-2","0","-3","-2","-2","-1","-1","-1","3","2","2","4","1","1","1","1","2","2","2","4","3","4","2","2","2","2","3","2","3","1","3","2","1","1","3","2","2","1","1","3","3","2","1","1","2","2","2","3","3","1","3","1","2","7","2","3","1","7","3","1","3","2","2","3","3","7","3","2","688842330605617152","罗","571","Male","[""坏他"",""好我"",""好他"",""坏我""]","[""弱他"",""强我"",""强他"",""弱我""]","","","","","","","","9","","","","","","","","","SRET","SRET_math_calculate","","key","9","16.897790209789942","640","356","","","","","1+8= ?","9","1","","","","","","","",""
"2213","","9","psychophysics","130","490059","0.0-7.0-5.0-0.27","1","1","2","1","1","2","1","1","2","1","1","-2","0","-3","-2","-2","-1","-1","-1","3","2","2","4","1","1","1","1","2","2","2","4","3","4","2","2","2","2","3","2","3","1","3","2","1","1","3","2","2","1","1","3","3","2","1","1","2","2","2","3","3","1","3","1","2","7","2","3","1","7","3","1","3","2","2","3","3","7","3","2","688842330605617152","罗","571","Male","[""坏他"",""好我"",""好他"",""坏我""]","[""弱他"",""强我"",""强他"",""弱我""]","","","","","","","","9","","","","","","","","","SRET","SRET_math_calculate","","key","9","16.792312977099275","640","356","","","","","6+3= ?","9","1","","","","","","","",""
"2402","","2","psychophysics","131","492467","0.0-7.0-5.0-0.28","1","1","2","1","1","2","1","1","2","1","1","-2","0","-3","-2","-2","-1","-1","-1","3","2","2","4","1","1","1","1","2","2","2","4","3","4","2","2","2","2","3","2","3","1","3","2","1","1","3","2","2","1","1","3","3","2","1","1","2","2","2","3","3","1","3","1","2","7","2","3","1","7","3","1","3","2","2","3","3","7","3","2","688842330605617152","罗","571","Male","[""坏他"",""好我"",""好他"",""坏我""]","[""弱他"",""强我"",""强他"",""弱我""]","","","","","","","","2","","","","","","","","","SRET","SRET_math_calculate","","key","2","16.66428671328683","640","356","","","","","12/6= ?","2","1","","","","","","","",""
"2736","","8","psychophysics","132","495212","0.0-7.0-5.0-0.29","1","1","2","1","1","2","1","1","2","1","1","-2","0","-3","-2","-2","-1","-1","-1","3","2","2","4","1","1","1","1","2","2","2","4","3","4","2","2","2","2","3","2","3","1","3","2","1","1","3","2","2","1","1","3","3","2","1","1","2","2","2","3","3","1","3","1","2","7","2","3","1","7","3","1","3","2","2","3","3","7","3","2","688842330605617152","罗","571","Male","[""坏他"",""好我"",""好他"",""坏我""]","[""弱他"",""强我"",""强他"",""弱我""]","","","","","","","","8","","","","","","","","","SRET","SRET_math_calculate","","key","8","16.76846625766841","640","356","","","","","9-1= ?","8","1","","","","","","","",""
"2216","","9","psychophysics","133","497520","0.0-7.0-5.0-0.30","1","1","2","1","1","2","1","1","2","1","1","-2","0","-3","-2","-2","-1","-1","-1","3","2","2","4","1","1","1","1","2","2","2","4","3","4","2","2","2","2","3","2","3","1","3","2","1","1","3","2","2","1","1","3","3","2","1","1","2","2","2","3","3","1","3","1","2","7","2","3","1","7","3","1","3","2","2","3","3","7","3","2","688842330605617152","罗","571","Male","[""坏他"",""好我"",""好他"",""坏我""]","[""弱他"",""强我"",""强他"",""弱我""]","","","","","","","","9","","","","","","","","","SRET","SRET_math_calculate","","key","9","17.037246268656567","640","356","","","","","1+8= ?","9","1","","","","","","","",""
"2937","","3","psychophysics","134","500528","0.0-7.0-5.0-0.31","1","1","2","1","1","2","1","1","2","1","1","-2","0","-3","-2","-2","-1","-1","-1","3","2","2","4","1","1","1","1","2","2","2","4","3","4","2","2","2","2","3","2","3","1","3","2","1","1","3","2","2","1","1","3","3","2","1","1","2","2","2","3","3","1","3","1","2","7","2","3","1","7","3","1","3","2","2","3","3","7","3","2","688842330605617152","罗","571","Male","[""坏他"",""好我"",""好他"",""坏我""]","[""弱他"",""强我"",""强他"",""弱我""]","","","","","","","","3","","","","","","","","","SRET","SRET_math_calculate","","key","3","16.945751412429303","640","356","","","","","3+0= ?","3","1","","","","","","","",""
"2312","","4","psychophysics","135","502888","0.0-7.0-5.0-0.32","1","1","2","1","1","2","1","1","2","1","1","-2","0","-3","-2","-2","-1","-1","-1","3","2","2","4","1","1","1","1","2","2","2","4","3","4","2","2","2","2","3","2","3","1","3","2","1","1","3","2","2","1","1","3","3","2","1","1","2","2","2","3","3","1","3","1","2","7","2","3","1","7","3","1","3","2","2","3","3","7","3","2","688842330605617152","罗","571","Male","[""坏他"",""好我"",""好他"",""坏我""]","[""弱他"",""强我"",""强他"",""弱我""]","","","","","","","","4","","","","","","","","","SRET","SRET_math_calculate","","key","4","16.66677857142848","640","356","","","","","4*1= ?","4","1","","","","","","","",""
"2395","","5","psychophysics","136","505359","0.0-7.0-5.0-0.33","1","1","2","1","1","2","1","1","2","1","1","-2","0","-3","-2","-2","-1","-1","-1","3","2","2","4","1","1","1","1","2","2","2","4","3","4","2","2","2","2","3","2","3","1","3","2","1","1","3","2","2","1","1","3","3","2","1","1","2","2","2","3","3","1","3","1","2","7","2","3","1","7","3","1","3","2","2","3","3","7","3","2","688842330605617152","罗","571","Male","[""坏他"",""好我"",""好他"",""坏我""]","[""弱他"",""强我"",""强他"",""弱我""]","","","","","","","","5","","","","","","","","","SRET","SRET_math_calculate","","key","5","17.00823448275874","640","356","","","","","3+2= ?","5","1","","","","","","","",""
"2976","","5","psychophysics","137","508421","0.0-7.0-5.0-0.34","1","1","2","1","1","2","1","1","2","1","1","-2","0","-3","-2","-2","-1","-1","-1","3","2","2","4","1","1","1","1","2","2","2","4","3","4","2","2","2","2","3","2","3","1","3","2","1","1","3","2","2","1","1","3","3","2","1","1","2","2","2","3","3","1","3","1","2","7","2","3","1","7","3","1","3","2","2","3","3","7","3","2","688842330605617152","罗","571","Male","[""坏他"",""好我"",""好他"",""坏我""]","[""弱他"",""强我"",""强他"",""弱我""]","","","","","","","","5","","","","","","","","","SRET","SRET_math_calculate","","key","5","16.95174719101136","640","356","","","","","12-7= ?","5","1","","","","","","","",""
"2394","","0","psychophysics","138","510836","0.0-7.0-5.0-0.35","1","1","2","1","1","2","1","1","2","1","1","-2","0","-3","-2","-2","-1","-1","-1","3","2","2","4","1","1","1","1","2","2","2","4","3","4","2","2","2","2","3","2","3","1","3","2","1","1","3","2","2","1","1","3","3","2","1","1","2","2","2","3","3","1","3","1","2","7","2","3","1","7","3","1","3","2","2","3","3","7","3","2","688842330605617152","罗","571","Male","[""坏他"",""好我"",""好他"",""坏我""]","[""弱他"",""强我"",""强他"",""弱我""]","","","","","","","","0","","","","","","","","","SRET","SRET_math_calculate","","key","0","16.897943661971638","640","356","","","","","7*0= ?","0","1","","","","","","","",""
"2618","","5","psychophysics","139","513509","0.0-7.0-5.0-0.36","1","1","2","1","1","2","1","1","2","1","1","-2","0","-3","-2","-2","-1","-1","-1","3","2","2","4","1","1","1","1","2","2","2","4","3","4","2","2","2","2","3","2","3","1","3","2","1","1","3","2","2","1","1","3","3","2","1","1","2","2","2","3","3","1","3","1","2","7","2","3","1","7","3","1","3","2","2","3","3","7","3","2","688842330605617152","罗","571","Male","[""坏他"",""好我"",""好他"",""坏我""]","[""弱他"",""强我"",""强他"",""弱我""]","","","","","","","","5","","","","","","","","","SRET","SRET_math_calculate","","key","5","16.875658227848053","640","356","","","","","17-12= ? ","5","1","","","","","","","",""
"2413","","2","psychophysics","140","515988","0.0-7.0-5.0-0.37","1","1","2","1","1","2","1","1","2","1","1","-2","0","-3","-2","-2","-1","-1","-1","3","2","2","4","1","1","1","1","2","2","2","4","3","4","2","2","2","2","3","2","3","1","3","2","1","1","3","2","2","1","1","3","3","2","1","1","2","2","2","3","3","1","3","1","2","7","2","3","1","7","3","1","3","2","2","3","3","7","3","2","688842330605617152","罗","571","Male","[""坏他"",""好我"",""好他"",""坏我""]","[""弱他"",""强我"",""强他"",""弱我""]","","","","","","","","2","","","","","","","","","SRET","SRET_math_calculate","","key","2","16.891527397260276","640","356","","","","","29-27= ?","2","1","","","","","","","",""
"2980","","6","psychophysics","141","518973","0.0-7.0-5.0-0.38","1","1","2","1","1","2","1","1","2","1","1","-2","0","-3","-2","-2","-1","-1","-1","3","2","2","4","1","1","1","1","2","2","2","4","3","4","2","2","2","2","3","2","3","1","3","2","1","1","3","2","2","1","1","3","3","2","1","1","2","2","2","3","3","1","3","1","2","7","2","3","1","7","3","1","3","2","2","3","3","7","3","2","688842330605617152","罗","571","Male","[""坏他"",""好我"",""好他"",""坏我""]","[""弱他"",""强我"",""强他"",""弱我""]","","","","","","","","6","","","","","","","","","SRET","SRET_math_calculate","","key","6","16.6645786516853","640","356","","","","","3+3= ?","6","1","","","","","","","",""
