"rt","stimulus","response","trial_type","trial_index","time_elapsed","internal_node_id","swb_1","swb_2","swb_3","swb_4","swb_5","LOT_1","LOT_2","LOT_3","LOT_4","LOT_5","LOT_6","IPC_1","IPC_2","IPC_3","IPC_4","IPC_5","IPC_6","IPC_7","IPC_8","MorIden_1","MorIden_2","MorIden_3","MorIden_4","MorIden_5","MorIden_6","MorIden_7","MorIden_8","MorIden_9","MorIden_10","moralSeImag_1","moralSeImag_2","moralSeImag_3","moralSeImag_4","moralSeImag_5","moralSeImag_6","moralSeImag_7","moralSeImag_8","moralSeImag_9","sde_1","sde_2","sde_3","sde_4","sde_5","sde_6","sde_7","sde_8","sde_9","sde_10","trap2","sde_11","sde_12","sde_13","sde_14","sde_15","sde_16","sde_17","sde_18","sde_19","sde_20","IM_1","IM_2","IM_3","IM_4","IM_5","IM_6","IM_7","IM_8","IM_9","IM_10","IM_11","IM_12","IM_13","IM_14","IM_15","IM_16","IM_17","IM_18","IM_19","IM_20","subj_idx","friend_name","ParticipantID","Sex","Word","Word2","value","success","timeout","failed_images","failed_audio","failed_video","user_agent","responses","item_order","radio_event_ids","radio_event_times","key_event_times","mouse_event_times","straightlining","zigzagging","honeypot","task_id","screen_id","time_stamp","response_type","key_press","avg_frame_time","center_x","center_y","person","word","valence","domain","math","correct_response","correct","status","view_history","identity","duration","Image","condition","question_order","trap2_item"
"35770","
   <p><div style='color:white; font-size: 25px'>您好，欢迎参加本次实验。</div></p>
   <p><div style='color:white; font-size: 25px'>为充分保障您的权利，请确保您已经知晓并同意《参与实验同意书》以及《数据公开知情同意书》。</div></p>
   <p><div style='color:white; font-size: 25px'>如果您未见过上述内容，请咨询实验员。</div></p>
   <p style='color:white; font-size: 25px'>如果您选择继续实验，则表示您已经清楚两份知情同意书的内容并同意。</p>
   <p><div style = ""color: pink;font-size:30px;"">请确保您记得day0的实验编号，您将在本次实验输入该编号，若您忘记，请咨询实验员后作答。</div></p>
   <p><div style = ""color:lightblue;font-size:25px;"">请您尽可能认真地作答，我们将依据您在各问卷和按键任务中的作答质量发放报酬。</div></p>
   <p> <div style = ""color: green""><按空格键至下页></div> </p>
   "," ","html-keyboard-response","0","35774","0.0-0.0","3","2","3","1","3","4","1","2","3","2","5","-1","0","-3","0","-3","-1","-2","0","5","4","5","4","4","3","4","2","4","3","5","6","3","7","4","4","5","5","6","2","3","3","3","3","2","2","2","3","2","1","3","2","3","3","1","5","3","3","3","2","2","3","4","3","3","6","5","5","2","7","7","3","5","2","2","3","2","3","2","5","772080972635312129","文","89","Female","[""好她"",""坏她"",""坏我"",""好我""]","[""强她"",""弱她"",""弱我"",""强我""]","","","","","","","","","","","","","","","","","","","","","","","","","","","","","","","","","","","","","","",""
"","","","call-function","1","35776","0.0-1.0-0.0","3","2","3","1","3","4","1","2","3","2","5","-1","0","-3","0","-3","-1","-2","0","5","4","5","4","4","3","4","2","4","3","5","6","3","7","4","4","5","5","6","2","3","3","3","3","2","2","2","3","2","1","3","2","3","3","1","5","3","3","3","2","2","3","4","3","3","6","5","5","2","7","7","3","5","2","2","3","2","3","2","5","772080972635312129","文","89","Female","[""好她"",""坏她"",""坏我"",""好我""]","[""强她"",""弱她"",""弱我"",""强我""]","","","","","","","","","","","","","","","","","","","","","","","","","","","","","","","","","","","","","","",""
"54437","","[{""name"":""Sex"",""value"":""1""},{""name"":""friend_name"",""value"":""文""},{""name"":""ParticipantID"",""value"":""89""}]","survey-html-form","2","90215","0.0-1.0-1.0","3","2","3","1","3","4","1","2","3","2","5","-1","0","-3","0","-3","-1","-2","0","5","4","5","4","4","3","4","2","4","3","5","6","3","7","4","4","5","5","6","2","3","3","3","3","2","2","2","3","2","1","3","2","3","3","1","5","3","3","3","2","2","3","4","3","3","6","5","5","2","7","7","3","5","2","2","3","2","3","2","5","772080972635312129","文","89","Female","[""好她"",""坏她"",""坏我"",""好我""]","[""强她"",""弱她"",""弱我"",""强我""]","","","","","","","","","","","","","","","","","","","","","","","","","","","","","","","","","","","","","","",""
"","","","preload","3","92189","0.0-2.0","3","2","3","1","3","4","1","2","3","2","5","-1","0","-3","0","-3","-1","-2","0","5","4","5","4","4","3","4","2","4","3","5","6","3","7","4","4","5","5","6","2","3","3","3","3","2","2","2","3","2","1","3","2","3","3","1","5","3","3","3","2","2","3","4","3","3","6","5","5","2","7","7","3","5","2","2","3","2","3","2","5","772080972635312129","文","89","Female","[""好她"",""坏她"",""坏我"",""好我""]","[""强她"",""弱她"",""弱我"",""强我""]","","true","false","[]","[]","[]","","","","","","","","","","","","","","","","","","","","","","","","","","","","","","","","",""
"","","","fullscreen","4","117729","0.0-3.0","3","2","3","1","3","4","1","2","3","2","5","-1","0","-3","0","-3","-1","-2","0","5","4","5","4","4","3","4","2","4","3","5","6","3","7","4","4","5","5","6","2","3","3","3","3","2","2","2","3","2","1","3","2","3","3","1","5","3","3","3","2","2","3","4","3","3","6","5","5","2","7","7","3","5","2","2","3","2","3","2","5","772080972635312129","文","89","Female","[""好她"",""坏她"",""坏我"",""好我""]","[""强她"",""弱她"",""弱我"",""强我""]","","true","","","","","","","","","","","","","","","","","","","","","","","","","","","","","","","","","","","","",""
"73134.19499999145","","{""Q01"":""3"",""Q02"":""2"",""Q03"":""3"",""Q04"":""1"",""Q05"":""3""}","survey-template","5","190873","0.0-4.0","3","2","3","1","3","4","1","2","3","2","5","-1","0","-3","0","-3","-1","-2","0","5","4","5","4","4","3","4","2","4","3","5","6","3","7","4","4","5","5","6","2","3","3","3","3","2","2","2","3","2","1","3","2","3","3","1","5","3","3","3","2","2","3","4","3","3","6","5","5","2","7","7","3","5","2","2","3","2","3","2","5","772080972635312129","文","89","Female","[""好她"",""坏她"",""坏我"",""好我""]","[""强她"",""弱她"",""弱我"",""强我""]","","","","","","","","{""Q01"":""3"",""Q02"":""2"",""Q03"":""3"",""Q04"":""1"",""Q05"":""3""}","[0,1,2,3,4]","[""Q01"",""Q02"",""Q03"",""Q04"",""Q05"",""Q01""]","[29182.079999998678,33197.864999994636,36125.8450000023,41277.96999999555,43652.009999990696,52901.72500000335]","[]","[29182.079999998678,33197.864999994636,36125.8450000023,41277.96999999555,43652.009999990696,52901.72500000335,73133.85499999276]","0.6","0.5","0","","","","","","","","","","","","","","","","","","","","","","",""
"91221.04500001296","","{""Q01"":""4"",""Q02"":""1"",""Q03"":""2"",""Q04"":""3"",""Q05"":""2"",""Q06"":""5""}","survey-template","6","282105","0.0-5.0","3","2","3","1","3","4","1","2","3","2","5","-1","0","-3","0","-3","-1","-2","0","5","4","5","4","4","3","4","2","4","3","5","6","3","7","4","4","5","5","6","2","3","3","3","3","2","2","2","3","2","1","3","2","3","3","1","5","3","3","3","2","2","3","4","3","3","6","5","5","2","7","7","3","5","2","2","3","2","3","2","5","772080972635312129","文","89","Female","[""好她"",""坏她"",""坏我"",""好我""]","[""强她"",""弱她"",""弱我"",""强我""]","","","","","","","","{""Q01"":""4"",""Q02"":""1"",""Q03"":""2"",""Q04"":""3"",""Q05"":""2"",""Q06"":""5""}","[0,1,2,3,4,5]","[""Q01"",""Q02"",""Q03"",""Q04"",""Q05"",""Q01"",""Q01"",""Q06""]","[8693.165000004228,15380.015000002459,18475.995000015246,23652.74000001955,29804.810000001453,31548.66500000935,34932.735000009416,41292.95000000275]","[]","[8693.165000004228,15380.015000002459,18475.995000015246,23652.74000001955,29804.810000001453,31548.66500000935,34932.735000009416,41292.95000000275,91220.98000001279]","0.3333333333333333","0.8","0","","","","","","","","","","","","","","","","","","","","","","",""
"166628.88999999268","","{""Q01"":""-1"",""Q02"":""0"",""Q03"":""-3"",""Q04"":""0"",""Q05"":""-3"",""Q06"":""-1"",""Q07"":""-2"",""Q08"":""0""}","survey-template","7","448752","0.0-6.0","3","2","3","1","3","4","1","2","3","2","5","-1","0","-3","0","-3","-1","-2","0","5","4","5","4","4","3","4","2","4","3","5","6","3","7","4","4","5","5","6","2","3","3","3","3","2","2","2","3","2","1","3","2","3","3","1","5","3","3","3","2","2","3","4","3","3","6","5","5","2","7","7","3","5","2","2","3","2","3","2","5","772080972635312129","文","89","Female","[""好她"",""坏她"",""坏我"",""好我""]","[""强她"",""弱她"",""弱我"",""强我""]","","","","","","","","{""Q01"":""-1"",""Q02"":""0"",""Q03"":""-3"",""Q04"":""0"",""Q05"":""-3"",""Q06"":""-1"",""Q07"":""-2"",""Q08"":""0""}","[0,1,2,3,4,5,6,7]","[""Q01"",""Q02"",""Q02"",""Q03"",""Q03"",""Q04"",""Q05"",""Q06"",""Q07"",""Q08"",""Q01"",""Q02"",""Q03"",""Q04"",""Q06"",""Q06"",""Q05""]","[4861.095000000205,10805.689999979222,15661.174999986542,20989.129999972647,24525.039999978617,27893.1749999756,33124.71999999252,37732.88999998476,44148.6749999749,46276.57499999623,63628.90999999945,69460.86999998079,74749.05999997281,85741.03499998455,92645.04499998293,101316.57999998424,150540.90499997255]","[]","[4861.095000000205,9821.29999998142,10805.689999979222,15661.174999986542,20989.129999972647,24525.039999978617,27893.1749999756,33124.71999999252,37732.88999998476,44148.6749999749,46276.57499999623,63628.90999999945,69460.86999998079,74749.05999997281,85741.03499998455,92645.04499998293,101316.57999998424,150540.90499997255,166628.83499998134]","0.375","0.2857142857142857","0","","","","","","","","","","","","","","","","","","","","","","",""
"14110","
    <p><div style='color:white;font-size:35px; line-height:20px;'>词汇评估任务</div></p><br>
    <p><div style='color:white;font-size:25px; line-height:20px;'>请再次回忆该亲密的朋友，你们至少2年前就认识了，并且最近2年经常见面。</div></p>
    <p><div style='color:white;font-size:25px; line-height:20px;'>在本实验中，您将会看到一些形容词。</div></p>
    <p><div style='color:yellow;font-size:25px; line-height:20px;'>您的任务是判断这些形容词是否符合对您自己或您的朋友的描述。</div></p><p style='font-size:35px'>符合按<span style=""color:lightgreen""> j 键</span>，不符合按<span style=""color:red""> f 键</span></p>","0","html-button-response","8","462872","0.0-7.0-0.0","3","2","3","1","3","4","1","2","3","2","5","-1","0","-3","0","-3","-1","-2","0","5","4","5","4","4","3","4","2","4","3","5","6","3","7","4","4","5","5","6","2","3","3","3","3","2","2","2","3","2","1","3","2","3","3","1","5","3","3","3","2","2","3","4","3","3","6","5","5","2","7","7","3","5","2","2","3","2","3","2","5","772080972635312129","文","89","Female","[""好她"",""坏她"",""坏我"",""好我""]","[""强她"",""弱她"",""弱我"",""强我""]","","","","","","","","","","","","","","","","","SRET_EW","EW_instructions","Wed Jan 31 2024 12:52:48 GMT+0800 (中国标准时间)","","","","","","","","","","","","","","","","","","","",""
"null","","null","psychophysics","9","465885","0.0-7.0-1.0-0.0","3","2","3","1","3","4","1","2","3","2","5","-1","0","-3","0","-3","-1","-2","0","5","4","5","4","4","3","4","2","4","3","5","6","3","7","4","4","5","5","6","2","3","3","3","3","2","2","2","3","2","1","3","2","3","3","1","5","3","3","3","2","2","3","4","3","3","6","5","5","2","7","7","3","5","2","2","3","2","3","2","5","772080972635312129","文","89","Female","[""好她"",""坏她"",""坏我"",""好我""]","[""强她"",""弱她"",""弱我"",""强我""]","","","","","","","","","","","","","","","","","SRET_EW","EW_practice","","key","null","16.849770949720654","684","381","自己","严谨","Positive","ability","","","","","","","","","","",""
"1029","","f","psychophysics","10","467917","0.0-7.0-1.0-0.1","3","2","3","1","3","4","1","2","3","2","5","-1","0","-3","0","-3","-1","-2","0","5","4","5","4","4","3","4","2","4","3","5","6","3","7","4","4","5","5","6","2","3","3","3","3","2","2","2","3","2","1","3","2","3","3","1","5","3","3","3","2","2","3","4","3","3","6","5","5","2","7","7","3","5","2","2","3","2","3","2","5","772080972635312129","文","89","Female","[""好她"",""坏她"",""坏我"",""好我""]","[""强她"",""弱她"",""弱我"",""强我""]","","","","","","","","no","","","","","","","","","SRET_EW","EW_practice","","key","f","16.66412396694212","684","381","自己","刻板","Negative","ability","","","","","","","","","","",""
"null","","null","psychophysics","11","470920","0.0-7.0-1.0-0.2","3","2","3","1","3","4","1","2","3","2","5","-1","0","-3","0","-3","-1","-2","0","5","4","5","4","4","3","4","2","4","3","5","6","3","7","4","4","5","5","6","2","3","3","3","3","2","2","2","3","2","1","3","2","3","3","1","5","3","3","3","2","2","3","4","3","3","6","5","5","2","7","7","3","5","2","2","3","2","3","2","5","772080972635312129","文","89","Female","[""好她"",""坏她"",""坏我"",""好我""]","[""强她"",""弱她"",""弱我"",""强我""]","","","","","","","","","","","","","","","","","SRET_EW","EW_practice","","key","null","16.662983240223458","684","381","朋友","忠实","Positive","morality","","","","","","","","","","",""
"955","","j","psychophysics","12","472880","0.0-7.0-1.0-0.3","3","2","3","1","3","4","1","2","3","2","5","-1","0","-3","0","-3","-1","-2","0","5","4","5","4","4","3","4","2","4","3","5","6","3","7","4","4","5","5","6","2","3","3","3","3","2","2","2","3","2","1","3","2","3","3","1","5","3","3","3","2","2","3","4","3","3","6","5","5","2","7","7","3","5","2","2","3","2","3","2","5","772080972635312129","文","89","Female","[""好她"",""坏她"",""坏我"",""好我""]","[""强她"",""弱她"",""弱我"",""强我""]","","","","","","","","yes","","","","","","","","","SRET_EW","EW_practice","","key","j","16.665448275861905","684","381","朋友","徇私","Negative","morality","","","","","","","","","","",""
"18975","
    <p><div style='color:white;font-size:35px; line-height:20px;'>请您再次阅读实验要求</div></p><br>
    <p><div style='color:white;font-size:25px; line-height:20px;'>请回忆某一个亲密的朋友，你们至少2年前就认识了，并且最近2年经常见面。</div></p>
    <p><div style='color:white;font-size:25px; line-height:20px;'>在本实验中，您将会看到一些形容词。</div></p>
    <p><div style='color:yellow;font-size:25px; line-height:20px;'>您的任务是判断这些形容词是否符合对您自己或您的朋友的描述。</div></p>
    <p><div class='footer' style='font-size:25px; line-height:20px;'>如果对本实验还有不清楚之处，请立即向实验员咨询。</p><p style='font-size:25px; line-height:20px;'>如果您明白了规则：</p><p style='font-size:22px; line-height:20px;'>请按 继续 进入正式实验</p>
    </div>
    <p style='font-size:35px'>符合按<span style=""color:lightgreen""> j 键</span>，不符合按<span style=""color:red""> f 键</span></p>","0","html-button-response","13","491858","0.0-7.0-2.0","3","2","3","1","3","4","1","2","3","2","5","-1","0","-3","0","-3","-1","-2","0","5","4","5","4","4","3","4","2","4","3","5","6","3","7","4","4","5","5","6","2","3","3","3","3","2","2","2","3","2","1","3","2","3","3","1","5","3","3","3","2","2","3","4","3","3","6","5","5","2","7","7","3","5","2","2","3","2","3","2","5","772080972635312129","文","89","Female","[""好她"",""坏她"",""坏我"",""好我""]","[""强她"",""弱她"",""弱我"",""强我""]","","","","","","","","","","","","","","","","","SRET_EW","prac_instructions","Wed Jan 31 2024 12:52:48 GMT+0800 (中国标准时间)","","","","","","","","","","","","","","","","","","","",""
"807","","f","psychophysics","14","493666","0.0-7.0-3.0-0.0","3","2","3","1","3","4","1","2","3","2","5","-1","0","-3","0","-3","-1","-2","0","5","4","5","4","4","3","4","2","4","3","5","6","3","7","4","4","5","5","6","2","3","3","3","3","2","2","2","3","2","1","3","2","3","3","1","5","3","3","3","2","2","3","4","3","3","6","5","5","2","7","7","3","5","2","2","3","2","3","2","5","772080972635312129","文","89","Female","[""好她"",""坏她"",""坏我"",""好我""]","[""强她"",""弱她"",""弱我"",""强我""]","","","","","","","","no","","","","","","","","","SRET","EW_formal","","key","f","16.664138888889013","684","381","自己","说谎","Negative","morality","","","","","","","","","","",""
"1647","","j","psychophysics","15","496316","0.0-7.0-3.0-0.1","3","2","3","1","3","4","1","2","3","2","5","-1","0","-3","0","-3","-1","-2","0","5","4","5","4","4","3","4","2","4","3","5","6","3","7","4","4","5","5","6","2","3","3","3","3","2","2","2","3","2","1","3","2","3","3","1","5","3","3","3","2","2","3","4","3","3","6","5","5","2","7","7","3","5","2","2","3","2","3","2","5","772080972635312129","文","89","Female","[""好她"",""坏她"",""坏我"",""好我""]","[""强她"",""弱她"",""弱我"",""强我""]","","","","","","","","yes","","","","","","","","","SRET","EW_formal","","key","j","16.77003821656056","684","381","朋友","迷糊","Negative","ability","","","","","","","","","","",""
"806","","j","psychophysics","16","498127","0.0-7.0-3.0-0.2","3","2","3","1","3","4","1","2","3","2","5","-1","0","-3","0","-3","-1","-2","0","5","4","5","4","4","3","4","2","4","3","5","6","3","7","4","4","5","5","6","2","3","3","3","3","2","2","2","3","2","1","3","2","3","3","1","5","3","3","3","2","2","3","4","3","3","6","5","5","2","7","7","3","5","2","2","3","2","3","2","5","772080972635312129","文","89","Female","[""好她"",""坏她"",""坏我"",""好我""]","[""强她"",""弱她"",""弱我"",""强我""]","","","","","","","","yes","","","","","","","","","SRET","EW_formal","","key","j","16.664166666666492","684","381","朋友","务实","Positive","ability","","","","","","","","","","",""
"1106","","f","psychophysics","17","500238","0.0-7.0-3.0-0.3","3","2","3","1","3","4","1","2","3","2","5","-1","0","-3","0","-3","-1","-2","0","5","4","5","4","4","3","4","2","4","3","5","6","3","7","4","4","5","5","6","2","3","3","3","3","2","2","2","3","2","1","3","2","3","3","1","5","3","3","3","2","2","3","4","3","3","6","5","5","2","7","7","3","5","2","2","3","2","3","2","5","772080972635312129","文","89","Female","[""好她"",""坏她"",""坏我"",""好我""]","[""强她"",""弱她"",""弱我"",""强我""]","","","","","","","","no","","","","","","","","","SRET","EW_formal","","key","f","16.664191999999808","684","381","自己","坚贞","Positive","morality","","","","","","","","","","",""
"1053","","f","psychophysics","18","502300","0.0-7.0-3.0-0.4","3","2","3","1","3","4","1","2","3","2","5","-1","0","-3","0","-3","-1","-2","0","5","4","5","4","4","3","4","2","4","3","5","6","3","7","4","4","5","5","6","2","3","3","3","3","2","2","2","3","2","1","3","2","3","3","1","5","3","3","3","2","2","3","4","3","3","6","5","5","2","7","7","3","5","2","2","3","2","3","2","5","772080972635312129","文","89","Female","[""好她"",""坏她"",""坏我"",""好我""]","[""强她"",""弱她"",""弱我"",""强我""]","","","","","","","","no","","","","","","","","","SRET","EW_formal","","key","f","16.664162601626334","684","381","朋友","正气","Positive","morality","","","","","","","","","","",""
"1667","","f","psychophysics","19","504969","0.0-7.0-3.0-0.5","3","2","3","1","3","4","1","2","3","2","5","-1","0","-3","0","-3","-1","-2","0","5","4","5","4","4","3","4","2","4","3","5","6","3","7","4","4","5","5","6","2","3","3","3","3","2","2","2","3","2","1","3","2","3","3","1","5","3","3","3","2","2","3","4","3","3","6","5","5","2","7","7","3","5","2","2","3","2","3","2","5","772080972635312129","文","89","Female","[""好她"",""坏她"",""坏我"",""好我""]","[""强她"",""弱她"",""弱我"",""强我""]","","","","","","","","no","","","","","","","","","SRET","EW_formal","","key","f","16.664918238993767","684","381","自己","屈才","Negative","ability","","","","","","","","","","",""
"775","","f","psychophysics","20","506747","0.0-7.0-3.0-0.6","3","2","3","1","3","4","1","2","3","2","5","-1","0","-3","0","-3","-1","-2","0","5","4","5","4","4","3","4","2","4","3","5","6","3","7","4","4","5","5","6","2","3","3","3","3","2","2","2","3","2","1","3","2","3","3","1","5","3","3","3","2","2","3","4","3","3","6","5","5","2","7","7","3","5","2","2","3","2","3","2","5","772080972635312129","文","89","Female","[""好她"",""坏她"",""坏我"",""好我""]","[""强她"",""弱她"",""弱我"",""强我""]","","","","","","","","no","","","","","","","","","SRET","EW_formal","","key","f","16.66268867924524","684","381","自己","阴毒","Negative","morality","","","","","","","","","","",""
"708","","f","psychophysics","21","508459","0.0-7.0-3.0-0.7","3","2","3","1","3","4","1","2","3","2","5","-1","0","-3","0","-3","-1","-2","0","5","4","5","4","4","3","4","2","4","3","5","6","3","7","4","4","5","5","6","2","3","3","3","3","2","2","2","3","2","1","3","2","3","3","1","5","3","3","3","2","2","3","4","3","3","6","5","5","2","7","7","3","5","2","2","3","2","3","2","5","772080972635312129","文","89","Female","[""好她"",""坏她"",""坏我"",""好我""]","[""强她"",""弱她"",""弱我"",""强我""]","","","","","","","","no","","","","","","","","","SRET","EW_formal","","key","f","16.66329411764723","684","381","自己","小人","Negative","morality","","","","","","","","","","",""
"1403","","j","psychophysics","22","510866","0.0-7.0-3.0-0.8","3","2","3","1","3","4","1","2","3","2","5","-1","0","-3","0","-3","-1","-2","0","5","4","5","4","4","3","4","2","4","3","5","6","3","7","4","4","5","5","6","2","3","3","3","3","2","2","2","3","2","1","3","2","3","3","1","5","3","3","3","2","2","3","4","3","3","6","5","5","2","7","7","3","5","2","2","3","2","3","2","5","772080972635312129","文","89","Female","[""好她"",""坏她"",""坏我"",""好我""]","[""强她"",""弱她"",""弱我"",""强我""]","","","","","","","","yes","","","","","","","","","SRET","EW_formal","","key","j","16.665230769230952","684","381","朋友","拙笨","Negative","ability","","","","","","","","","","",""
"828","","j","psychophysics","23","512696","0.0-7.0-3.0-0.9","3","2","3","1","3","4","1","2","3","2","5","-1","0","-3","0","-3","-1","-2","0","5","4","5","4","4","3","4","2","4","3","5","6","3","7","4","4","5","5","6","2","3","3","3","3","2","2","2","3","2","1","3","2","3","3","1","5","3","3","3","2","2","3","4","3","3","6","5","5","2","7","7","3","5","2","2","3","2","3","2","5","772080972635312129","文","89","Female","[""好她"",""坏她"",""坏我"",""好我""]","[""强她"",""弱她"",""弱我"",""强我""]","","","","","","","","yes","","","","","","","","","SRET","EW_formal","","key","j","16.664009174312262","684","381","朋友","全才","Positive","ability","","","","","","","","","","",""
"1327","","f","psychophysics","24","515024","0.0-7.0-3.0-0.10","3","2","3","1","3","4","1","2","3","2","5","-1","0","-3","0","-3","-1","-2","0","5","4","5","4","4","3","4","2","4","3","5","6","3","7","4","4","5","5","6","2","3","3","3","3","2","2","2","3","2","1","3","2","3","3","1","5","3","3","3","2","2","3","4","3","3","6","5","5","2","7","7","3","5","2","2","3","2","3","2","5","772080972635312129","文","89","Female","[""好她"",""坏她"",""坏我"",""好我""]","[""强她"",""弱她"",""弱我"",""强我""]","","","","","","","","no","","","","","","","","","SRET","EW_formal","","key","f","16.66389208633106","684","381","自己","仁爱","Positive","morality","","","","","","","","","","",""
"1101","","j","psychophysics","25","517129","0.0-7.0-3.0-0.11","3","2","3","1","3","4","1","2","3","2","5","-1","0","-3","0","-3","-1","-2","0","5","4","5","4","4","3","4","2","4","3","5","6","3","7","4","4","5","5","6","2","3","3","3","3","2","2","2","3","2","1","3","2","3","3","1","5","3","3","3","2","2","3","4","3","3","6","5","5","2","7","7","3","5","2","2","3","2","3","2","5","772080972635312129","文","89","Female","[""好她"",""坏她"",""坏我"",""好我""]","[""强她"",""弱她"",""弱我"",""强我""]","","","","","","","","yes","","","","","","","","","SRET","EW_formal","","key","j","16.662879999999888","684","381","朋友","忠勇","Positive","morality","","","","","","","","","","",""
"1103","","f","psychophysics","26","519236","0.0-7.0-3.0-0.12","3","2","3","1","3","4","1","2","3","2","5","-1","0","-3","0","-3","-1","-2","0","5","4","5","4","4","3","4","2","4","3","5","6","3","7","4","4","5","5","6","2","3","3","3","3","2","2","2","3","2","1","3","2","3","3","1","5","3","3","3","2","2","3","4","3","3","6","5","5","2","7","7","3","5","2","2","3","2","3","2","5","772080972635312129","文","89","Female","[""好她"",""坏她"",""坏我"",""好我""]","[""强她"",""弱她"",""弱我"",""强我""]","","","","","","","","no","","","","","","","","","SRET","EW_formal","","key","f","16.663479999999982","684","381","自己","短视","Negative","ability","","","","","","","","","","",""
"1109","","f","psychophysics","27","521349","0.0-7.0-3.0-0.13","3","2","3","1","3","4","1","2","3","2","5","-1","0","-3","0","-3","-1","-2","0","5","4","5","4","4","3","4","2","4","3","5","6","3","7","4","4","5","5","6","2","3","3","3","3","2","2","2","3","2","1","3","2","3","3","1","5","3","3","3","2","2","3","4","3","3","6","5","5","2","7","7","3","5","2","2","3","2","3","2","5","772080972635312129","文","89","Female","[""好她"",""坏她"",""坏我"",""好我""]","[""强她"",""弱她"",""弱我"",""强我""]","","","","","","","","no","","","","","","","","","SRET","EW_formal","","key","f","16.663563492063467","684","381","朋友","歹毒","Negative","morality","","","","","","","","","","",""
"1376","","f","psychophysics","28","523729","0.0-7.0-3.0-0.14","3","2","3","1","3","4","1","2","3","2","5","-1","0","-3","0","-3","-1","-2","0","5","4","5","4","4","3","4","2","4","3","5","6","3","7","4","4","5","5","6","2","3","3","3","3","2","2","2","3","2","1","3","2","3","3","1","5","3","3","3","2","2","3","4","3","3","6","5","5","2","7","7","3","5","2","2","3","2","3","2","5","772080972635312129","文","89","Female","[""好她"",""坏她"",""坏我"",""好我""]","[""强她"",""弱她"",""弱我"",""强我""]","","","","","","","","no","","","","","","","","","SRET","EW_formal","","key","f","16.66534507042207","684","381","朋友","利己","Negative","morality","","","","","","","","","","",""
"1013","","f","psychophysics","29","525744","0.0-7.0-3.0-0.15","3","2","3","1","3","4","1","2","3","2","5","-1","0","-3","0","-3","-1","-2","0","5","4","5","4","4","3","4","2","4","3","5","6","3","7","4","4","5","5","6","2","3","3","3","3","2","2","2","3","2","1","3","2","3","3","1","5","3","3","3","2","2","3","4","3","3","6","5","5","2","7","7","3","5","2","2","3","2","3","2","5","772080972635312129","文","89","Female","[""好她"",""坏她"",""坏我"",""好我""]","[""强她"",""弱她"",""弱我"",""强我""]","","","","","","","","no","","","","","","","","","SRET","EW_formal","","key","f","16.662941666666303","684","381","自己","昏庸","Negative","ability","","","","","","","","","","",""
"652","","f","psychophysics","30","527398","0.0-7.0-3.0-0.16","3","2","3","1","3","4","1","2","3","2","5","-1","0","-3","0","-3","-1","-2","0","5","4","5","4","4","3","4","2","4","3","5","6","3","7","4","4","5","5","6","2","3","3","3","3","2","2","2","3","2","1","3","2","3","3","1","5","3","3","3","2","2","3","4","3","3","6","5","5","2","7","7","3","5","2","2","3","2","3","2","5","772080972635312129","文","89","Female","[""好她"",""坏她"",""坏我"",""好我""]","[""强她"",""弱她"",""弱我"",""强我""]","","","","","","","","no","","","","","","","","","SRET","EW_formal","","key","f","16.663112244897818","684","381","自己","不仁","Negative","morality","","","","","","","","","","",""
"909","","j","psychophysics","31","529309","0.0-7.0-3.0-0.17","3","2","3","1","3","4","1","2","3","2","5","-1","0","-3","0","-3","-1","-2","0","5","4","5","4","4","3","4","2","4","3","5","6","3","7","4","4","5","5","6","2","3","3","3","3","2","2","2","3","2","1","3","2","3","3","1","5","3","3","3","2","2","3","4","3","3","6","5","5","2","7","7","3","5","2","2","3","2","3","2","5","772080972635312129","文","89","Female","[""好她"",""坏她"",""坏我"",""好我""]","[""强她"",""弱她"",""弱我"",""强我""]","","","","","","","","yes","","","","","","","","","SRET","EW_formal","","key","j","16.811610619468507","684","381","朋友","无私","Positive","morality","","","","","","","","","","",""
"1054","","j","psychophysics","32","531366","0.0-7.0-3.0-0.18","3","2","3","1","3","4","1","2","3","2","5","-1","0","-3","0","-3","-1","-2","0","5","4","5","4","4","3","4","2","4","3","5","6","3","7","4","4","5","5","6","2","3","3","3","3","2","2","2","3","2","1","3","2","3","3","1","5","3","3","3","2","2","3","4","3","3","6","5","5","2","7","7","3","5","2","2","3","2","3","2","5","772080972635312129","文","89","Female","[""好她"",""坏她"",""坏我"",""好我""]","[""强她"",""弱她"",""弱我"",""强我""]","","","","","","","","yes","","","","","","","","","SRET","EW_formal","","key","j","16.66365573770504","684","381","自己","拖拉","Negative","ability","","","","","","","","","","",""
"858","","j","psychophysics","33","533228","0.0-7.0-3.0-0.19","3","2","3","1","3","4","1","2","3","2","5","-1","0","-3","0","-3","-1","-2","0","5","4","5","4","4","3","4","2","4","3","5","6","3","7","4","4","5","5","6","2","3","3","3","3","2","2","2","3","2","1","3","2","3","3","1","5","3","3","3","2","2","3","4","3","3","6","5","5","2","7","7","3","5","2","2","3","2","3","2","5","772080972635312129","文","89","Female","[""好她"",""坏她"",""坏我"",""好我""]","[""强她"",""弱她"",""弱我"",""强我""]","","","","","","","","yes","","","","","","","","","SRET","EW_formal","","key","j","16.66372972972972","684","381","朋友","守法","Positive","morality","","","","","","","","","","",""
"911","","f","psychophysics","34","535141","0.0-7.0-3.0-0.20","3","2","3","1","3","4","1","2","3","2","5","-1","0","-3","0","-3","-1","-2","0","5","4","5","4","4","3","4","2","4","3","5","6","3","7","4","4","5","5","6","2","3","3","3","3","2","2","2","3","2","1","3","2","3","3","1","5","3","3","3","2","2","3","4","3","3","6","5","5","2","7","7","3","5","2","2","3","2","3","2","5","772080972635312129","文","89","Female","[""好她"",""坏她"",""坏我"",""好我""]","[""强她"",""弱她"",""弱我"",""强我""]","","","","","","","","no","","","","","","","","","SRET","EW_formal","","key","f","16.664114035087998","684","381","朋友","拖延","Negative","ability","","","","","","","","","","",""
"714","","j","psychophysics","35","536856","0.0-7.0-3.0-0.21","3","2","3","1","3","4","1","2","3","2","5","-1","0","-3","0","-3","-1","-2","0","5","4","5","4","4","3","4","2","4","3","5","6","3","7","4","4","5","5","6","2","3","3","3","3","2","2","2","3","2","1","3","2","3","3","1","5","3","3","3","2","2","3","4","3","3","6","5","5","2","7","7","3","5","2","2","3","2","3","2","5","772080972635312129","文","89","Female","[""好她"",""坏她"",""坏我"",""好我""]","[""强她"",""弱她"",""弱我"",""强我""]","","","","","","","","yes","","","","","","","","","SRET","EW_formal","","key","j","16.664637254902583","684","381","朋友","勤奋","Positive","ability","","","","","","","","","","",""
"744","","f","psychophysics","36","538602","0.0-7.0-3.0-0.22","3","2","3","1","3","4","1","2","3","2","5","-1","0","-3","0","-3","-1","-2","0","5","4","5","4","4","3","4","2","4","3","5","6","3","7","4","4","5","5","6","2","3","3","3","3","2","2","2","3","2","1","3","2","3","3","1","5","3","3","3","2","2","3","4","3","3","6","5","5","2","7","7","3","5","2","2","3","2","3","2","5","772080972635312129","文","89","Female","[""好她"",""坏她"",""坏我"",""好我""]","[""强她"",""弱她"",""弱我"",""强我""]","","","","","","","","no","","","","","","","","","SRET","EW_formal","","key","f","16.66556310679569","684","381","朋友","毛糙","Negative","ability","","","","","","","","","","",""
"906","","j","psychophysics","37","540512","0.0-7.0-3.0-0.23","3","2","3","1","3","4","1","2","3","2","5","-1","0","-3","0","-3","-1","-2","0","5","4","5","4","4","3","4","2","4","3","5","6","3","7","4","4","5","5","6","2","3","3","3","3","2","2","2","3","2","1","3","2","3","3","1","5","3","3","3","2","2","3","4","3","3","6","5","5","2","7","7","3","5","2","2","3","2","3","2","5","772080972635312129","文","89","Female","[""好她"",""坏她"",""坏我"",""好我""]","[""强她"",""弱她"",""弱我"",""强我""]","","","","","","","","yes","","","","","","","","","SRET","EW_formal","","key","j","16.66366666666612","684","381","朋友","淡泊","Positive","morality","","","","","","","","","","",""
"730","","j","psychophysics","38","542243","0.0-7.0-3.0-0.24","3","2","3","1","3","4","1","2","3","2","5","-1","0","-3","0","-3","-1","-2","0","5","4","5","4","4","3","4","2","4","3","5","6","3","7","4","4","5","5","6","2","3","3","3","3","2","2","2","3","2","1","3","2","3","3","1","5","3","3","3","2","2","3","4","3","3","6","5","5","2","7","7","3","5","2","2","3","2","3","2","5","772080972635312129","文","89","Female","[""好她"",""坏她"",""坏我"",""好我""]","[""强她"",""弱她"",""弱我"",""强我""]","","","","","","","","yes","","","","","","","","","SRET","EW_formal","","key","j","16.66438834951485","684","381","朋友","细心","Positive","ability","","","","","","","","","","",""
"779","","f","psychophysics","39","544025","0.0-7.0-3.0-0.25","3","2","3","1","3","4","1","2","3","2","5","-1","0","-3","0","-3","-1","-2","0","5","4","5","4","4","3","4","2","4","3","5","6","3","7","4","4","5","5","6","2","3","3","3","3","2","2","2","3","2","1","3","2","3","3","1","5","3","3","3","2","2","3","4","3","3","6","5","5","2","7","7","3","5","2","2","3","2","3","2","5","772080972635312129","文","89","Female","[""好她"",""坏她"",""坏我"",""好我""]","[""强她"",""弱她"",""弱我"",""强我""]","","","","","","","","no","","","","","","","","","SRET","EW_formal","","key","f","16.664245283019177","684","381","朋友","无助","Negative","ability","","","","","","","","","","",""
"657","","j","psychophysics","40","545685","0.0-7.0-3.0-0.26","3","2","3","1","3","4","1","2","3","2","5","-1","0","-3","0","-3","-1","-2","0","5","4","5","4","4","3","4","2","4","3","5","6","3","7","4","4","5","5","6","2","3","3","3","3","2","2","2","3","2","1","3","2","3","3","1","5","3","3","3","2","2","3","4","3","3","6","5","5","2","7","7","3","5","2","2","3","2","3","2","5","772080972635312129","文","89","Female","[""好她"",""坏她"",""坏我"",""好我""]","[""强她"",""弱她"",""弱我"",""强我""]","","","","","","","","yes","","","","","","","","","SRET","EW_formal","","key","j","16.66392857142919","684","381","朋友","善良","Positive","morality","","","","","","","","","","",""
"919","","f","psychophysics","41","547606","0.0-7.0-3.0-0.27","3","2","3","1","3","4","1","2","3","2","5","-1","0","-3","0","-3","-1","-2","0","5","4","5","4","4","3","4","2","4","3","5","6","3","7","4","4","5","5","6","2","3","3","3","3","2","2","2","3","2","1","3","2","3","3","1","5","3","3","3","2","2","3","4","3","3","6","5","5","2","7","7","3","5","2","2","3","2","3","2","5","772080972635312129","文","89","Female","[""好她"",""坏她"",""坏我"",""好我""]","[""强她"",""弱她"",""弱我"",""强我""]","","","","","","","","no","","","","","","","","","SRET","EW_formal","","key","f","16.662843478261493","684","381","朋友","愚痴","Negative","ability","","","","","","","","","","",""
"942","","f","psychophysics","42","549550","0.0-7.0-3.0-0.28","3","2","3","1","3","4","1","2","3","2","5","-1","0","-3","0","-3","-1","-2","0","5","4","5","4","4","3","4","2","4","3","5","6","3","7","4","4","5","5","6","2","3","3","3","3","2","2","2","3","2","1","3","2","3","3","1","5","3","3","3","2","2","3","4","3","3","6","5","5","2","7","7","3","5","2","2","3","2","3","2","5","772080972635312129","文","89","Female","[""好她"",""坏她"",""坏我"",""好我""]","[""强她"",""弱她"",""弱我"",""强我""]","","","","","","","","no","","","","","","","","","SRET","EW_formal","","key","f","16.80873043478325","684","381","朋友","粗心","Negative","ability","","","","","","","","","","",""
"1415","","j","psychophysics","43","551972","0.0-7.0-3.0-0.29","3","2","3","1","3","4","1","2","3","2","5","-1","0","-3","0","-3","-1","-2","0","5","4","5","4","4","3","4","2","4","3","5","6","3","7","4","4","5","5","6","2","3","3","3","3","2","2","2","3","2","1","3","2","3","3","1","5","3","3","3","2","2","3","4","3","3","6","5","5","2","7","7","3","5","2","2","3","2","3","2","5","772080972635312129","文","89","Female","[""好她"",""坏她"",""坏我"",""好我""]","[""强她"",""弱她"",""弱我"",""强我""]","","","","","","","","yes","","","","","","","","","SRET","EW_formal","","key","j","16.665291666666842","684","381","朋友","有力","Positive","ability","","","","","","","","","","",""
"1084","","f","psychophysics","44","554059","0.0-7.0-3.0-0.30","3","2","3","1","3","4","1","2","3","2","5","-1","0","-3","0","-3","-1","-2","0","5","4","5","4","4","3","4","2","4","3","5","6","3","7","4","4","5","5","6","2","3","3","3","3","2","2","2","3","2","1","3","2","3","3","1","5","3","3","3","2","2","3","4","3","3","6","5","5","2","7","7","3","5","2","2","3","2","3","2","5","772080972635312129","文","89","Female","[""好她"",""坏她"",""坏我"",""好我""]","[""强她"",""弱她"",""弱我"",""强我""]","","","","","","","","no","","","","","","","","","SRET","EW_formal","","key","f","16.66484677419348","684","381","朋友","势利","Negative","morality","","","","","","","","","","",""
"1157","","j","psychophysics","45","556218","0.0-7.0-3.0-0.31","3","2","3","1","3","4","1","2","3","2","5","-1","0","-3","0","-3","-1","-2","0","5","4","5","4","4","3","4","2","4","3","5","6","3","7","4","4","5","5","6","2","3","3","3","3","2","2","2","3","2","1","3","2","3","3","1","5","3","3","3","2","2","3","4","3","3","6","5","5","2","7","7","3","5","2","2","3","2","3","2","5","772080972635312129","文","89","Female","[""好她"",""坏她"",""坏我"",""好我""]","[""强她"",""弱她"",""弱我"",""强我""]","","","","","","","","yes","","","","","","","","","SRET","EW_formal","","key","j","16.662937984496804","684","381","自己","坦荡","Positive","morality","","","","","","","","","","",""
"884","","j","psychophysics","46","558106","0.0-7.0-3.0-0.32","3","2","3","1","3","4","1","2","3","2","5","-1","0","-3","0","-3","-1","-2","0","5","4","5","4","4","3","4","2","4","3","5","6","3","7","4","4","5","5","6","2","3","3","3","3","2","2","2","3","2","1","3","2","3","3","1","5","3","3","3","2","2","3","4","3","3","6","5","5","2","7","7","3","5","2","2","3","2","3","2","5","772080972635312129","文","89","Female","[""好她"",""坏她"",""坏我"",""好我""]","[""强她"",""弱她"",""弱我"",""强我""]","","","","","","","","yes","","","","","","","","","SRET","EW_formal","","key","j","16.66520535714309","684","381","自己","勤恳","Positive","morality","","","","","","","","","","",""
"1069","","f","psychophysics","47","560178","0.0-7.0-3.0-0.33","3","2","3","1","3","4","1","2","3","2","5","-1","0","-3","0","-3","-1","-2","0","5","4","5","4","4","3","4","2","4","3","5","6","3","7","4","4","5","5","6","2","3","3","3","3","2","2","2","3","2","1","3","2","3","3","1","5","3","3","3","2","2","3","4","3","3","6","5","5","2","7","7","3","5","2","2","3","2","3","2","5","772080972635312129","文","89","Female","[""好她"",""坏她"",""坏我"",""好我""]","[""强她"",""弱她"",""弱我"",""强我""]","","","","","","","","no","","","","","","","","","SRET","EW_formal","","key","f","16.664162601626334","684","381","朋友","不孝","Negative","morality","","","","","","","","","","",""
"1437","","f","psychophysics","48","562620","0.0-7.0-3.0-0.34","3","2","3","1","3","4","1","2","3","2","5","-1","0","-3","0","-3","-1","-2","0","5","4","5","4","4","3","4","2","4","3","5","6","3","7","4","4","5","5","6","2","3","3","3","3","2","2","2","3","2","1","3","2","3","3","1","5","3","3","3","2","2","3","4","3","3","6","5","5","2","7","7","3","5","2","2","3","2","3","2","5","772080972635312129","文","89","Female","[""好她"",""坏她"",""坏我"",""好我""]","[""强她"",""弱她"",""弱我"",""强我""]","","","","","","","","no","","","","","","","","","SRET","EW_formal","","key","f","16.663863013698624","684","381","朋友","博识","Positive","ability","","","","","","","","","","",""
"1015","","j","psychophysics","49","564637","0.0-7.0-3.0-0.35","3","2","3","1","3","4","1","2","3","2","5","-1","0","-3","0","-3","-1","-2","0","5","4","5","4","4","3","4","2","4","3","5","6","3","7","4","4","5","5","6","2","3","3","3","3","2","2","2","3","2","1","3","2","3","3","1","5","3","3","3","2","2","3","4","3","3","6","5","5","2","7","7","3","5","2","2","3","2","3","2","5","772080972635312129","文","89","Female","[""好她"",""坏她"",""坏我"",""好我""]","[""强她"",""弱她"",""弱我"",""强我""]","","","","","","","","yes","","","","","","","","","SRET","EW_formal","","key","j","16.66377500000041","684","381","自己","廉明","Positive","morality","","","","","","","","","","",""
"918","","j","psychophysics","50","566557","0.0-7.0-3.0-0.36","3","2","3","1","3","4","1","2","3","2","5","-1","0","-3","0","-3","-1","-2","0","5","4","5","4","4","3","4","2","4","3","5","6","3","7","4","4","5","5","6","2","3","3","3","3","2","2","2","3","2","1","3","2","3","3","1","5","3","3","3","2","2","3","4","3","3","6","5","5","2","7","7","3","5","2","2","3","2","3","2","5","772080972635312129","文","89","Female","[""好她"",""坏她"",""坏我"",""好我""]","[""强她"",""弱她"",""弱我"",""强我""]","","","","","","","","yes","","","","","","","","","SRET","EW_formal","","key","j","16.66332456140407","684","381","自己","马虎","Negative","ability","","","","","","","","","","",""
"742","","f","psychophysics","51","568302","0.0-7.0-3.0-0.37","3","2","3","1","3","4","1","2","3","2","5","-1","0","-3","0","-3","-1","-2","0","5","4","5","4","4","3","4","2","4","3","5","6","3","7","4","4","5","5","6","2","3","3","3","3","2","2","2","3","2","1","3","2","3","3","1","5","3","3","3","2","2","3","4","3","3","6","5","5","2","7","7","3","5","2","2","3","2","3","2","5","772080972635312129","文","89","Female","[""好她"",""坏她"",""坏我"",""好我""]","[""强她"",""弱她"",""弱我"",""强我""]","","","","","","","","no","","","","","","","","","SRET","EW_formal","","key","f","16.66399999999983","684","381","自己","虚假","Negative","morality","","","","","","","","","","",""
"1236","","f","psychophysics","52","570540","0.0-7.0-3.0-0.38","3","2","3","1","3","4","1","2","3","2","5","-1","0","-3","0","-3","-1","-2","0","5","4","5","4","4","3","4","2","4","3","5","6","3","7","4","4","5","5","6","2","3","3","3","3","2","2","2","3","2","1","3","2","3","3","1","5","3","3","3","2","2","3","4","3","3","6","5","5","2","7","7","3","5","2","2","3","2","3","2","5","772080972635312129","文","89","Female","[""好她"",""坏她"",""坏我"",""好我""]","[""强她"",""弱她"",""弱我"",""强我""]","","","","","","","","no","","","","","","","","","SRET","EW_formal","","key","f","16.663526315789117","684","381","自己","恶劣","Negative","morality","","","","","","","","","","",""
"679","","j","psychophysics","53","572221","0.0-7.0-3.0-0.39","3","2","3","1","3","4","1","2","3","2","5","-1","0","-3","0","-3","-1","-2","0","5","4","5","4","4","3","4","2","4","3","5","6","3","7","4","4","5","5","6","2","3","3","3","3","2","2","2","3","2","1","3","2","3","3","1","5","3","3","3","2","2","3","4","3","3","6","5","5","2","7","7","3","5","2","2","3","2","3","2","5","772080972635312129","文","89","Female","[""好她"",""坏她"",""坏我"",""好我""]","[""强她"",""弱她"",""弱我"",""强我""]","","","","","","","","yes","","","","","","","","","SRET","EW_formal","","key","j","16.66469000000041","684","381","自己","仗义","Positive","morality","","","","","","","","","","",""
"608","","f","psychophysics","54","573831","0.0-7.0-3.0-0.40","3","2","3","1","3","4","1","2","3","2","5","-1","0","-3","0","-3","-1","-2","0","5","4","5","4","4","3","4","2","4","3","5","6","3","7","4","4","5","5","6","2","3","3","3","3","2","2","2","3","2","1","3","2","3","3","1","5","3","3","3","2","2","3","4","3","3","6","5","5","2","7","7","3","5","2","2","3","2","3","2","5","772080972635312129","文","89","Female","[""好她"",""坏她"",""坏我"",""好我""]","[""强她"",""弱她"",""弱我"",""强我""]","","","","","","","","no","","","","","","","","","SRET","EW_formal","","key","f","16.664197916667035","684","381","自己","贪污","Negative","morality","","","","","","","","","","",""
"958","","f","psychophysics","55","575791","0.0-7.0-3.0-0.41","3","2","3","1","3","4","1","2","3","2","5","-1","0","-3","0","-3","-1","-2","0","5","4","5","4","4","3","4","2","4","3","5","6","3","7","4","4","5","5","6","2","3","3","3","3","2","2","2","3","2","1","3","2","3","3","1","5","3","3","3","2","2","3","4","3","3","6","5","5","2","7","7","3","5","2","2","3","2","3","2","5","772080972635312129","文","89","Female","[""好她"",""坏她"",""坏我"",""好我""]","[""强她"",""弱她"",""弱我"",""强我""]","","","","","","","","no","","","","","","","","","SRET","EW_formal","","key","f","16.661999999999132","684","381","朋友","不良","Negative","morality","","","","","","","","","","",""
"709","","j","psychophysics","56","577504","0.0-7.0-3.0-0.42","3","2","3","1","3","4","1","2","3","2","5","-1","0","-3","0","-3","-1","-2","0","5","4","5","4","4","3","4","2","4","3","5","6","3","7","4","4","5","5","6","2","3","3","3","3","2","2","2","3","2","1","3","2","3","3","1","5","3","3","3","2","2","3","4","3","3","6","5","5","2","7","7","3","5","2","2","3","2","3","2","5","772080972635312129","文","89","Female","[""好她"",""坏她"",""坏我"",""好我""]","[""强她"",""弱她"",""弱我"",""强我""]","","","","","","","","yes","","","","","","","","","SRET","EW_formal","","key","j","16.66316666666706","684","381","自己","宽容","Positive","morality","","","","","","","","","","",""
"695","","j","psychophysics","57","579201","0.0-7.0-3.0-0.43","3","2","3","1","3","4","1","2","3","2","5","-1","0","-3","0","-3","-1","-2","0","5","4","5","4","4","3","4","2","4","3","5","6","3","7","4","4","5","5","6","2","3","3","3","3","2","2","2","3","2","1","3","2","3","3","1","5","3","3","3","2","2","3","4","3","3","6","5","5","2","7","7","3","5","2","2","3","2","3","2","5","772080972635312129","文","89","Female","[""好她"",""坏她"",""坏我"",""好我""]","[""强她"",""弱她"",""弱我"",""强我""]","","","","","","","","yes","","","","","","","","","SRET","EW_formal","","key","j","16.66420792079171","684","381","自己","扎实","Positive","ability","","","","","","","","","","",""
"795","","f","psychophysics","58","581000","0.0-7.0-3.0-0.44","3","2","3","1","3","4","1","2","3","2","5","-1","0","-3","0","-3","-1","-2","0","5","4","5","4","4","3","4","2","4","3","5","6","3","7","4","4","5","5","6","2","3","3","3","3","2","2","2","3","2","1","3","2","3","3","1","5","3","3","3","2","2","3","4","3","3","6","5","5","2","7","7","3","5","2","2","3","2","3","2","5","772080972635312129","文","89","Female","[""好她"",""坏她"",""坏我"",""好我""]","[""强她"",""弱她"",""弱我"",""强我""]","","","","","","","","no","","","","","","","","","SRET","EW_formal","","key","f","16.66384112149603","684","381","朋友","驽钝","Negative","ability","","","","","","","","","","",""
"919","","f","psychophysics","59","582923","0.0-7.0-3.0-0.45","3","2","3","1","3","4","1","2","3","2","5","-1","0","-3","0","-3","-1","-2","0","5","4","5","4","4","3","4","2","4","3","5","6","3","7","4","4","5","5","6","2","3","3","3","3","2","2","2","3","2","1","3","2","3","3","1","5","3","3","3","2","2","3","4","3","3","6","5","5","2","7","7","3","5","2","2","3","2","3","2","5","772080972635312129","文","89","Female","[""好她"",""坏她"",""坏我"",""好我""]","[""强她"",""弱她"",""弱我"",""强我""]","","","","","","","","no","","","","","","","","","SRET","EW_formal","","key","f","16.663964912280022","684","381","自己","刻苦","Positive","ability","","","","","","","","","","",""
"792","","f","psychophysics","60","584717","0.0-7.0-3.0-0.46","3","2","3","1","3","4","1","2","3","2","5","-1","0","-3","0","-3","-1","-2","0","5","4","5","4","4","3","4","2","4","3","5","6","3","7","4","4","5","5","6","2","3","3","3","3","2","2","2","3","2","1","3","2","3","3","1","5","3","3","3","2","2","3","4","3","3","6","5","5","2","7","7","3","5","2","2","3","2","3","2","5","772080972635312129","文","89","Female","[""好她"",""坏她"",""坏我"",""好我""]","[""强她"",""弱她"",""弱我"",""强我""]","","","","","","","","no","","","","","","","","","SRET","EW_formal","","key","f","16.662626168223873","684","381","朋友","下流","Negative","morality","","","","","","","","","","",""
"1095","","f","psychophysics","61","586814","0.0-7.0-3.0-0.47","3","2","3","1","3","4","1","2","3","2","5","-1","0","-3","0","-3","-1","-2","0","5","4","5","4","4","3","4","2","4","3","5","6","3","7","4","4","5","5","6","2","3","3","3","3","2","2","2","3","2","1","3","2","3","3","1","5","3","3","3","2","2","3","4","3","3","6","5","5","2","7","7","3","5","2","2","3","2","3","2","5","772080972635312129","文","89","Female","[""好她"",""坏她"",""坏我"",""好我""]","[""强她"",""弱她"",""弱我"",""强我""]","","","","","","","","no","","","","","","","","","SRET","EW_formal","","key","f","16.664936000000687","684","381","朋友","外行","Negative","ability","","","","","","","","","","",""
"712","","j","psychophysics","62","588529","0.0-7.0-3.0-0.48","3","2","3","1","3","4","1","2","3","2","5","-1","0","-3","0","-3","-1","-2","0","5","4","5","4","4","3","4","2","4","3","5","6","3","7","4","4","5","5","6","2","3","3","3","3","2","2","2","3","2","1","3","2","3","3","1","5","3","3","3","2","2","3","4","3","3","6","5","5","2","7","7","3","5","2","2","3","2","3","2","5","772080972635312129","文","89","Female","[""好她"",""坏她"",""坏我"",""好我""]","[""强她"",""弱她"",""弱我"",""强我""]","","","","","","","","yes","","","","","","","","","SRET","EW_formal","","key","j","16.66343137254943","684","381","朋友","肯干","Positive","ability","","","","","","","","","","",""
"633","","f","psychophysics","63","590166","0.0-7.0-3.0-0.49","3","2","3","1","3","4","1","2","3","2","5","-1","0","-3","0","-3","-1","-2","0","5","4","5","4","4","3","4","2","4","3","5","6","3","7","4","4","5","5","6","2","3","3","3","3","2","2","2","3","2","1","3","2","3","3","1","5","3","3","3","2","2","3","4","3","3","6","5","5","2","7","7","3","5","2","2","3","2","3","2","5","772080972635312129","文","89","Female","[""好她"",""坏她"",""坏我"",""好我""]","[""强她"",""弱她"",""弱我"",""强我""]","","","","","","","","no","","","","","","","","","SRET","EW_formal","","key","f","16.663927835052277","684","381","朋友","狡诈","Negative","morality","","","","","","","","","","",""
"804","","j","psychophysics","64","591973","0.0-7.0-3.0-0.50","3","2","3","1","3","4","1","2","3","2","5","-1","0","-3","0","-3","-1","-2","0","5","4","5","4","4","3","4","2","4","3","5","6","3","7","4","4","5","5","6","2","3","3","3","3","2","2","2","3","2","1","3","2","3","3","1","5","3","3","3","2","2","3","4","3","3","6","5","5","2","7","7","3","5","2","2","3","2","3","2","5","772080972635312129","文","89","Female","[""好她"",""坏她"",""坏我"",""好我""]","[""强她"",""弱她"",""弱我"",""强我""]","","","","","","","","yes","","","","","","","","","SRET","EW_formal","","key","j","16.663747663550932","684","381","自己","慷慨","Positive","morality","","","","","","","","","","",""
"877","","j","psychophysics","65","593853","0.0-7.0-3.0-0.51","3","2","3","1","3","4","1","2","3","2","5","-1","0","-3","0","-3","-1","-2","0","5","4","5","4","4","3","4","2","4","3","5","6","3","7","4","4","5","5","6","2","3","3","3","3","2","2","2","3","2","1","3","2","3","3","1","5","3","3","3","2","2","3","4","3","3","6","5","5","2","7","7","3","5","2","2","3","2","3","2","5","772080972635312129","文","89","Female","[""好她"",""坏她"",""坏我"",""好我""]","[""强她"",""弱她"",""弱我"",""强我""]","","","","","","","","yes","","","","","","","","","SRET","EW_formal","","key","j","16.665437500000866","684","381","自己","新手","Negative","ability","","","","","","","","","","",""
"990","","j","psychophysics","66","595847","0.0-7.0-3.0-0.52","3","2","3","1","3","4","1","2","3","2","5","-1","0","-3","0","-3","-1","-2","0","5","4","5","4","4","3","4","2","4","3","5","6","3","7","4","4","5","5","6","2","3","3","3","3","2","2","2","3","2","1","3","2","3","3","1","5","3","3","3","2","2","3","4","3","3","6","5","5","2","7","7","3","5","2","2","3","2","3","2","5","772080972635312129","文","89","Female","[""好她"",""坏她"",""坏我"",""好我""]","[""强她"",""弱她"",""弱我"",""强我""]","","","","","","","","yes","","","","","","","","","SRET","EW_formal","","key","j","16.66384873949598","684","381","自己","无为","Negative","ability","","","","","","","","","","",""
"829","","f","psychophysics","67","597678","0.0-7.0-3.0-0.53","3","2","3","1","3","4","1","2","3","2","5","-1","0","-3","0","-3","-1","-2","0","5","4","5","4","4","3","4","2","4","3","5","6","3","7","4","4","5","5","6","2","3","3","3","3","2","2","2","3","2","1","3","2","3","3","1","5","3","3","3","2","2","3","4","3","3","6","5","5","2","7","7","3","5","2","2","3","2","3","2","5","772080972635312129","文","89","Female","[""好她"",""坏她"",""坏我"",""好我""]","[""强她"",""弱她"",""弱我"",""强我""]","","","","","","","","no","","","","","","","","","SRET","EW_formal","","key","f","16.66247706422091","684","381","自己","博学","Positive","ability","","","","","","","","","","",""
"977","","f","psychophysics","68","599657","0.0-7.0-3.0-0.54","3","2","3","1","3","4","1","2","3","2","5","-1","0","-3","0","-3","-1","-2","0","5","4","5","4","4","3","4","2","4","3","5","6","3","7","4","4","5","5","6","2","3","3","3","3","2","2","2","3","2","1","3","2","3","3","1","5","3","3","3","2","2","3","4","3","3","6","5","5","2","7","7","3","5","2","2","3","2","3","2","5","772080972635312129","文","89","Female","[""好她"",""坏她"",""坏我"",""好我""]","[""强她"",""弱她"",""弱我"",""强我""]","","","","","","","","no","","","","","","","","","SRET","EW_formal","","key","f","16.808258620688918","684","381","自己","毅力","Positive","ability","","","","","","","","","","",""
"1236","","j","psychophysics","69","601896","0.0-7.0-3.0-0.55","3","2","3","1","3","4","1","2","3","2","5","-1","0","-3","0","-3","-1","-2","0","5","4","5","4","4","3","4","2","4","3","5","6","3","7","4","4","5","5","6","2","3","3","3","3","2","2","2","3","2","1","3","2","3","3","1","5","3","3","3","2","2","3","4","3","3","6","5","5","2","7","7","3","5","2","2","3","2","3","2","5","772080972635312129","文","89","Female","[""好她"",""坏她"",""坏我"",""好我""]","[""强她"",""弱她"",""弱我"",""强我""]","","","","","","","","yes","","","","","","","","","SRET","EW_formal","","key","j","16.664679104477905","684","381","朋友","中用","Positive","ability","","","","","","","","","","",""
"703","","f","psychophysics","70","603600","0.0-7.0-3.0-0.56","3","2","3","1","3","4","1","2","3","2","5","-1","0","-3","0","-3","-1","-2","0","5","4","5","4","4","3","4","2","4","3","5","6","3","7","4","4","5","5","6","2","3","3","3","3","2","2","2","3","2","1","3","2","3","3","1","5","3","3","3","2","2","3","4","3","3","6","5","5","2","7","7","3","5","2","2","3","2","3","2","5","772080972635312129","文","89","Female","[""好她"",""坏她"",""坏我"",""好我""]","[""强她"",""弱她"",""弱我"",""强我""]","","","","","","","","no","","","","","","","","","SRET","EW_formal","","key","f","16.662821782178863","684","381","朋友","自私","Negative","morality","","","","","","","","","","",""
"766","","j","psychophysics","71","605367","0.0-7.0-3.0-0.57","3","2","3","1","3","4","1","2","3","2","5","-1","0","-3","0","-3","-1","-2","0","5","4","5","4","4","3","4","2","4","3","5","6","3","7","4","4","5","5","6","2","3","3","3","3","2","2","2","3","2","1","3","2","3","3","1","5","3","3","3","2","2","3","4","3","3","6","5","5","2","7","7","3","5","2","2","3","2","3","2","5","772080972635312129","文","89","Female","[""好她"",""坏她"",""坏我"",""好我""]","[""强她"",""弱她"",""弱我"",""强我""]","","","","","","","","yes","","","","","","","","","SRET","EW_formal","","key","j","16.663542857143053","684","381","朋友","慈悲","Positive","morality","","","","","","","","","","",""
"1070","","j","psychophysics","72","607441","0.0-7.0-3.0-0.58","3","2","3","1","3","4","1","2","3","2","5","-1","0","-3","0","-3","-1","-2","0","5","4","5","4","4","3","4","2","4","3","5","6","3","7","4","4","5","5","6","2","3","3","3","3","2","2","2","3","2","1","3","2","3","3","1","5","3","3","3","2","2","3","4","3","3","6","5","5","2","7","7","3","5","2","2","3","2","3","2","5","772080972635312129","文","89","Female","[""好她"",""坏她"",""坏我"",""好我""]","[""强她"",""弱她"",""弱我"",""强我""]","","","","","","","","yes","","","","","","","","","SRET","EW_formal","","key","j","16.663894308942968","684","381","自己","孝顺","Positive","morality","","","","","","","","","","",""
"836","","f","psychophysics","73","609281","0.0-7.0-3.0-0.59","3","2","3","1","3","4","1","2","3","2","5","-1","0","-3","0","-3","-1","-2","0","5","4","5","4","4","3","4","2","4","3","5","6","3","7","4","4","5","5","6","2","3","3","3","3","2","2","2","3","2","1","3","2","3","3","1","5","3","3","3","2","2","3","4","3","3","6","5","5","2","7","7","3","5","2","2","3","2","3","2","5","772080972635312129","文","89","Female","[""好她"",""坏她"",""坏我"",""好我""]","[""强她"",""弱她"",""弱我"",""强我""]","","","","","","","","no","","","","","","","","","SRET","EW_formal","","key","f","16.664018181818324","684","381","自己","专注","Positive","ability","","","","","","","","","","",""
"602","","f","psychophysics","74","610885","0.0-7.0-3.0-0.60","3","2","3","1","3","4","1","2","3","2","5","-1","0","-3","0","-3","-1","-2","0","5","4","5","4","4","3","4","2","4","3","5","6","3","7","4","4","5","5","6","2","3","3","3","3","2","2","2","3","2","1","3","2","3","3","1","5","3","3","3","2","2","3","4","3","3","6","5","5","2","7","7","3","5","2","2","3","2","3","2","5","772080972635312129","文","89","Female","[""好她"",""坏她"",""坏我"",""好我""]","[""强她"",""弱她"",""弱我"",""强我""]","","","","","","","","no","","","","","","","","","SRET","EW_formal","","key","f","16.664263157895768","684","381","朋友","贪腐","Negative","morality","","","","","","","","","","",""
"875","","j","psychophysics","75","612761","0.0-7.0-3.0-0.61","3","2","3","1","3","4","1","2","3","2","5","-1","0","-3","0","-3","-1","-2","0","5","4","5","4","4","3","4","2","4","3","5","6","3","7","4","4","5","5","6","2","3","3","3","3","2","2","2","3","2","1","3","2","3","3","1","5","3","3","3","2","2","3","4","3","3","6","5","5","2","7","7","3","5","2","2","3","2","3","2","5","772080972635312129","文","89","Female","[""好她"",""坏她"",""坏我"",""好我""]","[""强她"",""弱她"",""弱我"",""强我""]","","","","","","","","yes","","","","","","","","","SRET","EW_formal","","key","j","16.663803571428748","684","381","自己","精干","Positive","ability","","","","","","","","","","",""
"1006","","j","psychophysics","76","614769","0.0-7.0-3.0-0.62","3","2","3","1","3","4","1","2","3","2","5","-1","0","-3","0","-3","-1","-2","0","5","4","5","4","4","3","4","2","4","3","5","6","3","7","4","4","5","5","6","2","3","3","3","3","2","2","2","3","2","1","3","2","3","3","1","5","3","3","3","2","2","3","4","3","3","6","5","5","2","7","7","3","5","2","2","3","2","3","2","5","772080972635312129","文","89","Female","[""好她"",""坏她"",""坏我"",""好我""]","[""强她"",""弱她"",""弱我"",""强我""]","","","","","","","","yes","","","","","","","","","SRET","EW_formal","","key","j","16.6639327731095","684","381","朋友","刚正","Positive","morality","","","","","","","","","","",""
"687","","f","psychophysics","77","616458","0.0-7.0-3.0-0.63","3","2","3","1","3","4","1","2","3","2","5","-1","0","-3","0","-3","-1","-2","0","5","4","5","4","4","3","4","2","4","3","5","6","3","7","4","4","5","5","6","2","3","3","3","3","2","2","2","3","2","1","3","2","3","3","1","5","3","3","3","2","2","3","4","3","3","6","5","5","2","7","7","3","5","2","2","3","2","3","2","5","772080972635312129","文","89","Female","[""好她"",""坏她"",""坏我"",""好我""]","[""强她"",""弱她"",""弱我"",""强我""]","","","","","","","","no","","","","","","","","","SRET","EW_formal","","key","f","16.663148514851514","684","381","自己","逞强","Negative","ability","","","","","","","","","","",""
"780","","j","psychophysics","78","618242","0.0-7.0-3.0-0.64","3","2","3","1","3","4","1","2","3","2","5","-1","0","-3","0","-3","-1","-2","0","5","4","5","4","4","3","4","2","4","3","5","6","3","7","4","4","5","5","6","2","3","3","3","3","2","2","2","3","2","1","3","2","3","3","1","5","3","3","3","2","2","3","4","3","3","6","5","5","2","7","7","3","5","2","2","3","2","3","2","5","772080972635312129","文","89","Female","[""好她"",""坏她"",""坏我"",""好我""]","[""强她"",""弱她"",""弱我"",""强我""]","","","","","","","","yes","","","","","","","","","SRET","EW_formal","","key","j","16.66435849056623","684","381","朋友","沉着","Positive","ability","","","","","","","","","","",""
"897","","f","psychophysics","79","620144","0.0-7.0-3.0-0.65","3","2","3","1","3","4","1","2","3","2","5","-1","0","-3","0","-3","-1","-2","0","5","4","5","4","4","3","4","2","4","3","5","6","3","7","4","4","5","5","6","2","3","3","3","3","2","2","2","3","2","1","3","2","3","3","1","5","3","3","3","2","2","3","4","3","3","6","5","5","2","7","7","3","5","2","2","3","2","3","2","5","772080972635312129","文","89","Female","[""好她"",""坏她"",""坏我"",""好我""]","[""强她"",""弱她"",""弱我"",""强我""]","","","","","","","","no","","","","","","","","","SRET","EW_formal","","key","f","16.66401769911491","684","381","自己","混账","Negative","morality","","","","","","","","","","",""
"924","","f","psychophysics","80","622072","0.0-7.0-3.0-0.66","3","2","3","1","3","4","1","2","3","2","5","-1","0","-3","0","-3","-1","-2","0","5","4","5","4","4","3","4","2","4","3","5","6","3","7","4","4","5","5","6","2","3","3","3","3","2","2","2","3","2","1","3","2","3","3","1","5","3","3","3","2","2","3","4","3","3","6","5","5","2","7","7","3","5","2","2","3","2","3","2","5","772080972635312129","文","89","Female","[""好她"",""坏她"",""坏我"",""好我""]","[""强她"",""弱她"",""弱我"",""强我""]","","","","","","","","no","","","","","","","","","SRET","EW_formal","","key","f","16.663956140350805","684","381","自己","思辨","Positive","ability","","","","","","","","","","",""
"604","","f","psychophysics","81","623678","0.0-7.0-3.0-0.67","3","2","3","1","3","4","1","2","3","2","5","-1","0","-3","0","-3","-1","-2","0","5","4","5","4","4","3","4","2","4","3","5","6","3","7","4","4","5","5","6","2","3","3","3","3","2","2","2","3","2","1","3","2","3","3","1","5","3","3","3","2","2","3","4","3","3","6","5","5","2","7","7","3","5","2","2","3","2","3","2","5","772080972635312129","文","89","Female","[""好她"",""坏她"",""坏我"",""好我""]","[""强她"",""弱她"",""弱我"",""强我""]","","","","","","","","no","","","","","","","","","SRET","EW_formal","","key","f","16.66190625000066","684","381","朋友","狡狯","Negative","morality","","","","","","","","","","",""
"797","","j","psychophysics","82","625478","0.0-7.0-3.0-0.68","3","2","3","1","3","4","1","2","3","2","5","-1","0","-3","0","-3","-1","-2","0","5","4","5","4","4","3","4","2","4","3","5","6","3","7","4","4","5","5","6","2","3","3","3","3","2","2","2","3","2","1","3","2","3","3","1","5","3","3","3","2","2","3","4","3","3","6","5","5","2","7","7","3","5","2","2","3","2","3","2","5","772080972635312129","文","89","Female","[""好她"",""坏她"",""坏我"",""好我""]","[""强她"",""弱她"",""弱我"",""强我""]","","","","","","","","yes","","","","","","","","","SRET","EW_formal","","key","j","16.663803738317775","684","381","自己","笨蛋","Negative","ability","","","","","","","","","","",""
"859","","f","psychophysics","83","627340","0.0-7.0-3.0-0.69","3","2","3","1","3","4","1","2","3","2","5","-1","0","-3","0","-3","-1","-2","0","5","4","5","4","4","3","4","2","4","3","5","6","3","7","4","4","5","5","6","2","3","3","3","3","2","2","2","3","2","1","3","2","3","3","1","5","3","3","3","2","2","3","4","3","3","6","5","5","2","7","7","3","5","2","2","3","2","3","2","5","772080972635312129","文","89","Female","[""好她"",""坏她"",""坏我"",""好我""]","[""强她"",""弱她"",""弱我"",""强我""]","","","","","","","","no","","","","","","","","","SRET","EW_formal","","key","f","16.66387387387337","684","381","自己","高明","Positive","ability","","","","","","","","","","",""
"829","","j","psychophysics","84","629174","0.0-7.0-3.0-0.70","3","2","3","1","3","4","1","2","3","2","5","-1","0","-3","0","-3","-1","-2","0","5","4","5","4","4","3","4","2","4","3","5","6","3","7","4","4","5","5","6","2","3","3","3","3","2","2","2","3","2","1","3","2","3","3","1","5","3","3","3","2","2","3","4","3","3","6","5","5","2","7","7","3","5","2","2","3","2","3","2","5","772080972635312129","文","89","Female","[""好她"",""坏她"",""坏我"",""好我""]","[""强她"",""弱她"",""弱我"",""强我""]","","","","","","","","yes","","","","","","","","","SRET","EW_formal","","key","j","16.664688073394505","684","381","朋友","敬业","Positive","morality","","","","","","","","","","",""
"1229","","j","psychophysics","85","631406","0.0-7.0-3.0-0.71","3","2","3","1","3","4","1","2","3","2","5","-1","0","-3","0","-3","-1","-2","0","5","4","5","4","4","3","4","2","4","3","5","6","3","7","4","4","5","5","6","2","3","3","3","3","2","2","2","3","2","1","3","2","3","3","1","5","3","3","3","2","2","3","4","3","3","6","5","5","2","7","7","3","5","2","2","3","2","3","2","5","772080972635312129","文","89","Female","[""好她"",""坏她"",""坏我"",""好我""]","[""强她"",""弱她"",""弱我"",""强我""]","","","","","","","","yes","","","","","","","","","SRET","EW_formal","","key","j","16.66390225563909","684","381","朋友","依靠","Negative","ability","","","","","","","","","","",""
"816","","j","psychophysics","86","633226","0.0-7.0-3.0-0.72","3","2","3","1","3","4","1","2","3","2","5","-1","0","-3","0","-3","-1","-2","0","5","4","5","4","4","3","4","2","4","3","5","6","3","7","4","4","5","5","6","2","3","3","3","3","2","2","2","3","2","1","3","2","3","3","1","5","3","3","3","2","2","3","4","3","3","6","5","5","2","7","7","3","5","2","2","3","2","3","2","5","772080972635312129","文","89","Female","[""好她"",""坏她"",""坏我"",""好我""]","[""强她"",""弱她"",""弱我"",""强我""]","","","","","","","","yes","","","","","","","","","SRET","EW_formal","","key","j","16.664101851851836","684","381","朋友","独立","Positive","ability","","","","","","","","","","",""
"751","","f","psychophysics","87","634979","0.0-7.0-3.0-0.73","3","2","3","1","3","4","1","2","3","2","5","-1","0","-3","0","-3","-1","-2","0","5","4","5","4","4","3","4","2","4","3","5","6","3","7","4","4","5","5","6","2","3","3","3","3","2","2","2","3","2","1","3","2","3","3","1","5","3","3","3","2","2","3","4","3","3","6","5","5","2","7","7","3","5","2","2","3","2","3","2","5","772080972635312129","文","89","Female","[""好她"",""坏她"",""坏我"",""好我""]","[""强她"",""弱她"",""弱我"",""强我""]","","","","","","","","no","","","","","","","","","SRET","EW_formal","","key","f","16.826669902912595","684","381","自己","腐败","Negative","morality","","","","","","","","","","",""
"1313","","j","psychophysics","88","637293","0.0-7.0-3.0-0.74","3","2","3","1","3","4","1","2","3","2","5","-1","0","-3","0","-3","-1","-2","0","5","4","5","4","4","3","4","2","4","3","5","6","3","7","4","4","5","5","6","2","3","3","3","3","2","2","2","3","2","1","3","2","3","3","1","5","3","3","3","2","2","3","4","3","3","6","5","5","2","7","7","3","5","2","2","3","2","3","2","5","772080972635312129","文","89","Female","[""好她"",""坏她"",""坏我"",""好我""]","[""强她"",""弱她"",""弱我"",""强我""]","","","","","","","","yes","","","","","","","","","SRET","EW_formal","","key","j","16.662884057971034","684","381","自己","盲目","Negative","ability","","","","","","","","","","",""
"882","","j","psychophysics","89","639177","0.0-7.0-3.0-0.75","3","2","3","1","3","4","1","2","3","2","5","-1","0","-3","0","-3","-1","-2","0","5","4","5","4","4","3","4","2","4","3","5","6","3","7","4","4","5","5","6","2","3","3","3","3","2","2","2","3","2","1","3","2","3","3","1","5","3","3","3","2","2","3","4","3","3","6","5","5","2","7","7","3","5","2","2","3","2","3","2","5","772080972635312129","文","89","Female","[""好她"",""坏她"",""坏我"",""好我""]","[""强她"",""弱她"",""弱我"",""强我""]","","","","","","","","yes","","","","","","","","","SRET","EW_formal","","key","j","16.663830357143265","684","381","朋友","骁勇","Positive","ability","","","","","","","","","","",""
"723","","j","psychophysics","90","640902","0.0-7.0-3.0-0.76","3","2","3","1","3","4","1","2","3","2","5","-1","0","-3","0","-3","-1","-2","0","5","4","5","4","4","3","4","2","4","3","5","6","3","7","4","4","5","5","6","2","3","3","3","3","2","2","2","3","2","1","3","2","3","3","1","5","3","3","3","2","2","3","4","3","3","6","5","5","2","7","7","3","5","2","2","3","2","3","2","5","772080972635312129","文","89","Female","[""好她"",""坏她"",""坏我"",""好我""]","[""强她"",""弱她"",""弱我"",""强我""]","","","","","","","","yes","","","","","","","","","SRET","EW_formal","","key","j","16.664844660193534","684","381","自己","爱国","Positive","morality","","","","","","","","","","",""
"886","","f","psychophysics","91","642790","0.0-7.0-3.0-0.77","3","2","3","1","3","4","1","2","3","2","5","-1","0","-3","0","-3","-1","-2","0","5","4","5","4","4","3","4","2","4","3","5","6","3","7","4","4","5","5","6","2","3","3","3","3","2","2","2","3","2","1","3","2","3","3","1","5","3","3","3","2","2","3","4","3","3","6","5","5","2","7","7","3","5","2","2","3","2","3","2","5","772080972635312129","文","89","Female","[""好她"",""坏她"",""坏我"",""好我""]","[""强她"",""弱她"",""弱我"",""强我""]","","","","","","","","no","","","","","","","","","SRET","EW_formal","","key","f","16.66308035714298","684","381","自己","上进","Positive","ability","","","","","","","","","","",""
"753","","f","psychophysics","92","644545","0.0-7.0-3.0-0.78","3","2","3","1","3","4","1","2","3","2","5","-1","0","-3","0","-3","-1","-2","0","5","4","5","4","4","3","4","2","4","3","5","6","3","7","4","4","5","5","6","2","3","3","3","3","2","2","2","3","2","1","3","2","3","3","1","5","3","3","3","2","2","3","4","3","3","6","5","5","2","7","7","3","5","2","2","3","2","3","2","5","772080972635312129","文","89","Female","[""好她"",""坏她"",""坏我"",""好我""]","[""强她"",""弱她"",""弱我"",""强我""]","","","","","","","","no","","","","","","","","","SRET","EW_formal","","key","f","16.662403846153982","684","381","自己","淫乱","Negative","morality","","","","","","","","","","",""
"869","","f","psychophysics","93","646416","0.0-7.0-3.0-0.79","3","2","3","1","3","4","1","2","3","2","5","-1","0","-3","0","-3","-1","-2","0","5","4","5","4","4","3","4","2","4","3","5","6","3","7","4","4","5","5","6","2","3","3","3","3","2","2","2","3","2","1","3","2","3","3","1","5","3","3","3","2","2","3","4","3","3","6","5","5","2","7","7","3","5","2","2","3","2","3","2","5","772080972635312129","文","89","Female","[""好她"",""坏她"",""坏我"",""好我""]","[""强她"",""弱她"",""弱我"",""强我""]","","","","","","","","no","","","","","","","","","SRET","EW_formal","","key","f","16.663918918919506","684","381","自己","稳健","Positive","ability","","","","","","","","","","",""
"772","","j","psychophysics","94","648191","0.0-7.0-3.0-0.80","3","2","3","1","3","4","1","2","3","2","5","-1","0","-3","0","-3","-1","-2","0","5","4","5","4","4","3","4","2","4","3","5","6","3","7","4","4","5","5","6","2","3","3","3","3","2","2","2","3","2","1","3","2","3","3","1","5","3","3","3","2","2","3","4","3","3","6","5","5","2","7","7","3","5","2","2","3","2","3","2","5","772080972635312129","文","89","Female","[""好她"",""坏她"",""坏我"",""好我""]","[""强她"",""弱她"",""弱我"",""强我""]","","","","","","","","yes","","","","","","","","","SRET","EW_formal","","key","j","16.664311320754866","684","381","朋友","侠义","Positive","morality","","","","","","","","","","",""
"748","","f","psychophysics","95","649941","0.0-7.0-3.0-0.81","3","2","3","1","3","4","1","2","3","2","5","-1","0","-3","0","-3","-1","-2","0","5","4","5","4","4","3","4","2","4","3","5","6","3","7","4","4","5","5","6","2","3","3","3","3","2","2","2","3","2","1","3","2","3","3","1","5","3","3","3","2","2","3","4","3","3","6","5","5","2","7","7","3","5","2","2","3","2","3","2","5","772080972635312129","文","89","Female","[""好她"",""坏她"",""坏我"",""好我""]","[""强她"",""弱她"",""弱我"",""强我""]","","","","","","","","no","","","","","","","","","SRET","EW_formal","","key","f","16.664355769230706","684","381","朋友","废物","Negative","ability","","","","","","","","","","",""
"942","","f","psychophysics","96","651887","0.0-7.0-3.0-0.82","3","2","3","1","3","4","1","2","3","2","5","-1","0","-3","0","-3","-1","-2","0","5","4","5","4","4","3","4","2","4","3","5","6","3","7","4","4","5","5","6","2","3","3","3","3","2","2","2","3","2","1","3","2","3","3","1","5","3","3","3","2","2","3","4","3","3","6","5","5","2","7","7","3","5","2","2","3","2","3","2","5","772080972635312129","文","89","Female","[""好她"",""坏她"",""坏我"",""好我""]","[""强她"",""弱她"",""弱我"",""强我""]","","","","","","","","no","","","","","","","","","SRET","EW_formal","","key","f","16.66291379310283","684","381","自己","邪恶","Negative","morality","","","","","","","","","","",""
"1027","","j","psychophysics","97","653918","0.0-7.0-3.0-0.83","3","2","3","1","3","4","1","2","3","2","5","-1","0","-3","0","-3","-1","-2","0","5","4","5","4","4","3","4","2","4","3","5","6","3","7","4","4","5","5","6","2","3","3","3","3","2","2","2","3","2","1","3","2","3","3","1","5","3","3","3","2","2","3","4","3","3","6","5","5","2","7","7","3","5","2","2","3","2","3","2","5","772080972635312129","文","89","Female","[""好她"",""坏她"",""坏我"",""好我""]","[""强她"",""弱她"",""弱我"",""强我""]","","","","","","","","yes","","","","","","","","","SRET","EW_formal","","key","j","16.663975206611692","684","381","自己","义气","Positive","morality","","","","","","","","","","",""
"801","","j","psychophysics","98","655723","0.0-7.0-3.0-0.84","3","2","3","1","3","4","1","2","3","2","5","-1","0","-3","0","-3","-1","-2","0","5","4","5","4","4","3","4","2","4","3","5","6","3","7","4","4","5","5","6","2","3","3","3","3","2","2","2","3","2","1","3","2","3","3","1","5","3","3","3","2","2","3","4","3","3","6","5","5","2","7","7","3","5","2","2","3","2","3","2","5","772080972635312129","文","89","Female","[""好她"",""坏她"",""坏我"",""好我""]","[""强她"",""弱她"",""弱我"",""强我""]","","","","","","","","yes","","","","","","","","","SRET","EW_formal","","key","j","16.664981308411676","684","381","自己","缓慢","Negative","ability","","","","","","","","","","",""
"904","","j","psychophysics","99","657628","0.0-7.0-3.0-0.85","3","2","3","1","3","4","1","2","3","2","5","-1","0","-3","0","-3","-1","-2","0","5","4","5","4","4","3","4","2","4","3","5","6","3","7","4","4","5","5","6","2","3","3","3","3","2","2","2","3","2","1","3","2","3","3","1","5","3","3","3","2","2","3","4","3","3","6","5","5","2","7","7","3","5","2","2","3","2","3","2","5","772080972635312129","文","89","Female","[""好她"",""坏她"",""坏我"",""好我""]","[""强她"",""弱她"",""弱我"",""强我""]","","","","","","","","yes","","","","","","","","","SRET","EW_formal","","key","j","16.662345132743116","684","381","朋友","素养","Positive","morality","","","","","","","","","","",""
"859","","f","psychophysics","100","659491","0.0-7.0-3.0-0.86","3","2","3","1","3","4","1","2","3","2","5","-1","0","-3","0","-3","-1","-2","0","5","4","5","4","4","3","4","2","4","3","5","6","3","7","4","4","5","5","6","2","3","3","3","3","2","2","2","3","2","1","3","2","3","3","1","5","3","3","3","2","2","3","4","3","3","6","5","5","2","7","7","3","5","2","2","3","2","3","2","5","772080972635312129","文","89","Female","[""好她"",""坏她"",""坏我"",""好我""]","[""强她"",""弱她"",""弱我"",""强我""]","","","","","","","","no","","","","","","","","","SRET","EW_formal","","key","f","16.663468468468636","684","381","自己","主见","Positive","ability","","","","","","","","","","",""
"889","","f","psychophysics","101","661384","0.0-7.0-3.0-0.87","3","2","3","1","3","4","1","2","3","2","5","-1","0","-3","0","-3","-1","-2","0","5","4","5","4","4","3","4","2","4","3","5","6","3","7","4","4","5","5","6","2","3","3","3","3","2","2","2","3","2","1","3","2","3","3","1","5","3","3","3","2","2","3","4","3","3","6","5","5","2","7","7","3","5","2","2","3","2","3","2","5","772080972635312129","文","89","Female","[""好她"",""坏她"",""坏我"",""好我""]","[""强她"",""弱她"",""弱我"",""强我""]","","","","","","","","no","","","","","","","","","SRET","EW_formal","","key","f","16.81287500000014","684","381","朋友","低俗","Negative","morality","","","","","","","","","","",""
"33389","
    <p><div style='color:white;font-size:35px; line-height:20px;'>计算任务</div></p><br>
    <p><div style='color:red;font-size:25px; line-height:20px;'>接下来，您将看到一些四则运算题，<b>请从键盘选择 0-9 进行反应。</b></div></p>
    <p><div style='color:red;font-size:25px; line-height:20px;'>请尽可能快地进行计算，计算的速度和正确率将影响报酬的发放。</div></p>
    <p><div class='footer' style='color:white;font-size:25px; line-height:20px;'>如果对本实验还有不清楚之处，请立即向实验员咨询。</p><p style='color:white;font-size:25px; line-height:20px;'>如果您明白了规则：</p><p style='color:white;font-size:22px; line-height:20px;'>请按 继续 进入练习</p>
    </div>
    ","0","html-button-response","102","694777","0.0-7.0-4.0","3","2","3","1","3","4","1","2","3","2","5","-1","0","-3","0","-3","-1","-2","0","5","4","5","4","4","3","4","2","4","3","5","6","3","7","4","4","5","5","6","2","3","3","3","3","2","2","2","3","2","1","3","2","3","3","1","5","3","3","3","2","2","3","4","3","3","6","5","5","2","7","7","3","5","2","2","3","2","3","2","5","772080972635312129","文","89","Female","[""好她"",""坏她"",""坏我"",""好我""]","[""强她"",""弱她"",""弱我"",""强我""]","","","","","","","","","","","","","","","","","SRET_math","math_instructions","Wed Jan 31 2024 12:52:48 GMT+0800 (中国标准时间)","","","","","","","","","","","","","","","","","","","",""
"2326","","3","psychophysics","103","697112","0.0-7.0-5.0-0.0","3","2","3","1","3","4","1","2","3","2","5","-1","0","-3","0","-3","-1","-2","0","5","4","5","4","4","3","4","2","4","3","5","6","3","7","4","4","5","5","6","2","3","3","3","3","2","2","2","3","2","1","3","2","3","3","1","5","3","3","3","2","2","3","4","3","3","6","5","5","2","7","7","3","5","2","2","3","2","3","2","5","772080972635312129","文","89","Female","[""好她"",""坏她"",""坏我"",""好我""]","[""强她"",""弱她"",""弱我"",""强我""]","","","","","","","","3","","","","","","","","","SRET","SRET_math_calculate","","key","3","16.66678571428555","684","381","","","","","1+2= ?","3","1","","","","","","","",""
"2547","","4","psychophysics","104","699664","0.0-7.0-5.0-0.1","3","2","3","1","3","4","1","2","3","2","5","-1","0","-3","0","-3","-1","-2","0","5","4","5","4","4","3","4","2","4","3","5","6","3","7","4","4","5","5","6","2","3","3","3","3","2","2","2","3","2","1","3","2","3","3","1","5","3","3","3","2","2","3","4","3","3","6","5","5","2","7","7","3","5","2","2","3","2","3","2","5","772080972635312129","文","89","Female","[""好她"",""坏她"",""坏我"",""好我""]","[""强她"",""弱她"",""弱我"",""强我""]","","","","","","","","4","","","","","","","","","SRET","SRET_math_calculate","","key","4","16.663453947368236","684","381","","","","","4*1= ?","4","1","","","","","","","",""
"2551","","6","psychophysics","105","702218","0.0-7.0-5.0-0.2","3","2","3","1","3","4","1","2","3","2","5","-1","0","-3","0","-3","-1","-2","0","5","4","5","4","4","3","4","2","4","3","5","6","3","7","4","4","5","5","6","2","3","3","3","3","2","2","2","3","2","1","3","2","3","3","1","5","3","3","3","2","2","3","4","3","3","6","5","5","2","7","7","3","5","2","2","3","2","3","2","5","772080972635312129","文","89","Female","[""好她"",""坏她"",""坏我"",""好我""]","[""强她"",""弱她"",""弱我"",""强我""]","","","","","","","","6","","","","","","","","","SRET","SRET_math_calculate","","key","6","16.663651315789473","684","381","","","","","2+4= ?","6","1","","","","","","","",""
"3327","","8","psychophysics","106","705547","0.0-7.0-5.0-0.3","3","2","3","1","3","4","1","2","3","2","5","-1","0","-3","0","-3","-1","-2","0","5","4","5","4","4","3","4","2","4","3","5","6","3","7","4","4","5","5","6","2","3","3","3","3","2","2","2","3","2","1","3","2","3","3","1","5","3","3","3","2","2","3","4","3","3","6","5","5","2","7","7","3","5","2","2","3","2","3","2","5","772080972635312129","文","89","Female","[""好她"",""坏她"",""坏我"",""好我""]","[""强她"",""弱她"",""弱我"",""强我""]","","","","","","","","8","","","","","","","","","SRET","SRET_math_calculate","","key","8","16.663708542713465","684","381","","","","","50-42= ?","8","1","","","","","","","",""
"2401","","5","psychophysics","107","707951","0.0-7.0-5.0-0.4","3","2","3","1","3","4","1","2","3","2","5","-1","0","-3","0","-3","-1","-2","0","5","4","5","4","4","3","4","2","4","3","5","6","3","7","4","4","5","5","6","2","3","3","3","3","2","2","2","3","2","1","3","2","3","3","1","5","3","3","3","2","2","3","4","3","3","6","5","5","2","7","7","3","5","2","2","3","2","3","2","5","772080972635312129","文","89","Female","[""好她"",""坏她"",""坏我"",""好我""]","[""强她"",""弱她"",""弱我"",""强我""]","","","","","","","","5","","","","","","","","","SRET","SRET_math_calculate","","key","5","16.664335664335663","684","381","","","","","9-4= ?","5","1","","","","","","","",""
"2973","","4","psychophysics","108","710926","0.0-7.0-5.0-0.5","3","2","3","1","3","4","1","2","3","2","5","-1","0","-3","0","-3","-1","-2","0","5","4","5","4","4","3","4","2","4","3","5","6","3","7","4","4","5","5","6","2","3","3","3","3","2","2","2","3","2","1","3","2","3","3","1","5","3","3","3","2","2","3","4","3","3","6","5","5","2","7","7","3","5","2","2","3","2","3","2","5","772080972635312129","文","89","Female","[""好她"",""坏她"",""坏我"",""好我""]","[""强她"",""弱她"",""弱我"",""强我""]","","","","","","","","4","","","","","","","","","SRET","SRET_math_calculate","","key","4","16.664106741573093","684","381","","","","","20/5= ?","4","1","","","","","","","",""
"2476","","3","psychophysics","109","713406","0.0-7.0-5.0-0.6","3","2","3","1","3","4","1","2","3","2","5","-1","0","-3","0","-3","-1","-2","0","5","4","5","4","4","3","4","2","4","3","5","6","3","7","4","4","5","5","6","2","3","3","3","3","2","2","2","3","2","1","3","2","3","3","1","5","3","3","3","2","2","3","4","3","3","6","5","5","2","7","7","3","5","2","2","3","2","3","2","5","772080972635312129","文","89","Female","[""好她"",""坏她"",""坏我"",""好我""]","[""强她"",""弱她"",""弱我"",""强我""]","","","","","","","","3","","","","","","","","","SRET","SRET_math_calculate","","key","3","16.777821917808456","684","381","","","","","21/7=  ?","3","1","","","","","","","",""
"2037","","4","psychophysics","110","715446","0.0-7.0-5.0-0.7","3","2","3","1","3","4","1","2","3","2","5","-1","0","-3","0","-3","-1","-2","0","5","4","5","4","4","3","4","2","4","3","5","6","3","7","4","4","5","5","6","2","3","3","3","3","2","2","2","3","2","1","3","2","3","3","1","5","3","3","3","2","2","3","4","3","3","6","5","5","2","7","7","3","5","2","2","3","2","3","2","5","772080972635312129","文","89","Female","[""好她"",""坏她"",""坏我"",""好我""]","[""强她"",""弱她"",""弱我"",""强我""]","","","","","","","","4","","","","","","","","","SRET","SRET_math_calculate","","key","4","16.66387704917951","684","381","","","","","3+1= ?","4","1","","","","","","","",""
"2462","","1","psychophysics","111","717911","0.0-7.0-5.0-0.8","3","2","3","1","3","4","1","2","3","2","5","-1","0","-3","0","-3","-1","-2","0","5","4","5","4","4","3","4","2","4","3","5","6","3","7","4","4","5","5","6","2","3","3","3","3","2","2","2","3","2","1","3","2","3","3","1","5","3","3","3","2","2","3","4","3","3","6","5","5","2","7","7","3","5","2","2","3","2","3","2","5","772080972635312129","文","89","Female","[""好她"",""坏她"",""坏我"",""好我""]","[""强她"",""弱她"",""弱我"",""强我""]","","","","","","","","1","","","","","","","","","SRET","SRET_math_calculate","","key","1","16.66445578231324","684","381","","","","","12/12= ?","1","1","","","","","","","",""
"2610","","9","psychophysics","112","720525","0.0-7.0-5.0-0.9","3","2","3","1","3","4","1","2","3","2","5","-1","0","-3","0","-3","-1","-2","0","5","4","5","4","4","3","4","2","4","3","5","6","3","7","4","4","5","5","6","2","3","3","3","3","2","2","2","3","2","1","3","2","3","3","1","5","3","3","3","2","2","3","4","3","3","6","5","5","2","7","7","3","5","2","2","3","2","3","2","5","772080972635312129","文","89","Female","[""好她"",""坏她"",""坏我"",""好我""]","[""强她"",""弱她"",""弱我"",""强我""]","","","","","","","","9","","","","","","","","","SRET","SRET_math_calculate","","key","9","16.66349358974362","684","381","","","","","1*9= ?","9","1","","","","","","","",""
"2436","","2","psychophysics","113","722965","0.0-7.0-5.0-0.10","3","2","3","1","3","4","1","2","3","2","5","-1","0","-3","0","-3","-1","-2","0","5","4","5","4","4","3","4","2","4","3","5","6","3","7","4","4","5","5","6","2","3","3","3","3","2","2","2","3","2","1","3","2","3","3","1","5","3","3","3","2","2","3","4","3","3","6","5","5","2","7","7","3","5","2","2","3","2","3","2","5","772080972635312129","文","89","Female","[""好她"",""坏她"",""坏我"",""好我""]","[""强她"",""弱她"",""弱我"",""强我""]","","","","","","","","2","","","","","","","","","SRET","SRET_math_calculate","","key","2","16.66513103448288","684","381","","","","","9-7= ?","2","1","","","","","","","",""
"2362","","6","psychophysics","114","725330","0.0-7.0-5.0-0.11","3","2","3","1","3","4","1","2","3","2","5","-1","0","-3","0","-3","-1","-2","0","5","4","5","4","4","3","4","2","4","3","5","6","3","7","4","4","5","5","6","2","3","3","3","3","2","2","2","3","2","1","3","2","3","3","1","5","3","3","3","2","2","3","4","3","3","6","5","5","2","7","7","3","5","2","2","3","2","3","2","5","772080972635312129","文","89","Female","[""好她"",""坏她"",""坏我"",""好我""]","[""强她"",""弱她"",""弱我"",""强我""]","","","","","","","","6","","","","","","","","","SRET","SRET_math_calculate","","key","6","16.663765957446913","684","381","","","","","4+2= ?","6","1","","","","","","","",""
"2577","","7","psychophysics","115","727910","0.0-7.0-5.0-0.12","3","2","3","1","3","4","1","2","3","2","5","-1","0","-3","0","-3","-1","-2","0","5","4","5","4","4","3","4","2","4","3","5","6","3","7","4","4","5","5","6","2","3","3","3","3","2","2","2","3","2","1","3","2","3","3","1","5","3","3","3","2","2","3","4","3","3","6","5","5","2","7","7","3","5","2","2","3","2","3","2","5","772080972635312129","文","89","Female","[""好她"",""坏她"",""坏我"",""好我""]","[""强她"",""弱她"",""弱我"",""强我""]","","","","","","","","7","","","","","","","","","SRET","SRET_math_calculate","","key","7","16.664227272727068","684","381","","","","","3+4= ?","7","1","","","","","","","",""
"2094","","5","psychophysics","116","730007","0.0-7.0-5.0-0.13","3","2","3","1","3","4","1","2","3","2","5","-1","0","-3","0","-3","-1","-2","0","5","4","5","4","4","3","4","2","4","3","5","6","3","7","4","4","5","5","6","2","3","3","3","3","2","2","2","3","2","1","3","2","3","3","1","5","3","3","3","2","2","3","4","3","3","6","5","5","2","7","7","3","5","2","2","3","2","3","2","5","772080972635312129","文","89","Female","[""好她"",""坏她"",""坏我"",""好我""]","[""强她"",""弱她"",""弱我"",""强我""]","","","","","","","","5","","","","","","","","","SRET","SRET_math_calculate","","key","5","16.66218400000036","684","381","","","","","2+3= ?","5","1","","","","","","","",""
"2445","","6","psychophysics","117","732457","0.0-7.0-5.0-0.14","3","2","3","1","3","4","1","2","3","2","5","-1","0","-3","0","-3","-1","-2","0","5","4","5","4","4","3","4","2","4","3","5","6","3","7","4","4","5","5","6","2","3","3","3","3","2","2","2","3","2","1","3","2","3","3","1","5","3","3","3","2","2","3","4","3","3","6","5","5","2","7","7","3","5","2","2","3","2","3","2","5","772080972635312129","文","89","Female","[""好她"",""坏她"",""坏我"",""好我""]","[""强她"",""弱她"",""弱我"",""强我""]","","","","","","","","6","","","","","","","","","SRET","SRET_math_calculate","","key","6","16.6637602739725","684","381","","","","","11-5= ?","6","1","","","","","","","",""
"3457","","9","psychophysics","118","735918","0.0-7.0-5.0-0.15","3","2","3","1","3","4","1","2","3","2","5","-1","0","-3","0","-3","-1","-2","0","5","4","5","4","4","3","4","2","4","3","5","6","3","7","4","4","5","5","6","2","3","3","3","3","2","2","2","3","2","1","3","2","3","3","1","5","3","3","3","2","2","3","4","3","3","6","5","5","2","7","7","3","5","2","2","3","2","3","2","5","772080972635312129","文","89","Female","[""好她"",""坏她"",""坏我"",""好我""]","[""强她"",""弱她"",""弱我"",""强我""]","","","","","","","","9","","","","","","","","","SRET","SRET_math_calculate","","key","9","16.74551707317076","684","381","","","","","18/2= ?","9","1","","","","","","","",""
"4414","","8","psychophysics","119","740336","0.0-7.0-5.0-0.16","3","2","3","1","3","4","1","2","3","2","5","-1","0","-3","0","-3","-1","-2","0","5","4","5","4","4","3","4","2","4","3","5","6","3","7","4","4","5","5","6","2","3","3","3","3","2","2","2","3","2","1","3","2","3","3","1","5","3","3","3","2","2","3","4","3","3","6","5","5","2","7","7","3","5","2","2","3","2","3","2","5","772080972635312129","文","89","Female","[""好她"",""坏她"",""坏我"",""好我""]","[""强她"",""弱她"",""弱我"",""强我""]","","","","","","","","8","","","","","","","","","SRET","SRET_math_calculate","","key","8","16.66338113207581","684","381","","","","","56/7= ?","8","1","","","","","","","",""
"3099","","7","psychophysics","120","743441","0.0-7.0-5.0-0.17","3","2","3","1","3","4","1","2","3","2","5","-1","0","-3","0","-3","-1","-2","0","5","4","5","4","4","3","4","2","4","3","5","6","3","7","4","4","5","5","6","2","3","3","3","3","2","2","2","3","2","1","3","2","3","3","1","5","3","3","3","2","2","3","4","3","3","6","5","5","2","7","7","3","5","2","2","3","2","3","2","5","772080972635312129","文","89","Female","[""好她"",""坏她"",""坏我"",""好我""]","[""强她"",""弱她"",""弱我"",""强我""]","","","","","","","","7","","","","","","","","","SRET","SRET_math_calculate","","key","7","16.66385945945953","684","381","","","","","6+1= ?","7","1","","","","","","","",""
"2631","","8","psychophysics","121","746074","0.0-7.0-5.0-0.18","3","2","3","1","3","4","1","2","3","2","5","-1","0","-3","0","-3","-1","-2","0","5","4","5","4","4","3","4","2","4","3","5","6","3","7","4","4","5","5","6","2","3","3","3","3","2","2","2","3","2","1","3","2","3","3","1","5","3","3","3","2","2","3","4","3","3","6","5","5","2","7","7","3","5","2","2","3","2","3","2","5","772080972635312129","文","89","Female","[""好她"",""坏她"",""坏我"",""好我""]","[""强她"",""弱她"",""弱我"",""强我""]","","","","","","","","8","","","","","","","","","SRET","SRET_math_calculate","","key","8","16.66469426751641","684","381","","","","","2*4= ?","8","1","","","","","","","",""
"4050","","5","psychophysics","122","750127","0.0-7.0-5.0-0.19","3","2","3","1","3","4","1","2","3","2","5","-1","0","-3","0","-3","-1","-2","0","5","4","5","4","4","3","4","2","4","3","5","6","3","7","4","4","5","5","6","2","3","3","3","3","2","2","2","3","2","1","3","2","3","3","1","5","3","3","3","2","2","3","4","3","3","6","5","5","2","7","7","3","5","2","2","3","2","3","2","5","772080972635312129","文","89","Female","[""好她"",""坏她"",""坏我"",""好我""]","[""强她"",""弱她"",""弱我"",""强我""]","","","","","","","","5","","","","","","","","","SRET","SRET_math_calculate","","key","5","16.664049586776667","684","381","","","","","5/1= ?","5","1","","","","","","","",""
"2664","","0","psychophysics","123","752794","0.0-7.0-5.0-0.20","3","2","3","1","3","4","1","2","3","2","5","-1","0","-3","0","-3","-1","-2","0","5","4","5","4","4","3","4","2","4","3","5","6","3","7","4","4","5","5","6","2","3","3","3","3","2","2","2","3","2","1","3","2","3","3","1","5","3","3","3","2","2","3","4","3","3","6","5","5","2","7","7","3","5","2","2","3","2","3","2","5","772080972635312129","文","89","Female","[""好她"",""坏她"",""坏我"",""好我""]","[""强她"",""弱她"",""弱我"",""强我""]","","","","","","","","0","","","","","","","","","SRET","SRET_math_calculate","","key","0","16.664226415094117","684","381","","","","","5*0= ?","0","1","","","","","","","",""
"2594","","7","psychophysics","124","755390","0.0-7.0-5.0-0.21","3","2","3","1","3","4","1","2","3","2","5","-1","0","-3","0","-3","-1","-2","0","5","4","5","4","4","3","4","2","4","3","5","6","3","7","4","4","5","5","6","2","3","3","3","3","2","2","2","3","2","1","3","2","3","3","1","5","3","3","3","2","2","3","4","3","3","6","5","5","2","7","7","3","5","2","2","3","2","3","2","5","772080972635312129","文","89","Female","[""好她"",""坏她"",""坏我"",""好我""]","[""强她"",""弱她"",""弱我"",""强我""]","","","","","","","","7","","","","","","","","","SRET","SRET_math_calculate","","key","7","16.662916129032872","684","381","","","","","49/7 = ?","7","1","","","","","","","",""
"2932","","3","psychophysics","125","758325","0.0-7.0-5.0-0.22","3","2","3","1","3","4","1","2","3","2","5","-1","0","-3","0","-3","-1","-2","0","5","4","5","4","4","3","4","2","4","3","5","6","3","7","4","4","5","5","6","2","3","3","3","3","2","2","2","3","2","1","3","2","3","3","1","5","3","3","3","2","2","3","4","3","3","6","5","5","2","7","7","3","5","2","2","3","2","3","2","5","772080972635312129","文","89","Female","[""好她"",""坏她"",""坏我"",""好我""]","[""强她"",""弱她"",""弱我"",""强我""]","","","","","","","","3","","","","","","","","","SRET","SRET_math_calculate","","key","3","16.663925714285245","684","381","","","","","11-8= ?","3","1","","","","","","","",""
"2542","","2","psychophysics","126","760871","0.0-7.0-5.0-0.23","3","2","3","1","3","4","1","2","3","2","5","-1","0","-3","0","-3","-1","-2","0","5","4","5","4","4","3","4","2","4","3","5","6","3","7","4","4","5","5","6","2","3","3","3","3","2","2","2","3","2","1","3","2","3","3","1","5","3","3","3","2","2","3","4","3","3","6","5","5","2","7","7","3","5","2","2","3","2","3","2","5","772080972635312129","文","89","Female","[""好她"",""坏她"",""坏我"",""好我""]","[""强她"",""弱她"",""弱我"",""强我""]","","","","","","","","2","","","","","","","","","SRET","SRET_math_calculate","","key","2","16.664296052631567","684","381","","","","","22/11= ?","2","1","","","","","","","",""
"3566","","0","psychophysics","127","764440","0.0-7.0-5.0-0.24","3","2","3","1","3","4","1","2","3","2","5","-1","0","-3","0","-3","-1","-2","0","5","4","5","4","4","3","4","2","4","3","5","6","3","7","4","4","5","5","6","2","3","3","3","3","2","2","2","3","2","1","3","2","3","3","1","5","3","3","3","2","2","3","4","3","3","6","5","5","2","7","7","3","5","2","2","3","2","3","2","5","772080972635312129","文","89","Female","[""好她"",""坏她"",""坏我"",""好我""]","[""强她"",""弱她"",""弱我"",""强我""]","","","","","","","","0","","","","","","","","","SRET","SRET_math_calculate","","key","0","16.662849765257832","684","381","","","","","22-22= ?","0","1","","","","","","","",""
"2750","","2","psychophysics","128","767193","0.0-7.0-5.0-0.25","3","2","3","1","3","4","1","2","3","2","5","-1","0","-3","0","-3","-1","-2","0","5","4","5","4","4","3","4","2","4","3","5","6","3","7","4","4","5","5","6","2","3","3","3","3","2","2","2","3","2","1","3","2","3","3","1","5","3","3","3","2","2","3","4","3","3","6","5","5","2","7","7","3","5","2","2","3","2","3","2","5","772080972635312129","文","89","Female","[""好她"",""坏她"",""坏我"",""好我""]","[""强她"",""弱她"",""弱我"",""强我""]","","","","","","","","2","","","","","","","","","SRET","SRET_math_calculate","","key","2","16.66403048780531","684","381","","","","","19-17= ?","2","1","","","","","","","",""
"2096","","5","psychophysics","129","769291","0.0-7.0-5.0-0.26","3","2","3","1","3","4","1","2","3","2","5","-1","0","-3","0","-3","-1","-2","0","5","4","5","4","4","3","4","2","4","3","5","6","3","7","4","4","5","5","6","2","3","3","3","3","2","2","2","3","2","1","3","2","3","3","1","5","3","3","3","2","2","3","4","3","3","6","5","5","2","7","7","3","5","2","2","3","2","3","2","5","772080972635312129","文","89","Female","[""好她"",""坏她"",""坏我"",""好我""]","[""强她"",""弱她"",""弱我"",""强我""]","","","","","","","","5","","","","","","","","","SRET","SRET_math_calculate","","key","5","16.664175999999976","684","381","","","","","8-3= ? ","5","1","","","","","","","",""
"2184","","6","psychophysics","130","771486","0.0-7.0-5.0-0.27","3","2","3","1","3","4","1","2","3","2","5","-1","0","-3","0","-3","-1","-2","0","5","4","5","4","4","3","4","2","4","3","5","6","3","7","4","4","5","5","6","2","3","3","3","3","2","2","2","3","2","1","3","2","3","3","1","5","3","3","3","2","2","3","4","3","3","6","5","5","2","7","7","3","5","2","2","3","2","3","2","5","772080972635312129","文","89","Female","[""好她"",""坏她"",""坏我"",""好我""]","[""强她"",""弱她"",""弱我"",""强我""]","","","","","","","","6","","","","","","","","","SRET","SRET_math_calculate","","key","6","16.663816793892845","684","381","","","","","3+3= ?","6","1","","","","","","","",""
"2806","","2","psychophysics","131","774297","0.0-7.0-5.0-0.28","3","2","3","1","3","4","1","2","3","2","5","-1","0","-3","0","-3","-1","-2","0","5","4","5","4","4","3","4","2","4","3","5","6","3","7","4","4","5","5","6","2","3","3","3","3","2","2","2","3","2","1","3","2","3","3","1","5","3","3","3","2","2","3","4","3","3","6","5","5","2","7","7","3","5","2","2","3","2","3","2","5","772080972635312129","文","89","Female","[""好她"",""坏她"",""坏我"",""好我""]","[""强她"",""弱她"",""弱我"",""强我""]","","","","","","","","2","","","","","","","","","SRET","SRET_math_calculate","","key","2","16.66405988023979","684","381","","","","","12/6= ?","2","1","","","","","","","",""
"2119","","2","psychophysics","132","776419","0.0-7.0-5.0-0.29","3","2","3","1","3","4","1","2","3","2","5","-1","0","-3","0","-3","-1","-2","0","5","4","5","4","4","3","4","2","4","3","5","6","3","7","4","4","5","5","6","2","3","3","3","3","2","2","2","3","2","1","3","2","3","3","1","5","3","3","3","2","2","3","4","3","3","6","5","5","2","7","7","3","5","2","2","3","2","3","2","5","772080972635312129","文","89","Female","[""好她"",""坏她"",""坏我"",""好我""]","[""强她"",""弱她"",""弱我"",""强我""]","","","","","","","","2","","","","","","","","","SRET","SRET_math_calculate","","key","2","16.663779527558503","684","381","","","","","5-3= ?","2","1","","","","","","","",""
"2386","","6","psychophysics","133","778808","0.0-7.0-5.0-0.30","3","2","3","1","3","4","1","2","3","2","5","-1","0","-3","0","-3","-1","-2","0","5","4","5","4","4","3","4","2","4","3","5","6","3","7","4","4","5","5","6","2","3","3","3","3","2","2","2","3","2","1","3","2","3","3","1","5","3","3","3","2","2","3","4","3","3","6","5","5","2","7","7","3","5","2","2","3","2","3","2","5","772080972635312129","文","89","Female","[""好她"",""坏她"",""坏我"",""好我""]","[""强她"",""弱她"",""弱我"",""强我""]","","","","","","","","6","","","","","","","","","SRET","SRET_math_calculate","","key","6","16.66517605633773","684","381","","","","","5+1= ?","6","1","","","","","","","",""
"2292","","4","psychophysics","134","781107","0.0-7.0-5.0-0.31","3","2","3","1","3","4","1","2","3","2","5","-1","0","-3","0","-3","-1","-2","0","5","4","5","4","4","3","4","2","4","3","5","6","3","7","4","4","5","5","6","2","3","3","3","3","2","2","2","3","2","1","3","2","3","3","1","5","3","3","3","2","2","3","4","3","3","6","5","5","2","7","7","3","5","2","2","3","2","3","2","5","772080972635312129","文","89","Female","[""好她"",""坏她"",""坏我"",""好我""]","[""强她"",""弱她"",""弱我"",""强我""]","","","","","","","","4","","","","","","","","","SRET","SRET_math_calculate","","key","4","16.664554744525507","684","381","","","","","8-4= ?","4","1","","","","","","","",""
"2839","","2","psychophysics","135","783949","0.0-7.0-5.0-0.32","3","2","3","1","3","4","1","2","3","2","5","-1","0","-3","0","-3","-1","-2","0","5","4","5","4","4","3","4","2","4","3","5","6","3","7","4","4","5","5","6","2","3","3","3","3","2","2","2","3","2","1","3","2","3","3","1","5","3","3","3","2","2","3","4","3","3","6","5","5","2","7","7","3","5","2","2","3","2","3","2","5","772080972635312129","文","89","Female","[""好她"",""坏她"",""坏我"",""好我""]","[""强她"",""弱她"",""弱我"",""强我""]","","","","","","","","2","","","","","","","","","SRET","SRET_math_calculate","","key","2","16.66375882352894","684","381","","","","","18/9= ?","2","1","","","","","","","",""
"2245","","9","psychophysics","136","786197","0.0-7.0-5.0-0.33","3","2","3","1","3","4","1","2","3","2","5","-1","0","-3","0","-3","-1","-2","0","5","4","5","4","4","3","4","2","4","3","5","6","3","7","4","4","5","5","6","2","3","3","3","3","2","2","2","3","2","1","3","2","3","3","1","5","3","3","3","2","2","3","4","3","3","6","5","5","2","7","7","3","5","2","2","3","2","3","2","5","772080972635312129","文","89","Female","[""好她"",""坏她"",""坏我"",""好我""]","[""强她"",""弱她"",""弱我"",""强我""]","","","","","","","","9","","","","","","","","","SRET","SRET_math_calculate","","key","9","16.66399253731326","684","381","","","","","3+6= ?","9","1","","","","","","","",""
"2176","","4","psychophysics","137","788379","0.0-7.0-5.0-0.34","3","2","3","1","3","4","1","2","3","2","5","-1","0","-3","0","-3","-1","-2","0","5","4","5","4","4","3","4","2","4","3","5","6","3","7","4","4","5","5","6","2","3","3","3","3","2","2","2","3","2","1","3","2","3","3","1","5","3","3","3","2","2","3","4","3","3","6","5","5","2","7","7","3","5","2","2","3","2","3","2","5","772080972635312129","文","89","Female","[""好她"",""坏她"",""坏我"",""好我""]","[""强她"",""弱她"",""弱我"",""强我""]","","","","","","","","4","","","","","","","","","SRET","SRET_math_calculate","","key","4","16.663876923076952","684","381","","","","","9-5= ?","4","1","","","","","","","",""
"2252","","7","psychophysics","138","790635","0.0-7.0-5.0-0.35","3","2","3","1","3","4","1","2","3","2","5","-1","0","-3","0","-3","-1","-2","0","5","4","5","4","4","3","4","2","4","3","5","6","3","7","4","4","5","5","6","2","3","3","3","3","2","2","2","3","2","1","3","2","3","3","1","5","3","3","3","2","2","3","4","3","3","6","5","5","2","7","7","3","5","2","2","3","2","3","2","5","772080972635312129","文","89","Female","[""好她"",""坏她"",""坏我"",""好我""]","[""强她"",""弱她"",""弱我"",""强我""]","","","","","","","","7","","","","","","","","","SRET","SRET_math_calculate","","key","7","16.66421641791048","684","381","","","","","1+6= ?","7","1","","","","","","","",""
"6861","","9","psychophysics","139","797499","0.0-7.0-5.0-0.36","3","2","3","1","3","4","1","2","3","2","5","-1","0","-3","0","-3","-1","-2","0","5","4","5","4","4","3","4","2","4","3","5","6","3","7","4","4","5","5","6","2","3","3","3","3","2","2","2","3","2","1","3","2","3","3","1","5","3","3","3","2","2","3","4","3","3","6","5","5","2","7","7","3","5","2","2","3","2","3","2","5","772080972635312129","文","89","Female","[""好她"",""坏她"",""坏我"",""好我""]","[""强她"",""弱她"",""弱我"",""强我""]","","","","","","","","9","","","","","","","","","SRET","SRET_math_calculate","","key","9","16.663982968369822","684","381","","","","","32-23= ?","9","1","","","","","","","",""
"3058","","7","psychophysics","140","800561","0.0-7.0-5.0-0.37","3","2","3","1","3","4","1","2","3","2","5","-1","0","-3","0","-3","-1","-2","0","5","4","5","4","4","3","4","2","4","3","5","6","3","7","4","4","5","5","6","2","3","3","3","3","2","2","2","3","2","1","3","2","3","3","1","5","3","3","3","2","2","3","4","3","3","6","5","5","2","7","7","3","5","2","2","3","2","3","2","5","772080972635312129","文","89","Female","[""好她"",""坏她"",""坏我"",""好我""]","[""强她"",""弱她"",""弱我"",""强我""]","","","","","","","","7","","","","","","","","","SRET","SRET_math_calculate","","key","7","16.66396153846162","684","381","","","","","12-5= ?","7","1","","","","","","","",""
