"rt","stimulus","response","trial_type","trial_index","time_elapsed","internal_node_id","swb_1","swb_2","swb_3","swb_4","swb_5","LOT_1","LOT_2","LOT_3","LOT_4","LOT_5","LOT_6","IPC_1","IPC_2","IPC_3","IPC_4","IPC_5","IPC_6","IPC_7","IPC_8","MorIden_1","MorIden_2","MorIden_3","MorIden_4","MorIden_5","MorIden_6","MorIden_7","MorIden_8","MorIden_9","MorIden_10","moralSeImag_1","moralSeImag_2","moralSeImag_3","moralSeImag_4","moralSeImag_5","moralSeImag_6","moralSeImag_7","moralSeImag_8","moralSeImag_9","sde_1","sde_2","sde_3","sde_4","sde_5","sde_6","sde_7","sde_8","sde_9","sde_10","trap2","sde_11","sde_12","sde_13","sde_14","sde_15","sde_16","sde_17","sde_18","sde_19","sde_20","IM_1","IM_2","IM_3","IM_4","IM_5","IM_6","IM_7","IM_8","IM_9","IM_10","IM_11","IM_12","IM_13","IM_14","IM_15","IM_16","IM_17","IM_18","IM_19","IM_20","subj_idx","friend_name","ParticipantID","Sex","Word","Word2","value","success","timeout","failed_images","failed_audio","failed_video","user_agent","responses","item_order","radio_event_ids","radio_event_times","key_event_times","mouse_event_times","straightlining","zigzagging","honeypot","view_history","response_type","key_press","avg_frame_time","center_x","center_y","correct_response","correct","identity","Image","word","condition","task_id","screen_id","time_stamp","person","valence","domain","math","status","duration","question_order","trap2_item"
"23504","
   <p><div style='color:white; font-size: 25px'>您好，欢迎参加本次实验。</div></p>
   <p><div style='color:white; font-size: 25px'>为充分保障您的权利，请确保您已经知晓并同意《参与实验同意书》以及《数据公开知情同意书》。</div></p>
   <p><div style='color:white; font-size: 25px'>如果您未见过上述内容，请咨询实验员。</div></p>
   <p style='color:white; font-size: 25px'>如果您选择继续实验，则表示您已经清楚两份知情同意书的内容并同意。</p>
   <p><div style = ""color: pink;font-size:30px;"">请确保您记得day0的实验编号，您将在本次实验输入该编号，若您忘记，请咨询实验员后作答。</div></p>
   <p><div style = ""color:lightblue;font-size:25px;"">请您尽可能认真地作答，我们将依据您在各问卷和按键任务中的作答质量发放报酬。</div></p>
   <p> <div style = ""color: green""><按空格键至下页></div> </p>
   "," ","html-keyboard-response","0","23507","0.0-0.0","6","6","6","5","5","5","4","4","5","5","5","2","-2","0","-1","-1","-2","1","0","5","4","2","5","4","5","4","4","4","4","4","4","7","6","6","4","4","7","6","3","5","1","2","5","2","3","3","5","2","1","2","2","2","2","2","6","3","4","2","3","3","3","3","2","2","6","2","5","5","7","5","3","7","2","3","3","2","6","2","3","718982212988436480","王","322","Female","[""坏我"",""坏她"",""好我"",""好她""]","[""弱我"",""弱她"",""强我"",""强她""]","","","","","","","","","","","","","","","","","","","","","","","","","","","","","","","","","","","","","","",""
"","","","call-function","1","23507","0.0-1.0-0.0","6","6","6","5","5","5","4","4","5","5","5","2","-2","0","-1","-1","-2","1","0","5","4","2","5","4","5","4","4","4","4","4","4","7","6","6","4","4","7","6","3","5","1","2","5","2","3","3","5","2","1","2","2","2","2","2","6","3","4","2","3","3","3","3","2","2","6","2","5","5","7","5","3","7","2","3","3","2","6","2","3","718982212988436480","王","322","Female","[""坏我"",""坏她"",""好我"",""好她""]","[""弱我"",""弱她"",""强我"",""强她""]","","","","","","","","","","","","","","","","","","","","","","","","","","","","","","","","","","","","","","",""
"16163","","[{""name"":""Sex"",""value"":""1""},{""name"":""friend_name"",""value"":""王""},{""name"":""ParticipantID"",""value"":""322""}]","survey-html-form","2","39671","0.0-1.0-1.0","6","6","6","5","5","5","4","4","5","5","5","2","-2","0","-1","-1","-2","1","0","5","4","2","5","4","5","4","4","4","4","4","4","7","6","6","4","4","7","6","3","5","1","2","5","2","3","3","5","2","1","2","2","2","2","2","6","3","4","2","3","3","3","3","2","2","6","2","5","5","7","5","3","7","2","3","3","2","6","2","3","718982212988436480","王","322","Female","[""坏我"",""坏她"",""好我"",""好她""]","[""弱我"",""弱她"",""强我"",""强她""]","","","","","","","","","","","","","","","","","","","","","","","","","","","","","","","","","","","","","","",""
"","","","preload","3","39990","0.0-2.0","6","6","6","5","5","5","4","4","5","5","5","2","-2","0","-1","-1","-2","1","0","5","4","2","5","4","5","4","4","4","4","4","4","7","6","6","4","4","7","6","3","5","1","2","5","2","3","3","5","2","1","2","2","2","2","2","6","3","4","2","3","3","3","3","2","2","6","2","5","5","7","5","3","7","2","3","3","2","6","2","3","718982212988436480","王","322","Female","[""坏我"",""坏她"",""好我"",""好她""]","[""弱我"",""弱她"",""强我"",""强她""]","","true","false","[]","[]","[]","","","","","","","","","","","","","","","","","","","","","","","","","","","","","","","","",""
"","","","fullscreen","4","51090","0.0-3.0","6","6","6","5","5","5","4","4","5","5","5","2","-2","0","-1","-1","-2","1","0","5","4","2","5","4","5","4","4","4","4","4","4","7","6","6","4","4","7","6","3","5","1","2","5","2","3","3","5","2","1","2","2","2","2","2","6","3","4","2","3","3","3","3","2","2","6","2","5","5","7","5","3","7","2","3","3","2","6","2","3","718982212988436480","王","322","Female","[""坏我"",""坏她"",""好我"",""好她""]","[""弱我"",""弱她"",""强我"",""强她""]","","true","","","","","","","","","","","","","","","","","","","","","","","","","","","","","","","","","","","","",""
"26245","","{""Q01"":""6"",""Q02"":""6"",""Q03"":""6"",""Q04"":""5"",""Q05"":""5""}","survey-template","5","77338","0.0-4.0","6","6","6","5","5","5","4","4","5","5","5","2","-2","0","-1","-1","-2","1","0","5","4","2","5","4","5","4","4","4","4","4","4","7","6","6","4","4","7","6","3","5","1","2","5","2","3","3","5","2","1","2","2","2","2","2","6","3","4","2","3","3","3","3","2","2","6","2","5","5","7","5","3","7","2","3","3","2","6","2","3","718982212988436480","王","322","Female","[""坏我"",""坏她"",""好我"",""好她""]","[""弱我"",""弱她"",""强我"",""强她""]","","","","","","","","{""Q01"":""6"",""Q02"":""6"",""Q03"":""6"",""Q04"":""5"",""Q05"":""5""}","[0,1,2,3,4]","[""Q01"",""Q02"",""Q03"",""Q04"",""Q05""]","[14360,16307,16936,21466,23207]","[]","[14360,16307,16936,21466,23207,26245]","0.6","0.25","0","","","","","","","","","","","","","","","","","","","","","","",""
"19489","","{""Q01"":""5"",""Q02"":""4"",""Q03"":""4"",""Q04"":""5"",""Q05"":""5"",""Q06"":""5""}","survey-template","6","96829","0.0-5.0","6","6","6","5","5","5","4","4","5","5","5","2","-2","0","-1","-1","-2","1","0","5","4","2","5","4","5","4","4","4","4","4","4","7","6","6","4","4","7","6","3","5","1","2","5","2","3","3","5","2","1","2","2","2","2","2","6","3","4","2","3","3","3","3","2","2","6","2","5","5","7","5","3","7","2","3","3","2","6","2","3","718982212988436480","王","322","Female","[""坏我"",""坏她"",""好我"",""好她""]","[""弱我"",""弱她"",""强我"",""强她""]","","","","","","","","{""Q01"":""5"",""Q02"":""4"",""Q03"":""4"",""Q04"":""5"",""Q05"":""5"",""Q06"":""5""}","[0,1,2,3,4,5]","[""Q01"",""Q02"",""Q03"",""Q04"",""Q05"",""Q06""]","[2973,6348,8823,14403,15746,18610]","[]","[2973,6348,8823,14403,15746,18610,19489]","0.3333333333333333","0.2","0","","","","","","","","","","","","","","","","","","","","","","",""
"27629","","{""Q01"":""2"",""Q02"":""-2"",""Q03"":""0"",""Q04"":""-1"",""Q05"":""-1"",""Q06"":""-2"",""Q07"":""1"",""Q08"":""0""}","survey-template","7","124460","0.0-6.0","6","6","6","5","5","5","4","4","5","5","5","2","-2","0","-1","-1","-2","1","0","5","4","2","5","4","5","4","4","4","4","4","4","7","6","6","4","4","7","6","3","5","1","2","5","2","3","3","5","2","1","2","2","2","2","2","6","3","4","2","3","3","3","3","2","2","6","2","5","5","7","5","3","7","2","3","3","2","6","2","3","718982212988436480","王","322","Female","[""坏我"",""坏她"",""好我"",""好她""]","[""弱我"",""弱她"",""强我"",""强她""]","","","","","","","","{""Q01"":""2"",""Q02"":""-2"",""Q03"":""0"",""Q04"":""-1"",""Q05"":""-1"",""Q06"":""-2"",""Q07"":""1"",""Q08"":""0""}","[0,1,2,3,4,5,6,7]","[""Q01"",""Q02"",""Q03"",""Q04"",""Q05"",""Q06"",""Q07"",""Q08""]","[5862,7181,9770,13272,17712,20060,24155,26840]","[]","[5862,7181,9770,13272,17712,20060,24155,26840,27629]","0.25","0.42857142857142855","0","","","","","","","","","","","","","","","","","","","","","","",""
"54165","","","instructions","8","178627","0.0-7.0","6","6","6","5","5","5","4","4","5","5","5","2","-2","0","-1","-1","-2","1","0","5","4","2","5","4","5","4","4","4","4","4","4","7","6","6","4","4","7","6","3","5","1","2","5","2","3","3","5","2","1","2","2","2","2","2","6","3","4","2","3","3","3","3","2","2","6","2","5","5","7","5","3","7","2","3","3","2","6","2","3","718982212988436480","王","322","Female","[""坏我"",""坏她"",""好我"",""好她""]","[""弱我"",""弱她"",""强我"",""强她""]","","","","","","","","","","","","","","","","","[{""page_index"":0,""viewing_time"":54165}]","","","","","","","","","","","","","","","","","","","","","",""
"81026","","","instructions","9","259653","0.0-8.0-1.0-0.0","6","6","6","5","5","5","4","4","5","5","5","2","-2","0","-1","-1","-2","1","0","5","4","2","5","4","5","4","4","4","4","4","4","7","6","6","4","4","7","6","3","5","1","2","5","2","3","3","5","2","1","2","2","2","2","2","6","3","4","2","3","3","3","3","2","2","6","2","5","5","7","5","3","7","2","3","3","2","6","2","3","718982212988436480","王","322","Female","[""坏我"",""坏她"",""好我"",""好她""]","[""弱我"",""弱她"",""强我"",""强她""]","","","","","","","","","","","","","","","","","[{""page_index"":0,""viewing_time"":12771},{""page_index"":1,""viewing_time"":60573},{""page_index"":2,""viewing_time"":4960},{""page_index"":3,""viewing_time"":2722}]","","","","","","","","","","","","","","","","","","","","","",""
"null","","null","psychophysics","10","261859","0.0-8.0-1.0-1.0-0.0-0.0","6","6","6","5","5","5","4","4","5","5","5","2","-2","0","-1","-1","-2","1","0","5","4","2","5","4","5","4","4","4","4","4","4","7","6","6","4","4","7","6","3","5","1","2","5","2","3","3","5","2","1","2","2","2","2","2","6","3","4","2","3","3","3","3","2","2","6","2","5","5","7","5","3","7","2","3","3","2","6","2","3","718982212988436480","王","322","Female","[""坏我"",""坏她"",""好我"",""好她""]","[""弱我"",""弱她"",""强我"",""强她""]","","","","","","","","null","","","","","","","","","","key","null","16.66534351145041","720","446","j","false","nonmatch","img/ellipse.png","弱我","强我","prac_ALT2_ability","practice_ability","","","","","","","","",""
"null","<span class='add_' style='color:yellow; font-size: 70px;'> 太慢! </span>","null","html-keyboard-response","11","262372","0.0-8.0-1.0-1.0-0.0-1.0","6","6","6","5","5","5","4","4","5","5","5","2","-2","0","-1","-1","-2","1","0","5","4","2","5","4","5","4","4","4","4","4","4","7","6","6","4","4","7","6","3","5","1","2","5","2","3","3","5","2","1","2","2","2","2","2","6","3","4","2","3","3","3","3","2","2","6","2","5","5","7","5","3","7","2","3","3","2","6","2","3","718982212988436480","王","322","Female","[""坏我"",""坏她"",""好我"",""好她""]","[""弱我"",""弱她"",""强我"",""强她""]","","","","","","","","","","","","","","","","","","","","","","","","","","","","","","feedback_test","","","","","","","","",""
"789","","j","psychophysics","12","264169","0.0-8.0-1.0-1.0-0.0-0.1","6","6","6","5","5","5","4","4","5","5","5","2","-2","0","-1","-1","-2","1","0","5","4","2","5","4","5","4","4","4","4","4","4","7","6","6","4","4","7","6","3","5","1","2","5","2","3","3","5","2","1","2","2","2","2","2","6","3","4","2","3","3","3","3","2","2","6","2","5","5","7","5","3","7","2","3","3","2","6","2","3","718982212988436480","王","322","Female","[""坏我"",""坏她"",""好我"",""好她""]","[""弱我"",""弱她"",""强我"",""强她""]","","","","","","","","nonmatch","","","","","","","","","","key","j","16.651214953270962","720","446","j","true","nonmatch","img/ellipse.png","强她","强我","prac_ALT2_ability","practice_ability","","","","","","","","",""
"null","<span style='color:GreenYellow; font-size: 70px;'>正确! </span>","null","html-keyboard-response","13","264714","0.0-8.0-1.0-1.0-0.0-1.1","6","6","6","5","5","5","4","4","5","5","5","2","-2","0","-1","-1","-2","1","0","5","4","2","5","4","5","4","4","4","4","4","4","7","6","6","4","4","7","6","3","5","1","2","5","2","3","3","5","2","1","2","2","2","2","2","6","3","4","2","3","3","3","3","2","2","6","2","5","5","7","5","3","7","2","3","3","2","6","2","3","718982212988436480","王","322","Female","[""坏我"",""坏她"",""好我"",""好她""]","[""弱我"",""弱她"",""强我"",""强她""]","","","","","","","","","","","","","","","","","","","","","","","","","","","","","","feedback_test","","","","","","","","",""
"806","","j","psychophysics","14","266531","0.0-8.0-1.0-1.0-0.0-0.2","6","6","6","5","5","5","4","4","5","5","5","2","-2","0","-1","-1","-2","1","0","5","4","2","5","4","5","4","4","4","4","4","4","7","6","6","4","4","7","6","3","5","1","2","5","2","3","3","5","2","1","2","2","2","2","2","6","3","4","2","3","3","3","3","2","2","6","2","5","5","7","5","3","7","2","3","3","2","6","2","3","718982212988436480","王","322","Female","[""坏我"",""坏她"",""好我"",""好她""]","[""弱我"",""弱她"",""强我"",""强她""]","","","","","","","","nonmatch","","","","","","","","","","key","j","16.664485981308736","720","446","j","true","nonmatch","img/square.png","弱我","强她","prac_ALT2_ability","practice_ability","","","","","","","","",""
"null","<span style='color:GreenYellow; font-size: 70px;'>正确! </span>","null","html-keyboard-response","15","267046","0.0-8.0-1.0-1.0-0.0-1.2","6","6","6","5","5","5","4","4","5","5","5","2","-2","0","-1","-1","-2","1","0","5","4","2","5","4","5","4","4","4","4","4","4","7","6","6","4","4","7","6","3","5","1","2","5","2","3","3","5","2","1","2","2","2","2","2","6","3","4","2","3","3","3","3","2","2","6","2","5","5","7","5","3","7","2","3","3","2","6","2","3","718982212988436480","王","322","Female","[""坏我"",""坏她"",""好我"",""好她""]","[""弱我"",""弱她"",""强我"",""强她""]","","","","","","","","","","","","","","","","","","","","","","","","","","","","","","feedback_test","","","","","","","","",""
"1125","","f","psychophysics","16","269177","0.0-8.0-1.0-1.0-0.0-0.3","6","6","6","5","5","5","4","4","5","5","5","2","-2","0","-1","-1","-2","1","0","5","4","2","5","4","5","4","4","4","4","4","4","7","6","6","4","4","7","6","3","5","1","2","5","2","3","3","5","2","1","2","2","2","2","2","6","3","4","2","3","3","3","3","2","2","6","2","5","5","7","5","3","7","2","3","3","2","6","2","3","718982212988436480","王","322","Female","[""坏我"",""坏她"",""好我"",""好她""]","[""弱我"",""弱她"",""强我"",""强她""]","","","","","","","","match","","","","","","","","","","key","f","16.664285714285807","720","446","f","true","match","img/trapezoid.png","弱她","弱她","prac_ALT2_ability","practice_ability","","","","","","","","",""
"null","<span style='color:GreenYellow; font-size: 70px;'>正确! </span>","null","html-keyboard-response","17","269679","0.0-8.0-1.0-1.0-0.0-1.3","6","6","6","5","5","5","4","4","5","5","5","2","-2","0","-1","-1","-2","1","0","5","4","2","5","4","5","4","4","4","4","4","4","7","6","6","4","4","7","6","3","5","1","2","5","2","3","3","5","2","1","2","2","2","2","2","6","3","4","2","3","3","3","3","2","2","6","2","5","5","7","5","3","7","2","3","3","2","6","2","3","718982212988436480","王","322","Female","[""坏我"",""坏她"",""好我"",""好她""]","[""弱我"",""弱她"",""强我"",""强她""]","","","","","","","","","","","","","","","","","","","","","","","","","","","","","","feedback_test","","","","","","","","",""
"847","","f","psychophysics","18","271664","0.0-8.0-1.0-1.0-0.0-0.4","6","6","6","5","5","5","4","4","5","5","5","2","-2","0","-1","-1","-2","1","0","5","4","2","5","4","5","4","4","4","4","4","4","7","6","6","4","4","7","6","3","5","1","2","5","2","3","3","5","2","1","2","2","2","2","2","6","3","4","2","3","3","3","3","2","2","6","2","5","5","7","5","3","7","2","3","3","2","6","2","3","718982212988436480","王","322","Female","[""坏我"",""坏她"",""好我"",""好她""]","[""弱我"",""弱她"",""强我"",""强她""]","","","","","","","","match","","","","","","","","","","key","f","16.662393162393162","720","446","f","true","match","img/trapezoid.png","弱她","弱她","prac_ALT2_ability","practice_ability","","","","","","","","",""
"null","<span style='color:GreenYellow; font-size: 70px;'>正确! </span>","null","html-keyboard-response","19","272168","0.0-8.0-1.0-1.0-0.0-1.4","6","6","6","5","5","5","4","4","5","5","5","2","-2","0","-1","-1","-2","1","0","5","4","2","5","4","5","4","4","4","4","4","4","7","6","6","4","4","7","6","3","5","1","2","5","2","3","3","5","2","1","2","2","2","2","2","6","3","4","2","3","3","3","3","2","2","6","2","5","5","7","5","3","7","2","3","3","2","6","2","3","718982212988436480","王","322","Female","[""坏我"",""坏她"",""好我"",""好她""]","[""弱我"",""弱她"",""强我"",""强她""]","","","","","","","","","","","","","","","","","","","","","","","","","","","","","","feedback_test","","","","","","","","",""
"653","","f","psychophysics","20","273835","0.0-8.0-1.0-1.0-0.0-0.5","6","6","6","5","5","5","4","4","5","5","5","2","-2","0","-1","-1","-2","1","0","5","4","2","5","4","5","4","4","4","4","4","4","7","6","6","4","4","7","6","3","5","1","2","5","2","3","3","5","2","1","2","2","2","2","2","6","3","4","2","3","3","3","3","2","2","6","2","5","5","7","5","3","7","2","3","3","2","6","2","3","718982212988436480","王","322","Female","[""坏我"",""坏她"",""好我"",""好她""]","[""弱我"",""弱她"",""强我"",""强她""]","","","","","","","","match","","","","","","","","","","key","f","16.66244897959167","720","446","f","true","match","img/square.png","强她","强她","prac_ALT2_ability","practice_ability","","","","","","","","",""
"null","<span style='color:GreenYellow; font-size: 70px;'>正确! </span>","null","html-keyboard-response","21","274341","0.0-8.0-1.0-1.0-0.0-1.5","6","6","6","5","5","5","4","4","5","5","5","2","-2","0","-1","-1","-2","1","0","5","4","2","5","4","5","4","4","4","4","4","4","7","6","6","4","4","7","6","3","5","1","2","5","2","3","3","5","2","1","2","2","2","2","2","6","3","4","2","3","3","3","3","2","2","6","2","5","5","7","5","3","7","2","3","3","2","6","2","3","718982212988436480","王","322","Female","[""坏我"",""坏她"",""好我"",""好她""]","[""弱我"",""弱她"",""强我"",""强她""]","","","","","","","","","","","","","","","","","","","","","","","","","","","","","","feedback_test","","","","","","","","",""
"1160","","f","psychophysics","22","276508","0.0-8.0-1.0-1.0-0.0-0.6","6","6","6","5","5","5","4","4","5","5","5","2","-2","0","-1","-1","-2","1","0","5","4","2","5","4","5","4","4","4","4","4","4","7","6","6","4","4","7","6","3","5","1","2","5","2","3","3","5","2","1","2","2","2","2","2","6","3","4","2","3","3","3","3","2","2","6","2","5","5","7","5","3","7","2","3","3","2","6","2","3","718982212988436480","王","322","Female","[""坏我"",""坏她"",""好我"",""好她""]","[""弱我"",""弱她"",""强我"",""强她""]","","","","","","","","match","","","","","","","","","","key","f","16.663906249999854","720","446","f","true","match","img/pentagon.png","弱我","弱我","prac_ALT2_ability","practice_ability","","","","","","","","",""
"null","<span style='color:GreenYellow; font-size: 70px;'>正确! </span>","null","html-keyboard-response","23","277013","0.0-8.0-1.0-1.0-0.0-1.6","6","6","6","5","5","5","4","4","5","5","5","2","-2","0","-1","-1","-2","1","0","5","4","2","5","4","5","4","4","4","4","4","4","7","6","6","4","4","7","6","3","5","1","2","5","2","3","3","5","2","1","2","2","2","2","2","6","3","4","2","3","3","3","3","2","2","6","2","5","5","7","5","3","7","2","3","3","2","6","2","3","718982212988436480","王","322","Female","[""坏我"",""坏她"",""好我"",""好她""]","[""弱我"",""弱她"",""强我"",""强她""]","","","","","","","","","","","","","","","","","","","","","","","","","","","","","","feedback_test","","","","","","","","",""
"1019","","j","psychophysics","24","279044","0.0-8.0-1.0-1.0-0.0-0.7","6","6","6","5","5","5","4","4","5","5","5","2","-2","0","-1","-1","-2","1","0","5","4","2","5","4","5","4","4","4","4","4","4","7","6","6","4","4","7","6","3","5","1","2","5","2","3","3","5","2","1","2","2","2","2","2","6","3","4","2","3","3","3","3","2","2","6","2","5","5","7","5","3","7","2","3","3","2","6","2","3","718982212988436480","王","322","Female","[""坏我"",""坏她"",""好我"",""好她""]","[""弱我"",""弱她"",""强我"",""强她""]","","","","","","","","nonmatch","","","","","","","","","","key","j","16.664666666666744","720","446","j","true","nonmatch","img/pentagon.png","强她","弱我","prac_ALT2_ability","practice_ability","","","","","","","","",""
"null","<span style='color:GreenYellow; font-size: 70px;'>正确! </span>","null","html-keyboard-response","25","279581","0.0-8.0-1.0-1.0-0.0-1.7","6","6","6","5","5","5","4","4","5","5","5","2","-2","0","-1","-1","-2","1","0","5","4","2","5","4","5","4","4","4","4","4","4","7","6","6","4","4","7","6","3","5","1","2","5","2","3","3","5","2","1","2","2","2","2","2","6","3","4","2","3","3","3","3","2","2","6","2","5","5","7","5","3","7","2","3","3","2","6","2","3","718982212988436480","王","322","Female","[""坏我"",""坏她"",""好我"",""好她""]","[""弱我"",""弱她"",""强我"",""强她""]","","","","","","","","","","","","","","","","","","","","","","","","","","","","","","feedback_test","","","","","","","","",""
"691","","j","psychophysics","26","281282","0.0-8.0-1.0-1.0-0.0-0.8","6","6","6","5","5","5","4","4","5","5","5","2","-2","0","-1","-1","-2","1","0","5","4","2","5","4","5","4","4","4","4","4","4","7","6","6","4","4","7","6","3","5","1","2","5","2","3","3","5","2","1","2","2","2","2","2","6","3","4","2","3","3","3","3","2","2","6","2","5","5","7","5","3","7","2","3","3","2","6","2","3","718982212988436480","王","322","Female","[""坏我"",""坏她"",""好我"",""好她""]","[""弱我"",""弱她"",""强我"",""强她""]","","","","","","","","nonmatch","","","","","","","","","","key","j","16.664199999999838","720","446","j","true","nonmatch","img/square.png","强我","强她","prac_ALT2_ability","practice_ability","","","","","","","","",""
"null","<span style='color:GreenYellow; font-size: 70px;'>正确! </span>","null","html-keyboard-response","27","281785","0.0-8.0-1.0-1.0-0.0-1.8","6","6","6","5","5","5","4","4","5","5","5","2","-2","0","-1","-1","-2","1","0","5","4","2","5","4","5","4","4","4","4","4","4","7","6","6","4","4","7","6","3","5","1","2","5","2","3","3","5","2","1","2","2","2","2","2","6","3","4","2","3","3","3","3","2","2","6","2","5","5","7","5","3","7","2","3","3","2","6","2","3","718982212988436480","王","322","Female","[""坏我"",""坏她"",""好我"",""好她""]","[""弱我"",""弱她"",""强我"",""强她""]","","","","","","","","","","","","","","","","","","","","","","","","","","","","","","feedback_test","","","","","","","","",""
"912","","f","psychophysics","28","283707","0.0-8.0-1.0-1.0-0.0-0.9","6","6","6","5","5","5","4","4","5","5","5","2","-2","0","-1","-1","-2","1","0","5","4","2","5","4","5","4","4","4","4","4","4","7","6","6","4","4","7","6","3","5","1","2","5","2","3","3","5","2","1","2","2","2","2","2","6","3","4","2","3","3","3","3","2","2","6","2","5","5","7","5","3","7","2","3","3","2","6","2","3","718982212988436480","王","322","Female","[""坏我"",""坏她"",""好我"",""好她""]","[""弱我"",""弱她"",""强我"",""强她""]","","","","","","","","match","","","","","","","","","","key","f","16.66403508771889","720","446","f","true","match","img/trapezoid.png","弱她","弱她","prac_ALT2_ability","practice_ability","","","","","","","","",""
"null","<span style='color:GreenYellow; font-size: 70px;'>正确! </span>","null","html-keyboard-response","29","284213","0.0-8.0-1.0-1.0-0.0-1.9","6","6","6","5","5","5","4","4","5","5","5","2","-2","0","-1","-1","-2","1","0","5","4","2","5","4","5","4","4","4","4","4","4","7","6","6","4","4","7","6","3","5","1","2","5","2","3","3","5","2","1","2","2","2","2","2","6","3","4","2","3","3","3","3","2","2","6","2","5","5","7","5","3","7","2","3","3","2","6","2","3","718982212988436480","王","322","Female","[""坏我"",""坏她"",""好我"",""好她""]","[""弱我"",""弱她"",""强我"",""强她""]","","","","","","","","","","","","","","","","","","","","","","","","","","","","","","feedback_test","","","","","","","","",""
"1007","","j","psychophysics","30","286228","0.0-8.0-1.0-1.0-0.0-0.10","6","6","6","5","5","5","4","4","5","5","5","2","-2","0","-1","-1","-2","1","0","5","4","2","5","4","5","4","4","4","4","4","4","7","6","6","4","4","7","6","3","5","1","2","5","2","3","3","5","2","1","2","2","2","2","2","6","3","4","2","3","3","3","3","2","2","6","2","5","5","7","5","3","7","2","3","3","2","6","2","3","718982212988436480","王","322","Female","[""坏我"",""坏她"",""好我"",""好她""]","[""弱我"",""弱她"",""强我"",""强她""]","","","","","","","","nonmatch","","","","","","","","","","key","j","16.664705882352745","720","446","j","true","nonmatch","img/pentagon.png","强我","弱我","prac_ALT2_ability","practice_ability","","","","","","","","",""
"null","<span style='color:GreenYellow; font-size: 70px;'>正确! </span>","null","html-keyboard-response","31","286729","0.0-8.0-1.0-1.0-0.0-1.10","6","6","6","5","5","5","4","4","5","5","5","2","-2","0","-1","-1","-2","1","0","5","4","2","5","4","5","4","4","4","4","4","4","7","6","6","4","4","7","6","3","5","1","2","5","2","3","3","5","2","1","2","2","2","2","2","6","3","4","2","3","3","3","3","2","2","6","2","5","5","7","5","3","7","2","3","3","2","6","2","3","718982212988436480","王","322","Female","[""坏我"",""坏她"",""好我"",""好她""]","[""弱我"",""弱她"",""强我"",""强她""]","","","","","","","","","","","","","","","","","","","","","","","","","","","","","","feedback_test","","","","","","","","",""
"614","","f","psychophysics","32","288354","0.0-8.0-1.0-1.0-0.0-0.11","6","6","6","5","5","5","4","4","5","5","5","2","-2","0","-1","-1","-2","1","0","5","4","2","5","4","5","4","4","4","4","4","4","7","6","6","4","4","7","6","3","5","1","2","5","2","3","3","5","2","1","2","2","2","2","2","6","3","4","2","3","3","3","3","2","2","6","2","5","5","7","5","3","7","2","3","3","2","6","2","3","718982212988436480","王","322","Female","[""坏我"",""坏她"",""好我"",""好她""]","[""弱我"",""弱她"",""强我"",""强她""]","","","","","","","","match","","","","","","","","","","key","f","16.665000000000266","720","446","f","true","match","img/ellipse.png","强我","强我","prac_ALT2_ability","practice_ability","","","","","","","","",""
"null","<span style='color:GreenYellow; font-size: 70px;'>正确! </span>","null","html-keyboard-response","33","288895","0.0-8.0-1.0-1.0-0.0-1.11","6","6","6","5","5","5","4","4","5","5","5","2","-2","0","-1","-1","-2","1","0","5","4","2","5","4","5","4","4","4","4","4","4","7","6","6","4","4","7","6","3","5","1","2","5","2","3","3","5","2","1","2","2","2","2","2","6","3","4","2","3","3","3","3","2","2","6","2","5","5","7","5","3","7","2","3","3","2","6","2","3","718982212988436480","王","322","Female","[""坏我"",""坏她"",""好我"",""好她""]","[""弱我"",""弱她"",""强我"",""强她""]","","","","","","","","","","","","","","","","","","","","","","","","","","","","","","feedback_test","","","","","","","","",""
"741","","f","psychophysics","34","290646","0.0-8.0-1.0-1.0-0.0-0.12","6","6","6","5","5","5","4","4","5","5","5","2","-2","0","-1","-1","-2","1","0","5","4","2","5","4","5","4","4","4","4","4","4","7","6","6","4","4","7","6","3","5","1","2","5","2","3","3","5","2","1","2","2","2","2","2","6","3","4","2","3","3","3","3","2","2","6","2","5","5","7","5","3","7","2","3","3","2","6","2","3","718982212988436480","王","322","Female","[""坏我"",""坏她"",""好我"",""好她""]","[""弱我"",""弱她"",""强我"",""强她""]","","","","","","","","match","","","","","","","","","","key","f","16.662884615384637","720","446","f","true","match","img/ellipse.png","强我","强我","prac_ALT2_ability","practice_ability","","","","","","","","",""
"null","<span style='color:GreenYellow; font-size: 70px;'>正确! </span>","null","html-keyboard-response","35","291159","0.0-8.0-1.0-1.0-0.0-1.12","6","6","6","5","5","5","4","4","5","5","5","2","-2","0","-1","-1","-2","1","0","5","4","2","5","4","5","4","4","4","4","4","4","7","6","6","4","4","7","6","3","5","1","2","5","2","3","3","5","2","1","2","2","2","2","2","6","3","4","2","3","3","3","3","2","2","6","2","5","5","7","5","3","7","2","3","3","2","6","2","3","718982212988436480","王","322","Female","[""坏我"",""坏她"",""好我"",""好她""]","[""弱我"",""弱她"",""强我"",""强她""]","","","","","","","","","","","","","","","","","","","","","","","","","","","","","","feedback_test","","","","","","","","",""
"534","","j","psychophysics","36","292813","0.0-8.0-1.0-1.0-0.0-0.13","6","6","6","5","5","5","4","4","5","5","5","2","-2","0","-1","-1","-2","1","0","5","4","2","5","4","5","4","4","4","4","4","4","7","6","6","4","4","7","6","3","5","1","2","5","2","3","3","5","2","1","2","2","2","2","2","6","3","4","2","3","3","3","3","2","2","6","2","5","5","7","5","3","7","2","3","3","2","6","2","3","718982212988436480","王","322","Female","[""坏我"",""坏她"",""好我"",""好她""]","[""弱我"",""弱她"",""强我"",""强她""]","","","","","","","","nonmatch","","","","","","","","","","key","j","16.665102040816254","720","446","j","true","nonmatch","img/trapezoid.png","弱我","弱她","prac_ALT2_ability","practice_ability","","","","","","","","",""
"null","<span style='color:GreenYellow; font-size: 70px;'>正确! </span>","null","html-keyboard-response","37","293318","0.0-8.0-1.0-1.0-0.0-1.13","6","6","6","5","5","5","4","4","5","5","5","2","-2","0","-1","-1","-2","1","0","5","4","2","5","4","5","4","4","4","4","4","4","7","6","6","4","4","7","6","3","5","1","2","5","2","3","3","5","2","1","2","2","2","2","2","6","3","4","2","3","3","3","3","2","2","6","2","5","5","7","5","3","7","2","3","3","2","6","2","3","718982212988436480","王","322","Female","[""坏我"",""坏她"",""好我"",""好她""]","[""弱我"",""弱她"",""强我"",""强她""]","","","","","","","","","","","","","","","","","","","","","","","","","","","","","","feedback_test","","","","","","","","",""
"768","","j","psychophysics","38","295093","0.0-8.0-1.0-1.0-0.0-0.14","6","6","6","5","5","5","4","4","5","5","5","2","-2","0","-1","-1","-2","1","0","5","4","2","5","4","5","4","4","4","4","4","4","7","6","6","4","4","7","6","3","5","1","2","5","2","3","3","5","2","1","2","2","2","2","2","6","3","4","2","3","3","3","3","2","2","6","2","5","5","7","5","3","7","2","3","3","2","6","2","3","718982212988436480","王","322","Female","[""坏我"",""坏她"",""好我"",""好她""]","[""弱我"",""弱她"",""强我"",""强她""]","","","","","","","","nonmatch","","","","","","","","","","key","j","16.664571428571694","720","446","f","false","match","img/pentagon.png","弱我","弱我","prac_ALT2_ability","practice_ability","","","","","","","","",""
"null","<span style='color:red; font-size: 70px;'>错误! </span>","null","html-keyboard-response","39","295600","0.0-8.0-1.0-1.0-0.0-1.14","6","6","6","5","5","5","4","4","5","5","5","2","-2","0","-1","-1","-2","1","0","5","4","2","5","4","5","4","4","4","4","4","4","7","6","6","4","4","7","6","3","5","1","2","5","2","3","3","5","2","1","2","2","2","2","2","6","3","4","2","3","3","3","3","2","2","6","2","5","5","7","5","3","7","2","3","3","2","6","2","3","718982212988436480","王","322","Female","[""坏我"",""坏她"",""好我"",""好她""]","[""弱我"",""弱她"",""强我"",""强她""]","","","","","","","","","","","","","","","","","","","","","","","","","","","","","","feedback_test","","","","","","","","",""
"690","","f","psychophysics","40","297299","0.0-8.0-1.0-1.0-0.0-0.15","6","6","6","5","5","5","4","4","5","5","5","2","-2","0","-1","-1","-2","1","0","5","4","2","5","4","5","4","4","4","4","4","4","7","6","6","4","4","7","6","3","5","1","2","5","2","3","3","5","2","1","2","2","2","2","2","6","3","4","2","3","3","3","3","2","2","6","2","5","5","7","5","3","7","2","3","3","2","6","2","3","718982212988436480","王","322","Female","[""坏我"",""坏她"",""好我"",""好她""]","[""弱我"",""弱她"",""强我"",""强她""]","","","","","","","","match","","","","","","","","","","key","f","16.665599999999976","720","446","f","true","match","img/ellipse.png","强我","强我","prac_ALT2_ability","practice_ability","","","","","","","","",""
"null","<span style='color:GreenYellow; font-size: 70px;'>正确! </span>","null","html-keyboard-response","41","297816","0.0-8.0-1.0-1.0-0.0-1.15","6","6","6","5","5","5","4","4","5","5","5","2","-2","0","-1","-1","-2","1","0","5","4","2","5","4","5","4","4","4","4","4","4","7","6","6","4","4","7","6","3","5","1","2","5","2","3","3","5","2","1","2","2","2","2","2","6","3","4","2","3","3","3","3","2","2","6","2","5","5","7","5","3","7","2","3","3","2","6","2","3","718982212988436480","王","322","Female","[""坏我"",""坏她"",""好我"",""好她""]","[""弱我"",""弱她"",""强我"",""强她""]","","","","","","","","","","","","","","","","","","","","","","","","","","","","","","feedback_test","","","","","","","","",""
"803","","j","psychophysics","42","299630","0.0-8.0-1.0-1.0-0.0-0.16","6","6","6","5","5","5","4","4","5","5","5","2","-2","0","-1","-1","-2","1","0","5","4","2","5","4","5","4","4","4","4","4","4","7","6","6","4","4","7","6","3","5","1","2","5","2","3","3","5","2","1","2","2","2","2","2","6","3","4","2","3","3","3","3","2","2","6","2","5","5","7","5","3","7","2","3","3","2","6","2","3","718982212988436480","王","322","Female","[""坏我"",""坏她"",""好我"",""好她""]","[""弱我"",""弱她"",""强我"",""强她""]","","","","","","","","nonmatch","","","","","","","","","","key","j","16.66467289719622","720","446","j","true","nonmatch","img/ellipse.png","弱她","强我","prac_ALT2_ability","practice_ability","","","","","","","","",""
"null","<span style='color:GreenYellow; font-size: 70px;'>正确! </span>","null","html-keyboard-response","43","300148","0.0-8.0-1.0-1.0-0.0-1.16","6","6","6","5","5","5","4","4","5","5","5","2","-2","0","-1","-1","-2","1","0","5","4","2","5","4","5","4","4","4","4","4","4","7","6","6","4","4","7","6","3","5","1","2","5","2","3","3","5","2","1","2","2","2","2","2","6","3","4","2","3","3","3","3","2","2","6","2","5","5","7","5","3","7","2","3","3","2","6","2","3","718982212988436480","王","322","Female","[""坏我"",""坏她"",""好我"",""好她""]","[""弱我"",""弱她"",""强我"",""强她""]","","","","","","","","","","","","","","","","","","","","","","","","","","","","","","feedback_test","","","","","","","","",""
"1037","","j","psychophysics","44","302191","0.0-8.0-1.0-1.0-0.0-0.17","6","6","6","5","5","5","4","4","5","5","5","2","-2","0","-1","-1","-2","1","0","5","4","2","5","4","5","4","4","4","4","4","4","7","6","6","4","4","7","6","3","5","1","2","5","2","3","3","5","2","1","2","2","2","2","2","6","3","4","2","3","3","3","3","2","2","6","2","5","5","7","5","3","7","2","3","3","2","6","2","3","718982212988436480","王","322","Female","[""坏我"",""坏她"",""好我"",""好她""]","[""弱我"",""弱她"",""强我"",""强她""]","","","","","","","","nonmatch","","","","","","","","","","key","j","16.666446280991853","720","446","j","true","nonmatch","img/trapezoid.png","强她","弱她","prac_ALT2_ability","practice_ability","","","","","","","","",""
"null","<span style='color:GreenYellow; font-size: 70px;'>正确! </span>","null","html-keyboard-response","45","302697","0.0-8.0-1.0-1.0-0.0-1.17","6","6","6","5","5","5","4","4","5","5","5","2","-2","0","-1","-1","-2","1","0","5","4","2","5","4","5","4","4","4","4","4","4","7","6","6","4","4","7","6","3","5","1","2","5","2","3","3","5","2","1","2","2","2","2","2","6","3","4","2","3","3","3","3","2","2","6","2","5","5","7","5","3","7","2","3","3","2","6","2","3","718982212988436480","王","322","Female","[""坏我"",""坏她"",""好我"",""好她""]","[""弱我"",""弱她"",""强我"",""强她""]","","","","","","","","","","","","","","","","","","","","","","","","","","","","","","feedback_test","","","","","","","","",""
"668","","f","psychophysics","46","304372","0.0-8.0-1.0-1.0-0.0-0.18","6","6","6","5","5","5","4","4","5","5","5","2","-2","0","-1","-1","-2","1","0","5","4","2","5","4","5","4","4","4","4","4","4","7","6","6","4","4","7","6","3","5","1","2","5","2","3","3","5","2","1","2","2","2","2","2","6","3","4","2","3","3","3","3","2","2","6","2","5","5","7","5","3","7","2","3","3","2","6","2","3","718982212988436480","王","322","Female","[""坏我"",""坏她"",""好我"",""好她""]","[""弱我"",""弱她"",""强我"",""强她""]","","","","","","","","match","","","","","","","","","","key","f","16.667070707070497","720","446","j","false","nonmatch","img/square.png","弱她","强她","prac_ALT2_ability","practice_ability","","","","","","","","",""
"null","<span style='color:red; font-size: 70px;'>错误! </span>","null","html-keyboard-response","47","304874","0.0-8.0-1.0-1.0-0.0-1.18","6","6","6","5","5","5","4","4","5","5","5","2","-2","0","-1","-1","-2","1","0","5","4","2","5","4","5","4","4","4","4","4","4","7","6","6","4","4","7","6","3","5","1","2","5","2","3","3","5","2","1","2","2","2","2","2","6","3","4","2","3","3","3","3","2","2","6","2","5","5","7","5","3","7","2","3","3","2","6","2","3","718982212988436480","王","322","Female","[""坏我"",""坏她"",""好我"",""好她""]","[""弱我"",""弱她"",""强我"",""强她""]","","","","","","","","","","","","","","","","","","","","","","","","","","","","","","feedback_test","","","","","","","","",""
"727","","f","psychophysics","48","306608","0.0-8.0-1.0-1.0-0.0-0.19","6","6","6","5","5","5","4","4","5","5","5","2","-2","0","-1","-1","-2","1","0","5","4","2","5","4","5","4","4","4","4","4","4","7","6","6","4","4","7","6","3","5","1","2","5","2","3","3","5","2","1","2","2","2","2","2","6","3","4","2","3","3","3","3","2","2","6","2","5","5","7","5","3","7","2","3","3","2","6","2","3","718982212988436480","王","322","Female","[""坏我"",""坏她"",""好我"",""好她""]","[""弱我"",""弱她"",""强我"",""强她""]","","","","","","","","match","","","","","","","","","","key","f","16.664705882352827","720","446","f","true","match","img/square.png","强她","强她","prac_ALT2_ability","practice_ability","","","","","","","","",""
"null","<span style='color:GreenYellow; font-size: 70px;'>正确! </span>","null","html-keyboard-response","49","307142","0.0-8.0-1.0-1.0-0.0-1.19","6","6","6","5","5","5","4","4","5","5","5","2","-2","0","-1","-1","-2","1","0","5","4","2","5","4","5","4","4","4","4","4","4","7","6","6","4","4","7","6","3","5","1","2","5","2","3","3","5","2","1","2","2","2","2","2","6","3","4","2","3","3","3","3","2","2","6","2","5","5","7","5","3","7","2","3","3","2","6","2","3","718982212988436480","王","322","Female","[""坏我"",""坏她"",""好我"",""好她""]","[""弱我"",""弱她"",""强我"",""强她""]","","","","","","","","","","","","","","","","","","","","","","","","","","","","","","feedback_test","","","","","","","","",""
"643","","j","psychophysics","50","308794","0.0-8.0-1.0-1.0-0.0-0.20","6","6","6","5","5","5","4","4","5","5","5","2","-2","0","-1","-1","-2","1","0","5","4","2","5","4","5","4","4","4","4","4","4","7","6","6","4","4","7","6","3","5","1","2","5","2","3","3","5","2","1","2","2","2","2","2","6","3","4","2","3","3","3","3","2","2","6","2","5","5","7","5","3","7","2","3","3","2","6","2","3","718982212988436480","王","322","Female","[""坏我"",""坏她"",""好我"",""好她""]","[""弱我"",""弱她"",""强我"",""强她""]","","","","","","","","nonmatch","","","","","","","","","","key","j","16.66432989690724","720","446","j","true","nonmatch","img/pentagon.png","弱她","弱我","prac_ALT2_ability","practice_ability","","","","","","","","",""
"null","<span style='color:GreenYellow; font-size: 70px;'>正确! </span>","null","html-keyboard-response","51","309302","0.0-8.0-1.0-1.0-0.0-1.20","6","6","6","5","5","5","4","4","5","5","5","2","-2","0","-1","-1","-2","1","0","5","4","2","5","4","5","4","4","4","4","4","4","7","6","6","4","4","7","6","3","5","1","2","5","2","3","3","5","2","1","2","2","2","2","2","6","3","4","2","3","3","3","3","2","2","6","2","5","5","7","5","3","7","2","3","3","2","6","2","3","718982212988436480","王","322","Female","[""坏我"",""坏她"",""好我"",""好她""]","[""弱我"",""弱她"",""强我"",""强她""]","","","","","","","","","","","","","","","","","","","","","","","","","","","","","","feedback_test","","","","","","","","",""
"1088","","f","psychophysics","52","311402","0.0-8.0-1.0-1.0-0.0-0.21","6","6","6","5","5","5","4","4","5","5","5","2","-2","0","-1","-1","-2","1","0","5","4","2","5","4","5","4","4","4","4","4","4","7","6","6","4","4","7","6","3","5","1","2","5","2","3","3","5","2","1","2","2","2","2","2","6","3","4","2","3","3","3","3","2","2","6","2","5","5","7","5","3","7","2","3","3","2","6","2","3","718982212988436480","王","322","Female","[""坏我"",""坏她"",""好我"",""好她""]","[""弱我"",""弱她"",""强我"",""强她""]","","","","","","","","match","","","","","","","","","","key","f","16.663064516129275","720","446","f","true","match","img/pentagon.png","弱我","弱我","prac_ALT2_ability","practice_ability","","","","","","","","",""
"null","<span style='color:GreenYellow; font-size: 70px;'>正确! </span>","null","html-keyboard-response","53","311914","0.0-8.0-1.0-1.0-0.0-1.21","6","6","6","5","5","5","4","4","5","5","5","2","-2","0","-1","-1","-2","1","0","5","4","2","5","4","5","4","4","4","4","4","4","7","6","6","4","4","7","6","3","5","1","2","5","2","3","3","5","2","1","2","2","2","2","2","6","3","4","2","3","3","3","3","2","2","6","2","5","5","7","5","3","7","2","3","3","2","6","2","3","718982212988436480","王","322","Female","[""坏我"",""坏她"",""好我"",""好她""]","[""弱我"",""弱她"",""强我"",""强她""]","","","","","","","","","","","","","","","","","","","","","","","","","","","","","","feedback_test","","","","","","","","",""
"667","","j","psychophysics","54","313592","0.0-8.0-1.0-1.0-0.0-0.22","6","6","6","5","5","5","4","4","5","5","5","2","-2","0","-1","-1","-2","1","0","5","4","2","5","4","5","4","4","4","4","4","4","7","6","6","4","4","7","6","3","5","1","2","5","2","3","3","5","2","1","2","2","2","2","2","6","3","4","2","3","3","3","3","2","2","6","2","5","5","7","5","3","7","2","3","3","2","6","2","3","718982212988436480","王","322","Female","[""坏我"",""坏她"",""好我"",""好她""]","[""弱我"",""弱她"",""强我"",""强她""]","","","","","","","","nonmatch","","","","","","","","","","key","j","16.663400000000255","720","446","f","false","match","img/square.png","强她","强她","prac_ALT2_ability","practice_ability","","","","","","","","",""
"null","<span style='color:red; font-size: 70px;'>错误! </span>","null","html-keyboard-response","55","314105","0.0-8.0-1.0-1.0-0.0-1.22","6","6","6","5","5","5","4","4","5","5","5","2","-2","0","-1","-1","-2","1","0","5","4","2","5","4","5","4","4","4","4","4","4","7","6","6","4","4","7","6","3","5","1","2","5","2","3","3","5","2","1","2","2","2","2","2","6","3","4","2","3","3","3","3","2","2","6","2","5","5","7","5","3","7","2","3","3","2","6","2","3","718982212988436480","王","322","Female","[""坏我"",""坏她"",""好我"",""好她""]","[""弱我"",""弱她"",""强我"",""强她""]","","","","","","","","","","","","","","","","","","","","","","","","","","","","","","feedback_test","","","","","","","","",""
"677","","j","psychophysics","56","315915","0.0-8.0-1.0-1.0-0.0-0.23","6","6","6","5","5","5","4","4","5","5","5","2","-2","0","-1","-1","-2","1","0","5","4","2","5","4","5","4","4","4","4","4","4","7","6","6","4","4","7","6","3","5","1","2","5","2","3","3","5","2","1","2","2","2","2","2","6","3","4","2","3","3","3","3","2","2","6","2","5","5","7","5","3","7","2","3","3","2","6","2","3","718982212988436480","王","322","Female","[""坏我"",""坏她"",""好我"",""好她""]","[""弱我"",""弱她"",""强我"",""强她""]","","","","","","","","nonmatch","","","","","","","","","","key","j","16.65277777777778","720","446","j","true","nonmatch","img/trapezoid.png","强我","弱她","prac_ALT2_ability","practice_ability","","","","","","","","",""
"null","<span style='color:GreenYellow; font-size: 70px;'>正确! </span>","null","html-keyboard-response","57","316417","0.0-8.0-1.0-1.0-0.0-1.23","6","6","6","5","5","5","4","4","5","5","5","2","-2","0","-1","-1","-2","1","0","5","4","2","5","4","5","4","4","4","4","4","4","7","6","6","4","4","7","6","3","5","1","2","5","2","3","3","5","2","1","2","2","2","2","2","6","3","4","2","3","3","3","3","2","2","6","2","5","5","7","5","3","7","2","3","3","2","6","2","3","718982212988436480","王","322","Female","[""坏我"",""坏她"",""好我"",""好她""]","[""弱我"",""弱她"",""强我"",""强她""]","","","","","","","","","","","","","","","","","","","","","","","","","","","","","","feedback_test","","","","","","","","",""
"871","","j","psychophysics","58","318299","0.0-8.0-1.0-1.0-0.0-0.24","6","6","6","5","5","5","4","4","5","5","5","2","-2","0","-1","-1","-2","1","0","5","4","2","5","4","5","4","4","4","4","4","4","7","6","6","4","4","7","6","3","5","1","2","5","2","3","3","5","2","1","2","2","2","2","2","6","3","4","2","3","3","3","3","2","2","6","2","5","5","7","5","3","7","2","3","3","2","6","2","3","718982212988436480","王","322","Female","[""坏我"",""坏她"",""好我"",""好她""]","[""弱我"",""弱她"",""强我"",""强她""]","","","","","","","","nonmatch","","","","","","","","","","key","j","16.66288288288303","720","446","j","true","nonmatch","img/square.png","弱她","强她","prac_ALT2_ability","practice_ability","","","","","","","","",""
"null","<span style='color:GreenYellow; font-size: 70px;'>正确! </span>","null","html-keyboard-response","59","318812","0.0-8.0-1.0-1.0-0.0-1.24","6","6","6","5","5","5","4","4","5","5","5","2","-2","0","-1","-1","-2","1","0","5","4","2","5","4","5","4","4","4","4","4","4","7","6","6","4","4","7","6","3","5","1","2","5","2","3","3","5","2","1","2","2","2","2","2","6","3","4","2","3","3","3","3","2","2","6","2","5","5","7","5","3","7","2","3","3","2","6","2","3","718982212988436480","王","322","Female","[""坏我"",""坏她"",""好我"",""好她""]","[""弱我"",""弱她"",""强我"",""强她""]","","","","","","","","","","","","","","","","","","","","","","","","","","","","","","feedback_test","","","","","","","","",""
"828","","j","psychophysics","60","320647","0.0-8.0-1.0-1.0-0.0-0.25","6","6","6","5","5","5","4","4","5","5","5","2","-2","0","-1","-1","-2","1","0","5","4","2","5","4","5","4","4","4","4","4","4","7","6","6","4","4","7","6","3","5","1","2","5","2","3","3","5","2","1","2","2","2","2","2","6","3","4","2","3","3","3","3","2","2","6","2","5","5","7","5","3","7","2","3","3","2","6","2","3","718982212988436480","王","322","Female","[""坏我"",""坏她"",""好我"",""好她""]","[""弱我"",""弱她"",""强我"",""强她""]","","","","","","","","nonmatch","","","","","","","","","","key","j","16.66462962962989","720","446","j","true","nonmatch","img/trapezoid.png","弱我","弱她","prac_ALT2_ability","practice_ability","","","","","","","","",""
"null","<span style='color:GreenYellow; font-size: 70px;'>正确! </span>","null","html-keyboard-response","61","321150","0.0-8.0-1.0-1.0-0.0-1.25","6","6","6","5","5","5","4","4","5","5","5","2","-2","0","-1","-1","-2","1","0","5","4","2","5","4","5","4","4","4","4","4","4","7","6","6","4","4","7","6","3","5","1","2","5","2","3","3","5","2","1","2","2","2","2","2","6","3","4","2","3","3","3","3","2","2","6","2","5","5","7","5","3","7","2","3","3","2","6","2","3","718982212988436480","王","322","Female","[""坏我"",""坏她"",""好我"",""好她""]","[""弱我"",""弱她"",""强我"",""强她""]","","","","","","","","","","","","","","","","","","","","","","","","","","","","","","feedback_test","","","","","","","","",""
"832","","j","psychophysics","62","322994","0.0-8.0-1.0-1.0-0.0-0.26","6","6","6","5","5","5","4","4","5","5","5","2","-2","0","-1","-1","-2","1","0","5","4","2","5","4","5","4","4","4","4","4","4","7","6","6","4","4","7","6","3","5","1","2","5","2","3","3","5","2","1","2","2","2","2","2","6","3","4","2","3","3","3","3","2","2","6","2","5","5","7","5","3","7","2","3","3","2","6","2","3","718982212988436480","王","322","Female","[""坏我"",""坏她"",""好我"",""好她""]","[""弱我"",""弱她"",""强我"",""强她""]","","","","","","","","nonmatch","","","","","","","","","","key","j","16.66532110091707","720","446","j","true","nonmatch","img/ellipse.png","强她","强我","prac_ALT2_ability","practice_ability","","","","","","","","",""
"null","<span style='color:GreenYellow; font-size: 70px;'>正确! </span>","null","html-keyboard-response","63","323501","0.0-8.0-1.0-1.0-0.0-1.26","6","6","6","5","5","5","4","4","5","5","5","2","-2","0","-1","-1","-2","1","0","5","4","2","5","4","5","4","4","4","4","4","4","7","6","6","4","4","7","6","3","5","1","2","5","2","3","3","5","2","1","2","2","2","2","2","6","3","4","2","3","3","3","3","2","2","6","2","5","5","7","5","3","7","2","3","3","2","6","2","3","718982212988436480","王","322","Female","[""坏我"",""坏她"",""好我"",""好她""]","[""弱我"",""弱她"",""强我"",""强她""]","","","","","","","","","","","","","","","","","","","","","","","","","","","","","","feedback_test","","","","","","","","",""
"922","","j","psychophysics","64","325429","0.0-8.0-1.0-1.0-0.0-0.27","6","6","6","5","5","5","4","4","5","5","5","2","-2","0","-1","-1","-2","1","0","5","4","2","5","4","5","4","4","4","4","4","4","7","6","6","4","4","7","6","3","5","1","2","5","2","3","3","5","2","1","2","2","2","2","2","6","3","4","2","3","3","3","3","2","2","6","2","5","5","7","5","3","7","2","3","3","2","6","2","3","718982212988436480","王","322","Female","[""坏我"",""坏她"",""好我"",""好她""]","[""弱我"",""弱她"",""强我"",""强她""]","","","","","","","","nonmatch","","","","","","","","","","key","j","16.663508771929948","720","446","j","true","nonmatch","img/trapezoid.png","强我","弱她","prac_ALT2_ability","practice_ability","","","","","","","","",""
"null","<span style='color:GreenYellow; font-size: 70px;'>正确! </span>","null","html-keyboard-response","65","325937","0.0-8.0-1.0-1.0-0.0-1.27","6","6","6","5","5","5","4","4","5","5","5","2","-2","0","-1","-1","-2","1","0","5","4","2","5","4","5","4","4","4","4","4","4","7","6","6","4","4","7","6","3","5","1","2","5","2","3","3","5","2","1","2","2","2","2","2","6","3","4","2","3","3","3","3","2","2","6","2","5","5","7","5","3","7","2","3","3","2","6","2","3","718982212988436480","王","322","Female","[""坏我"",""坏她"",""好我"",""好她""]","[""弱我"",""弱她"",""强我"",""强她""]","","","","","","","","","","","","","","","","","","","","","","","","","","","","","","feedback_test","","","","","","","","",""
"828","","j","psychophysics","66","327776","0.0-8.0-1.0-1.0-0.0-0.28","6","6","6","5","5","5","4","4","5","5","5","2","-2","0","-1","-1","-2","1","0","5","4","2","5","4","5","4","4","4","4","4","4","7","6","6","4","4","7","6","3","5","1","2","5","2","3","3","5","2","1","2","2","2","2","2","6","3","4","2","3","3","3","3","2","2","6","2","5","5","7","5","3","7","2","3","3","2","6","2","3","718982212988436480","王","322","Female","[""坏我"",""坏她"",""好我"",""好她""]","[""弱我"",""弱她"",""强我"",""强她""]","","","","","","","","nonmatch","","","","","","","","","","key","j","16.665137614678898","720","446","j","true","nonmatch","img/ellipse.png","弱我","强我","prac_ALT2_ability","practice_ability","","","","","","","","",""
"null","<span style='color:GreenYellow; font-size: 70px;'>正确! </span>","null","html-keyboard-response","67","328307","0.0-8.0-1.0-1.0-0.0-1.28","6","6","6","5","5","5","4","4","5","5","5","2","-2","0","-1","-1","-2","1","0","5","4","2","5","4","5","4","4","4","4","4","4","7","6","6","4","4","7","6","3","5","1","2","5","2","3","3","5","2","1","2","2","2","2","2","6","3","4","2","3","3","3","3","2","2","6","2","5","5","7","5","3","7","2","3","3","2","6","2","3","718982212988436480","王","322","Female","[""坏我"",""坏她"",""好我"",""好她""]","[""弱我"",""弱她"",""强我"",""强她""]","","","","","","","","","","","","","","","","","","","","","","","","","","","","","","feedback_test","","","","","","","","",""
"669","","f","psychophysics","68","329987","0.0-8.0-1.0-1.0-0.0-0.29","6","6","6","5","5","5","4","4","5","5","5","2","-2","0","-1","-1","-2","1","0","5","4","2","5","4","5","4","4","4","4","4","4","7","6","6","4","4","7","6","3","5","1","2","5","2","3","3","5","2","1","2","2","2","2","2","6","3","4","2","3","3","3","3","2","2","6","2","5","5","7","5","3","7","2","3","3","2","6","2","3","718982212988436480","王","322","Female","[""坏我"",""坏她"",""好我"",""好她""]","[""弱我"",""弱她"",""强我"",""强她""]","","","","","","","","match","","","","","","","","","","key","f","16.664199999999838","720","446","f","true","match","img/square.png","强她","强她","prac_ALT2_ability","practice_ability","","","","","","","","",""
"null","<span style='color:GreenYellow; font-size: 70px;'>正确! </span>","null","html-keyboard-response","69","330501","0.0-8.0-1.0-1.0-0.0-1.29","6","6","6","5","5","5","4","4","5","5","5","2","-2","0","-1","-1","-2","1","0","5","4","2","5","4","5","4","4","4","4","4","4","7","6","6","4","4","7","6","3","5","1","2","5","2","3","3","5","2","1","2","2","2","2","2","6","3","4","2","3","3","3","3","2","2","6","2","5","5","7","5","3","7","2","3","3","2","6","2","3","718982212988436480","王","322","Female","[""坏我"",""坏她"",""好我"",""好她""]","[""弱我"",""弱她"",""强我"",""强她""]","","","","","","","","","","","","","","","","","","","","","","","","","","","","","","feedback_test","","","","","","","","",""
"603","","j","psychophysics","70","332112","0.0-8.0-1.0-1.0-0.0-0.30","6","6","6","5","5","5","4","4","5","5","5","2","-2","0","-1","-1","-2","1","0","5","4","2","5","4","5","4","4","4","4","4","4","7","6","6","4","4","7","6","3","5","1","2","5","2","3","3","5","2","1","2","2","2","2","2","6","3","4","2","3","3","3","3","2","2","6","2","5","5","7","5","3","7","2","3","3","2","6","2","3","718982212988436480","王","322","Female","[""坏我"",""坏她"",""好我"",""好她""]","[""弱我"",""弱她"",""强我"",""强她""]","","","","","","","","nonmatch","","","","","","","","","","key","j","16.664000000000172","720","446","f","false","match","img/ellipse.png","强我","强我","prac_ALT2_ability","practice_ability","","","","","","","","",""
"null","<span style='color:red; font-size: 70px;'>错误! </span>","null","html-keyboard-response","71","332673","0.0-8.0-1.0-1.0-0.0-1.30","6","6","6","5","5","5","4","4","5","5","5","2","-2","0","-1","-1","-2","1","0","5","4","2","5","4","5","4","4","4","4","4","4","7","6","6","4","4","7","6","3","5","1","2","5","2","3","3","5","2","1","2","2","2","2","2","6","3","4","2","3","3","3","3","2","2","6","2","5","5","7","5","3","7","2","3","3","2","6","2","3","718982212988436480","王","322","Female","[""坏我"",""坏她"",""好我"",""好她""]","[""弱我"",""弱她"",""强我"",""强她""]","","","","","","","","","","","","","","","","","","","","","","","","","","","","","","feedback_test","","","","","","","","",""
"675","","j","psychophysics","72","334358","0.0-8.0-1.0-1.0-0.0-0.31","6","6","6","5","5","5","4","4","5","5","5","2","-2","0","-1","-1","-2","1","0","5","4","2","5","4","5","4","4","4","4","4","4","7","6","6","4","4","7","6","3","5","1","2","5","2","3","3","5","2","1","2","2","2","2","2","6","3","4","2","3","3","3","3","2","2","6","2","5","5","7","5","3","7","2","3","3","2","6","2","3","718982212988436480","王","322","Female","[""坏我"",""坏她"",""好我"",""好她""]","[""弱我"",""弱她"",""强我"",""强她""]","","","","","","","","nonmatch","","","","","","","","","","key","j","16.664599999999627","720","446","j","true","nonmatch","img/ellipse.png","弱她","强我","prac_ALT2_ability","practice_ability","","","","","","","","",""
"null","<span style='color:GreenYellow; font-size: 70px;'>正确! </span>","null","html-keyboard-response","73","334865","0.0-8.0-1.0-1.0-0.0-1.31","6","6","6","5","5","5","4","4","5","5","5","2","-2","0","-1","-1","-2","1","0","5","4","2","5","4","5","4","4","4","4","4","4","7","6","6","4","4","7","6","3","5","1","2","5","2","3","3","5","2","1","2","2","2","2","2","6","3","4","2","3","3","3","3","2","2","6","2","5","5","7","5","3","7","2","3","3","2","6","2","3","718982212988436480","王","322","Female","[""坏我"",""坏她"",""好我"",""好她""]","[""弱我"",""弱她"",""强我"",""强她""]","","","","","","","","","","","","","","","","","","","","","","","","","","","","","","feedback_test","","","","","","","","",""
"876","","f","psychophysics","74","336750","0.0-8.0-1.0-1.0-0.0-0.32","6","6","6","5","5","5","4","4","5","5","5","2","-2","0","-1","-1","-2","1","0","5","4","2","5","4","5","4","4","4","4","4","4","7","6","6","4","4","7","6","3","5","1","2","5","2","3","3","5","2","1","2","2","2","2","2","6","3","4","2","3","3","3","3","2","2","6","2","5","5","7","5","3","7","2","3","3","2","6","2","3","718982212988436480","王","322","Female","[""坏我"",""坏她"",""好我"",""好她""]","[""弱我"",""弱她"",""强我"",""强她""]","","","","","","","","match","","","","","","","","","","key","f","16.664684684684936","720","446","f","true","match","img/ellipse.png","强我","强我","prac_ALT2_ability","practice_ability","","","","","","","","",""
"null","<span style='color:GreenYellow; font-size: 70px;'>正确! </span>","null","html-keyboard-response","75","337267","0.0-8.0-1.0-1.0-0.0-1.32","6","6","6","5","5","5","4","4","5","5","5","2","-2","0","-1","-1","-2","1","0","5","4","2","5","4","5","4","4","4","4","4","4","7","6","6","4","4","7","6","3","5","1","2","5","2","3","3","5","2","1","2","2","2","2","2","6","3","4","2","3","3","3","3","2","2","6","2","5","5","7","5","3","7","2","3","3","2","6","2","3","718982212988436480","王","322","Female","[""坏我"",""坏她"",""好我"",""好她""]","[""弱我"",""弱她"",""强我"",""强她""]","","","","","","","","","","","","","","","","","","","","","","","","","","","","","","feedback_test","","","","","","","","",""
"706","","j","psychophysics","76","338982","0.0-8.0-1.0-1.0-0.0-0.33","6","6","6","5","5","5","4","4","5","5","5","2","-2","0","-1","-1","-2","1","0","5","4","2","5","4","5","4","4","4","4","4","4","7","6","6","4","4","7","6","3","5","1","2","5","2","3","3","5","2","1","2","2","2","2","2","6","3","4","2","3","3","3","3","2","2","6","2","5","5","7","5","3","7","2","3","3","2","6","2","3","718982212988436480","王","322","Female","[""坏我"",""坏她"",""好我"",""好她""]","[""弱我"",""弱她"",""强我"",""强她""]","","","","","","","","nonmatch","","","","","","","","","","key","j","16.66411764705873","720","446","j","true","nonmatch","img/pentagon.png","弱她","弱我","prac_ALT2_ability","practice_ability","","","","","","","","",""
"null","<span style='color:GreenYellow; font-size: 70px;'>正确! </span>","null","html-keyboard-response","77","339487","0.0-8.0-1.0-1.0-0.0-1.33","6","6","6","5","5","5","4","4","5","5","5","2","-2","0","-1","-1","-2","1","0","5","4","2","5","4","5","4","4","4","4","4","4","7","6","6","4","4","7","6","3","5","1","2","5","2","3","3","5","2","1","2","2","2","2","2","6","3","4","2","3","3","3","3","2","2","6","2","5","5","7","5","3","7","2","3","3","2","6","2","3","718982212988436480","王","322","Female","[""坏我"",""坏她"",""好我"",""好她""]","[""弱我"",""弱她"",""强我"",""强她""]","","","","","","","","","","","","","","","","","","","","","","","","","","","","","","feedback_test","","","","","","","","",""
"792","","j","psychophysics","78","341287","0.0-8.0-1.0-1.0-0.0-0.34","6","6","6","5","5","5","4","4","5","5","5","2","-2","0","-1","-1","-2","1","0","5","4","2","5","4","5","4","4","4","4","4","4","7","6","6","4","4","7","6","3","5","1","2","5","2","3","3","5","2","1","2","2","2","2","2","6","3","4","2","3","3","3","3","2","2","6","2","5","5","7","5","3","7","2","3","3","2","6","2","3","718982212988436480","王","322","Female","[""坏我"",""坏她"",""好我"",""好她""]","[""弱我"",""弱她"",""强我"",""强她""]","","","","","","","","nonmatch","","","","","","","","","","key","j","16.664339622641357","720","446","j","true","nonmatch","img/pentagon.png","强她","弱我","prac_ALT2_ability","practice_ability","","","","","","","","",""
"null","<span style='color:GreenYellow; font-size: 70px;'>正确! </span>","null","html-keyboard-response","79","341833","0.0-8.0-1.0-1.0-0.0-1.34","6","6","6","5","5","5","4","4","5","5","5","2","-2","0","-1","-1","-2","1","0","5","4","2","5","4","5","4","4","4","4","4","4","7","6","6","4","4","7","6","3","5","1","2","5","2","3","3","5","2","1","2","2","2","2","2","6","3","4","2","3","3","3","3","2","2","6","2","5","5","7","5","3","7","2","3","3","2","6","2","3","718982212988436480","王","322","Female","[""坏我"",""坏她"",""好我"",""好她""]","[""弱我"",""弱她"",""强我"",""强她""]","","","","","","","","","","","","","","","","","","","","","","","","","","","","","","feedback_test","","","","","","","","",""
"1015","","f","psychophysics","80","343859","0.0-8.0-1.0-1.0-0.0-0.35","6","6","6","5","5","5","4","4","5","5","5","2","-2","0","-1","-1","-2","1","0","5","4","2","5","4","5","4","4","4","4","4","4","7","6","6","4","4","7","6","3","5","1","2","5","2","3","3","5","2","1","2","2","2","2","2","6","3","4","2","3","3","3","3","2","2","6","2","5","5","7","5","3","7","2","3","3","2","6","2","3","718982212988436480","王","322","Female","[""坏我"",""坏她"",""好我"",""好她""]","[""弱我"",""弱她"",""强我"",""强她""]","","","","","","","","match","","","","","","","","","","key","f","16.663833333333606","720","446","f","true","match","img/pentagon.png","弱我","弱我","prac_ALT2_ability","practice_ability","","","","","","","","",""
"null","<span style='color:GreenYellow; font-size: 70px;'>正确! </span>","null","html-keyboard-response","81","344368","0.0-8.0-1.0-1.0-0.0-1.35","6","6","6","5","5","5","4","4","5","5","5","2","-2","0","-1","-1","-2","1","0","5","4","2","5","4","5","4","4","4","4","4","4","7","6","6","4","4","7","6","3","5","1","2","5","2","3","3","5","2","1","2","2","2","2","2","6","3","4","2","3","3","3","3","2","2","6","2","5","5","7","5","3","7","2","3","3","2","6","2","3","718982212988436480","王","322","Female","[""坏我"",""坏她"",""好我"",""好她""]","[""弱我"",""弱她"",""强我"",""强她""]","","","","","","","","","","","","","","","","","","","","","","","","","","","","","","feedback_test","","","","","","","","",""
"696","","f","psychophysics","82","346075","0.0-8.0-1.0-1.0-0.0-0.36","6","6","6","5","5","5","4","4","5","5","5","2","-2","0","-1","-1","-2","1","0","5","4","2","5","4","5","4","4","4","4","4","4","7","6","6","4","4","7","6","3","5","1","2","5","2","3","3","5","2","1","2","2","2","2","2","6","3","4","2","3","3","3","3","2","2","6","2","5","5","7","5","3","7","2","3","3","2","6","2","3","718982212988436480","王","322","Female","[""坏我"",""坏她"",""好我"",""好她""]","[""弱我"",""弱她"",""强我"",""强她""]","","","","","","","","match","","","","","","","","","","key","f","16.663366336633665","720","446","f","true","match","img/square.png","强她","强她","prac_ALT2_ability","practice_ability","","","","","","","","",""
"null","<span style='color:GreenYellow; font-size: 70px;'>正确! </span>","null","html-keyboard-response","83","346576","0.0-8.0-1.0-1.0-0.0-1.36","6","6","6","5","5","5","4","4","5","5","5","2","-2","0","-1","-1","-2","1","0","5","4","2","5","4","5","4","4","4","4","4","4","7","6","6","4","4","7","6","3","5","1","2","5","2","3","3","5","2","1","2","2","2","2","2","6","3","4","2","3","3","3","3","2","2","6","2","5","5","7","5","3","7","2","3","3","2","6","2","3","718982212988436480","王","322","Female","[""坏我"",""坏她"",""好我"",""好她""]","[""弱我"",""弱她"",""强我"",""强她""]","","","","","","","","","","","","","","","","","","","","","","","","","","","","","","feedback_test","","","","","","","","",""
"699","","j","psychophysics","84","348285","0.0-8.0-1.0-1.0-0.0-0.37","6","6","6","5","5","5","4","4","5","5","5","2","-2","0","-1","-1","-2","1","0","5","4","2","5","4","5","4","4","4","4","4","4","7","6","6","4","4","7","6","3","5","1","2","5","2","3","3","5","2","1","2","2","2","2","2","6","3","4","2","3","3","3","3","2","2","6","2","5","5","7","5","3","7","2","3","3","2","6","2","3","718982212988436480","王","322","Female","[""坏我"",""坏她"",""好我"",""好她""]","[""弱我"",""弱她"",""强我"",""强她""]","","","","","","","","nonmatch","","","","","","","","","","key","j","16.65568627450985","720","446","j","true","nonmatch","img/square.png","强我","强她","prac_ALT2_ability","practice_ability","","","","","","","","",""
"null","<span style='color:GreenYellow; font-size: 70px;'>正确! </span>","null","html-keyboard-response","85","348794","0.0-8.0-1.0-1.0-0.0-1.37","6","6","6","5","5","5","4","4","5","5","5","2","-2","0","-1","-1","-2","1","0","5","4","2","5","4","5","4","4","4","4","4","4","7","6","6","4","4","7","6","3","5","1","2","5","2","3","3","5","2","1","2","2","2","2","2","6","3","4","2","3","3","3","3","2","2","6","2","5","5","7","5","3","7","2","3","3","2","6","2","3","718982212988436480","王","322","Female","[""坏我"",""坏她"",""好我"",""好她""]","[""弱我"",""弱她"",""强我"",""强她""]","","","","","","","","","","","","","","","","","","","","","","","","","","","","","","feedback_test","","","","","","","","",""
"956","","j","psychophysics","86","350862","0.0-8.0-1.0-1.0-0.0-0.38","6","6","6","5","5","5","4","4","5","5","5","2","-2","0","-1","-1","-2","1","0","5","4","2","5","4","5","4","4","4","4","4","4","7","6","6","4","4","7","6","3","5","1","2","5","2","3","3","5","2","1","2","2","2","2","2","6","3","4","2","3","3","3","3","2","2","6","2","5","5","7","5","3","7","2","3","3","2","6","2","3","718982212988436480","王","322","Female","[""坏我"",""坏她"",""好我"",""好她""]","[""弱我"",""弱她"",""强我"",""强她""]","","","","","","","","nonmatch","","","","","","","","","","key","j","16.664262295081794","720","446","j","true","nonmatch","img/trapezoid.png","强她","弱她","prac_ALT2_ability","practice_ability","","","","","","","","",""
"null","<span style='color:GreenYellow; font-size: 70px;'>正确! </span>","null","html-keyboard-response","87","351434","0.0-8.0-1.0-1.0-0.0-1.38","6","6","6","5","5","5","4","4","5","5","5","2","-2","0","-1","-1","-2","1","0","5","4","2","5","4","5","4","4","4","4","4","4","7","6","6","4","4","7","6","3","5","1","2","5","2","3","3","5","2","1","2","2","2","2","2","6","3","4","2","3","3","3","3","2","2","6","2","5","5","7","5","3","7","2","3","3","2","6","2","3","718982212988436480","王","322","Female","[""坏我"",""坏她"",""好我"",""好她""]","[""弱我"",""弱她"",""强我"",""强她""]","","","","","","","","","","","","","","","","","","","","","","","","","","","","","","feedback_test","","","","","","","","",""
"658","","f","psychophysics","88","353104","0.0-8.0-1.0-1.0-0.0-0.39","6","6","6","5","5","5","4","4","5","5","5","2","-2","0","-1","-1","-2","1","0","5","4","2","5","4","5","4","4","4","4","4","4","7","6","6","4","4","7","6","3","5","1","2","5","2","3","3","5","2","1","2","2","2","2","2","6","3","4","2","3","3","3","3","2","2","6","2","5","5","7","5","3","7","2","3","3","2","6","2","3","718982212988436480","王","322","Female","[""坏我"",""坏她"",""好我"",""好她""]","[""弱我"",""弱她"",""强我"",""强她""]","","","","","","","","match","","","","","","","","","","key","f","16.664285714285477","720","446","f","true","match","img/ellipse.png","强我","强我","prac_ALT2_ability","practice_ability","","","","","","","","",""
"null","<span style='color:GreenYellow; font-size: 70px;'>正确! </span>","null","html-keyboard-response","89","353607","0.0-8.0-1.0-1.0-0.0-1.39","6","6","6","5","5","5","4","4","5","5","5","2","-2","0","-1","-1","-2","1","0","5","4","2","5","4","5","4","4","4","4","4","4","7","6","6","4","4","7","6","3","5","1","2","5","2","3","3","5","2","1","2","2","2","2","2","6","3","4","2","3","3","3","3","2","2","6","2","5","5","7","5","3","7","2","3","3","2","6","2","3","718982212988436480","王","322","Female","[""坏我"",""坏她"",""好我"",""好她""]","[""弱我"",""弱她"",""强我"",""强她""]","","","","","","","","","","","","","","","","","","","","","","","","","","","","","","feedback_test","","","","","","","","",""
"790","","j","psychophysics","90","355410","0.0-8.0-1.0-1.0-0.0-0.40","6","6","6","5","5","5","4","4","5","5","5","2","-2","0","-1","-1","-2","1","0","5","4","2","5","4","5","4","4","4","4","4","4","7","6","6","4","4","7","6","3","5","1","2","5","2","3","3","5","2","1","2","2","2","2","2","6","3","4","2","3","3","3","3","2","2","6","2","5","5","7","5","3","7","2","3","3","2","6","2","3","718982212988436480","王","322","Female","[""坏我"",""坏她"",""好我"",""好她""]","[""弱我"",""弱她"",""强我"",""强她""]","","","","","","","","nonmatch","","","","","","","","","","key","j","16.663773584905528","720","446","j","true","nonmatch","img/square.png","弱我","强她","prac_ALT2_ability","practice_ability","","","","","","","","",""
"null","<span style='color:GreenYellow; font-size: 70px;'>正确! </span>","null","html-keyboard-response","91","355912","0.0-8.0-1.0-1.0-0.0-1.40","6","6","6","5","5","5","4","4","5","5","5","2","-2","0","-1","-1","-2","1","0","5","4","2","5","4","5","4","4","4","4","4","4","7","6","6","4","4","7","6","3","5","1","2","5","2","3","3","5","2","1","2","2","2","2","2","6","3","4","2","3","3","3","3","2","2","6","2","5","5","7","5","3","7","2","3","3","2","6","2","3","718982212988436480","王","322","Female","[""坏我"",""坏她"",""好我"",""好她""]","[""弱我"",""弱她"",""强我"",""强她""]","","","","","","","","","","","","","","","","","","","","","","","","","","","","","","feedback_test","","","","","","","","",""
"925","","j","psychophysics","92","357846","0.0-8.0-1.0-1.0-0.0-0.41","6","6","6","5","5","5","4","4","5","5","5","2","-2","0","-1","-1","-2","1","0","5","4","2","5","4","5","4","4","4","4","4","4","7","6","6","4","4","7","6","3","5","1","2","5","2","3","3","5","2","1","2","2","2","2","2","6","3","4","2","3","3","3","3","2","2","6","2","5","5","7","5","3","7","2","3","3","2","6","2","3","718982212988436480","王","322","Female","[""坏我"",""坏她"",""好我"",""好她""]","[""弱我"",""弱她"",""强我"",""强她""]","","","","","","","","nonmatch","","","","","","","","","","key","j","16.664521739130294","720","446","j","true","nonmatch","img/pentagon.png","强我","弱我","prac_ALT2_ability","practice_ability","","","","","","","","",""
"null","<span style='color:GreenYellow; font-size: 70px;'>正确! </span>","null","html-keyboard-response","93","358352","0.0-8.0-1.0-1.0-0.0-1.41","6","6","6","5","5","5","4","4","5","5","5","2","-2","0","-1","-1","-2","1","0","5","4","2","5","4","5","4","4","4","4","4","4","7","6","6","4","4","7","6","3","5","1","2","5","2","3","3","5","2","1","2","2","2","2","2","6","3","4","2","3","3","3","3","2","2","6","2","5","5","7","5","3","7","2","3","3","2","6","2","3","718982212988436480","王","322","Female","[""坏我"",""坏她"",""好我"",""好她""]","[""弱我"",""弱她"",""强我"",""强她""]","","","","","","","","","","","","","","","","","","","","","","","","","","","","","","feedback_test","","","","","","","","",""
"652","","j","psychophysics","94","360012","0.0-8.0-1.0-1.0-0.0-0.42","6","6","6","5","5","5","4","4","5","5","5","2","-2","0","-1","-1","-2","1","0","5","4","2","5","4","5","4","4","4","4","4","4","7","6","6","4","4","7","6","3","5","1","2","5","2","3","3","5","2","1","2","2","2","2","2","6","3","4","2","3","3","3","3","2","2","6","2","5","5","7","5","3","7","2","3","3","2","6","2","3","718982212988436480","王","322","Female","[""坏我"",""坏她"",""好我"",""好她""]","[""弱我"",""弱她"",""强我"",""强她""]","","","","","","","","nonmatch","","","","","","","","","","key","j","16.6638383838381","720","446","f","false","match","img/trapezoid.png","弱她","弱她","prac_ALT2_ability","practice_ability","","","","","","","","",""
"null","<span style='color:red; font-size: 70px;'>错误! </span>","null","html-keyboard-response","95","360531","0.0-8.0-1.0-1.0-0.0-1.42","6","6","6","5","5","5","4","4","5","5","5","2","-2","0","-1","-1","-2","1","0","5","4","2","5","4","5","4","4","4","4","4","4","7","6","6","4","4","7","6","3","5","1","2","5","2","3","3","5","2","1","2","2","2","2","2","6","3","4","2","3","3","3","3","2","2","6","2","5","5","7","5","3","7","2","3","3","2","6","2","3","718982212988436480","王","322","Female","[""坏我"",""坏她"",""好我"",""好她""]","[""弱我"",""弱她"",""强我"",""强她""]","","","","","","","","","","","","","","","","","","","","","","","","","","","","","","feedback_test","","","","","","","","",""
"1064","","f","psychophysics","96","362604","0.0-8.0-1.0-1.0-0.0-0.43","6","6","6","5","5","5","4","4","5","5","5","2","-2","0","-1","-1","-2","1","0","5","4","2","5","4","5","4","4","4","4","4","4","7","6","6","4","4","7","6","3","5","1","2","5","2","3","3","5","2","1","2","2","2","2","2","6","3","4","2","3","3","3","3","2","2","6","2","5","5","7","5","3","7","2","3","3","2","6","2","3","718982212988436480","王","322","Female","[""坏我"",""坏她"",""好我"",""好她""]","[""弱我"",""弱她"",""强我"",""强她""]","","","","","","","","match","","","","","","","","","","key","f","16.66406504065035","720","446","f","true","match","img/pentagon.png","弱我","弱我","prac_ALT2_ability","practice_ability","","","","","","","","",""
"null","<span style='color:GreenYellow; font-size: 70px;'>正确! </span>","null","html-keyboard-response","97","363174","0.0-8.0-1.0-1.0-0.0-1.43","6","6","6","5","5","5","4","4","5","5","5","2","-2","0","-1","-1","-2","1","0","5","4","2","5","4","5","4","4","4","4","4","4","7","6","6","4","4","7","6","3","5","1","2","5","2","3","3","5","2","1","2","2","2","2","2","6","3","4","2","3","3","3","3","2","2","6","2","5","5","7","5","3","7","2","3","3","2","6","2","3","718982212988436480","王","322","Female","[""坏我"",""坏她"",""好我"",""好她""]","[""弱我"",""弱她"",""强我"",""强她""]","","","","","","","","","","","","","","","","","","","","","","","","","","","","","","feedback_test","","","","","","","","",""
"706","","f","psychophysics","98","364892","0.0-8.0-1.0-1.0-0.0-0.44","6","6","6","5","5","5","4","4","5","5","5","2","-2","0","-1","-1","-2","1","0","5","4","2","5","4","5","4","4","4","4","4","4","7","6","6","4","4","7","6","3","5","1","2","5","2","3","3","5","2","1","2","2","2","2","2","6","3","4","2","3","3","3","3","2","2","6","2","5","5","7","5","3","7","2","3","3","2","6","2","3","718982212988436480","王","322","Female","[""坏我"",""坏她"",""好我"",""好她""]","[""弱我"",""弱她"",""强我"",""强她""]","","","","","","","","match","","","","","","","","","","key","f","16.664752475247663","720","446","f","true","match","img/pentagon.png","弱我","弱我","prac_ALT2_ability","practice_ability","","","","","","","","",""
"null","<span style='color:GreenYellow; font-size: 70px;'>正确! </span>","null","html-keyboard-response","99","365412","0.0-8.0-1.0-1.0-0.0-1.44","6","6","6","5","5","5","4","4","5","5","5","2","-2","0","-1","-1","-2","1","0","5","4","2","5","4","5","4","4","4","4","4","4","7","6","6","4","4","7","6","3","5","1","2","5","2","3","3","5","2","1","2","2","2","2","2","6","3","4","2","3","3","3","3","2","2","6","2","5","5","7","5","3","7","2","3","3","2","6","2","3","718982212988436480","王","322","Female","[""坏我"",""坏她"",""好我"",""好她""]","[""弱我"",""弱她"",""强我"",""强她""]","","","","","","","","","","","","","","","","","","","","","","","","","","","","","","feedback_test","","","","","","","","",""
"1000","","f","psychophysics","100","367427","0.0-8.0-1.0-1.0-0.0-0.45","6","6","6","5","5","5","4","4","5","5","5","2","-2","0","-1","-1","-2","1","0","5","4","2","5","4","5","4","4","4","4","4","4","7","6","6","4","4","7","6","3","5","1","2","5","2","3","3","5","2","1","2","2","2","2","2","6","3","4","2","3","3","3","3","2","2","6","2","5","5","7","5","3","7","2","3","3","2","6","2","3","718982212988436480","王","322","Female","[""坏我"",""坏她"",""好我"",""好她""]","[""弱我"",""弱她"",""强我"",""强她""]","","","","","","","","match","","","","","","","","","","key","f","16.665000000000386","720","446","f","true","match","img/trapezoid.png","弱她","弱她","prac_ALT2_ability","practice_ability","","","","","","","","",""
"null","<span style='color:GreenYellow; font-size: 70px;'>正确! </span>","null","html-keyboard-response","101","367935","0.0-8.0-1.0-1.0-0.0-1.45","6","6","6","5","5","5","4","4","5","5","5","2","-2","0","-1","-1","-2","1","0","5","4","2","5","4","5","4","4","4","4","4","4","7","6","6","4","4","7","6","3","5","1","2","5","2","3","3","5","2","1","2","2","2","2","2","6","3","4","2","3","3","3","3","2","2","6","2","5","5","7","5","3","7","2","3","3","2","6","2","3","718982212988436480","王","322","Female","[""坏我"",""坏她"",""好我"",""好她""]","[""弱我"",""弱她"",""强我"",""强她""]","","","","","","","","","","","","","","","","","","","","","","","","","","","","","","feedback_test","","","","","","","","",""
"737","","f","psychophysics","102","369678","0.0-8.0-1.0-1.0-0.0-0.46","6","6","6","5","5","5","4","4","5","5","5","2","-2","0","-1","-1","-2","1","0","5","4","2","5","4","5","4","4","4","4","4","4","7","6","6","4","4","7","6","3","5","1","2","5","2","3","3","5","2","1","2","2","2","2","2","6","3","4","2","3","3","3","3","2","2","6","2","5","5","7","5","3","7","2","3","3","2","6","2","3","718982212988436480","王","322","Female","[""坏我"",""坏她"",""好我"",""好她""]","[""弱我"",""弱她"",""强我"",""强她""]","","","","","","","","match","","","","","","","","","","key","f","16.6644660194175","720","446","f","true","match","img/square.png","强她","强她","prac_ALT2_ability","practice_ability","","","","","","","","",""
"null","<span style='color:GreenYellow; font-size: 70px;'>正确! </span>","null","html-keyboard-response","103","370187","0.0-8.0-1.0-1.0-0.0-1.46","6","6","6","5","5","5","4","4","5","5","5","2","-2","0","-1","-1","-2","1","0","5","4","2","5","4","5","4","4","4","4","4","4","7","6","6","4","4","7","6","3","5","1","2","5","2","3","3","5","2","1","2","2","2","2","2","6","3","4","2","3","3","3","3","2","2","6","2","5","5","7","5","3","7","2","3","3","2","6","2","3","718982212988436480","王","322","Female","[""坏我"",""坏她"",""好我"",""好她""]","[""弱我"",""弱她"",""强我"",""强她""]","","","","","","","","","","","","","","","","","","","","","","","","","","","","","","feedback_test","","","","","","","","",""
"747","","f","psychophysics","104","371945","0.0-8.0-1.0-1.0-0.0-0.47","6","6","6","5","5","5","4","4","5","5","5","2","-2","0","-1","-1","-2","1","0","5","4","2","5","4","5","4","4","4","4","4","4","7","6","6","4","4","7","6","3","5","1","2","5","2","3","3","5","2","1","2","2","2","2","2","6","3","4","2","3","3","3","3","2","2","6","2","5","5","7","5","3","7","2","3","3","2","6","2","3","718982212988436480","王","322","Female","[""坏我"",""坏她"",""好我"",""好她""]","[""弱我"",""弱她"",""强我"",""强她""]","","","","","","","","match","","","","","","","","","","key","f","16.66519230769224","720","446","f","true","match","img/trapezoid.png","弱她","弱她","prac_ALT2_ability","practice_ability","","","","","","","","",""
"null","<span style='color:GreenYellow; font-size: 70px;'>正确! </span>","null","html-keyboard-response","105","372448","0.0-8.0-1.0-1.0-0.0-1.47","6","6","6","5","5","5","4","4","5","5","5","2","-2","0","-1","-1","-2","1","0","5","4","2","5","4","5","4","4","4","4","4","4","7","6","6","4","4","7","6","3","5","1","2","5","2","3","3","5","2","1","2","2","2","2","2","6","3","4","2","3","3","3","3","2","2","6","2","5","5","7","5","3","7","2","3","3","2","6","2","3","718982212988436480","王","322","Female","[""坏我"",""坏她"",""好我"",""好她""]","[""弱我"",""弱她"",""强我"",""强她""]","","","","","","","","","","","","","","","","","","","","","","","","","","","","","","feedback_test","","","","","","","","",""
"10033","<style>.context{color:white; font-size: 35px; line-height:40px}</style>                          <div><p class='context'>您正确回答了88% 的试次。</p><p class='context'>您的平均反应时为823毫秒。</p><p class='context'>恭喜您完成练习。按空格键进入正式实验。</p><p class='footer' style='color:white;font-size: 35px; line-height:40px;'>请在进入正式实验实验之前将您的<span style='color: lightgreen;'>食指</span>放在电脑键盘的相应键位上进行按键。</p>"," ","html-keyboard-response","106","382487","0.0-8.0-1.0-2.0","6","6","6","5","5","5","4","4","5","5","5","2","-2","0","-1","-1","-2","1","0","5","4","2","5","4","5","4","4","4","4","4","4","7","6","6","4","4","7","6","3","5","1","2","5","2","3","3","5","2","1","2","2","2","2","2","6","3","4","2","3","3","3","3","2","2","6","2","5","5","7","5","3","7","2","3","3","2","6","2","3","718982212988436480","王","322","Female","[""坏我"",""坏她"",""好我"",""好她""]","[""弱我"",""弱她"",""强我"",""强她""]","","","","","","","","","","","","","","","","","","","","","","","","","","","","","","","","","","","","","","",""
"2957","
  <p style='color: white; font-size: 22px'>请您将手指放在按键上，准备进入正式的匹配任务。</p>
  <p> <div style = ""color: green""><按空格键进入下一阶段的匹配任务></div></p>
  "," ","html-keyboard-response","107","385448","0.0-8.0-1.0-3.0","6","6","6","5","5","5","4","4","5","5","5","2","-2","0","-1","-1","-2","1","0","5","4","2","5","4","5","4","4","4","4","4","4","7","6","6","4","4","7","6","3","5","1","2","5","2","3","3","5","2","1","2","2","2","2","2","6","3","4","2","3","3","3","3","2","2","6","2","5","5","7","5","3","7","2","3","3","2","6","2","3","718982212988436480","王","322","Female","[""坏我"",""坏她"",""好我"",""好她""]","[""弱我"",""弱她"",""强我"",""强她""]","","","","","","","","","","","","","","","","","","","","","","","","","","","","","","","","","","","","","","",""
"983","","f","psychophysics","108","387441","0.0-8.0-1.0-4.0-0.0-0.0","6","6","6","5","5","5","4","4","5","5","5","2","-2","0","-1","-1","-2","1","0","5","4","2","5","4","5","4","4","4","4","4","4","7","6","6","4","4","7","6","3","5","1","2","5","2","3","3","5","2","1","2","2","2","2","2","6","3","4","2","3","3","3","3","2","2","6","2","5","5","7","5","3","7","2","3","3","2","6","2","3","718982212988436480","王","322","Female","[""坏我"",""坏她"",""好我"",""好她""]","[""弱我"",""弱她"",""强我"",""强她""]","","","","","","","","match","","","","","","","","","","key","f","16.664067796610052","720","446","f","true","match","img/pentagon.png","弱我","弱我","ALT2","ability","","","","","","","","",""
"null","<span style='color:GreenYellow; font-size: 70px;'>正确! </span>","null","html-keyboard-response","109","387950","0.0-8.0-1.0-4.0-0.0-1.0","6","6","6","5","5","5","4","4","5","5","5","2","-2","0","-1","-1","-2","1","0","5","4","2","5","4","5","4","4","4","4","4","4","7","6","6","4","4","7","6","3","5","1","2","5","2","3","3","5","2","1","2","2","2","2","2","6","3","4","2","3","3","3","3","2","2","6","2","5","5","7","5","3","7","2","3","3","2","6","2","3","718982212988436480","王","322","Female","[""坏我"",""坏她"",""好我"",""好她""]","[""弱我"",""弱她"",""强我"",""强她""]","","","","","","","","","","","","","","","","","","","","","","","","","","","","","","feedback_test","","","","","","","","",""
"819","","j","psychophysics","110","389778","0.0-8.0-1.0-4.0-0.0-0.1","6","6","6","5","5","5","4","4","5","5","5","2","-2","0","-1","-1","-2","1","0","5","4","2","5","4","5","4","4","4","4","4","4","7","6","6","4","4","7","6","3","5","1","2","5","2","3","3","5","2","1","2","2","2","2","2","6","3","4","2","3","3","3","3","2","2","6","2","5","5","7","5","3","7","2","3","3","2","6","2","3","718982212988436480","王","322","Female","[""坏我"",""坏她"",""好我"",""好她""]","[""弱我"",""弱她"",""强我"",""强她""]","","","","","","","","nonmatch","","","","","","","","","","key","j","16.662407407407212","720","446","j","true","nonmatch","img/ellipse.png","弱她","强我","ALT2","ability","","","","","","","","",""
"null","<span style='color:GreenYellow; font-size: 70px;'>正确! </span>","null","html-keyboard-response","111","390279","0.0-8.0-1.0-4.0-0.0-1.1","6","6","6","5","5","5","4","4","5","5","5","2","-2","0","-1","-1","-2","1","0","5","4","2","5","4","5","4","4","4","4","4","4","7","6","6","4","4","7","6","3","5","1","2","5","2","3","3","5","2","1","2","2","2","2","2","6","3","4","2","3","3","3","3","2","2","6","2","5","5","7","5","3","7","2","3","3","2","6","2","3","718982212988436480","王","322","Female","[""坏我"",""坏她"",""好我"",""好她""]","[""弱我"",""弱她"",""强我"",""强她""]","","","","","","","","","","","","","","","","","","","","","","","","","","","","","","feedback_test","","","","","","","","",""
"1053","","f","psychophysics","112","392344","0.0-8.0-1.0-4.0-0.0-0.2","6","6","6","5","5","5","4","4","5","5","5","2","-2","0","-1","-1","-2","1","0","5","4","2","5","4","5","4","4","4","4","4","4","7","6","6","4","4","7","6","3","5","1","2","5","2","3","3","5","2","1","2","2","2","2","2","6","3","4","2","3","3","3","3","2","2","6","2","5","5","7","5","3","7","2","3","3","2","6","2","3","718982212988436480","王","322","Female","[""坏我"",""坏她"",""好我"",""好她""]","[""弱我"",""弱她"",""强我"",""强她""]","","","","","","","","match","","","","","","","","","","key","f","16.66455284552838","720","446","f","true","match","img/trapezoid.png","弱她","弱她","ALT2","ability","","","","","","","","",""
"null","<span style='color:GreenYellow; font-size: 70px;'>正确! </span>","null","html-keyboard-response","113","392847","0.0-8.0-1.0-4.0-0.0-1.2","6","6","6","5","5","5","4","4","5","5","5","2","-2","0","-1","-1","-2","1","0","5","4","2","5","4","5","4","4","4","4","4","4","7","6","6","4","4","7","6","3","5","1","2","5","2","3","3","5","2","1","2","2","2","2","2","6","3","4","2","3","3","3","3","2","2","6","2","5","5","7","5","3","7","2","3","3","2","6","2","3","718982212988436480","王","322","Female","[""坏我"",""坏她"",""好我"",""好她""]","[""弱我"",""弱她"",""强我"",""强她""]","","","","","","","","","","","","","","","","","","","","","","","","","","","","","","feedback_test","","","","","","","","",""
"639","","f","psychophysics","114","394496","0.0-8.0-1.0-4.0-0.0-0.3","6","6","6","5","5","5","4","4","5","5","5","2","-2","0","-1","-1","-2","1","0","5","4","2","5","4","5","4","4","4","4","4","4","7","6","6","4","4","7","6","3","5","1","2","5","2","3","3","5","2","1","2","2","2","2","2","6","3","4","2","3","3","3","3","2","2","6","2","5","5","7","5","3","7","2","3","3","2","6","2","3","718982212988436480","王","322","Female","[""坏我"",""坏她"",""好我"",""好她""]","[""弱我"",""弱她"",""强我"",""强她""]","","","","","","","","match","","","","","","","","","","key","f","16.66408163265323","720","446","f","true","match","img/ellipse.png","强我","强我","ALT2","ability","","","","","","","","",""
"null","<span style='color:GreenYellow; font-size: 70px;'>正确! </span>","null","html-keyboard-response","115","395005","0.0-8.0-1.0-4.0-0.0-1.3","6","6","6","5","5","5","4","4","5","5","5","2","-2","0","-1","-1","-2","1","0","5","4","2","5","4","5","4","4","4","4","4","4","7","6","6","4","4","7","6","3","5","1","2","5","2","3","3","5","2","1","2","2","2","2","2","6","3","4","2","3","3","3","3","2","2","6","2","5","5","7","5","3","7","2","3","3","2","6","2","3","718982212988436480","王","322","Female","[""坏我"",""坏她"",""好我"",""好她""]","[""弱我"",""弱她"",""强我"",""强她""]","","","","","","","","","","","","","","","","","","","","","","","","","","","","","","feedback_test","","","","","","","","",""
"807","","j","psychophysics","116","396824","0.0-8.0-1.0-4.0-0.0-0.4","6","6","6","5","5","5","4","4","5","5","5","2","-2","0","-1","-1","-2","1","0","5","4","2","5","4","5","4","4","4","4","4","4","7","6","6","4","4","7","6","3","5","1","2","5","2","3","3","5","2","1","2","2","2","2","2","6","3","4","2","3","3","3","3","2","2","6","2","5","5","7","5","3","7","2","3","3","2","6","2","3","718982212988436480","王","322","Female","[""坏我"",""坏她"",""好我"",""好她""]","[""弱我"",""弱她"",""强我"",""强她""]","","","","","","","","nonmatch","","","","","","","","","","key","j","16.663738317757183","720","446","j","true","nonmatch","img/square.png","强我","强她","ALT2","ability","","","","","","","","",""
"null","<span style='color:GreenYellow; font-size: 70px;'>正确! </span>","null","html-keyboard-response","117","397335","0.0-8.0-1.0-4.0-0.0-1.4","6","6","6","5","5","5","4","4","5","5","5","2","-2","0","-1","-1","-2","1","0","5","4","2","5","4","5","4","4","4","4","4","4","7","6","6","4","4","7","6","3","5","1","2","5","2","3","3","5","2","1","2","2","2","2","2","6","3","4","2","3","3","3","3","2","2","6","2","5","5","7","5","3","7","2","3","3","2","6","2","3","718982212988436480","王","322","Female","[""坏我"",""坏她"",""好我"",""好她""]","[""弱我"",""弱她"",""强我"",""强她""]","","","","","","","","","","","","","","","","","","","","","","","","","","","","","","feedback_test","","","","","","","","",""
"809","","j","psychophysics","118","399155","0.0-8.0-1.0-4.0-0.0-0.5","6","6","6","5","5","5","4","4","5","5","5","2","-2","0","-1","-1","-2","1","0","5","4","2","5","4","5","4","4","4","4","4","4","7","6","6","4","4","7","6","3","5","1","2","5","2","3","3","5","2","1","2","2","2","2","2","6","3","4","2","3","3","3","3","2","2","6","2","5","5","7","5","3","7","2","3","3","2","6","2","3","718982212988436480","王","322","Female","[""坏我"",""坏她"",""好我"",""好她""]","[""弱我"",""弱她"",""强我"",""强她""]","","","","","","","","nonmatch","","","","","","","","","","key","j","16.66462962962989","720","446","j","true","nonmatch","img/trapezoid.png","强她","弱她","ALT2","ability","","","","","","","","",""
"null","<span style='color:GreenYellow; font-size: 70px;'>正确! </span>","null","html-keyboard-response","119","399660","0.0-8.0-1.0-4.0-0.0-1.5","6","6","6","5","5","5","4","4","5","5","5","2","-2","0","-1","-1","-2","1","0","5","4","2","5","4","5","4","4","4","4","4","4","7","6","6","4","4","7","6","3","5","1","2","5","2","3","3","5","2","1","2","2","2","2","2","6","3","4","2","3","3","3","3","2","2","6","2","5","5","7","5","3","7","2","3","3","2","6","2","3","718982212988436480","王","322","Female","[""坏我"",""坏她"",""好我"",""好她""]","[""弱我"",""弱她"",""强我"",""强她""]","","","","","","","","","","","","","","","","","","","","","","","","","","","","","","feedback_test","","","","","","","","",""
"581","","f","psychophysics","120","401250","0.0-8.0-1.0-4.0-0.0-0.6","6","6","6","5","5","5","4","4","5","5","5","2","-2","0","-1","-1","-2","1","0","5","4","2","5","4","5","4","4","4","4","4","4","7","6","6","4","4","7","6","3","5","1","2","5","2","3","3","5","2","1","2","2","2","2","2","6","3","4","2","3","3","3","3","2","2","6","2","5","5","7","5","3","7","2","3","3","2","6","2","3","718982212988436480","王","322","Female","[""坏我"",""坏她"",""好我"",""好她""]","[""弱我"",""弱她"",""强我"",""强她""]","","","","","","","","match","","","","","","","","","","key","f","16.664468085106606","720","446","f","true","match","img/square.png","强她","强她","ALT2","ability","","","","","","","","",""
"null","<span style='color:GreenYellow; font-size: 70px;'>正确! </span>","null","html-keyboard-response","121","401816","0.0-8.0-1.0-4.0-0.0-1.6","6","6","6","5","5","5","4","4","5","5","5","2","-2","0","-1","-1","-2","1","0","5","4","2","5","4","5","4","4","4","4","4","4","7","6","6","4","4","7","6","3","5","1","2","5","2","3","3","5","2","1","2","2","2","2","2","6","3","4","2","3","3","3","3","2","2","6","2","5","5","7","5","3","7","2","3","3","2","6","2","3","718982212988436480","王","322","Female","[""坏我"",""坏她"",""好我"",""好她""]","[""弱我"",""弱她"",""强我"",""强她""]","","","","","","","","","","","","","","","","","","","","","","","","","","","","","","feedback_test","","","","","","","","",""
"823","","f","psychophysics","122","403652","0.0-8.0-1.0-4.0-0.0-0.7","6","6","6","5","5","5","4","4","5","5","5","2","-2","0","-1","-1","-2","1","0","5","4","2","5","4","5","4","4","4","4","4","4","7","6","6","4","4","7","6","3","5","1","2","5","2","3","3","5","2","1","2","2","2","2","2","6","3","4","2","3","3","3","3","2","2","6","2","5","5","7","5","3","7","2","3","3","2","6","2","3","718982212988436480","王","322","Female","[""坏我"",""坏她"",""好我"",""好她""]","[""弱我"",""弱她"",""强我"",""强她""]","","","","","","","","match","","","","","","","","","","key","f","16.66440366972462","720","446","f","true","match","img/ellipse.png","强我","强我","ALT2","ability","","","","","","","","",""
"null","<span style='color:GreenYellow; font-size: 70px;'>正确! </span>","null","html-keyboard-response","123","404160","0.0-8.0-1.0-4.0-0.0-1.7","6","6","6","5","5","5","4","4","5","5","5","2","-2","0","-1","-1","-2","1","0","5","4","2","5","4","5","4","4","4","4","4","4","7","6","6","4","4","7","6","3","5","1","2","5","2","3","3","5","2","1","2","2","2","2","2","6","3","4","2","3","3","3","3","2","2","6","2","5","5","7","5","3","7","2","3","3","2","6","2","3","718982212988436480","王","322","Female","[""坏我"",""坏她"",""好我"",""好她""]","[""弱我"",""弱她"",""强我"",""强她""]","","","","","","","","","","","","","","","","","","","","","","","","","","","","","","feedback_test","","","","","","","","",""
"911","","j","psychophysics","124","406079","0.0-8.0-1.0-4.0-0.0-0.8","6","6","6","5","5","5","4","4","5","5","5","2","-2","0","-1","-1","-2","1","0","5","4","2","5","4","5","4","4","4","4","4","4","7","6","6","4","4","7","6","3","5","1","2","5","2","3","3","5","2","1","2","2","2","2","2","6","3","4","2","3","3","3","3","2","2","6","2","5","5","7","5","3","7","2","3","3","2","6","2","3","718982212988436480","王","322","Female","[""坏我"",""坏她"",""好我"",""好她""]","[""弱我"",""弱她"",""强我"",""强她""]","","","","","","","","nonmatch","","","","","","","","","","key","j","16.664424778761205","720","446","j","true","nonmatch","img/trapezoid.png","弱我","弱她","ALT2","ability","","","","","","","","",""
"null","<span style='color:GreenYellow; font-size: 70px;'>正确! </span>","null","html-keyboard-response","125","406584","0.0-8.0-1.0-4.0-0.0-1.8","6","6","6","5","5","5","4","4","5","5","5","2","-2","0","-1","-1","-2","1","0","5","4","2","5","4","5","4","4","4","4","4","4","7","6","6","4","4","7","6","3","5","1","2","5","2","3","3","5","2","1","2","2","2","2","2","6","3","4","2","3","3","3","3","2","2","6","2","5","5","7","5","3","7","2","3","3","2","6","2","3","718982212988436480","王","322","Female","[""坏我"",""坏她"",""好我"",""好她""]","[""弱我"",""弱她"",""强我"",""强她""]","","","","","","","","","","","","","","","","","","","","","","","","","","","","","","feedback_test","","","","","","","","",""
"734","","j","psychophysics","126","408330","0.0-8.0-1.0-4.0-0.0-0.9","6","6","6","5","5","5","4","4","5","5","5","2","-2","0","-1","-1","-2","1","0","5","4","2","5","4","5","4","4","4","4","4","4","7","6","6","4","4","7","6","3","5","1","2","5","2","3","3","5","2","1","2","2","2","2","2","6","3","4","2","3","3","3","3","2","2","6","2","5","5","7","5","3","7","2","3","3","2","6","2","3","718982212988436480","王","322","Female","[""坏我"",""坏她"",""好我"",""好她""]","[""弱我"",""弱她"",""强我"",""强她""]","","","","","","","","nonmatch","","","","","","","","","","key","j","16.66485436893186","720","446","j","true","nonmatch","img/square.png","弱我","强她","ALT2","ability","","","","","","","","",""
"null","<span style='color:GreenYellow; font-size: 70px;'>正确! </span>","null","html-keyboard-response","127","408872","0.0-8.0-1.0-4.0-0.0-1.9","6","6","6","5","5","5","4","4","5","5","5","2","-2","0","-1","-1","-2","1","0","5","4","2","5","4","5","4","4","4","4","4","4","7","6","6","4","4","7","6","3","5","1","2","5","2","3","3","5","2","1","2","2","2","2","2","6","3","4","2","3","3","3","3","2","2","6","2","5","5","7","5","3","7","2","3","3","2","6","2","3","718982212988436480","王","322","Female","[""坏我"",""坏她"",""好我"",""好她""]","[""弱我"",""弱她"",""强我"",""强她""]","","","","","","","","","","","","","","","","","","","","","","","","","","","","","","feedback_test","","","","","","","","",""
"774","","j","psychophysics","128","410656","0.0-8.0-1.0-4.0-0.0-0.10","6","6","6","5","5","5","4","4","5","5","5","2","-2","0","-1","-1","-2","1","0","5","4","2","5","4","5","4","4","4","4","4","4","7","6","6","4","4","7","6","3","5","1","2","5","2","3","3","5","2","1","2","2","2","2","2","6","3","4","2","3","3","3","3","2","2","6","2","5","5","7","5","3","7","2","3","3","2","6","2","3","718982212988436480","王","322","Female","[""坏我"",""坏她"",""好我"",""好她""]","[""弱我"",""弱她"",""强我"",""强她""]","","","","","","","","nonmatch","","","","","","","","","","key","j","16.66339622641516","720","446","j","true","nonmatch","img/pentagon.png","强她","弱我","ALT2","ability","","","","","","","","",""
"null","<span style='color:GreenYellow; font-size: 70px;'>正确! </span>","null","html-keyboard-response","129","411171","0.0-8.0-1.0-4.0-0.0-1.10","6","6","6","5","5","5","4","4","5","5","5","2","-2","0","-1","-1","-2","1","0","5","4","2","5","4","5","4","4","4","4","4","4","7","6","6","4","4","7","6","3","5","1","2","5","2","3","3","5","2","1","2","2","2","2","2","6","3","4","2","3","3","3","3","2","2","6","2","5","5","7","5","3","7","2","3","3","2","6","2","3","718982212988436480","王","322","Female","[""坏我"",""坏她"",""好我"",""好她""]","[""弱我"",""弱她"",""强我"",""强她""]","","","","","","","","","","","","","","","","","","","","","","","","","","","","","","feedback_test","","","","","","","","",""
"580","","f","psychophysics","130","412756","0.0-8.0-1.0-4.0-0.0-0.11","6","6","6","5","5","5","4","4","5","5","5","2","-2","0","-1","-1","-2","1","0","5","4","2","5","4","5","4","4","4","4","4","4","7","6","6","4","4","7","6","3","5","1","2","5","2","3","3","5","2","1","2","2","2","2","2","6","3","4","2","3","3","3","3","2","2","6","2","5","5","7","5","3","7","2","3","3","2","6","2","3","718982212988436480","王","322","Female","[""坏我"",""坏她"",""好我"",""好她""]","[""弱我"",""弱她"",""强我"",""强她""]","","","","","","","","match","","","","","","","","","","key","f","16.664086021505476","720","446","f","true","match","img/square.png","强她","强她","ALT2","ability","","","","","","","","",""
"null","<span style='color:GreenYellow; font-size: 70px;'>正确! </span>","null","html-keyboard-response","131","413264","0.0-8.0-1.0-4.0-0.0-1.11","6","6","6","5","5","5","4","4","5","5","5","2","-2","0","-1","-1","-2","1","0","5","4","2","5","4","5","4","4","4","4","4","4","7","6","6","4","4","7","6","3","5","1","2","5","2","3","3","5","2","1","2","2","2","2","2","6","3","4","2","3","3","3","3","2","2","6","2","5","5","7","5","3","7","2","3","3","2","6","2","3","718982212988436480","王","322","Female","[""坏我"",""坏她"",""好我"",""好她""]","[""弱我"",""弱她"",""强我"",""强她""]","","","","","","","","","","","","","","","","","","","","","","","","","","","","","","feedback_test","","","","","","","","",""
"609","","j","psychophysics","132","414887","0.0-8.0-1.0-4.0-0.0-0.12","6","6","6","5","5","5","4","4","5","5","5","2","-2","0","-1","-1","-2","1","0","5","4","2","5","4","5","4","4","4","4","4","4","7","6","6","4","4","7","6","3","5","1","2","5","2","3","3","5","2","1","2","2","2","2","2","6","3","4","2","3","3","3","3","2","2","6","2","5","5","7","5","3","7","2","3","3","2","6","2","3","718982212988436480","王","322","Female","[""坏我"",""坏她"",""好我"",""好她""]","[""弱我"",""弱她"",""强我"",""强她""]","","","","","","","","nonmatch","","","","","","","","","","key","j","16.66374999999971","720","446","j","true","nonmatch","img/ellipse.png","强她","强我","ALT2","ability","","","","","","","","",""
"null","<span style='color:GreenYellow; font-size: 70px;'>正确! </span>","null","html-keyboard-response","133","415395","0.0-8.0-1.0-4.0-0.0-1.12","6","6","6","5","5","5","4","4","5","5","5","2","-2","0","-1","-1","-2","1","0","5","4","2","5","4","5","4","4","4","4","4","4","7","6","6","4","4","7","6","3","5","1","2","5","2","3","3","5","2","1","2","2","2","2","2","6","3","4","2","3","3","3","3","2","2","6","2","5","5","7","5","3","7","2","3","3","2","6","2","3","718982212988436480","王","322","Female","[""坏我"",""坏她"",""好我"",""好她""]","[""弱我"",""弱她"",""强我"",""强她""]","","","","","","","","","","","","","","","","","","","","","","","","","","","","","","feedback_test","","","","","","","","",""
"729","","j","psychophysics","134","417139","0.0-8.0-1.0-4.0-0.0-0.13","6","6","6","5","5","5","4","4","5","5","5","2","-2","0","-1","-1","-2","1","0","5","4","2","5","4","5","4","4","4","4","4","4","7","6","6","4","4","7","6","3","5","1","2","5","2","3","3","5","2","1","2","2","2","2","2","6","3","4","2","3","3","3","3","2","2","6","2","5","5","7","5","3","7","2","3","3","2","6","2","3","718982212988436480","王","322","Female","[""坏我"",""坏她"",""好我"",""好她""]","[""弱我"",""弱她"",""强我"",""强她""]","","","","","","","","nonmatch","","","","","","","","","","key","j","16.66407766990314","720","446","j","true","nonmatch","img/square.png","弱她","强她","ALT2","ability","","","","","","","","",""
"null","<span style='color:GreenYellow; font-size: 70px;'>正确! </span>","null","html-keyboard-response","135","417653","0.0-8.0-1.0-4.0-0.0-1.13","6","6","6","5","5","5","4","4","5","5","5","2","-2","0","-1","-1","-2","1","0","5","4","2","5","4","5","4","4","4","4","4","4","7","6","6","4","4","7","6","3","5","1","2","5","2","3","3","5","2","1","2","2","2","2","2","6","3","4","2","3","3","3","3","2","2","6","2","5","5","7","5","3","7","2","3","3","2","6","2","3","718982212988436480","王","322","Female","[""坏我"",""坏她"",""好我"",""好她""]","[""弱我"",""弱她"",""强我"",""强她""]","","","","","","","","","","","","","","","","","","","","","","","","","","","","","","feedback_test","","","","","","","","",""
"898","","f","psychophysics","136","419560","0.0-8.0-1.0-4.0-0.0-0.14","6","6","6","5","5","5","4","4","5","5","5","2","-2","0","-1","-1","-2","1","0","5","4","2","5","4","5","4","4","4","4","4","4","7","6","6","4","4","7","6","3","5","1","2","5","2","3","3","5","2","1","2","2","2","2","2","6","3","4","2","3","3","3","3","2","2","6","2","5","5","7","5","3","7","2","3","3","2","6","2","3","718982212988436480","王","322","Female","[""坏我"",""坏她"",""好我"",""好她""]","[""弱我"",""弱她"",""强我"",""强她""]","","","","","","","","match","","","","","","","","","","key","f","16.65999999999963","720","446","f","true","match","img/pentagon.png","弱我","弱我","ALT2","ability","","","","","","","","",""
"null","<span style='color:GreenYellow; font-size: 70px;'>正确! </span>","null","html-keyboard-response","137","420076","0.0-8.0-1.0-4.0-0.0-1.14","6","6","6","5","5","5","4","4","5","5","5","2","-2","0","-1","-1","-2","1","0","5","4","2","5","4","5","4","4","4","4","4","4","7","6","6","4","4","7","6","3","5","1","2","5","2","3","3","5","2","1","2","2","2","2","2","6","3","4","2","3","3","3","3","2","2","6","2","5","5","7","5","3","7","2","3","3","2","6","2","3","718982212988436480","王","322","Female","[""坏我"",""坏她"",""好我"",""好她""]","[""弱我"",""弱她"",""强我"",""强她""]","","","","","","","","","","","","","","","","","","","","","","","","","","","","","","feedback_test","","","","","","","","",""
