"rt","stimulus","response","trial_type","trial_index","time_elapsed","internal_node_id","swb_1","swb_2","swb_3","swb_4","swb_5","LOT_1","LOT_2","LOT_3","LOT_4","LOT_5","LOT_6","IPC_1","IPC_2","IPC_3","IPC_4","IPC_5","IPC_6","IPC_7","IPC_8","MorIden_1","MorIden_2","MorIden_3","MorIden_4","MorIden_5","MorIden_6","MorIden_7","MorIden_8","MorIden_9","MorIden_10","moralSeImag_1","moralSeImag_2","moralSeImag_3","moralSeImag_4","moralSeImag_5","moralSeImag_6","moralSeImag_7","moralSeImag_8","moralSeImag_9","sde_1","sde_2","sde_3","sde_4","sde_5","sde_6","sde_7","sde_8","sde_9","sde_10","trap2","sde_11","sde_12","sde_13","sde_14","sde_15","sde_16","sde_17","sde_18","sde_19","sde_20","IM_1","IM_2","IM_3","IM_4","IM_5","IM_6","IM_7","IM_8","IM_9","IM_10","IM_11","IM_12","IM_13","IM_14","IM_15","IM_16","IM_17","IM_18","IM_19","IM_20","subj_idx","friend_name","ParticipantID","Sex","Word","Word2","value","success","timeout","failed_images","failed_audio","failed_video","user_agent","responses","item_order","radio_event_ids","radio_event_times","key_event_times","mouse_event_times","straightlining","zigzagging","honeypot","view_history","response_type","key_press","avg_frame_time","center_x","center_y","correct_response","correct","identity","Image","word","condition","task_id","screen_id","time_stamp","person","valence","domain","math","status","duration","question_order","trap2_item"
"2332","
   <p><div style='color:white; font-size: 25px'>您好，欢迎参加本次实验。</div></p>
   <p><div style='color:white; font-size: 25px'>为充分保障您的权利，请确保您已经知晓并同意《参与实验同意书》以及《数据公开知情同意书》。</div></p>
   <p><div style='color:white; font-size: 25px'>如果您未见过上述内容，请咨询实验员。</div></p>
   <p style='color:white; font-size: 25px'>如果您选择继续实验，则表示您已经清楚两份知情同意书的内容并同意。</p>
   <p><div style = ""color: pink;font-size:30px;"">请确保您记得day0的实验编号，您将在本次实验输入该编号，若您忘记，请咨询实验员后作答。</div></p>
   <p><div style = ""color:lightblue;font-size:25px;"">请您尽可能认真地作答，我们将依据您在各问卷和按键任务中的作答质量发放报酬。</div></p>
   <p> <div style = ""color: green""><按空格键至下页></div> </p>
   "," ","html-keyboard-response","0","2335","0.0-0.0","2","1","1","2","1","4","3","4","5","5","5","2","-1","0","1","-3","0","1","1","5","4","5","4","5","4","3","4","4","4","7","7","8","8","7","9","7","8","8","4","6","3","3","3","2","4","2","3","3","1","3","2","6","2","1","5","5","3","4","3","1","2","1","1","2","7","2","7","7","7","7","6","6","5","2","7","2","7","3","3","677293882131611648","张","112","Male","[""好他"",""坏他"",""好我"",""坏我""]","[""强他"",""弱他"",""强我"",""弱我""]","","","","","","","","","","","","","","","","","","","","","","","","","","","","","","","","","","","","","","",""
"","","","call-function","1","2336","0.0-1.0-0.0","2","1","1","2","1","4","3","4","5","5","5","2","-1","0","1","-3","0","1","1","5","4","5","4","5","4","3","4","4","4","7","7","8","8","7","9","7","8","8","4","6","3","3","3","2","4","2","3","3","1","3","2","6","2","1","5","5","3","4","3","1","2","1","1","2","7","2","7","7","7","7","6","6","5","2","7","2","7","3","3","677293882131611648","张","112","Male","[""好他"",""坏他"",""好我"",""坏我""]","[""强他"",""弱他"",""强我"",""弱我""]","","","","","","","","","","","","","","","","","","","","","","","","","","","","","","","","","","","","","","",""
"18038","","[{""name"":""Sex"",""value"":""0""},{""name"":""friend_name"",""value"":""张""},{""name"":""ParticipantID"",""value"":""112""}]","survey-html-form","2","20375","0.0-1.0-1.0","2","1","1","2","1","4","3","4","5","5","5","2","-1","0","1","-3","0","1","1","5","4","5","4","5","4","3","4","4","4","7","7","8","8","7","9","7","8","8","4","6","3","3","3","2","4","2","3","3","1","3","2","6","2","1","5","5","3","4","3","1","2","1","1","2","7","2","7","7","7","7","6","6","5","2","7","2","7","3","3","677293882131611648","张","112","Male","[""好他"",""坏他"",""好我"",""坏我""]","[""强他"",""弱他"",""强我"",""弱我""]","","","","","","","","","","","","","","","","","","","","","","","","","","","","","","","","","","","","","","",""
"","","","preload","3","20691","0.0-2.0","2","1","1","2","1","4","3","4","5","5","5","2","-1","0","1","-3","0","1","1","5","4","5","4","5","4","3","4","4","4","7","7","8","8","7","9","7","8","8","4","6","3","3","3","2","4","2","3","3","1","3","2","6","2","1","5","5","3","4","3","1","2","1","1","2","7","2","7","7","7","7","6","6","5","2","7","2","7","3","3","677293882131611648","张","112","Male","[""好他"",""坏他"",""好我"",""坏我""]","[""强他"",""弱他"",""强我"",""弱我""]","","true","false","[]","[]","[]","","","","","","","","","","","","","","","","","","","","","","","","","","","","","","","","",""
"","","","fullscreen","4","22629","0.0-3.0","2","1","1","2","1","4","3","4","5","5","5","2","-1","0","1","-3","0","1","1","5","4","5","4","5","4","3","4","4","4","7","7","8","8","7","9","7","8","8","4","6","3","3","3","2","4","2","3","3","1","3","2","6","2","1","5","5","3","4","3","1","2","1","1","2","7","2","7","7","7","7","6","6","5","2","7","2","7","3","3","677293882131611648","张","112","Male","[""好他"",""坏他"",""好我"",""坏我""]","[""强他"",""弱他"",""强我"",""弱我""]","","true","","","","","{}","","","","","","","","","","","","","","","","","","","","","","","","","","","","","","","",""
"12591.700000000186","","{""Q01"":""2"",""Q02"":""1"",""Q03"":""1"",""Q04"":""2"",""Q05"":""1""}","survey-template","5","35225","0.0-4.0","2","1","1","2","1","4","3","4","5","5","5","2","-1","0","1","-3","0","1","1","5","4","5","4","5","4","3","4","4","4","7","7","8","8","7","9","7","8","8","4","6","3","3","3","2","4","2","3","3","1","3","2","6","2","1","5","5","3","4","3","1","2","1","1","2","7","2","7","7","7","7","6","6","5","2","7","2","7","3","3","677293882131611648","张","112","Male","[""好他"",""坏他"",""好我"",""坏我""]","[""强他"",""弱他"",""强我"",""弱我""]","","","","","","","","{""Q01"":""2"",""Q02"":""1"",""Q03"":""1"",""Q04"":""2"",""Q05"":""1""}","[0,1,2,3,4]","[""Q01"",""Q02"",""Q03"",""Q04"",""Q05""]","[3862.2999999998137,6822.100000000093,7718.399999999907,10878.100000000093,11726.100000000093]","[]","[3862.2999999998137,6134.100000000093,6822.100000000093,7718.399999999907,9294.100000000093,10878.100000000093,11726.100000000093,12590]","0.6","0.75","0","","","","","","","","","","","","","","","","","","","","","","",""
"15832.200000000186","","{""Q01"":""4"",""Q02"":""3"",""Q03"":""4"",""Q04"":""5"",""Q05"":""5"",""Q06"":""5""}","survey-template","6","51064","0.0-5.0","2","1","1","2","1","4","3","4","5","5","5","2","-1","0","1","-3","0","1","1","5","4","5","4","5","4","3","4","4","4","7","7","8","8","7","9","7","8","8","4","6","3","3","3","2","4","2","3","3","1","3","2","6","2","1","5","5","3","4","3","1","2","1","1","2","7","2","7","7","7","7","6","6","5","2","7","2","7","3","3","677293882131611648","张","112","Male","[""好他"",""坏他"",""好我"",""坏我""]","[""强他"",""弱他"",""强我"",""弱我""]","","","","","","","","{""Q01"":""4"",""Q02"":""3"",""Q03"":""4"",""Q04"":""5"",""Q05"":""5"",""Q06"":""5""}","[0,1,2,3,4,5]","[""Q01"",""Q02"",""Q03"",""Q04"",""Q05"",""Q06""]","[2720.7000000001863,5343.100000000093,7327.200000000186,8943.200000000186,13071.200000000186,15367.200000000186]","[]","[2720.7000000001863,5343.100000000093,7327.200000000186,8943.200000000186,9919.200000000186,12335,13071.200000000186,14447.200000000186,15367.200000000186,15831.100000000093]","0.3333333333333333","0.6","0","","","","","","","","","","","","","","","","","","","","","","",""
"20435.799999999814","","{""Q01"":""2"",""Q02"":""-1"",""Q03"":""0"",""Q04"":""1"",""Q05"":""-3"",""Q06"":""0"",""Q07"":""1"",""Q08"":""1""}","survey-template","7","71505","0.0-6.0","2","1","1","2","1","4","3","4","5","5","5","2","-1","0","1","-3","0","1","1","5","4","5","4","5","4","3","4","4","4","7","7","8","8","7","9","7","8","8","4","6","3","3","3","2","4","2","3","3","1","3","2","6","2","1","5","5","3","4","3","1","2","1","1","2","7","2","7","7","7","7","6","6","5","2","7","2","7","3","3","677293882131611648","张","112","Male","[""好他"",""坏他"",""好我"",""坏我""]","[""强他"",""弱他"",""强我"",""弱我""]","","","","","","","","{""Q01"":""2"",""Q02"":""-1"",""Q03"":""0"",""Q04"":""1"",""Q05"":""-3"",""Q06"":""0"",""Q07"":""1"",""Q08"":""1""}","[0,1,2,3,4,5,6,7]","[""Q01"",""Q02"",""Q03"",""Q04"",""Q05"",""Q06"",""Q07"",""Q08""]","[3418.2000000001863,5802.100000000093,10458.200000000186,11154.200000000186,14322,15922,17802.100000000093,19970.100000000093]","[]","[3418.2000000001863,5802.100000000093,7218.100000000093,9505.899999999907,10458.200000000186,11154.200000000186,13282,14322,15922,17802.100000000093,19138.299999999814,19970.100000000093,20434.100000000093]","0.375","0.42857142857142855","0","","","","","","","","","","","","","","","","","","","","","","",""
"6474","","","instructions","8","77983","0.0-7.0","2","1","1","2","1","4","3","4","5","5","5","2","-1","0","1","-3","0","1","1","5","4","5","4","5","4","3","4","4","4","7","7","8","8","7","9","7","8","8","4","6","3","3","3","2","4","2","3","3","1","3","2","6","2","1","5","5","3","4","3","1","2","1","1","2","7","2","7","7","7","7","6","6","5","2","7","2","7","3","3","677293882131611648","张","112","Male","[""好他"",""坏他"",""好我"",""坏我""]","[""强他"",""弱他"",""强我"",""弱我""]","","","","","","","","","","","","","","","","","[{""page_index"":0,""viewing_time"":6474}]","","","","","","","","","","","","","","","","","","","","","",""
"57727","","","instructions","9","135712","0.0-8.0-1.0-0.0","2","1","1","2","1","4","3","4","5","5","5","2","-1","0","1","-3","0","1","1","5","4","5","4","5","4","3","4","4","4","7","7","8","8","7","9","7","8","8","4","6","3","3","3","2","4","2","3","3","1","3","2","6","2","1","5","5","3","4","3","1","2","1","1","2","7","2","7","7","7","7","6","6","5","2","7","2","7","3","3","677293882131611648","张","112","Male","[""好他"",""坏他"",""好我"",""坏我""]","[""强他"",""弱他"",""强我"",""弱我""]","","","","","","","","","","","","","","","","","[{""page_index"":0,""viewing_time"":1325},{""page_index"":1,""viewing_time"":31992},{""page_index"":2,""viewing_time"":17992},{""page_index"":3,""viewing_time"":6417}]","","","","","","","","","","","","","","","","","","","","","",""
"1084","","j","psychophysics","10","137800","0.0-8.0-1.0-1.0-0.0-0.0","2","1","1","2","1","4","3","4","5","5","5","2","-1","0","1","-3","0","1","1","5","4","5","4","5","4","3","4","4","4","7","7","8","8","7","9","7","8","8","4","6","3","3","3","2","4","2","3","3","1","3","2","6","2","1","5","5","3","4","3","1","2","1","1","2","7","2","7","7","7","7","6","6","5","2","7","2","7","3","3","677293882131611648","张","112","Male","[""好他"",""坏他"",""好我"",""坏我""]","[""强他"",""弱他"",""强我"",""弱我""]","","","","","","","","nonmatch","","","","","","","","","","key","j","21.64143750000009","683","380","j","true","nonmatch","img/triangle.png","强我","弱他","prac_ALT2_ability","practice_ability","","","","","","","","",""
"null","<span style='color:GreenYellow; font-size: 70px;'>正确! </span>","null","html-keyboard-response","11","138309","0.0-8.0-1.0-1.0-0.0-1.0","2","1","1","2","1","4","3","4","5","5","5","2","-1","0","1","-3","0","1","1","5","4","5","4","5","4","3","4","4","4","7","7","8","8","7","9","7","8","8","4","6","3","3","3","2","4","2","3","3","1","3","2","6","2","1","5","5","3","4","3","1","2","1","1","2","7","2","7","7","7","7","6","6","5","2","7","2","7","3","3","677293882131611648","张","112","Male","[""好他"",""坏他"",""好我"",""坏我""]","[""强他"",""弱他"",""强我"",""弱我""]","","","","","","","","","","","","","","","","","","","","","","","","","","","","","","feedback_test","","","","","","","","",""
"1132","","j","psychophysics","12","140442","0.0-8.0-1.0-1.0-0.0-0.1","2","1","1","2","1","4","3","4","5","5","5","2","-1","0","1","-3","0","1","1","5","4","5","4","5","4","3","4","4","4","7","7","8","8","7","9","7","8","8","4","6","3","3","3","2","4","2","3","3","1","3","2","6","2","1","5","5","3","4","3","1","2","1","1","2","7","2","7","7","7","7","6","6","5","2","7","2","7","3","3","677293882131611648","张","112","Male","[""好他"",""坏他"",""好我"",""坏我""]","[""强他"",""弱他"",""强我"",""弱我""]","","","","","","","","nonmatch","","","","","","","","","","key","j","19.041072727272827","683","380","j","true","nonmatch","img/triangle.png","弱我","弱他","prac_ALT2_ability","practice_ability","","","","","","","","",""
"null","<span style='color:GreenYellow; font-size: 70px;'>正确! </span>","null","html-keyboard-response","13","140948","0.0-8.0-1.0-1.0-0.0-1.1","2","1","1","2","1","4","3","4","5","5","5","2","-1","0","1","-3","0","1","1","5","4","5","4","5","4","3","4","4","4","7","7","8","8","7","9","7","8","8","4","6","3","3","3","2","4","2","3","3","1","3","2","6","2","1","5","5","3","4","3","1","2","1","1","2","7","2","7","7","7","7","6","6","5","2","7","2","7","3","3","677293882131611648","张","112","Male","[""好他"",""坏他"",""好我"",""坏我""]","[""强他"",""弱他"",""强我"",""弱我""]","","","","","","","","","","","","","","","","","","","","","","","","","","","","","","feedback_test","","","","","","","","",""
"877","","f","psychophysics","14","142832","0.0-8.0-1.0-1.0-0.0-0.2","2","1","1","2","1","4","3","4","5","5","5","2","-1","0","1","-3","0","1","1","5","4","5","4","5","4","3","4","4","4","7","7","8","8","7","9","7","8","8","4","6","3","3","3","2","4","2","3","3","1","3","2","6","2","1","5","5","3","4","3","1","2","1","1","2","7","2","7","7","7","7","6","6","5","2","7","2","7","3","3","677293882131611648","张","112","Male","[""好他"",""坏他"",""好我"",""坏我""]","[""强他"",""弱他"",""强我"",""弱我""]","","","","","","","","match","","","","","","","","","","key","f","19.58939999999987","683","380","f","true","match","img/pentagon.png","强他","强他","prac_ALT2_ability","practice_ability","","","","","","","","",""
"null","<span style='color:GreenYellow; font-size: 70px;'>正确! </span>","null","html-keyboard-response","15","143341","0.0-8.0-1.0-1.0-0.0-1.2","2","1","1","2","1","4","3","4","5","5","5","2","-1","0","1","-3","0","1","1","5","4","5","4","5","4","3","4","4","4","7","7","8","8","7","9","7","8","8","4","6","3","3","3","2","4","2","3","3","1","3","2","6","2","1","5","5","3","4","3","1","2","1","1","2","7","2","7","7","7","7","6","6","5","2","7","2","7","3","3","677293882131611648","张","112","Male","[""好他"",""坏他"",""好我"",""坏我""]","[""强他"",""弱他"",""强我"",""弱我""]","","","","","","","","","","","","","","","","","","","","","","","","","","","","","","feedback_test","","","","","","","","",""
"940","","f","psychophysics","16","145283","0.0-8.0-1.0-1.0-0.0-0.3","2","1","1","2","1","4","3","4","5","5","5","2","-1","0","1","-3","0","1","1","5","4","5","4","5","4","3","4","4","4","7","7","8","8","7","9","7","8","8","4","6","3","3","3","2","4","2","3","3","1","3","2","6","2","1","5","5","3","4","3","1","2","1","1","2","7","2","7","7","7","7","6","6","5","2","7","2","7","3","3","677293882131611648","张","112","Male","[""好他"",""坏他"",""好我"",""坏我""]","[""强他"",""弱他"",""强我"",""弱我""]","","","","","","","","match","","","","","","","","","","key","f","19.963593750000047","683","380","f","true","match","img/pentagon.png","强他","强他","prac_ALT2_ability","practice_ability","","","","","","","","",""
"null","<span style='color:GreenYellow; font-size: 70px;'>正确! </span>","null","html-keyboard-response","17","145789","0.0-8.0-1.0-1.0-0.0-1.3","2","1","1","2","1","4","3","4","5","5","5","2","-1","0","1","-3","0","1","1","5","4","5","4","5","4","3","4","4","4","7","7","8","8","7","9","7","8","8","4","6","3","3","3","2","4","2","3","3","1","3","2","6","2","1","5","5","3","4","3","1","2","1","1","2","7","2","7","7","7","7","6","6","5","2","7","2","7","3","3","677293882131611648","张","112","Male","[""好他"",""坏他"",""好我"",""坏我""]","[""强他"",""弱他"",""强我"",""弱我""]","","","","","","","","","","","","","","","","","","","","","","","","","","","","","","feedback_test","","","","","","","","",""
"806","","j","psychophysics","18","147599","0.0-8.0-1.0-1.0-0.0-0.4","2","1","1","2","1","4","3","4","5","5","5","2","-1","0","1","-3","0","1","1","5","4","5","4","5","4","3","4","4","4","7","7","8","8","7","9","7","8","8","4","6","3","3","3","2","4","2","3","3","1","3","2","6","2","1","5","5","3","4","3","1","2","1","1","2","7","2","7","7","7","7","6","6","5","2","7","2","7","3","3","677293882131611648","张","112","Male","[""好他"",""坏他"",""好我"",""坏我""]","[""强他"",""弱他"",""强我"",""弱我""]","","","","","","","","nonmatch","","","","","","","","","","key","j","19.17409677419346","683","380","j","true","nonmatch","img/square.png","强他","强我","prac_ALT2_ability","practice_ability","","","","","","","","",""
"null","<span style='color:GreenYellow; font-size: 70px;'>正确! </span>","null","html-keyboard-response","19","148100","0.0-8.0-1.0-1.0-0.0-1.4","2","1","1","2","1","4","3","4","5","5","5","2","-1","0","1","-3","0","1","1","5","4","5","4","5","4","3","4","4","4","7","7","8","8","7","9","7","8","8","4","6","3","3","3","2","4","2","3","3","1","3","2","6","2","1","5","5","3","4","3","1","2","1","1","2","7","2","7","7","7","7","6","6","5","2","7","2","7","3","3","677293882131611648","张","112","Male","[""好他"",""坏他"",""好我"",""坏我""]","[""强他"",""弱他"",""强我"",""弱我""]","","","","","","","","","","","","","","","","","","","","","","","","","","","","","","feedback_test","","","","","","","","",""
"883","","j","psychophysics","20","149991","0.0-8.0-1.0-1.0-0.0-0.5","2","1","1","2","1","4","3","4","5","5","5","2","-1","0","1","-3","0","1","1","5","4","5","4","5","4","3","4","4","4","7","7","8","8","7","9","7","8","8","4","6","3","3","3","2","4","2","3","3","1","3","2","6","2","1","5","5","3","4","3","1","2","1","1","2","7","2","7","7","7","7","6","6","5","2","7","2","7","3","3","677293882131611648","张","112","Male","[""好他"",""坏他"",""好我"",""坏我""]","[""强他"",""弱他"",""强我"",""弱我""]","","","","","","","","nonmatch","","","","","","","","","","key","j","21.327160919540102","683","380","j","true","nonmatch","img/pentagon.png","弱他","强他","prac_ALT2_ability","practice_ability","","","","","","","","",""
"null","<span style='color:GreenYellow; font-size: 70px;'>正确! </span>","null","html-keyboard-response","21","150493","0.0-8.0-1.0-1.0-0.0-1.5","2","1","1","2","1","4","3","4","5","5","5","2","-1","0","1","-3","0","1","1","5","4","5","4","5","4","3","4","4","4","7","7","8","8","7","9","7","8","8","4","6","3","3","3","2","4","2","3","3","1","3","2","6","2","1","5","5","3","4","3","1","2","1","1","2","7","2","7","7","7","7","6","6","5","2","7","2","7","3","3","677293882131611648","张","112","Male","[""好他"",""坏他"",""好我"",""坏我""]","[""强他"",""弱他"",""强我"",""弱我""]","","","","","","","","","","","","","","","","","","","","","","","","","","","","","","feedback_test","","","","","","","","",""
"694","","f","psychophysics","22","152194","0.0-8.0-1.0-1.0-0.0-0.6","2","1","1","2","1","4","3","4","5","5","5","2","-1","0","1","-3","0","1","1","5","4","5","4","5","4","3","4","4","4","7","7","8","8","7","9","7","8","8","4","6","3","3","3","2","4","2","3","3","1","3","2","6","2","1","5","5","3","4","3","1","2","1","1","2","7","2","7","7","7","7","6","6","5","2","7","2","7","3","3","677293882131611648","张","112","Male","[""好他"",""坏他"",""好我"",""坏我""]","[""强他"",""弱他"",""强我"",""弱我""]","","","","","","","","match","","","","","","","","","","key","f","21.109400000000097","683","380","f","true","match","img/square.png","强我","强我","prac_ALT2_ability","practice_ability","","","","","","","","",""
"null","<span style='color:GreenYellow; font-size: 70px;'>正确! </span>","null","html-keyboard-response","23","152701","0.0-8.0-1.0-1.0-0.0-1.6","2","1","1","2","1","4","3","4","5","5","5","2","-1","0","1","-3","0","1","1","5","4","5","4","5","4","3","4","4","4","7","7","8","8","7","9","7","8","8","4","6","3","3","3","2","4","2","3","3","1","3","2","6","2","1","5","5","3","4","3","1","2","1","1","2","7","2","7","7","7","7","6","6","5","2","7","2","7","3","3","677293882131611648","张","112","Male","[""好他"",""坏他"",""好我"",""坏我""]","[""强他"",""弱他"",""强我"",""弱我""]","","","","","","","","","","","","","","","","","","","","","","","","","","","","","","feedback_test","","","","","","","","",""
"802","","j","psychophysics","24","154511","0.0-8.0-1.0-1.0-0.0-0.7","2","1","1","2","1","4","3","4","5","5","5","2","-1","0","1","-3","0","1","1","5","4","5","4","5","4","3","4","4","4","7","7","8","8","7","9","7","8","8","4","6","3","3","3","2","4","2","3","3","1","3","2","6","2","1","5","5","3","4","3","1","2","1","1","2","7","2","7","7","7","7","6","6","5","2","7","2","7","3","3","677293882131611648","张","112","Male","[""好他"",""坏他"",""好我"",""坏我""]","[""强他"",""弱他"",""强我"",""弱我""]","","","","","","","","nonmatch","","","","","","","","","","key","j","20.994151162790732","683","380","j","true","nonmatch","img/pentagon.png","强我","强他","prac_ALT2_ability","practice_ability","","","","","","","","",""
"null","<span style='color:GreenYellow; font-size: 70px;'>正确! </span>","null","html-keyboard-response","25","155020","0.0-8.0-1.0-1.0-0.0-1.7","2","1","1","2","1","4","3","4","5","5","5","2","-1","0","1","-3","0","1","1","5","4","5","4","5","4","3","4","4","4","7","7","8","8","7","9","7","8","8","4","6","3","3","3","2","4","2","3","3","1","3","2","6","2","1","5","5","3","4","3","1","2","1","1","2","7","2","7","7","7","7","6","6","5","2","7","2","7","3","3","677293882131611648","张","112","Male","[""好他"",""坏他"",""好我"",""坏我""]","[""强他"",""弱他"",""强我"",""弱我""]","","","","","","","","","","","","","","","","","","","","","","","","","","","","","","feedback_test","","","","","","","","",""
"918","","f","psychophysics","26","156943","0.0-8.0-1.0-1.0-0.0-0.8","2","1","1","2","1","4","3","4","5","5","5","2","-1","0","1","-3","0","1","1","5","4","5","4","5","4","3","4","4","4","7","7","8","8","7","9","7","8","8","4","6","3","3","3","2","4","2","3","3","1","3","2","6","2","1","5","5","3","4","3","1","2","1","1","2","7","2","7","7","7","7","6","6","5","2","7","2","7","3","3","677293882131611648","张","112","Male","[""好他"",""坏他"",""好我"",""坏我""]","[""强他"",""弱他"",""强我"",""弱我""]","","","","","","","","match","","","","","","","","","","key","f","20.429301075268693","683","380","f","true","match","img/circle.png","弱我","弱我","prac_ALT2_ability","practice_ability","","","","","","","","",""
"null","<span style='color:GreenYellow; font-size: 70px;'>正确! </span>","null","html-keyboard-response","27","157445","0.0-8.0-1.0-1.0-0.0-1.8","2","1","1","2","1","4","3","4","5","5","5","2","-1","0","1","-3","0","1","1","5","4","5","4","5","4","3","4","4","4","7","7","8","8","7","9","7","8","8","4","6","3","3","3","2","4","2","3","3","1","3","2","6","2","1","5","5","3","4","3","1","2","1","1","2","7","2","7","7","7","7","6","6","5","2","7","2","7","3","3","677293882131611648","张","112","Male","[""好他"",""坏他"",""好我"",""坏我""]","[""强他"",""弱他"",""强我"",""弱我""]","","","","","","","","","","","","","","","","","","","","","","","","","","","","","","feedback_test","","","","","","","","",""
"744","","j","psychophysics","28","159196","0.0-8.0-1.0-1.0-0.0-0.9","2","1","1","2","1","4","3","4","5","5","5","2","-1","0","1","-3","0","1","1","5","4","5","4","5","4","3","4","4","4","7","7","8","8","7","9","7","8","8","4","6","3","3","3","2","4","2","3","3","1","3","2","6","2","1","5","5","3","4","3","1","2","1","1","2","7","2","7","7","7","7","6","6","5","2","7","2","7","3","3","677293882131611648","张","112","Male","[""好他"",""坏他"",""好我"",""坏我""]","[""强他"",""弱他"",""强我"",""弱我""]","","","","","","","","nonmatch","","","","","","","","","","key","j","20.50229761904761","683","380","j","true","nonmatch","img/square.png","弱他","强我","prac_ALT2_ability","practice_ability","","","","","","","","",""
"null","<span style='color:GreenYellow; font-size: 70px;'>正确! </span>","null","html-keyboard-response","29","159701","0.0-8.0-1.0-1.0-0.0-1.9","2","1","1","2","1","4","3","4","5","5","5","2","-1","0","1","-3","0","1","1","5","4","5","4","5","4","3","4","4","4","7","7","8","8","7","9","7","8","8","4","6","3","3","3","2","4","2","3","3","1","3","2","6","2","1","5","5","3","4","3","1","2","1","1","2","7","2","7","7","7","7","6","6","5","2","7","2","7","3","3","677293882131611648","张","112","Male","[""好他"",""坏他"",""好我"",""坏我""]","[""强他"",""弱他"",""强我"",""弱我""]","","","","","","","","","","","","","","","","","","","","","","","","","","","","","","feedback_test","","","","","","","","",""
"710","","f","psychophysics","30","161418","0.0-8.0-1.0-1.0-0.0-0.10","2","1","1","2","1","4","3","4","5","5","5","2","-1","0","1","-3","0","1","1","5","4","5","4","5","4","3","4","4","4","7","7","8","8","7","9","7","8","8","4","6","3","3","3","2","4","2","3","3","1","3","2","6","2","1","5","5","3","4","3","1","2","1","1","2","7","2","7","7","7","7","6","6","5","2","7","2","7","3","3","677293882131611648","张","112","Male","[""好他"",""坏他"",""好我"",""坏我""]","[""强他"",""弱他"",""强我"",""弱我""]","","","","","","","","match","","","","","","","","","","key","f","20.105142857142795","683","380","f","true","match","img/square.png","强我","强我","prac_ALT2_ability","practice_ability","","","","","","","","",""
"null","<span style='color:GreenYellow; font-size: 70px;'>正确! </span>","null","html-keyboard-response","31","161924","0.0-8.0-1.0-1.0-0.0-1.10","2","1","1","2","1","4","3","4","5","5","5","2","-1","0","1","-3","0","1","1","5","4","5","4","5","4","3","4","4","4","7","7","8","8","7","9","7","8","8","4","6","3","3","3","2","4","2","3","3","1","3","2","6","2","1","5","5","3","4","3","1","2","1","1","2","7","2","7","7","7","7","6","6","5","2","7","2","7","3","3","677293882131611648","张","112","Male","[""好他"",""坏他"",""好我"",""坏我""]","[""强他"",""弱他"",""强我"",""弱我""]","","","","","","","","","","","","","","","","","","","","","","","","","","","","","","feedback_test","","","","","","","","",""
"983","","f","psychophysics","32","163909","0.0-8.0-1.0-1.0-0.0-0.11","2","1","1","2","1","4","3","4","5","5","5","2","-1","0","1","-3","0","1","1","5","4","5","4","5","4","3","4","4","4","7","7","8","8","7","9","7","8","8","4","6","3","3","3","2","4","2","3","3","1","3","2","6","2","1","5","5","3","4","3","1","2","1","1","2","7","2","7","7","7","7","6","6","5","2","7","2","7","3","3","677293882131611648","张","112","Male","[""好他"",""坏他"",""好我"",""坏我""]","[""强他"",""弱他"",""强我"",""弱我""]","","","","","","","","match","","","","","","","","","","key","f","21.254891304347638","683","380","f","true","match","img/triangle.png","弱他","弱他","prac_ALT2_ability","practice_ability","","","","","","","","",""
"null","<span style='color:GreenYellow; font-size: 70px;'>正确! </span>","null","html-keyboard-response","33","164413","0.0-8.0-1.0-1.0-0.0-1.11","2","1","1","2","1","4","3","4","5","5","5","2","-1","0","1","-3","0","1","1","5","4","5","4","5","4","3","4","4","4","7","7","8","8","7","9","7","8","8","4","6","3","3","3","2","4","2","3","3","1","3","2","6","2","1","5","5","3","4","3","1","2","1","1","2","7","2","7","7","7","7","6","6","5","2","7","2","7","3","3","677293882131611648","张","112","Male","[""好他"",""坏他"",""好我"",""坏我""]","[""强他"",""弱他"",""强我"",""弱我""]","","","","","","","","","","","","","","","","","","","","","","","","","","","","","","feedback_test","","","","","","","","",""
"967","","j","psychophysics","34","166388","0.0-8.0-1.0-1.0-0.0-0.12","2","1","1","2","1","4","3","4","5","5","5","2","-1","0","1","-3","0","1","1","5","4","5","4","5","4","3","4","4","4","7","7","8","8","7","9","7","8","8","4","6","3","3","3","2","4","2","3","3","1","3","2","6","2","1","5","5","3","4","3","1","2","1","1","2","7","2","7","7","7","7","6","6","5","2","7","2","7","3","3","677293882131611648","张","112","Male","[""好他"",""坏他"",""好我"",""坏我""]","[""强他"",""弱他"",""强我"",""弱我""]","","","","","","","","nonmatch","","","","","","","","","","key","j","20.80277659574448","683","380","j","true","nonmatch","img/circle.png","强我","弱我","prac_ALT2_ability","practice_ability","","","","","","","","",""
"null","<span style='color:GreenYellow; font-size: 70px;'>正确! </span>","null","html-keyboard-response","35","166892","0.0-8.0-1.0-1.0-0.0-1.12","2","1","1","2","1","4","3","4","5","5","5","2","-1","0","1","-3","0","1","1","5","4","5","4","5","4","3","4","4","4","7","7","8","8","7","9","7","8","8","4","6","3","3","3","2","4","2","3","3","1","3","2","6","2","1","5","5","3","4","3","1","2","1","1","2","7","2","7","7","7","7","6","6","5","2","7","2","7","3","3","677293882131611648","张","112","Male","[""好他"",""坏他"",""好我"",""坏我""]","[""强他"",""弱他"",""强我"",""弱我""]","","","","","","","","","","","","","","","","","","","","","","","","","","","","","","feedback_test","","","","","","","","",""
"776","","j","psychophysics","36","168677","0.0-8.0-1.0-1.0-0.0-0.13","2","1","1","2","1","4","3","4","5","5","5","2","-1","0","1","-3","0","1","1","5","4","5","4","5","4","3","4","4","4","7","7","8","8","7","9","7","8","8","4","6","3","3","3","2","4","2","3","3","1","3","2","6","2","1","5","5","3","4","3","1","2","1","1","2","7","2","7","7","7","7","6","6","5","2","7","2","7","3","3","677293882131611648","张","112","Male","[""好他"",""坏他"",""好我"",""坏我""]","[""强他"",""弱他"",""强我"",""弱我""]","","","","","","","","nonmatch","","","","","","","","","","key","j","20.41243023255828","683","380","j","true","nonmatch","img/circle.png","强他","弱我","prac_ALT2_ability","practice_ability","","","","","","","","",""
"null","<span style='color:GreenYellow; font-size: 70px;'>正确! </span>","null","html-keyboard-response","37","169180","0.0-8.0-1.0-1.0-0.0-1.13","2","1","1","2","1","4","3","4","5","5","5","2","-1","0","1","-3","0","1","1","5","4","5","4","5","4","3","4","4","4","7","7","8","8","7","9","7","8","8","4","6","3","3","3","2","4","2","3","3","1","3","2","6","2","1","5","5","3","4","3","1","2","1","1","2","7","2","7","7","7","7","6","6","5","2","7","2","7","3","3","677293882131611648","张","112","Male","[""好他"",""坏他"",""好我"",""坏我""]","[""强他"",""弱他"",""强我"",""弱我""]","","","","","","","","","","","","","","","","","","","","","","","","","","","","","","feedback_test","","","","","","","","",""
"800","","j","psychophysics","38","170989","0.0-8.0-1.0-1.0-0.0-0.14","2","1","1","2","1","4","3","4","5","5","5","2","-1","0","1","-3","0","1","1","5","4","5","4","5","4","3","4","4","4","7","7","8","8","7","9","7","8","8","4","6","3","3","3","2","4","2","3","3","1","3","2","6","2","1","5","5","3","4","3","1","2","1","1","2","7","2","7","7","7","7","6","6","5","2","7","2","7","3","3","677293882131611648","张","112","Male","[""好他"",""坏他"",""好我"",""坏我""]","[""强他"",""弱他"",""强我"",""弱我""]","","","","","","","","nonmatch","","","","","","","","","","key","j","21.150084337349337","683","380","f","false","match","img/triangle.png","弱他","弱他","prac_ALT2_ability","practice_ability","","","","","","","","",""
"null","<span style='color:red; font-size: 70px;'>错误! </span>","null","html-keyboard-response","39","171493","0.0-8.0-1.0-1.0-0.0-1.14","2","1","1","2","1","4","3","4","5","5","5","2","-1","0","1","-3","0","1","1","5","4","5","4","5","4","3","4","4","4","7","7","8","8","7","9","7","8","8","4","6","3","3","3","2","4","2","3","3","1","3","2","6","2","1","5","5","3","4","3","1","2","1","1","2","7","2","7","7","7","7","6","6","5","2","7","2","7","3","3","677293882131611648","张","112","Male","[""好他"",""坏他"",""好我"",""坏我""]","[""强他"",""弱他"",""强我"",""弱我""]","","","","","","","","","","","","","","","","","","","","","","","","","","","","","","feedback_test","","","","","","","","",""
"877","","j","psychophysics","40","173378","0.0-8.0-1.0-1.0-0.0-0.15","2","1","1","2","1","4","3","4","5","5","5","2","-1","0","1","-3","0","1","1","5","4","5","4","5","4","3","4","4","4","7","7","8","8","7","9","7","8","8","4","6","3","3","3","2","4","2","3","3","1","3","2","6","2","1","5","5","3","4","3","1","2","1","1","2","7","2","7","7","7","7","6","6","5","2","7","2","7","3","3","677293882131611648","张","112","Male","[""好他"",""坏他"",""好我"",""坏我""]","[""强他"",""弱他"",""强我"",""弱我""]","","","","","","","","nonmatch","","","","","","","","","","key","j","20.107858695651963","683","380","j","true","nonmatch","img/pentagon.png","弱我","强他","prac_ALT2_ability","practice_ability","","","","","","","","",""
"null","<span style='color:GreenYellow; font-size: 70px;'>正确! </span>","null","html-keyboard-response","41","173884","0.0-8.0-1.0-1.0-0.0-1.15","2","1","1","2","1","4","3","4","5","5","5","2","-1","0","1","-3","0","1","1","5","4","5","4","5","4","3","4","4","4","7","7","8","8","7","9","7","8","8","4","6","3","3","3","2","4","2","3","3","1","3","2","6","2","1","5","5","3","4","3","1","2","1","1","2","7","2","7","7","7","7","6","6","5","2","7","2","7","3","3","677293882131611648","张","112","Male","[""好他"",""坏他"",""好我"",""坏我""]","[""强他"",""弱他"",""强我"",""弱我""]","","","","","","","","","","","","","","","","","","","","","","","","","","","","","","feedback_test","","","","","","","","",""
"909","","f","psychophysics","42","175800","0.0-8.0-1.0-1.0-0.0-0.16","2","1","1","2","1","4","3","4","5","5","5","2","-1","0","1","-3","0","1","1","5","4","5","4","5","4","3","4","4","4","7","7","8","8","7","9","7","8","8","4","6","3","3","3","2","4","2","3","3","1","3","2","6","2","1","5","5","3","4","3","1","2","1","1","2","7","2","7","7","7","7","6","6","5","2","7","2","7","3","3","677293882131611648","张","112","Male","[""好他"",""坏他"",""好我"",""坏我""]","[""强他"",""弱他"",""强我"",""弱我""]","","","","","","","","match","","","","","","","","","","key","f","19.998821052631644","683","380","f","true","match","img/circle.png","弱我","弱我","prac_ALT2_ability","practice_ability","","","","","","","","",""
"null","<span style='color:GreenYellow; font-size: 70px;'>正确! </span>","null","html-keyboard-response","43","176309","0.0-8.0-1.0-1.0-0.0-1.16","2","1","1","2","1","4","3","4","5","5","5","2","-1","0","1","-3","0","1","1","5","4","5","4","5","4","3","4","4","4","7","7","8","8","7","9","7","8","8","4","6","3","3","3","2","4","2","3","3","1","3","2","6","2","1","5","5","3","4","3","1","2","1","1","2","7","2","7","7","7","7","6","6","5","2","7","2","7","3","3","677293882131611648","张","112","Male","[""好他"",""坏他"",""好我"",""坏我""]","[""强他"",""弱他"",""强我"",""弱我""]","","","","","","","","","","","","","","","","","","","","","","","","","","","","","","feedback_test","","","","","","","","",""
"880","","f","psychophysics","44","178196","0.0-8.0-1.0-1.0-0.0-0.17","2","1","1","2","1","4","3","4","5","5","5","2","-1","0","1","-3","0","1","1","5","4","5","4","5","4","3","4","4","4","7","7","8","8","7","9","7","8","8","4","6","3","3","3","2","4","2","3","3","1","3","2","6","2","1","5","5","3","4","3","1","2","1","1","2","7","2","7","7","7","7","6","6","5","2","7","2","7","3","3","677293882131611648","张","112","Male","[""好他"",""坏他"",""好我"",""坏我""]","[""强他"",""弱他"",""强我"",""弱我""]","","","","","","","","match","","","","","","","","","","key","f","20.349576086956443","683","380","f","true","match","img/circle.png","弱我","弱我","prac_ALT2_ability","practice_ability","","","","","","","","",""
"null","<span style='color:GreenYellow; font-size: 70px;'>正确! </span>","null","html-keyboard-response","45","178700","0.0-8.0-1.0-1.0-0.0-1.17","2","1","1","2","1","4","3","4","5","5","5","2","-1","0","1","-3","0","1","1","5","4","5","4","5","4","3","4","4","4","7","7","8","8","7","9","7","8","8","4","6","3","3","3","2","4","2","3","3","1","3","2","6","2","1","5","5","3","4","3","1","2","1","1","2","7","2","7","7","7","7","6","6","5","2","7","2","7","3","3","677293882131611648","张","112","Male","[""好他"",""坏他"",""好我"",""坏我""]","[""强他"",""弱他"",""强我"",""弱我""]","","","","","","","","","","","","","","","","","","","","","","","","","","","","","","feedback_test","","","","","","","","",""
"764","","f","psychophysics","46","180472","0.0-8.0-1.0-1.0-0.0-0.18","2","1","1","2","1","4","3","4","5","5","5","2","-1","0","1","-3","0","1","1","5","4","5","4","5","4","3","4","4","4","7","7","8","8","7","9","7","8","8","4","6","3","3","3","2","4","2","3","3","1","3","2","6","2","1","5","5","3","4","3","1","2","1","1","2","7","2","7","7","7","7","6","6","5","2","7","2","7","3","3","677293882131611648","张","112","Male","[""好他"",""坏他"",""好我"",""坏我""]","[""强他"",""弱他"",""强我"",""弱我""]","","","","","","","","match","","","","","","","","","","key","f","21.596074999999836","683","380","f","true","match","img/pentagon.png","强他","强他","prac_ALT2_ability","practice_ability","","","","","","","","",""
"null","<span style='color:GreenYellow; font-size: 70px;'>正确! </span>","null","html-keyboard-response","47","180973","0.0-8.0-1.0-1.0-0.0-1.18","2","1","1","2","1","4","3","4","5","5","5","2","-1","0","1","-3","0","1","1","5","4","5","4","5","4","3","4","4","4","7","7","8","8","7","9","7","8","8","4","6","3","3","3","2","4","2","3","3","1","3","2","6","2","1","5","5","3","4","3","1","2","1","1","2","7","2","7","7","7","7","6","6","5","2","7","2","7","3","3","677293882131611648","张","112","Male","[""好他"",""坏他"",""好我"",""坏我""]","[""强他"",""弱他"",""强我"",""弱我""]","","","","","","","","","","","","","","","","","","","","","","","","","","","","","","feedback_test","","","","","","","","",""
"940","","f","psychophysics","48","182915","0.0-8.0-1.0-1.0-0.0-0.19","2","1","1","2","1","4","3","4","5","5","5","2","-1","0","1","-3","0","1","1","5","4","5","4","5","4","3","4","4","4","7","7","8","8","7","9","7","8","8","4","6","3","3","3","2","4","2","3","3","1","3","2","6","2","1","5","5","3","4","3","1","2","1","1","2","7","2","7","7","7","7","6","6","5","2","7","2","7","3","3","677293882131611648","张","112","Male","[""好他"",""坏他"",""好我"",""坏我""]","[""强他"",""弱他"",""强我"",""弱我""]","","","","","","","","match","","","","","","","","","","key","f","20.173578947368323","683","380","f","true","match","img/triangle.png","弱他","弱他","prac_ALT2_ability","practice_ability","","","","","","","","",""
"null","<span style='color:GreenYellow; font-size: 70px;'>正确! </span>","null","html-keyboard-response","49","183432","0.0-8.0-1.0-1.0-0.0-1.19","2","1","1","2","1","4","3","4","5","5","5","2","-1","0","1","-3","0","1","1","5","4","5","4","5","4","3","4","4","4","7","7","8","8","7","9","7","8","8","4","6","3","3","3","2","4","2","3","3","1","3","2","6","2","1","5","5","3","4","3","1","2","1","1","2","7","2","7","7","7","7","6","6","5","2","7","2","7","3","3","677293882131611648","张","112","Male","[""好他"",""坏他"",""好我"",""坏我""]","[""强他"",""弱他"",""强我"",""弱我""]","","","","","","","","","","","","","","","","","","","","","","","","","","","","","","feedback_test","","","","","","","","",""
"868","","f","psychophysics","50","185305","0.0-8.0-1.0-1.0-0.0-0.20","2","1","1","2","1","4","3","4","5","5","5","2","-1","0","1","-3","0","1","1","5","4","5","4","5","4","3","4","4","4","7","7","8","8","7","9","7","8","8","4","6","3","3","3","2","4","2","3","3","1","3","2","6","2","1","5","5","3","4","3","1","2","1","1","2","7","2","7","7","7","7","6","6","5","2","7","2","7","3","3","677293882131611648","张","112","Male","[""好他"",""坏他"",""好我"",""坏我""]","[""强他"",""弱他"",""强我"",""弱我""]","","","","","","","","match","","","","","","","","","","key","f","21.762823529411722","683","380","f","true","match","img/square.png","强我","强我","prac_ALT2_ability","practice_ability","","","","","","","","",""
"null","<span style='color:GreenYellow; font-size: 70px;'>正确! </span>","null","html-keyboard-response","51","185813","0.0-8.0-1.0-1.0-0.0-1.20","2","1","1","2","1","4","3","4","5","5","5","2","-1","0","1","-3","0","1","1","5","4","5","4","5","4","3","4","4","4","7","7","8","8","7","9","7","8","8","4","6","3","3","3","2","4","2","3","3","1","3","2","6","2","1","5","5","3","4","3","1","2","1","1","2","7","2","7","7","7","7","6","6","5","2","7","2","7","3","3","677293882131611648","张","112","Male","[""好他"",""坏他"",""好我"",""坏我""]","[""强他"",""弱他"",""强我"",""弱我""]","","","","","","","","","","","","","","","","","","","","","","","","","","","","","","feedback_test","","","","","","","","",""
"1010","","j","psychophysics","52","187829","0.0-8.0-1.0-1.0-0.0-0.21","2","1","1","2","1","4","3","4","5","5","5","2","-1","0","1","-3","0","1","1","5","4","5","4","5","4","3","4","4","4","7","7","8","8","7","9","7","8","8","4","6","3","3","3","2","4","2","3","3","1","3","2","6","2","1","5","5","3","4","3","1","2","1","1","2","7","2","7","7","7","7","6","6","5","2","7","2","7","3","3","677293882131611648","张","112","Male","[""好他"",""坏他"",""好我"",""坏我""]","[""强他"",""弱他"",""强我"",""弱我""]","","","","","","","","nonmatch","","","","","","","","","","key","j","20.657708333333478","683","380","j","true","nonmatch","img/square.png","弱我","强我","prac_ALT2_ability","practice_ability","","","","","","","","",""
"null","<span style='color:GreenYellow; font-size: 70px;'>正确! </span>","null","html-keyboard-response","53","188333","0.0-8.0-1.0-1.0-0.0-1.21","2","1","1","2","1","4","3","4","5","5","5","2","-1","0","1","-3","0","1","1","5","4","5","4","5","4","3","4","4","4","7","7","8","8","7","9","7","8","8","4","6","3","3","3","2","4","2","3","3","1","3","2","6","2","1","5","5","3","4","3","1","2","1","1","2","7","2","7","7","7","7","6","6","5","2","7","2","7","3","3","677293882131611648","张","112","Male","[""好他"",""坏他"",""好我"",""坏我""]","[""强他"",""弱他"",""强我"",""弱我""]","","","","","","","","","","","","","","","","","","","","","","","","","","","","","","feedback_test","","","","","","","","",""
"989","","j","psychophysics","54","190329","0.0-8.0-1.0-1.0-0.0-0.22","2","1","1","2","1","4","3","4","5","5","5","2","-1","0","1","-3","0","1","1","5","4","5","4","5","4","3","4","4","4","7","7","8","8","7","9","7","8","8","4","6","3","3","3","2","4","2","3","3","1","3","2","6","2","1","5","5","3","4","3","1","2","1","1","2","7","2","7","7","7","7","6","6","5","2","7","2","7","3","3","677293882131611648","张","112","Male","[""好他"",""坏他"",""好我"",""坏我""]","[""强他"",""弱他"",""强我"",""弱我""]","","","","","","","","nonmatch","","","","","","","","","","key","j","19.887630000000062","683","380","j","true","nonmatch","img/triangle.png","强他","弱他","prac_ALT2_ability","practice_ability","","","","","","","","",""
"null","<span style='color:GreenYellow; font-size: 70px;'>正确! </span>","null","html-keyboard-response","55","190836","0.0-8.0-1.0-1.0-0.0-1.22","2","1","1","2","1","4","3","4","5","5","5","2","-1","0","1","-3","0","1","1","5","4","5","4","5","4","3","4","4","4","7","7","8","8","7","9","7","8","8","4","6","3","3","3","2","4","2","3","3","1","3","2","6","2","1","5","5","3","4","3","1","2","1","1","2","7","2","7","7","7","7","6","6","5","2","7","2","7","3","3","677293882131611648","张","112","Male","[""好他"",""坏他"",""好我"",""坏我""]","[""强他"",""弱他"",""强我"",""弱我""]","","","","","","","","","","","","","","","","","","","","","","","","","","","","","","feedback_test","","","","","","","","",""
"982","","j","psychophysics","56","192823","0.0-8.0-1.0-1.0-0.0-0.23","2","1","1","2","1","4","3","4","5","5","5","2","-1","0","1","-3","0","1","1","5","4","5","4","5","4","3","4","4","4","7","7","8","8","7","9","7","8","8","4","6","3","3","3","2","4","2","3","3","1","3","2","6","2","1","5","5","3","4","3","1","2","1","1","2","7","2","7","7","7","7","6","6","5","2","7","2","7","3","3","677293882131611648","张","112","Male","[""好他"",""坏他"",""好我"",""坏我""]","[""强他"",""弱他"",""强我"",""弱我""]","","","","","","","","nonmatch","","","","","","","","","","key","j","19.953612244897936","683","380","j","true","nonmatch","img/circle.png","弱他","弱我","prac_ALT2_ability","practice_ability","","","","","","","","",""
"null","<span style='color:GreenYellow; font-size: 70px;'>正确! </span>","null","html-keyboard-response","57","193325","0.0-8.0-1.0-1.0-0.0-1.23","2","1","1","2","1","4","3","4","5","5","5","2","-1","0","1","-3","0","1","1","5","4","5","4","5","4","3","4","4","4","7","7","8","8","7","9","7","8","8","4","6","3","3","3","2","4","2","3","3","1","3","2","6","2","1","5","5","3","4","3","1","2","1","1","2","7","2","7","7","7","7","6","6","5","2","7","2","7","3","3","677293882131611648","张","112","Male","[""好他"",""坏他"",""好我"",""坏我""]","[""强他"",""弱他"",""强我"",""弱我""]","","","","","","","","","","","","","","","","","","","","","","","","","","","","","","feedback_test","","","","","","","","",""
"1051","","j","psychophysics","58","195383","0.0-8.0-1.0-1.0-0.0-0.24","2","1","1","2","1","4","3","4","5","5","5","2","-1","0","1","-3","0","1","1","5","4","5","4","5","4","3","4","4","4","7","7","8","8","7","9","7","8","8","4","6","3","3","3","2","4","2","3","3","1","3","2","6","2","1","5","5","3","4","3","1","2","1","1","2","7","2","7","7","7","7","6","6","5","2","7","2","7","3","3","677293882131611648","张","112","Male","[""好他"",""坏他"",""好我"",""坏我""]","[""强他"",""弱他"",""强我"",""弱我""]","","","","","","","","nonmatch","","","","","","","","","","key","j","21.743430107527146","683","380","j","true","nonmatch","img/triangle.png","强我","弱他","prac_ALT2_ability","practice_ability","","","","","","","","",""
"null","<span style='color:GreenYellow; font-size: 70px;'>正确! </span>","null","html-keyboard-response","59","195884","0.0-8.0-1.0-1.0-0.0-1.24","2","1","1","2","1","4","3","4","5","5","5","2","-1","0","1","-3","0","1","1","5","4","5","4","5","4","3","4","4","4","7","7","8","8","7","9","7","8","8","4","6","3","3","3","2","4","2","3","3","1","3","2","6","2","1","5","5","3","4","3","1","2","1","1","2","7","2","7","7","7","7","6","6","5","2","7","2","7","3","3","677293882131611648","张","112","Male","[""好他"",""坏他"",""好我"",""坏我""]","[""强他"",""弱他"",""强我"",""弱我""]","","","","","","","","","","","","","","","","","","","","","","","","","","","","","","feedback_test","","","","","","","","",""
"830","","j","psychophysics","60","197720","0.0-8.0-1.0-1.0-0.0-0.25","2","1","1","2","1","4","3","4","5","5","5","2","-1","0","1","-3","0","1","1","5","4","5","4","5","4","3","4","4","4","7","7","8","8","7","9","7","8","8","4","6","3","3","3","2","4","2","3","3","1","3","2","6","2","1","5","5","3","4","3","1","2","1","1","2","7","2","7","7","7","7","6","6","5","2","7","2","7","3","3","677293882131611648","张","112","Male","[""好他"",""坏他"",""好我"",""坏我""]","[""强他"",""弱他"",""强我"",""弱我""]","","","","","","","","nonmatch","","","","","","","","","","key","j","19.779230769230807","683","380","j","true","nonmatch","img/square.png","弱我","强我","prac_ALT2_ability","practice_ability","","","","","","","","",""
"null","<span style='color:GreenYellow; font-size: 70px;'>正确! </span>","null","html-keyboard-response","61","198220","0.0-8.0-1.0-1.0-0.0-1.25","2","1","1","2","1","4","3","4","5","5","5","2","-1","0","1","-3","0","1","1","5","4","5","4","5","4","3","4","4","4","7","7","8","8","7","9","7","8","8","4","6","3","3","3","2","4","2","3","3","1","3","2","6","2","1","5","5","3","4","3","1","2","1","1","2","7","2","7","7","7","7","6","6","5","2","7","2","7","3","3","677293882131611648","张","112","Male","[""好他"",""坏他"",""好我"",""坏我""]","[""强他"",""弱他"",""强我"",""弱我""]","","","","","","","","","","","","","","","","","","","","","","","","","","","","","","feedback_test","","","","","","","","",""
"960","","f","psychophysics","62","200184","0.0-8.0-1.0-1.0-0.0-0.26","2","1","1","2","1","4","3","4","5","5","5","2","-1","0","1","-3","0","1","1","5","4","5","4","5","4","3","4","4","4","7","7","8","8","7","9","7","8","8","4","6","3","3","3","2","4","2","3","3","1","3","2","6","2","1","5","5","3","4","3","1","2","1","1","2","7","2","7","7","7","7","6","6","5","2","7","2","7","3","3","677293882131611648","张","112","Male","[""好他"",""坏他"",""好我"",""坏我""]","[""强他"",""弱他"",""强我"",""弱我""]","","","","","","","","match","","","","","","","","","","key","f","20.668311827956895","683","380","f","true","match","img/triangle.png","弱他","弱他","prac_ALT2_ability","practice_ability","","","","","","","","",""
"null","<span style='color:GreenYellow; font-size: 70px;'>正确! </span>","null","html-keyboard-response","63","200693","0.0-8.0-1.0-1.0-0.0-1.26","2","1","1","2","1","4","3","4","5","5","5","2","-1","0","1","-3","0","1","1","5","4","5","4","5","4","3","4","4","4","7","7","8","8","7","9","7","8","8","4","6","3","3","3","2","4","2","3","3","1","3","2","6","2","1","5","5","3","4","3","1","2","1","1","2","7","2","7","7","7","7","6","6","5","2","7","2","7","3","3","677293882131611648","张","112","Male","[""好他"",""坏他"",""好我"",""坏我""]","[""强他"",""弱他"",""强我"",""弱我""]","","","","","","","","","","","","","","","","","","","","","","","","","","","","","","feedback_test","","","","","","","","",""
"1055","","j","psychophysics","64","202756","0.0-8.0-1.0-1.0-0.0-0.27","2","1","1","2","1","4","3","4","5","5","5","2","-1","0","1","-3","0","1","1","5","4","5","4","5","4","3","4","4","4","7","7","8","8","7","9","7","8","8","4","6","3","3","3","2","4","2","3","3","1","3","2","6","2","1","5","5","3","4","3","1","2","1","1","2","7","2","7","7","7","7","6","6","5","2","7","2","7","3","3","677293882131611648","张","112","Male","[""好他"",""坏他"",""好我"",""坏我""]","[""强他"",""弱他"",""强我"",""弱我""]","","","","","","","","nonmatch","","","","","","","","","","key","j","20.961082474226863","683","380","j","true","nonmatch","img/circle.png","强我","弱我","prac_ALT2_ability","practice_ability","","","","","","","","",""
"null","<span style='color:GreenYellow; font-size: 70px;'>正确! </span>","null","html-keyboard-response","65","203260","0.0-8.0-1.0-1.0-0.0-1.27","2","1","1","2","1","4","3","4","5","5","5","2","-1","0","1","-3","0","1","1","5","4","5","4","5","4","3","4","4","4","7","7","8","8","7","9","7","8","8","4","6","3","3","3","2","4","2","3","3","1","3","2","6","2","1","5","5","3","4","3","1","2","1","1","2","7","2","7","7","7","7","6","6","5","2","7","2","7","3","3","677293882131611648","张","112","Male","[""好他"",""坏他"",""好我"",""坏我""]","[""强他"",""弱他"",""强我"",""弱我""]","","","","","","","","","","","","","","","","","","","","","","","","","","","","","","feedback_test","","","","","","","","",""
"890","","f","psychophysics","66","205160","0.0-8.0-1.0-1.0-0.0-0.28","2","1","1","2","1","4","3","4","5","5","5","2","-1","0","1","-3","0","1","1","5","4","5","4","5","4","3","4","4","4","7","7","8","8","7","9","7","8","8","4","6","3","3","3","2","4","2","3","3","1","3","2","6","2","1","5","5","3","4","3","1","2","1","1","2","7","2","7","7","7","7","6","6","5","2","7","2","7","3","3","677293882131611648","张","112","Male","[""好他"",""坏他"",""好我"",""坏我""]","[""强他"",""弱他"",""强我"",""弱我""]","","","","","","","","match","","","","","","","","","","key","f","20.695329670329606","683","380","f","true","match","img/triangle.png","弱他","弱他","prac_ALT2_ability","practice_ability","","","","","","","","",""
"null","<span style='color:GreenYellow; font-size: 70px;'>正确! </span>","null","html-keyboard-response","67","205668","0.0-8.0-1.0-1.0-0.0-1.28","2","1","1","2","1","4","3","4","5","5","5","2","-1","0","1","-3","0","1","1","5","4","5","4","5","4","3","4","4","4","7","7","8","8","7","9","7","8","8","4","6","3","3","3","2","4","2","3","3","1","3","2","6","2","1","5","5","3","4","3","1","2","1","1","2","7","2","7","7","7","7","6","6","5","2","7","2","7","3","3","677293882131611648","张","112","Male","[""好他"",""坏他"",""好我"",""坏我""]","[""强他"",""弱他"",""强我"",""弱我""]","","","","","","","","","","","","","","","","","","","","","","","","","","","","","","feedback_test","","","","","","","","",""
"917","","f","psychophysics","68","207591","0.0-8.0-1.0-1.0-0.0-0.29","2","1","1","2","1","4","3","4","5","5","5","2","-1","0","1","-3","0","1","1","5","4","5","4","5","4","3","4","4","4","7","7","8","8","7","9","7","8","8","4","6","3","3","3","2","4","2","3","3","1","3","2","6","2","1","5","5","3","4","3","1","2","1","1","2","7","2","7","7","7","7","6","6","5","2","7","2","7","3","3","677293882131611648","张","112","Male","[""好他"",""坏他"",""好我"",""坏我""]","[""强他"",""弱他"",""强我"",""弱我""]","","","","","","","","match","","","","","","","","","","key","f","22.092011627906643","683","380","f","true","match","img/pentagon.png","强他","强他","prac_ALT2_ability","practice_ability","","","","","","","","",""
"null","<span style='color:GreenYellow; font-size: 70px;'>正确! </span>","null","html-keyboard-response","69","208100","0.0-8.0-1.0-1.0-0.0-1.29","2","1","1","2","1","4","3","4","5","5","5","2","-1","0","1","-3","0","1","1","5","4","5","4","5","4","3","4","4","4","7","7","8","8","7","9","7","8","8","4","6","3","3","3","2","4","2","3","3","1","3","2","6","2","1","5","5","3","4","3","1","2","1","1","2","7","2","7","7","7","7","6","6","5","2","7","2","7","3","3","677293882131611648","张","112","Male","[""好他"",""坏他"",""好我"",""坏我""]","[""强他"",""弱他"",""强我"",""弱我""]","","","","","","","","","","","","","","","","","","","","","","","","","","","","","","feedback_test","","","","","","","","",""
"1104","","j","psychophysics","70","210211","0.0-8.0-1.0-1.0-0.0-0.30","2","1","1","2","1","4","3","4","5","5","5","2","-1","0","1","-3","0","1","1","5","4","5","4","5","4","3","4","4","4","7","7","8","8","7","9","7","8","8","4","6","3","3","3","2","4","2","3","3","1","3","2","6","2","1","5","5","3","4","3","1","2","1","1","2","7","2","7","7","7","7","6","6","5","2","7","2","7","3","3","677293882131611648","张","112","Male","[""好他"",""坏他"",""好我"",""坏我""]","[""强他"",""弱他"",""强我"",""弱我""]","","","","","","","","nonmatch","","","","","","","","","","key","j","21.304835051546274","683","380","j","true","nonmatch","img/circle.png","弱他","弱我","prac_ALT2_ability","practice_ability","","","","","","","","",""
"null","<span style='color:GreenYellow; font-size: 70px;'>正确! </span>","null","html-keyboard-response","71","210717","0.0-8.0-1.0-1.0-0.0-1.30","2","1","1","2","1","4","3","4","5","5","5","2","-1","0","1","-3","0","1","1","5","4","5","4","5","4","3","4","4","4","7","7","8","8","7","9","7","8","8","4","6","3","3","3","2","4","2","3","3","1","3","2","6","2","1","5","5","3","4","3","1","2","1","1","2","7","2","7","7","7","7","6","6","5","2","7","2","7","3","3","677293882131611648","张","112","Male","[""好他"",""坏他"",""好我"",""坏我""]","[""强他"",""弱他"",""强我"",""弱我""]","","","","","","","","","","","","","","","","","","","","","","","","","","","","","","feedback_test","","","","","","","","",""
"831","","f","psychophysics","72","212553","0.0-8.0-1.0-1.0-0.0-0.31","2","1","1","2","1","4","3","4","5","5","5","2","-1","0","1","-3","0","1","1","5","4","5","4","5","4","3","4","4","4","7","7","8","8","7","9","7","8","8","4","6","3","3","3","2","4","2","3","3","1","3","2","6","2","1","5","5","3","4","3","1","2","1","1","2","7","2","7","7","7","7","6","6","5","2","7","2","7","3","3","677293882131611648","张","112","Male","[""好他"",""坏他"",""好我"",""坏我""]","[""强他"",""弱他"",""强我"",""弱我""]","","","","","","","","match","","","","","","","","","","key","f","20.880356321838917","683","380","f","true","match","img/pentagon.png","强他","强他","prac_ALT2_ability","practice_ability","","","","","","","","",""
"null","<span style='color:GreenYellow; font-size: 70px;'>正确! </span>","null","html-keyboard-response","73","213060","0.0-8.0-1.0-1.0-0.0-1.31","2","1","1","2","1","4","3","4","5","5","5","2","-1","0","1","-3","0","1","1","5","4","5","4","5","4","3","4","4","4","7","7","8","8","7","9","7","8","8","4","6","3","3","3","2","4","2","3","3","1","3","2","6","2","1","5","5","3","4","3","1","2","1","1","2","7","2","7","7","7","7","6","6","5","2","7","2","7","3","3","677293882131611648","张","112","Male","[""好他"",""坏他"",""好我"",""坏我""]","[""强他"",""弱他"",""强我"",""弱我""]","","","","","","","","","","","","","","","","","","","","","","","","","","","","","","feedback_test","","","","","","","","",""
"695","","f","psychophysics","74","214763","0.0-8.0-1.0-1.0-0.0-0.32","2","1","1","2","1","4","3","4","5","5","5","2","-1","0","1","-3","0","1","1","5","4","5","4","5","4","3","4","4","4","7","7","8","8","7","9","7","8","8","4","6","3","3","3","2","4","2","3","3","1","3","2","6","2","1","5","5","3","4","3","1","2","1","1","2","7","2","7","7","7","7","6","6","5","2","7","2","7","3","3","677293882131611648","张","112","Male","[""好他"",""坏他"",""好我"",""坏我""]","[""强他"",""弱他"",""强我"",""弱我""]","","","","","","","","match","","","","","","","","","","key","f","20.59526829268299","683","380","f","true","match","img/square.png","强我","强我","prac_ALT2_ability","practice_ability","","","","","","","","",""
"null","<span style='color:GreenYellow; font-size: 70px;'>正确! </span>","null","html-keyboard-response","75","215269","0.0-8.0-1.0-1.0-0.0-1.32","2","1","1","2","1","4","3","4","5","5","5","2","-1","0","1","-3","0","1","1","5","4","5","4","5","4","3","4","4","4","7","7","8","8","7","9","7","8","8","4","6","3","3","3","2","4","2","3","3","1","3","2","6","2","1","5","5","3","4","3","1","2","1","1","2","7","2","7","7","7","7","6","6","5","2","7","2","7","3","3","677293882131611648","张","112","Male","[""好他"",""坏他"",""好我"",""坏我""]","[""强他"",""弱他"",""强我"",""弱我""]","","","","","","","","","","","","","","","","","","","","","","","","","","","","","","feedback_test","","","","","","","","",""
"946","","f","psychophysics","76","217223","0.0-8.0-1.0-1.0-0.0-0.33","2","1","1","2","1","4","3","4","5","5","5","2","-1","0","1","-3","0","1","1","5","4","5","4","5","4","3","4","4","4","7","7","8","8","7","9","7","8","8","4","6","3","3","3","2","4","2","3","3","1","3","2","6","2","1","5","5","3","4","3","1","2","1","1","2","7","2","7","7","7","7","6","6","5","2","7","2","7","3","3","677293882131611648","张","112","Male","[""好他"",""坏他"",""好我"",""坏我""]","[""强他"",""弱他"",""强我"",""弱我""]","","","","","","","","match","","","","","","","","","","key","f","21.72169662921348","683","380","f","true","match","img/square.png","强我","强我","prac_ALT2_ability","practice_ability","","","","","","","","",""
"null","<span style='color:GreenYellow; font-size: 70px;'>正确! </span>","null","html-keyboard-response","77","217724","0.0-8.0-1.0-1.0-0.0-1.33","2","1","1","2","1","4","3","4","5","5","5","2","-1","0","1","-3","0","1","1","5","4","5","4","5","4","3","4","4","4","7","7","8","8","7","9","7","8","8","4","6","3","3","3","2","4","2","3","3","1","3","2","6","2","1","5","5","3","4","3","1","2","1","1","2","7","2","7","7","7","7","6","6","5","2","7","2","7","3","3","677293882131611648","张","112","Male","[""好他"",""坏他"",""好我"",""坏我""]","[""强他"",""弱他"",""强我"",""弱我""]","","","","","","","","","","","","","","","","","","","","","","","","","","","","","","feedback_test","","","","","","","","",""
"855","","j","psychophysics","78","219587","0.0-8.0-1.0-1.0-0.0-0.34","2","1","1","2","1","4","3","4","5","5","5","2","-1","0","1","-3","0","1","1","5","4","5","4","5","4","3","4","4","4","7","7","8","8","7","9","7","8","8","4","6","3","3","3","2","4","2","3","3","1","3","2","6","2","1","5","5","3","4","3","1","2","1","1","2","7","2","7","7","7","7","6","6","5","2","7","2","7","3","3","677293882131611648","张","112","Male","[""好他"",""坏他"",""好我"",""坏我""]","[""强他"",""弱他"",""强我"",""弱我""]","","","","","","","","nonmatch","","","","","","","","","","key","j","21.007448275861915","683","380","j","true","nonmatch","img/pentagon.png","弱他","强他","prac_ALT2_ability","practice_ability","","","","","","","","",""
"null","<span style='color:GreenYellow; font-size: 70px;'>正确! </span>","null","html-keyboard-response","79","220093","0.0-8.0-1.0-1.0-0.0-1.34","2","1","1","2","1","4","3","4","5","5","5","2","-1","0","1","-3","0","1","1","5","4","5","4","5","4","3","4","4","4","7","7","8","8","7","9","7","8","8","4","6","3","3","3","2","4","2","3","3","1","3","2","6","2","1","5","5","3","4","3","1","2","1","1","2","7","2","7","7","7","7","6","6","5","2","7","2","7","3","3","677293882131611648","张","112","Male","[""好他"",""坏他"",""好我"",""坏我""]","[""强他"",""弱他"",""强我"",""弱我""]","","","","","","","","","","","","","","","","","","","","","","","","","","","","","","feedback_test","","","","","","","","",""
"827","","j","psychophysics","80","221928","0.0-8.0-1.0-1.0-0.0-0.35","2","1","1","2","1","4","3","4","5","5","5","2","-1","0","1","-3","0","1","1","5","4","5","4","5","4","3","4","4","4","7","7","8","8","7","9","7","8","8","4","6","3","3","3","2","4","2","3","3","1","3","2","6","2","1","5","5","3","4","3","1","2","1","1","2","7","2","7","7","7","7","6","6","5","2","7","2","7","3","3","677293882131611648","张","112","Male","[""好他"",""坏他"",""好我"",""坏我""]","[""强他"",""弱他"",""强我"",""弱我""]","","","","","","","","nonmatch","","","","","","","","","","key","j","21.88586746987954","683","380","j","true","nonmatch","img/square.png","弱他","强我","prac_ALT2_ability","practice_ability","","","","","","","","",""
"null","<span style='color:GreenYellow; font-size: 70px;'>正确! </span>","null","html-keyboard-response","81","222437","0.0-8.0-1.0-1.0-0.0-1.35","2","1","1","2","1","4","3","4","5","5","5","2","-1","0","1","-3","0","1","1","5","4","5","4","5","4","3","4","4","4","7","7","8","8","7","9","7","8","8","4","6","3","3","3","2","4","2","3","3","1","3","2","6","2","1","5","5","3","4","3","1","2","1","1","2","7","2","7","7","7","7","6","6","5","2","7","2","7","3","3","677293882131611648","张","112","Male","[""好他"",""坏他"",""好我"",""坏我""]","[""强他"",""弱他"",""强我"",""弱我""]","","","","","","","","","","","","","","","","","","","","","","","","","","","","","","feedback_test","","","","","","","","",""
"775","","f","psychophysics","82","224219","0.0-8.0-1.0-1.0-0.0-0.36","2","1","1","2","1","4","3","4","5","5","5","2","-1","0","1","-3","0","1","1","5","4","5","4","5","4","3","4","4","4","7","7","8","8","7","9","7","8","8","4","6","3","3","3","2","4","2","3","3","1","3","2","6","2","1","5","5","3","4","3","1","2","1","1","2","7","2","7","7","7","7","6","6","5","2","7","2","7","3","3","677293882131611648","张","112","Male","[""好他"",""坏他"",""好我"",""坏我""]","[""强他"",""弱他"",""强我"",""弱我""]","","","","","","","","match","","","","","","","","","","key","f","20.587188235294374","683","380","j","false","nonmatch","img/pentagon.png","强我","强他","prac_ALT2_ability","practice_ability","","","","","","","","",""
"null","<span style='color:red; font-size: 70px;'>错误! </span>","null","html-keyboard-response","83","224725","0.0-8.0-1.0-1.0-0.0-1.36","2","1","1","2","1","4","3","4","5","5","5","2","-1","0","1","-3","0","1","1","5","4","5","4","5","4","3","4","4","4","7","7","8","8","7","9","7","8","8","4","6","3","3","3","2","4","2","3","3","1","3","2","6","2","1","5","5","3","4","3","1","2","1","1","2","7","2","7","7","7","7","6","6","5","2","7","2","7","3","3","677293882131611648","张","112","Male","[""好他"",""坏他"",""好我"",""坏我""]","[""强他"",""弱他"",""强我"",""弱我""]","","","","","","","","","","","","","","","","","","","","","","","","","","","","","","feedback_test","","","","","","","","",""
"822","","f","psychophysics","84","226555","0.0-8.0-1.0-1.0-0.0-0.37","2","1","1","2","1","4","3","4","5","5","5","2","-1","0","1","-3","0","1","1","5","4","5","4","5","4","3","4","4","4","7","7","8","8","7","9","7","8","8","4","6","3","3","3","2","4","2","3","3","1","3","2","6","2","1","5","5","3","4","3","1","2","1","1","2","7","2","7","7","7","7","6","6","5","2","7","2","7","3","3","677293882131611648","张","112","Male","[""好他"",""坏他"",""好我"",""坏我""]","[""强他"",""弱他"",""强我"",""弱我""]","","","","","","","","match","","","","","","","","","","key","f","21.75263855421701","683","380","f","true","match","img/circle.png","弱我","弱我","prac_ALT2_ability","practice_ability","","","","","","","","",""
"null","<span style='color:GreenYellow; font-size: 70px;'>正确! </span>","null","html-keyboard-response","85","227060","0.0-8.0-1.0-1.0-0.0-1.37","2","1","1","2","1","4","3","4","5","5","5","2","-1","0","1","-3","0","1","1","5","4","5","4","5","4","3","4","4","4","7","7","8","8","7","9","7","8","8","4","6","3","3","3","2","4","2","3","3","1","3","2","6","2","1","5","5","3","4","3","1","2","1","1","2","7","2","7","7","7","7","6","6","5","2","7","2","7","3","3","677293882131611648","张","112","Male","[""好他"",""坏他"",""好我"",""坏我""]","[""强他"",""弱他"",""强我"",""弱我""]","","","","","","","","","","","","","","","","","","","","","","","","","","","","","","feedback_test","","","","","","","","",""
"836","","f","psychophysics","86","228905","0.0-8.0-1.0-1.0-0.0-0.38","2","1","1","2","1","4","3","4","5","5","5","2","-1","0","1","-3","0","1","1","5","4","5","4","5","4","3","4","4","4","7","7","8","8","7","9","7","8","8","4","6","3","3","3","2","4","2","3","3","1","3","2","6","2","1","5","5","3","4","3","1","2","1","1","2","7","2","7","7","7","7","6","6","5","2","7","2","7","3","3","677293882131611648","张","112","Male","[""好他"",""坏他"",""好我"",""坏我""]","[""强他"",""弱他"",""强我"",""弱我""]","","","","","","","","match","","","","","","","","","","key","f","20.56158620689664","683","380","f","true","match","img/circle.png","弱我","弱我","prac_ALT2_ability","practice_ability","","","","","","","","",""
"null","<span style='color:GreenYellow; font-size: 70px;'>正确! </span>","null","html-keyboard-response","87","229413","0.0-8.0-1.0-1.0-0.0-1.38","2","1","1","2","1","4","3","4","5","5","5","2","-1","0","1","-3","0","1","1","5","4","5","4","5","4","3","4","4","4","7","7","8","8","7","9","7","8","8","4","6","3","3","3","2","4","2","3","3","1","3","2","6","2","1","5","5","3","4","3","1","2","1","1","2","7","2","7","7","7","7","6","6","5","2","7","2","7","3","3","677293882131611648","张","112","Male","[""好他"",""坏他"",""好我"",""坏我""]","[""强他"",""弱他"",""强我"",""弱我""]","","","","","","","","","","","","","","","","","","","","","","","","","","","","","","feedback_test","","","","","","","","",""
"784","","f","psychophysics","88","231205","0.0-8.0-1.0-1.0-0.0-0.39","2","1","1","2","1","4","3","4","5","5","5","2","-1","0","1","-3","0","1","1","5","4","5","4","5","4","3","4","4","4","7","7","8","8","7","9","7","8","8","4","6","3","3","3","2","4","2","3","3","1","3","2","6","2","1","5","5","3","4","3","1","2","1","1","2","7","2","7","7","7","7","6","6","5","2","7","2","7","3","3","677293882131611648","张","112","Male","[""好他"",""坏他"",""好我"",""坏我""]","[""强他"",""弱他"",""强我"",""弱我""]","","","","","","","","match","","","","","","","","","","key","f","20.074738636363858","683","380","f","true","match","img/triangle.png","弱他","弱他","prac_ALT2_ability","practice_ability","","","","","","","","",""
"null","<span style='color:GreenYellow; font-size: 70px;'>正确! </span>","null","html-keyboard-response","89","231708","0.0-8.0-1.0-1.0-0.0-1.39","2","1","1","2","1","4","3","4","5","5","5","2","-1","0","1","-3","0","1","1","5","4","5","4","5","4","3","4","4","4","7","7","8","8","7","9","7","8","8","4","6","3","3","3","2","4","2","3","3","1","3","2","6","2","1","5","5","3","4","3","1","2","1","1","2","7","2","7","7","7","7","6","6","5","2","7","2","7","3","3","677293882131611648","张","112","Male","[""好他"",""坏他"",""好我"",""坏我""]","[""强他"",""弱他"",""强我"",""弱我""]","","","","","","","","","","","","","","","","","","","","","","","","","","","","","","feedback_test","","","","","","","","",""
"758","","j","psychophysics","90","233475","0.0-8.0-1.0-1.0-0.0-0.40","2","1","1","2","1","4","3","4","5","5","5","2","-1","0","1","-3","0","1","1","5","4","5","4","5","4","3","4","4","4","7","7","8","8","7","9","7","8","8","4","6","3","3","3","2","4","2","3","3","1","3","2","6","2","1","5","5","3","4","3","1","2","1","1","2","7","2","7","7","7","7","6","6","5","2","7","2","7","3","3","677293882131611648","张","112","Male","[""好他"",""坏他"",""好我"",""坏我""]","[""强他"",""弱他"",""强我"",""弱我""]","","","","","","","","nonmatch","","","","","","","","","","key","j","20.347569767441897","683","380","j","true","nonmatch","img/triangle.png","弱我","弱他","prac_ALT2_ability","practice_ability","","","","","","","","",""
"null","<span style='color:GreenYellow; font-size: 70px;'>正确! </span>","null","html-keyboard-response","91","233980","0.0-8.0-1.0-1.0-0.0-1.40","2","1","1","2","1","4","3","4","5","5","5","2","-1","0","1","-3","0","1","1","5","4","5","4","5","4","3","4","4","4","7","7","8","8","7","9","7","8","8","4","6","3","3","3","2","4","2","3","3","1","3","2","6","2","1","5","5","3","4","3","1","2","1","1","2","7","2","7","7","7","7","6","6","5","2","7","2","7","3","3","677293882131611648","张","112","Male","[""好他"",""坏他"",""好我"",""坏我""]","[""强他"",""弱他"",""强我"",""弱我""]","","","","","","","","","","","","","","","","","","","","","","","","","","","","","","feedback_test","","","","","","","","",""
"835","","j","psychophysics","92","235824","0.0-8.0-1.0-1.0-0.0-0.41","2","1","1","2","1","4","3","4","5","5","5","2","-1","0","1","-3","0","1","1","5","4","5","4","5","4","3","4","4","4","7","7","8","8","7","9","7","8","8","4","6","3","3","3","2","4","2","3","3","1","3","2","6","2","1","5","5","3","4","3","1","2","1","1","2","7","2","7","7","7","7","6","6","5","2","7","2","7","3","3","677293882131611648","张","112","Male","[""好他"",""坏他"",""好我"",""坏我""]","[""强他"",""弱他"",""强我"",""弱我""]","","","","","","","","nonmatch","","","","","","","","","","key","j","20.308166666666512","683","380","j","true","nonmatch","img/circle.png","强他","弱我","prac_ALT2_ability","practice_ability","","","","","","","","",""
"null","<span style='color:GreenYellow; font-size: 70px;'>正确! </span>","null","html-keyboard-response","93","236333","0.0-8.0-1.0-1.0-0.0-1.41","2","1","1","2","1","4","3","4","5","5","5","2","-1","0","1","-3","0","1","1","5","4","5","4","5","4","3","4","4","4","7","7","8","8","7","9","7","8","8","4","6","3","3","3","2","4","2","3","3","1","3","2","6","2","1","5","5","3","4","3","1","2","1","1","2","7","2","7","7","7","7","6","6","5","2","7","2","7","3","3","677293882131611648","张","112","Male","[""好他"",""坏他"",""好我"",""坏我""]","[""强他"",""弱他"",""强我"",""弱我""]","","","","","","","","","","","","","","","","","","","","","","","","","","","","","","feedback_test","","","","","","","","",""
"751","","j","psychophysics","94","238089","0.0-8.0-1.0-1.0-0.0-0.42","2","1","1","2","1","4","3","4","5","5","5","2","-1","0","1","-3","0","1","1","5","4","5","4","5","4","3","4","4","4","7","7","8","8","7","9","7","8","8","4","6","3","3","3","2","4","2","3","3","1","3","2","6","2","1","5","5","3","4","3","1","2","1","1","2","7","2","7","7","7","7","6","6","5","2","7","2","7","3","3","677293882131611648","张","112","Male","[""好他"",""坏他"",""好我"",""坏我""]","[""强他"",""弱他"",""强我"",""弱我""]","","","","","","","","nonmatch","","","","","","","","","","key","j","21.39800000000015","683","380","j","true","nonmatch","img/square.png","强他","强我","prac_ALT2_ability","practice_ability","","","","","","","","",""
"null","<span style='color:GreenYellow; font-size: 70px;'>正确! </span>","null","html-keyboard-response","95","238598","0.0-8.0-1.0-1.0-0.0-1.42","2","1","1","2","1","4","3","4","5","5","5","2","-1","0","1","-3","0","1","1","5","4","5","4","5","4","3","4","4","4","7","7","8","8","7","9","7","8","8","4","6","3","3","3","2","4","2","3","3","1","3","2","6","2","1","5","5","3","4","3","1","2","1","1","2","7","2","7","7","7","7","6","6","5","2","7","2","7","3","3","677293882131611648","张","112","Male","[""好他"",""坏他"",""好我"",""坏我""]","[""强他"",""弱他"",""强我"",""弱我""]","","","","","","","","","","","","","","","","","","","","","","","","","","","","","","feedback_test","","","","","","","","",""
"785","","j","psychophysics","96","240389","0.0-8.0-1.0-1.0-0.0-0.43","2","1","1","2","1","4","3","4","5","5","5","2","-1","0","1","-3","0","1","1","5","4","5","4","5","4","3","4","4","4","7","7","8","8","7","9","7","8","8","4","6","3","3","3","2","4","2","3","3","1","3","2","6","2","1","5","5","3","4","3","1","2","1","1","2","7","2","7","7","7","7","6","6","5","2","7","2","7","3","3","677293882131611648","张","112","Male","[""好他"",""坏他"",""好我"",""坏我""]","[""强他"",""弱他"",""强我"",""弱我""]","","","","","","","","nonmatch","","","","","","","","","","key","j","22.36249367088629","683","380","j","true","nonmatch","img/pentagon.png","弱我","强他","prac_ALT2_ability","practice_ability","","","","","","","","",""
"null","<span style='color:GreenYellow; font-size: 70px;'>正确! </span>","null","html-keyboard-response","97","240893","0.0-8.0-1.0-1.0-0.0-1.43","2","1","1","2","1","4","3","4","5","5","5","2","-1","0","1","-3","0","1","1","5","4","5","4","5","4","3","4","4","4","7","7","8","8","7","9","7","8","8","4","6","3","3","3","2","4","2","3","3","1","3","2","6","2","1","5","5","3","4","3","1","2","1","1","2","7","2","7","7","7","7","6","6","5","2","7","2","7","3","3","677293882131611648","张","112","Male","[""好他"",""坏他"",""好我"",""坏我""]","[""强他"",""弱他"",""强我"",""弱我""]","","","","","","","","","","","","","","","","","","","","","","","","","","","","","","feedback_test","","","","","","","","",""
"787","","f","psychophysics","98","242688","0.0-8.0-1.0-1.0-0.0-0.44","2","1","1","2","1","4","3","4","5","5","5","2","-1","0","1","-3","0","1","1","5","4","5","4","5","4","3","4","4","4","7","7","8","8","7","9","7","8","8","4","6","3","3","3","2","4","2","3","3","1","3","2","6","2","1","5","5","3","4","3","1","2","1","1","2","7","2","7","7","7","7","6","6","5","2","7","2","7","3","3","677293882131611648","张","112","Male","[""好他"",""坏他"",""好我"",""坏我""]","[""强他"",""弱他"",""强我"",""弱我""]","","","","","","","","match","","","","","","","","","","key","f","20.587952941176415","683","380","f","true","match","img/circle.png","弱我","弱我","prac_ALT2_ability","practice_ability","","","","","","","","",""
"null","<span style='color:GreenYellow; font-size: 70px;'>正确! </span>","null","html-keyboard-response","99","243196","0.0-8.0-1.0-1.0-0.0-1.44","2","1","1","2","1","4","3","4","5","5","5","2","-1","0","1","-3","0","1","1","5","4","5","4","5","4","3","4","4","4","7","7","8","8","7","9","7","8","8","4","6","3","3","3","2","4","2","3","3","1","3","2","6","2","1","5","5","3","4","3","1","2","1","1","2","7","2","7","7","7","7","6","6","5","2","7","2","7","3","3","677293882131611648","张","112","Male","[""好他"",""坏他"",""好我"",""坏我""]","[""强他"",""弱他"",""强我"",""弱我""]","","","","","","","","","","","","","","","","","","","","","","","","","","","","","","feedback_test","","","","","","","","",""
"799","","f","psychophysics","100","245003","0.0-8.0-1.0-1.0-0.0-0.45","2","1","1","2","1","4","3","4","5","5","5","2","-1","0","1","-3","0","1","1","5","4","5","4","5","4","3","4","4","4","7","7","8","8","7","9","7","8","8","4","6","3","3","3","2","4","2","3","3","1","3","2","6","2","1","5","5","3","4","3","1","2","1","1","2","7","2","7","7","7","7","6","6","5","2","7","2","7","3","3","677293882131611648","张","112","Male","[""好他"",""坏他"",""好我"",""坏我""]","[""强他"",""弱他"",""强我"",""弱我""]","","","","","","","","match","","","","","","","","","","key","f","20.735139534883487","683","380","f","true","match","img/pentagon.png","强他","强他","prac_ALT2_ability","practice_ability","","","","","","","","",""
"null","<span style='color:GreenYellow; font-size: 70px;'>正确! </span>","null","html-keyboard-response","101","245508","0.0-8.0-1.0-1.0-0.0-1.45","2","1","1","2","1","4","3","4","5","5","5","2","-1","0","1","-3","0","1","1","5","4","5","4","5","4","3","4","4","4","7","7","8","8","7","9","7","8","8","4","6","3","3","3","2","4","2","3","3","1","3","2","6","2","1","5","5","3","4","3","1","2","1","1","2","7","2","7","7","7","7","6","6","5","2","7","2","7","3","3","677293882131611648","张","112","Male","[""好他"",""坏他"",""好我"",""坏我""]","[""强他"",""弱他"",""强我"",""弱我""]","","","","","","","","","","","","","","","","","","","","","","","","","","","","","","feedback_test","","","","","","","","",""
"684","","f","psychophysics","102","247201","0.0-8.0-1.0-1.0-0.0-0.46","2","1","1","2","1","4","3","4","5","5","5","2","-1","0","1","-3","0","1","1","5","4","5","4","5","4","3","4","4","4","7","7","8","8","7","9","7","8","8","4","6","3","3","3","2","4","2","3","3","1","3","2","6","2","1","5","5","3","4","3","1","2","1","1","2","7","2","7","7","7","7","6","6","5","2","7","2","7","3","3","677293882131611648","张","112","Male","[""好他"",""坏他"",""好我"",""坏我""]","[""强他"",""弱他"",""强我"",""弱我""]","","","","","","","","match","","","","","","","","","","key","f","20.643753086419757","683","380","f","true","match","img/square.png","强我","强我","prac_ALT2_ability","practice_ability","","","","","","","","",""
"null","<span style='color:GreenYellow; font-size: 70px;'>正确! </span>","null","html-keyboard-response","103","247708","0.0-8.0-1.0-1.0-0.0-1.46","2","1","1","2","1","4","3","4","5","5","5","2","-1","0","1","-3","0","1","1","5","4","5","4","5","4","3","4","4","4","7","7","8","8","7","9","7","8","8","4","6","3","3","3","2","4","2","3","3","1","3","2","6","2","1","5","5","3","4","3","1","2","1","1","2","7","2","7","7","7","7","6","6","5","2","7","2","7","3","3","677293882131611648","张","112","Male","[""好他"",""坏他"",""好我"",""坏我""]","[""强他"",""弱他"",""强我"",""弱我""]","","","","","","","","","","","","","","","","","","","","","","","","","","","","","","feedback_test","","","","","","","","",""
"792","","j","psychophysics","104","249508","0.0-8.0-1.0-1.0-0.0-0.47","2","1","1","2","1","4","3","4","5","5","5","2","-1","0","1","-3","0","1","1","5","4","5","4","5","4","3","4","4","4","7","7","8","8","7","9","7","8","8","4","6","3","3","3","2","4","2","3","3","1","3","2","6","2","1","5","5","3","4","3","1","2","1","1","2","7","2","7","7","7","7","6","6","5","2","7","2","7","3","3","677293882131611648","张","112","Male","[""好他"",""坏他"",""好我"",""坏我""]","[""强他"",""弱他"",""强我"",""弱我""]","","","","","","","","nonmatch","","","","","","","","","","key","j","20.73444186046491","683","380","j","true","nonmatch","img/triangle.png","强他","弱他","prac_ALT2_ability","practice_ability","","","","","","","","",""
"null","<span style='color:GreenYellow; font-size: 70px;'>正确! </span>","null","html-keyboard-response","105","250012","0.0-8.0-1.0-1.0-0.0-1.47","2","1","1","2","1","4","3","4","5","5","5","2","-1","0","1","-3","0","1","1","5","4","5","4","5","4","3","4","4","4","7","7","8","8","7","9","7","8","8","4","6","3","3","3","2","4","2","3","3","1","3","2","6","2","1","5","5","3","4","3","1","2","1","1","2","7","2","7","7","7","7","6","6","5","2","7","2","7","3","3","677293882131611648","张","112","Male","[""好他"",""坏他"",""好我"",""坏我""]","[""强他"",""弱他"",""强我"",""弱我""]","","","","","","","","","","","","","","","","","","","","","","","","","","","","","","feedback_test","","","","","","","","",""
"5100","<style>.context{color:white; font-size: 35px; line-height:40px}</style>                          <div><p class='context'>您正确回答了96% 的试次。</p><p class='context'>您的平均反应时为872毫秒。</p><p class='context'>恭喜您完成练习。按空格键进入正式实验。</p><p class='footer' style='color:white;font-size: 35px; line-height:40px;'>请在进入正式实验实验之前将您的<span style='color: lightgreen;'>食指</span>放在电脑键盘的相应键位上进行按键。</p>"," ","html-keyboard-response","106","255115","0.0-8.0-1.0-2.0","2","1","1","2","1","4","3","4","5","5","5","2","-1","0","1","-3","0","1","1","5","4","5","4","5","4","3","4","4","4","7","7","8","8","7","9","7","8","8","4","6","3","3","3","2","4","2","3","3","1","3","2","6","2","1","5","5","3","4","3","1","2","1","1","2","7","2","7","7","7","7","6","6","5","2","7","2","7","3","3","677293882131611648","张","112","Male","[""好他"",""坏他"",""好我"",""坏我""]","[""强他"",""弱他"",""强我"",""弱我""]","","","","","","","","","","","","","","","","","","","","","","","","","","","","","","","","","","","","","","",""
"4148","
  <p style='color: white; font-size: 22px'>请您将手指放在按键上，准备进入正式的匹配任务。</p>
  <p> <div style = ""color: green""><按空格键进入下一阶段的匹配任务></div></p>
  "," ","html-keyboard-response","107","259268","0.0-8.0-1.0-3.0","2","1","1","2","1","4","3","4","5","5","5","2","-1","0","1","-3","0","1","1","5","4","5","4","5","4","3","4","4","4","7","7","8","8","7","9","7","8","8","4","6","3","3","3","2","4","2","3","3","1","3","2","6","2","1","5","5","3","4","3","1","2","1","1","2","7","2","7","7","7","7","6","6","5","2","7","2","7","3","3","677293882131611648","张","112","Male","[""好他"",""坏他"",""好我"",""坏我""]","[""强他"",""弱他"",""强我"",""弱我""]","","","","","","","","","","","","","","","","","","","","","","","","","","","","","","","","","","","","","","",""
"666","","f","psychophysics","108","260942","0.0-8.0-1.0-4.0-0.0-0.0","2","1","1","2","1","4","3","4","5","5","5","2","-1","0","1","-3","0","1","1","5","4","5","4","5","4","3","4","4","4","7","7","8","8","7","9","7","8","8","4","6","3","3","3","2","4","2","3","3","1","3","2","6","2","1","5","5","3","4","3","1","2","1","1","2","7","2","7","7","7","7","6","6","5","2","7","2","7","3","3","677293882131611648","张","112","Male","[""好他"",""坏他"",""好我"",""坏我""]","[""强他"",""弱他"",""强我"",""弱我""]","","","","","","","","match","","","","","","","","","","key","f","20.43844444444439","683","380","f","true","match","img/square.png","强我","强我","ALT2","ability","","","","","","","","",""
"null","<span style='color:GreenYellow; font-size: 70px;'>正确! </span>","null","html-keyboard-response","109","261444","0.0-8.0-1.0-4.0-0.0-1.0","2","1","1","2","1","4","3","4","5","5","5","2","-1","0","1","-3","0","1","1","5","4","5","4","5","4","3","4","4","4","7","7","8","8","7","9","7","8","8","4","6","3","3","3","2","4","2","3","3","1","3","2","6","2","1","5","5","3","4","3","1","2","1","1","2","7","2","7","7","7","7","6","6","5","2","7","2","7","3","3","677293882131611648","张","112","Male","[""好他"",""坏他"",""好我"",""坏我""]","[""强他"",""弱他"",""强我"",""弱我""]","","","","","","","","","","","","","","","","","","","","","","","","","","","","","","feedback_test","","","","","","","","",""
"732","","f","psychophysics","110","263184","0.0-8.0-1.0-4.0-0.0-0.1","2","1","1","2","1","4","3","4","5","5","5","2","-1","0","1","-3","0","1","1","5","4","5","4","5","4","3","4","4","4","7","7","8","8","7","9","7","8","8","4","6","3","3","3","2","4","2","3","3","1","3","2","6","2","1","5","5","3","4","3","1","2","1","1","2","7","2","7","7","7","7","6","6","5","2","7","2","7","3","3","677293882131611648","张","112","Male","[""好他"",""坏他"",""好我"",""坏我""]","[""强他"",""弱他"",""强我"",""弱我""]","","","","","","","","match","","","","","","","","","","key","f","21.00130487804829","683","380","f","true","match","img/pentagon.png","强他","强他","ALT2","ability","","","","","","","","",""
"null","<span style='color:GreenYellow; font-size: 70px;'>正确! </span>","null","html-keyboard-response","111","263698","0.0-8.0-1.0-4.0-0.0-1.1","2","1","1","2","1","4","3","4","5","5","5","2","-1","0","1","-3","0","1","1","5","4","5","4","5","4","3","4","4","4","7","7","8","8","7","9","7","8","8","4","6","3","3","3","2","4","2","3","3","1","3","2","6","2","1","5","5","3","4","3","1","2","1","1","2","7","2","7","7","7","7","6","6","5","2","7","2","7","3","3","677293882131611648","张","112","Male","[""好他"",""坏他"",""好我"",""坏我""]","[""强他"",""弱他"",""强我"",""弱我""]","","","","","","","","","","","","","","","","","","","","","","","","","","","","","","feedback_test","","","","","","","","",""
"946","","f","psychophysics","112","265646","0.0-8.0-1.0-4.0-0.0-0.2","2","1","1","2","1","4","3","4","5","5","5","2","-1","0","1","-3","0","1","1","5","4","5","4","5","4","3","4","4","4","7","7","8","8","7","9","7","8","8","4","6","3","3","3","2","4","2","3","3","1","3","2","6","2","1","5","5","3","4","3","1","2","1","1","2","7","2","7","7","7","7","6","6","5","2","7","2","7","3","3","677293882131611648","张","112","Male","[""好他"",""坏他"",""好我"",""坏我""]","[""强他"",""弱他"",""强我"",""弱我""]","","","","","","","","match","","","","","","","","","","key","f","19.87318556701054","683","380","f","true","match","img/triangle.png","弱他","弱他","ALT2","ability","","","","","","","","",""
"null","<span style='color:GreenYellow; font-size: 70px;'>正确! </span>","null","html-keyboard-response","113","266148","0.0-8.0-1.0-4.0-0.0-1.2","2","1","1","2","1","4","3","4","5","5","5","2","-1","0","1","-3","0","1","1","5","4","5","4","5","4","3","4","4","4","7","7","8","8","7","9","7","8","8","4","6","3","3","3","2","4","2","3","3","1","3","2","6","2","1","5","5","3","4","3","1","2","1","1","2","7","2","7","7","7","7","6","6","5","2","7","2","7","3","3","677293882131611648","张","112","Male","[""好他"",""坏他"",""好我"",""坏我""]","[""强他"",""弱他"",""强我"",""弱我""]","","","","","","","","","","","","","","","","","","","","","","","","","","","","","","feedback_test","","","","","","","","",""
"766","","f","psychophysics","114","267920","0.0-8.0-1.0-4.0-0.0-0.3","2","1","1","2","1","4","3","4","5","5","5","2","-1","0","1","-3","0","1","1","5","4","5","4","5","4","3","4","4","4","7","7","8","8","7","9","7","8","8","4","6","3","3","3","2","4","2","3","3","1","3","2","6","2","1","5","5","3","4","3","1","2","1","1","2","7","2","7","7","7","7","6","6","5","2","7","2","7","3","3","677293882131611648","张","112","Male","[""好他"",""坏他"",""好我"",""坏我""]","[""强他"",""弱他"",""强我"",""弱我""]","","","","","","","","match","","","","","","","","","","key","f","21.331530864197433","683","380","f","true","match","img/pentagon.png","强他","强他","ALT2","ability","","","","","","","","",""
"null","<span style='color:GreenYellow; font-size: 70px;'>正确! </span>","null","html-keyboard-response","115","268428","0.0-8.0-1.0-4.0-0.0-1.3","2","1","1","2","1","4","3","4","5","5","5","2","-1","0","1","-3","0","1","1","5","4","5","4","5","4","3","4","4","4","7","7","8","8","7","9","7","8","8","4","6","3","3","3","2","4","2","3","3","1","3","2","6","2","1","5","5","3","4","3","1","2","1","1","2","7","2","7","7","7","7","6","6","5","2","7","2","7","3","3","677293882131611648","张","112","Male","[""好他"",""坏他"",""好我"",""坏我""]","[""强他"",""弱他"",""强我"",""弱我""]","","","","","","","","","","","","","","","","","","","","","","","","","","","","","","feedback_test","","","","","","","","",""
"926","","j","psychophysics","116","270362","0.0-8.0-1.0-4.0-0.0-0.4","2","1","1","2","1","4","3","4","5","5","5","2","-1","0","1","-3","0","1","1","5","4","5","4","5","4","3","4","4","4","7","7","8","8","7","9","7","8","8","4","6","3","3","3","2","4","2","3","3","1","3","2","6","2","1","5","5","3","4","3","1","2","1","1","2","7","2","7","7","7","7","6","6","5","2","7","2","7","3","3","677293882131611648","张","112","Male","[""好他"",""坏他"",""好我"",""坏我""]","[""强他"",""弱他"",""强我"",""弱我""]","","","","","","","","nonmatch","","","","","","","","","","key","j","20.83207608695691","683","380","j","true","nonmatch","img/circle.png","强他","弱我","ALT2","ability","","","","","","","","",""
"null","<span style='color:GreenYellow; font-size: 70px;'>正确! </span>","null","html-keyboard-response","117","270868","0.0-8.0-1.0-4.0-0.0-1.4","2","1","1","2","1","4","3","4","5","5","5","2","-1","0","1","-3","0","1","1","5","4","5","4","5","4","3","4","4","4","7","7","8","8","7","9","7","8","8","4","6","3","3","3","2","4","2","3","3","1","3","2","6","2","1","5","5","3","4","3","1","2","1","1","2","7","2","7","7","7","7","6","6","5","2","7","2","7","3","3","677293882131611648","张","112","Male","[""好他"",""坏他"",""好我"",""坏我""]","[""强他"",""弱他"",""强我"",""弱我""]","","","","","","","","","","","","","","","","","","","","","","","","","","","","","","feedback_test","","","","","","","","",""
"713","","f","psychophysics","118","272583","0.0-8.0-1.0-4.0-0.0-0.5","2","1","1","2","1","4","3","4","5","5","5","2","-1","0","1","-3","0","1","1","5","4","5","4","5","4","3","4","4","4","7","7","8","8","7","9","7","8","8","4","6","3","3","3","2","4","2","3","3","1","3","2","6","2","1","5","5","3","4","3","1","2","1","1","2","7","2","7","7","7","7","6","6","5","2","7","2","7","3","3","677293882131611648","张","112","Male","[""好他"",""坏他"",""好我"",""坏我""]","[""强他"",""弱他"",""强我"",""弱我""]","","","","","","","","match","","","","","","","","","","key","f","21.055456790123795","683","380","f","true","match","img/circle.png","弱我","弱我","ALT2","ability","","","","","","","","",""
"null","<span style='color:GreenYellow; font-size: 70px;'>正确! </span>","null","html-keyboard-response","119","273092","0.0-8.0-1.0-4.0-0.0-1.5","2","1","1","2","1","4","3","4","5","5","5","2","-1","0","1","-3","0","1","1","5","4","5","4","5","4","3","4","4","4","7","7","8","8","7","9","7","8","8","4","6","3","3","3","2","4","2","3","3","1","3","2","6","2","1","5","5","3","4","3","1","2","1","1","2","7","2","7","7","7","7","6","6","5","2","7","2","7","3","3","677293882131611648","张","112","Male","[""好他"",""坏他"",""好我"",""坏我""]","[""强他"",""弱他"",""强我"",""弱我""]","","","","","","","","","","","","","","","","","","","","","","","","","","","","","","feedback_test","","","","","","","","",""
"849","","j","psychophysics","120","274949","0.0-8.0-1.0-4.0-0.0-0.6","2","1","1","2","1","4","3","4","5","5","5","2","-1","0","1","-3","0","1","1","5","4","5","4","5","4","3","4","4","4","7","7","8","8","7","9","7","8","8","4","6","3","3","3","2","4","2","3","3","1","3","2","6","2","1","5","5","3","4","3","1","2","1","1","2","7","2","7","7","7","7","6","6","5","2","7","2","7","3","3","677293882131611648","张","112","Male","[""好他"",""坏他"",""好我"",""坏我""]","[""强他"",""弱他"",""强我"",""弱我""]","","","","","","","","nonmatch","","","","","","","","","","key","j","19.712817204301246","683","380","j","true","nonmatch","img/triangle.png","强他","弱他","ALT2","ability","","","","","","","","",""
"null","<span style='color:GreenYellow; font-size: 70px;'>正确! </span>","null","html-keyboard-response","121","275452","0.0-8.0-1.0-4.0-0.0-1.6","2","1","1","2","1","4","3","4","5","5","5","2","-1","0","1","-3","0","1","1","5","4","5","4","5","4","3","4","4","4","7","7","8","8","7","9","7","8","8","4","6","3","3","3","2","4","2","3","3","1","3","2","6","2","1","5","5","3","4","3","1","2","1","1","2","7","2","7","7","7","7","6","6","5","2","7","2","7","3","3","677293882131611648","张","112","Male","[""好他"",""坏他"",""好我"",""坏我""]","[""强他"",""弱他"",""强我"",""弱我""]","","","","","","","","","","","","","","","","","","","","","","","","","","","","","","feedback_test","","","","","","","","",""
"818","","j","psychophysics","122","277271","0.0-8.0-1.0-4.0-0.0-0.7","2","1","1","2","1","4","3","4","5","5","5","2","-1","0","1","-3","0","1","1","5","4","5","4","5","4","3","4","4","4","7","7","8","8","7","9","7","8","8","4","6","3","3","3","2","4","2","3","3","1","3","2","6","2","1","5","5","3","4","3","1","2","1","1","2","7","2","7","7","7","7","6","6","5","2","7","2","7","3","3","677293882131611648","张","112","Male","[""好他"",""坏他"",""好我"",""坏我""]","[""强他"",""弱他"",""强我"",""弱我""]","","","","","","","","nonmatch","","","","","","","","","","key","j","21.10965882352937","683","380","j","true","nonmatch","img/circle.png","弱他","弱我","ALT2","ability","","","","","","","","",""
"null","<span style='color:GreenYellow; font-size: 70px;'>正确! </span>","null","html-keyboard-response","123","277780","0.0-8.0-1.0-4.0-0.0-1.7","2","1","1","2","1","4","3","4","5","5","5","2","-1","0","1","-3","0","1","1","5","4","5","4","5","4","3","4","4","4","7","7","8","8","7","9","7","8","8","4","6","3","3","3","2","4","2","3","3","1","3","2","6","2","1","5","5","3","4","3","1","2","1","1","2","7","2","7","7","7","7","6","6","5","2","7","2","7","3","3","677293882131611648","张","112","Male","[""好他"",""坏他"",""好我"",""坏我""]","[""强他"",""弱他"",""强我"",""弱我""]","","","","","","","","","","","","","","","","","","","","","","","","","","","","","","feedback_test","","","","","","","","",""
"713","","f","psychophysics","124","279499","0.0-8.0-1.0-4.0-0.0-0.8","2","1","1","2","1","4","3","4","5","5","5","2","-1","0","1","-3","0","1","1","5","4","5","4","5","4","3","4","4","4","7","7","8","8","7","9","7","8","8","4","6","3","3","3","2","4","2","3","3","1","3","2","6","2","1","5","5","3","4","3","1","2","1","1","2","7","2","7","7","7","7","6","6","5","2","7","2","7","3","3","677293882131611648","张","112","Male","[""好他"",""坏他"",""好我"",""坏我""]","[""强他"",""弱他"",""强我"",""弱我""]","","","","","","","","match","","","","","","","","","","key","f","19.73742352941224","683","380","f","true","match","img/square.png","强我","强我","ALT2","ability","","","","","","","","",""
"null","<span style='color:GreenYellow; font-size: 70px;'>正确! </span>","null","html-keyboard-response","125","280004","0.0-8.0-1.0-4.0-0.0-1.8","2","1","1","2","1","4","3","4","5","5","5","2","-1","0","1","-3","0","1","1","5","4","5","4","5","4","3","4","4","4","7","7","8","8","7","9","7","8","8","4","6","3","3","3","2","4","2","3","3","1","3","2","6","2","1","5","5","3","4","3","1","2","1","1","2","7","2","7","7","7","7","6","6","5","2","7","2","7","3","3","677293882131611648","张","112","Male","[""好他"",""坏他"",""好我"",""坏我""]","[""强他"",""弱他"",""强我"",""弱我""]","","","","","","","","","","","","","","","","","","","","","","","","","","","","","","feedback_test","","","","","","","","",""
"802","","j","psychophysics","126","281815","0.0-8.0-1.0-4.0-0.0-0.9","2","1","1","2","1","4","3","4","5","5","5","2","-1","0","1","-3","0","1","1","5","4","5","4","5","4","3","4","4","4","7","7","8","8","7","9","7","8","8","4","6","3","3","3","2","4","2","3","3","1","3","2","6","2","1","5","5","3","4","3","1","2","1","1","2","7","2","7","7","7","7","6","6","5","2","7","2","7","3","3","677293882131611648","张","112","Male","[""好他"",""坏他"",""好我"",""坏我""]","[""强他"",""弱他"",""强我"",""弱我""]","","","","","","","","nonmatch","","","","","","","","","","key","j","20.864279069767882","683","380","j","true","nonmatch","img/triangle.png","强我","弱他","ALT2","ability","","","","","","","","",""
"null","<span style='color:GreenYellow; font-size: 70px;'>正确! </span>","null","html-keyboard-response","127","282316","0.0-8.0-1.0-4.0-0.0-1.9","2","1","1","2","1","4","3","4","5","5","5","2","-1","0","1","-3","0","1","1","5","4","5","4","5","4","3","4","4","4","7","7","8","8","7","9","7","8","8","4","6","3","3","3","2","4","2","3","3","1","3","2","6","2","1","5","5","3","4","3","1","2","1","1","2","7","2","7","7","7","7","6","6","5","2","7","2","7","3","3","677293882131611648","张","112","Male","[""好他"",""坏他"",""好我"",""坏我""]","[""强他"",""弱他"",""强我"",""弱我""]","","","","","","","","","","","","","","","","","","","","","","","","","","","","","","feedback_test","","","","","","","","",""
"688","","f","psychophysics","128","284006","0.0-8.0-1.0-4.0-0.0-0.10","2","1","1","2","1","4","3","4","5","5","5","2","-1","0","1","-3","0","1","1","5","4","5","4","5","4","3","4","4","4","7","7","8","8","7","9","7","8","8","4","6","3","3","3","2","4","2","3","3","1","3","2","6","2","1","5","5","3","4","3","1","2","1","1","2","7","2","7","7","7","7","6","6","5","2","7","2","7","3","3","677293882131611648","张","112","Male","[""好他"",""坏他"",""好我"",""坏我""]","[""强他"",""弱他"",""强我"",""弱我""]","","","","","","","","match","","","","","","","","","","key","f","21.165962025316144","683","380","f","true","match","img/circle.png","弱我","弱我","ALT2","ability","","","","","","","","",""
"null","<span style='color:GreenYellow; font-size: 70px;'>正确! </span>","null","html-keyboard-response","129","284509","0.0-8.0-1.0-4.0-0.0-1.10","2","1","1","2","1","4","3","4","5","5","5","2","-1","0","1","-3","0","1","1","5","4","5","4","5","4","3","4","4","4","7","7","8","8","7","9","7","8","8","4","6","3","3","3","2","4","2","3","3","1","3","2","6","2","1","5","5","3","4","3","1","2","1","1","2","7","2","7","7","7","7","6","6","5","2","7","2","7","3","3","677293882131611648","张","112","Male","[""好他"",""坏他"",""好我"",""坏我""]","[""强他"",""弱他"",""强我"",""弱我""]","","","","","","","","","","","","","","","","","","","","","","","","","","","","","","feedback_test","","","","","","","","",""
"678","","j","psychophysics","130","286194","0.0-8.0-1.0-4.0-0.0-0.11","2","1","1","2","1","4","3","4","5","5","5","2","-1","0","1","-3","0","1","1","5","4","5","4","5","4","3","4","4","4","7","7","8","8","7","9","7","8","8","4","6","3","3","3","2","4","2","3","3","1","3","2","6","2","1","5","5","3","4","3","1","2","1","1","2","7","2","7","7","7","7","6","6","5","2","7","2","7","3","3","677293882131611648","张","112","Male","[""好他"",""坏他"",""好我"",""坏我""]","[""强他"",""弱他"",""强我"",""弱我""]","","","","","","","","nonmatch","","","","","","","","","","key","j","21.57232467532415","683","380","j","true","nonmatch","img/pentagon.png","弱他","强他","ALT2","ability","","","","","","","","",""
"null","<span style='color:GreenYellow; font-size: 70px;'>正确! </span>","null","html-keyboard-response","131","286700","0.0-8.0-1.0-4.0-0.0-1.11","2","1","1","2","1","4","3","4","5","5","5","2","-1","0","1","-3","0","1","1","5","4","5","4","5","4","3","4","4","4","7","7","8","8","7","9","7","8","8","4","6","3","3","3","2","4","2","3","3","1","3","2","6","2","1","5","5","3","4","3","1","2","1","1","2","7","2","7","7","7","7","6","6","5","2","7","2","7","3","3","677293882131611648","张","112","Male","[""好他"",""坏他"",""好我"",""坏我""]","[""强他"",""弱他"",""强我"",""弱我""]","","","","","","","","","","","","","","","","","","","","","","","","","","","","","","feedback_test","","","","","","","","",""
"662","","j","psychophysics","132","288369","0.0-8.0-1.0-4.0-0.0-0.12","2","1","1","2","1","4","3","4","5","5","5","2","-1","0","1","-3","0","1","1","5","4","5","4","5","4","3","4","4","4","7","7","8","8","7","9","7","8","8","4","6","3","3","3","2","4","2","3","3","1","3","2","6","2","1","5","5","3","4","3","1","2","1","1","2","7","2","7","7","7","7","6","6","5","2","7","2","7","3","3","677293882131611648","张","112","Male","[""好他"",""坏他"",""好我"",""坏我""]","[""强他"",""弱他"",""强我"",""弱我""]","","","","","","","","nonmatch","","","","","","","","","","key","j","21.15266666666661","683","380","f","false","match","img/triangle.png","弱他","弱他","ALT2","ability","","","","","","","","",""
"null","<span style='color:red; font-size: 70px;'>错误! </span>","null","html-keyboard-response","133","288876","0.0-8.0-1.0-4.0-0.0-1.12","2","1","1","2","1","4","3","4","5","5","5","2","-1","0","1","-3","0","1","1","5","4","5","4","5","4","3","4","4","4","7","7","8","8","7","9","7","8","8","4","6","3","3","3","2","4","2","3","3","1","3","2","6","2","1","5","5","3","4","3","1","2","1","1","2","7","2","7","7","7","7","6","6","5","2","7","2","7","3","3","677293882131611648","张","112","Male","[""好他"",""坏他"",""好我"",""坏我""]","[""强他"",""弱他"",""强我"",""弱我""]","","","","","","","","","","","","","","","","","","","","","","","","","","","","","","feedback_test","","","","","","","","",""
"596","","f","psychophysics","134","290480","0.0-8.0-1.0-4.0-0.0-0.13","2","1","1","2","1","4","3","4","5","5","5","2","-1","0","1","-3","0","1","1","5","4","5","4","5","4","3","4","4","4","7","7","8","8","7","9","7","8","8","4","6","3","3","3","2","4","2","3","3","1","3","2","6","2","1","5","5","3","4","3","1","2","1","1","2","7","2","7","7","7","7","6","6","5","2","7","2","7","3","3","677293882131611648","张","112","Male","[""好他"",""坏他"",""好我"",""坏我""]","[""强他"",""弱他"",""强我"",""弱我""]","","","","","","","","match","","","","","","","","","","key","f","21.536342465753304","683","380","f","true","match","img/triangle.png","弱他","弱他","ALT2","ability","","","","","","","","",""
"null","<span style='color:GreenYellow; font-size: 70px;'>正确! </span>","null","html-keyboard-response","135","290988","0.0-8.0-1.0-4.0-0.0-1.13","2","1","1","2","1","4","3","4","5","5","5","2","-1","0","1","-3","0","1","1","5","4","5","4","5","4","3","4","4","4","7","7","8","8","7","9","7","8","8","4","6","3","3","3","2","4","2","3","3","1","3","2","6","2","1","5","5","3","4","3","1","2","1","1","2","7","2","7","7","7","7","6","6","5","2","7","2","7","3","3","677293882131611648","张","112","Male","[""好他"",""坏他"",""好我"",""坏我""]","[""强他"",""弱他"",""强我"",""弱我""]","","","","","","","","","","","","","","","","","","","","","","","","","","","","","","feedback_test","","","","","","","","",""
"761","","j","psychophysics","136","292756","0.0-8.0-1.0-4.0-0.0-0.14","2","1","1","2","1","4","3","4","5","5","5","2","-1","0","1","-3","0","1","1","5","4","5","4","5","4","3","4","4","4","7","7","8","8","7","9","7","8","8","4","6","3","3","3","2","4","2","3","3","1","3","2","6","2","1","5","5","3","4","3","1","2","1","1","2","7","2","7","7","7","7","6","6","5","2","7","2","7","3","3","677293882131611648","张","112","Male","[""好他"",""坏他"",""好我"",""坏我""]","[""强他"",""弱他"",""强我"",""弱我""]","","","","","","","","nonmatch","","","","","","","","","","key","j","21.672197530863887","683","380","j","true","nonmatch","img/square.png","弱他","强我","ALT2","ability","","","","","","","","",""
"null","<span style='color:GreenYellow; font-size: 70px;'>正确! </span>","null","html-keyboard-response","137","293260","0.0-8.0-1.0-4.0-0.0-1.14","2","1","1","2","1","4","3","4","5","5","5","2","-1","0","1","-3","0","1","1","5","4","5","4","5","4","3","4","4","4","7","7","8","8","7","9","7","8","8","4","6","3","3","3","2","4","2","3","3","1","3","2","6","2","1","5","5","3","4","3","1","2","1","1","2","7","2","7","7","7","7","6","6","5","2","7","2","7","3","3","677293882131611648","张","112","Male","[""好他"",""坏他"",""好我"",""坏我""]","[""强他"",""弱他"",""强我"",""弱我""]","","","","","","","","","","","","","","","","","","","","","","","","","","","","","","feedback_test","","","","","","","","",""
