"rt","stimulus","response","trial_type","trial_index","time_elapsed","internal_node_id","swb_1","swb_2","swb_3","swb_4","swb_5","LOT_1","LOT_2","LOT_3","LOT_4","LOT_5","LOT_6","IPC_1","IPC_2","IPC_3","IPC_4","IPC_5","IPC_6","IPC_7","IPC_8","MorIden_1","MorIden_2","MorIden_3","MorIden_4","MorIden_5","MorIden_6","MorIden_7","MorIden_8","MorIden_9","MorIden_10","moralSeImag_1","moralSeImag_2","moralSeImag_3","moralSeImag_4","moralSeImag_5","moralSeImag_6","moralSeImag_7","moralSeImag_8","moralSeImag_9","sde_1","sde_2","sde_3","sde_4","sde_5","sde_6","sde_7","sde_8","sde_9","sde_10","trap2","sde_11","sde_12","sde_13","sde_14","sde_15","sde_16","sde_17","sde_18","sde_19","sde_20","IM_1","IM_2","IM_3","IM_4","IM_5","IM_6","IM_7","IM_8","IM_9","IM_10","IM_11","IM_12","IM_13","IM_14","IM_15","IM_16","IM_17","IM_18","IM_19","IM_20","subj_idx","friend_name","ParticipantID","Sex","Word","Word2","value","success","timeout","failed_images","failed_audio","failed_video","user_agent","responses","item_order","radio_event_ids","radio_event_times","key_event_times","mouse_event_times","straightlining","zigzagging","honeypot","task_id","screen_id","time_stamp","response_type","key_press","avg_frame_time","center_x","center_y","person","word","valence","domain","math","correct_response","correct","status","view_history","identity","duration","Image","condition","question_order","trap2_item"
"17976","
   <p><div style='color:white; font-size: 25px'>您好，欢迎参加本次实验。</div></p>
   <p><div style='color:white; font-size: 25px'>为充分保障您的权利，请确保您已经知晓并同意《参与实验同意书》以及《数据公开知情同意书》。</div></p>
   <p><div style='color:white; font-size: 25px'>如果您未见过上述内容，请咨询实验员。</div></p>
   <p style='color:white; font-size: 25px'>如果您选择继续实验，则表示您已经清楚两份知情同意书的内容并同意。</p>
   <p><div style = ""color: pink;font-size:30px;"">请确保您记得day0的实验编号，您将在本次实验输入该编号，若您忘记，请咨询实验员后作答。</div></p>
   <p><div style = ""color:lightblue;font-size:25px;"">请您尽可能认真地作答，我们将依据您在各问卷和按键任务中的作答质量发放报酬。</div></p>
   <p> <div style = ""color: green""><按空格键至下页></div> </p>
   "," ","html-keyboard-response","0","17980","0.0-0.0","4","3","3","2","3","4","5","3","4","5","4","-2","0","-2","0","-1","1","0","0","4","4","5","5","5","1","3","2","4","4","3","4","2","4","1","5","3","4","4","5","5","5","3","4","3","7","1","4","5","1","3","3","2","3","6","6","4","2","6","5","3","6","3","1","2","2","7","7","3","7","1","1","7","1","2","2","1","7","3","7","572562214427295744","R","79","Male","[""坏我"",""好我"",""坏他"",""好他""]","[""弱我"",""强我"",""弱他"",""强他""]","","","","","","","","","","","","","","","","","","","","","","","","","","","","","","","","","","","","","","",""
"","","","call-function","1","17983","0.0-1.0-0.0","4","3","3","2","3","4","5","3","4","5","4","-2","0","-2","0","-1","1","0","0","4","4","5","5","5","1","3","2","4","4","3","4","2","4","1","5","3","4","4","5","5","5","3","4","3","7","1","4","5","1","3","3","2","3","6","6","4","2","6","5","3","6","3","1","2","2","7","7","3","7","1","1","7","1","2","2","1","7","3","7","572562214427295744","R","79","Male","[""坏我"",""好我"",""坏他"",""好他""]","[""弱我"",""强我"",""弱他"",""强他""]","","","","","","","","","","","","","","","","","","","","","","","","","","","","","","","","","","","","","","",""
"21406","","[{""name"":""Sex"",""value"":""0""},{""name"":""friend_name"",""value"":""R""},{""name"":""ParticipantID"",""value"":""79""}]","survey-html-form","2","39390","0.0-1.0-1.0","4","3","3","2","3","4","5","3","4","5","4","-2","0","-2","0","-1","1","0","0","4","4","5","5","5","1","3","2","4","4","3","4","2","4","1","5","3","4","4","5","5","5","3","4","3","7","1","4","5","1","3","3","2","3","6","6","4","2","6","5","3","6","3","1","2","2","7","7","3","7","1","1","7","1","2","2","1","7","3","7","572562214427295744","R","79","Male","[""坏我"",""好我"",""坏他"",""好他""]","[""弱我"",""强我"",""弱他"",""强他""]","","","","","","","","","","","","","","","","","","","","","","","","","","","","","","","","","","","","","","",""
"","","","preload","3","40210","0.0-2.0","4","3","3","2","3","4","5","3","4","5","4","-2","0","-2","0","-1","1","0","0","4","4","5","5","5","1","3","2","4","4","3","4","2","4","1","5","3","4","4","5","5","5","3","4","3","7","1","4","5","1","3","3","2","3","6","6","4","2","6","5","3","6","3","1","2","2","7","7","3","7","1","1","7","1","2","2","1","7","3","7","572562214427295744","R","79","Male","[""坏我"",""好我"",""坏他"",""好他""]","[""弱我"",""强我"",""弱他"",""强他""]","","true","false","[]","[]","[]","","","","","","","","","","","","","","","","","","","","","","","","","","","","","","","","",""
"","","","fullscreen","4","43717","0.0-3.0","4","3","3","2","3","4","5","3","4","5","4","-2","0","-2","0","-1","1","0","0","4","4","5","5","5","1","3","2","4","4","3","4","2","4","1","5","3","4","4","5","5","5","3","4","3","7","1","4","5","1","3","3","2","3","6","6","4","2","6","5","3","6","3","1","2","2","7","7","3","7","1","1","7","1","2","2","1","7","3","7","572562214427295744","R","79","Male","[""坏我"",""好我"",""坏他"",""好他""]","[""弱我"",""强我"",""弱他"",""强他""]","","true","","","","","{}","","","","","","","","","","","","","","","","","","","","","","","","","","","","","","","",""
"28932.10000014305","","{""Q01"":""4"",""Q02"":""3"",""Q03"":""3"",""Q04"":""2"",""Q05"":""3""}","survey-template","5","72656","0.0-4.0","4","3","3","2","3","4","5","3","4","5","4","-2","0","-2","0","-1","1","0","0","4","4","5","5","5","1","3","2","4","4","3","4","2","4","1","5","3","4","4","5","5","5","3","4","3","7","1","4","5","1","3","3","2","3","6","6","4","2","6","5","3","6","3","1","2","2","7","7","3","7","1","1","7","1","2","2","1","7","3","7","572562214427295744","R","79","Male","[""坏我"",""好我"",""坏他"",""好他""]","[""弱我"",""强我"",""弱他"",""强他""]","","","","","","","","{""Q01"":""4"",""Q02"":""3"",""Q03"":""3"",""Q04"":""2"",""Q05"":""3""}","[0,1,2,3,4]","[""Q01"",""Q02"",""Q03"",""Q01"",""Q04"",""Q05""]","[6419.800000190735,8595.300000190735,10883.400000095367,17762.900000095367,21562.800000190735,23394.900000095367]","[]","[6419.800000190735,8595.300000190735,10883.400000095367,15899.300000190735,16211.200000047684,17115.5,17762.900000095367,18530.900000095367,20531,20954.900000095367,21562.800000190735,23394.900000095367,28930.800000190735]","0.6","0.75","0","","","","","","","","","","","","","","","","","","","","","","",""
"28702.400000095367","","{""Q01"":""4"",""Q02"":""5"",""Q03"":""3"",""Q04"":""4"",""Q05"":""5"",""Q06"":""4""}","survey-template","6","101366","0.0-5.0","4","3","3","2","3","4","5","3","4","5","4","-2","0","-2","0","-1","1","0","0","4","4","5","5","5","1","3","2","4","4","3","4","2","4","1","5","3","4","4","5","5","5","3","4","3","7","1","4","5","1","3","3","2","3","6","6","4","2","6","5","3","6","3","1","2","2","7","7","3","7","1","1","7","1","2","2","1","7","3","7","572562214427295744","R","79","Male","[""坏我"",""好我"",""坏他"",""好他""]","[""弱我"",""强我"",""弱他"",""强他""]","","","","","","","","{""Q01"":""4"",""Q02"":""5"",""Q03"":""3"",""Q04"":""4"",""Q05"":""5"",""Q06"":""4""}","[0,1,2,3,4,5]","[""Q01"",""Q02"",""Q03"",""Q04"",""Q05"",""Q06""]","[7646.400000095367,12782.299999952316,15470.100000143051,20142.10000014305,22349.900000095367,27869.900000095367]","[]","[7646.400000095367,12782.299999952316,15470.100000143051,19110.10000014305,19773.900000095367,20142.10000014305,22349.900000095367,27869.900000095367,28701.60000014305]","0.3333333333333333","0.4","0","","","","","","","","","","","","","","","","","","","","","","",""
"40865.299999952316","","{""Q01"":""-2"",""Q02"":""0"",""Q03"":""-2"",""Q04"":""0"",""Q05"":""-1"",""Q06"":""1"",""Q07"":""0"",""Q08"":""0""}","survey-template","7","142239","0.0-6.0","4","3","3","2","3","4","5","3","4","5","4","-2","0","-2","0","-1","1","0","0","4","4","5","5","5","1","3","2","4","4","3","4","2","4","1","5","3","4","4","5","5","5","3","4","3","7","1","4","5","1","3","3","2","3","6","6","4","2","6","5","3","6","3","1","2","2","7","7","3","7","1","1","7","1","2","2","1","7","3","7","572562214427295744","R","79","Male","[""坏我"",""好我"",""坏他"",""好他""]","[""弱我"",""强我"",""弱他"",""强他""]","","","","","","","","{""Q01"":""-2"",""Q02"":""0"",""Q03"":""-2"",""Q04"":""0"",""Q05"":""-1"",""Q06"":""1"",""Q07"":""0"",""Q08"":""0""}","[0,1,2,3,4,5,6,7]","[""Q01"",""Q02"",""Q03"",""Q04"",""Q05"",""Q06"",""Q07"",""Q08""]","[7928.899999856949,13448.899999856949,21168.599999904633,25144.599999904633,28112.39999985695,31576.599999904633,36424.199999809265,39408.09999990463]","[]","[7928.899999856949,13448.899999856949,15656.799999952316,20768.699999809265,21168.599999904633,25144.599999904633,28112.39999985695,28840.39999985695,31576.599999904633,35760.199999809265,36424.199999809265,39408.09999990463,40864.09999990463]","0.5","0.2857142857142857","0","","","","","","","","","","","","","","","","","","","","","","",""
"14272","
    <p><div style='color:white;font-size:35px; line-height:20px;'>词汇评估任务</div></p><br>
    <p><div style='color:white;font-size:25px; line-height:20px;'>请再次回忆该亲密的朋友，你们至少2年前就认识了，并且最近2年经常见面。</div></p>
    <p><div style='color:white;font-size:25px; line-height:20px;'>在本实验中，您将会看到一些形容词。</div></p>
    <p><div style='color:yellow;font-size:25px; line-height:20px;'>您的任务是判断这些形容词是否符合对您自己或您的朋友的描述。</div></p><p style='font-size:35px'>符合按<span style=""color:lightgreen""> j 键</span>，不符合按<span style=""color:red""> f 键</span></p>","0","html-button-response","8","156517","0.0-7.0-0.0","4","3","3","2","3","4","5","3","4","5","4","-2","0","-2","0","-1","1","0","0","4","4","5","5","5","1","3","2","4","4","3","4","2","4","1","5","3","4","4","5","5","5","3","4","3","7","1","4","5","1","3","3","2","3","6","6","4","2","6","5","3","6","3","1","2","2","7","7","3","7","1","1","7","1","2","2","1","7","3","7","572562214427295744","R","79","Male","[""坏我"",""好我"",""坏他"",""好他""]","[""弱我"",""强我"",""弱他"",""强他""]","","","","","","","","","","","","","","","","","SRET_EW","EW_instructions","Mon Jan 29 2024 14:32:30 GMT+0800 (中国标准时间)","","","","","","","","","","","","","","","","","","","",""
"null","","null","psychophysics","9","159525","0.0-7.0-1.0-0.0","4","3","3","2","3","4","5","3","4","5","4","-2","0","-2","0","-1","1","0","0","4","4","5","5","5","1","3","2","4","4","3","4","2","4","1","5","3","4","4","5","5","5","3","4","3","7","1","4","5","1","3","3","2","3","6","6","4","2","6","5","3","6","3","1","2","2","7","7","3","7","1","1","7","1","2","2","1","7","3","7","572562214427295744","R","79","Male","[""坏我"",""好我"",""坏他"",""好他""]","[""弱我"",""强我"",""弱他"",""强他""]","","","","","","","","","","","","","","","","","SRET_EW","EW_practice","","key","null","16.71168156424583","758.3333534223067","422.22223340729164","自己","刻板","Negative","ability","","","","","","","","","","",""
"706","","j","psychophysics","10","161240","0.0-7.0-1.0-0.1","4","3","3","2","3","4","5","3","4","5","4","-2","0","-2","0","-1","1","0","0","4","4","5","5","5","1","3","2","4","4","3","4","2","4","1","5","3","4","4","5","5","5","3","4","3","7","1","4","5","1","3","3","2","3","6","6","4","2","6","5","3","6","3","1","2","2","7","7","3","7","1","1","7","1","2","2","1","7","3","7","572562214427295744","R","79","Male","[""坏我"",""好我"",""坏他"",""好他""]","[""弱我"",""强我"",""弱他"",""强他""]","","","","","","","","yes","","","","","","","","","SRET_EW","EW_practice","","key","j","16.710686274509712","758.3333534223067","422.22223340729164","自己","严谨","Positive","ability","","","","","","","","","","",""
"1715","","f","psychophysics","11","163958","0.0-7.0-1.0-0.2","4","3","3","2","3","4","5","3","4","5","4","-2","0","-2","0","-1","1","0","0","4","4","5","5","5","1","3","2","4","4","3","4","2","4","1","5","3","4","4","5","5","5","3","4","3","7","1","4","5","1","3","3","2","3","6","6","4","2","6","5","3","6","3","1","2","2","7","7","3","7","1","1","7","1","2","2","1","7","3","7","572562214427295744","R","79","Male","[""坏我"",""好我"",""坏他"",""好他""]","[""弱我"",""强我"",""弱他"",""强他""]","","","","","","","","no","","","","","","","","","SRET_EW","EW_practice","","key","f","16.7113580246913","758.3333534223067","422.22223340729164","朋友","徇私","Negative","morality","","","","","","","","","","",""
"943","","j","psychophysics","12","165905","0.0-7.0-1.0-0.3","4","3","3","2","3","4","5","3","4","5","4","-2","0","-2","0","-1","1","0","0","4","4","5","5","5","1","3","2","4","4","3","4","2","4","1","5","3","4","4","5","5","5","3","4","3","7","1","4","5","1","3","3","2","3","6","6","4","2","6","5","3","6","3","1","2","2","7","7","3","7","1","1","7","1","2","2","1","7","3","7","572562214427295744","R","79","Male","[""坏我"",""好我"",""坏他"",""好他""]","[""弱我"",""强我"",""弱他"",""强他""]","","","","","","","","yes","","","","","","","","","SRET_EW","EW_practice","","key","j","16.709565217391354","758.3333534223067","422.22223340729164","朋友","忠实","Positive","morality","","","","","","","","","","",""
"8194","
    <p><div style='color:white;font-size:35px; line-height:20px;'>请您再次阅读实验要求</div></p><br>
    <p><div style='color:white;font-size:25px; line-height:20px;'>请回忆某一个亲密的朋友，你们至少2年前就认识了，并且最近2年经常见面。</div></p>
    <p><div style='color:white;font-size:25px; line-height:20px;'>在本实验中，您将会看到一些形容词。</div></p>
    <p><div style='color:yellow;font-size:25px; line-height:20px;'>您的任务是判断这些形容词是否符合对您自己或您的朋友的描述。</div></p>
    <p><div class='footer' style='font-size:25px; line-height:20px;'>如果对本实验还有不清楚之处，请立即向实验员咨询。</p><p style='font-size:25px; line-height:20px;'>如果您明白了规则：</p><p style='font-size:22px; line-height:20px;'>请按 继续 进入正式实验</p>
    </div>
    <p style='font-size:35px'>符合按<span style=""color:lightgreen""> j 键</span>，不符合按<span style=""color:red""> f 键</span></p>","0","html-button-response","13","174101","0.0-7.0-2.0","4","3","3","2","3","4","5","3","4","5","4","-2","0","-2","0","-1","1","0","0","4","4","5","5","5","1","3","2","4","4","3","4","2","4","1","5","3","4","4","5","5","5","3","4","3","7","1","4","5","1","3","3","2","3","6","6","4","2","6","5","3","6","3","1","2","2","7","7","3","7","1","1","7","1","2","2","1","7","3","7","572562214427295744","R","79","Male","[""坏我"",""好我"",""坏他"",""好他""]","[""弱我"",""强我"",""弱他"",""强他""]","","","","","","","","","","","","","","","","","SRET_EW","prac_instructions","Mon Jan 29 2024 14:32:30 GMT+0800 (中国标准时间)","","","","","","","","","","","","","","","","","","","",""
"935","","f","psychophysics","14","176041","0.0-7.0-3.0-0.0","4","3","3","2","3","4","5","3","4","5","4","-2","0","-2","0","-1","1","0","0","4","4","5","5","5","1","3","2","4","4","3","4","2","4","1","5","3","4","4","5","5","5","3","4","3","7","1","4","5","1","3","3","2","3","6","6","4","2","6","5","3","6","3","1","2","2","7","7","3","7","1","1","7","1","2","2","1","7","3","7","572562214427295744","R","79","Male","[""坏我"",""好我"",""坏他"",""好他""]","[""弱我"",""强我"",""弱他"",""强他""]","","","","","","","","no","","","","","","","","","SRET","EW_formal","","key","f","16.7120086206896","758.3333534223067","422.22223340729164","朋友","迷糊","Negative","ability","","","","","","","","","","",""
"674","","j","psychophysics","15","177719","0.0-7.0-3.0-0.1","4","3","3","2","3","4","5","3","4","5","4","-2","0","-2","0","-1","1","0","0","4","4","5","5","5","1","3","2","4","4","3","4","2","4","1","5","3","4","4","5","5","5","3","4","3","7","1","4","5","1","3","3","2","3","6","6","4","2","6","5","3","6","3","1","2","2","7","7","3","7","1","1","7","1","2","2","1","7","3","7","572562214427295744","R","79","Male","[""坏我"",""好我"",""坏他"",""好他""]","[""弱我"",""强我"",""弱他"",""强他""]","","","","","","","","yes","","","","","","","","","SRET","EW_formal","","key","j","16.709686868686777","758.3333534223067","422.22223340729164","自己","坚贞","Positive","morality","","","","","","","","","","",""
"682","","f","psychophysics","16","179403","0.0-7.0-3.0-0.2","4","3","3","2","3","4","5","3","4","5","4","-2","0","-2","0","-1","1","0","0","4","4","5","5","5","1","3","2","4","4","3","4","2","4","1","5","3","4","4","5","5","5","3","4","3","7","1","4","5","1","3","3","2","3","6","6","4","2","6","5","3","6","3","1","2","2","7","7","3","7","1","1","7","1","2","2","1","7","3","7","572562214427295744","R","79","Male","[""坏我"",""好我"",""坏他"",""好他""]","[""弱我"",""强我"",""弱他"",""强他""]","","","","","","","","no","","","","","","","","","SRET","EW_formal","","key","f","17.052653061224525","758.3333534223067","422.22223340729164","自己","说谎","Negative","morality","","","","","","","","","","",""
"718","","j","psychophysics","17","181124","0.0-7.0-3.0-0.3","4","3","3","2","3","4","5","3","4","5","4","-2","0","-2","0","-1","1","0","0","4","4","5","5","5","1","3","2","4","4","3","4","2","4","1","5","3","4","4","5","5","5","3","4","3","7","1","4","5","1","3","3","2","3","6","6","4","2","6","5","3","6","3","1","2","2","7","7","3","7","1","1","7","1","2","2","1","7","3","7","572562214427295744","R","79","Male","[""坏我"",""好我"",""坏他"",""好他""]","[""弱我"",""强我"",""弱他"",""强他""]","","","","","","","","yes","","","","","","","","","SRET","EW_formal","","key","j","16.712921568627387","758.3333534223067","422.22223340729164","朋友","务实","Positive","ability","","","","","","","","","","",""
"723","","f","psychophysics","18","182850","0.0-7.0-3.0-0.4","4","3","3","2","3","4","5","3","4","5","4","-2","0","-2","0","-1","1","0","0","4","4","5","5","5","1","3","2","4","4","3","4","2","4","1","5","3","4","4","5","5","5","3","4","3","7","1","4","5","1","3","3","2","3","6","6","4","2","6","5","3","6","3","1","2","2","7","7","3","7","1","1","7","1","2","2","1","7","3","7","572562214427295744","R","79","Male","[""坏我"",""好我"",""坏他"",""好他""]","[""弱我"",""强我"",""弱他"",""强他""]","","","","","","","","no","","","","","","","","","SRET","EW_formal","","key","f","16.7125882352942","758.3333534223067","422.22223340729164","自己","下流","Negative","morality","","","","","","","","","","",""
"667","","j","psychophysics","19","184518","0.0-7.0-3.0-0.5","4","3","3","2","3","4","5","3","4","5","4","-2","0","-2","0","-1","1","0","0","4","4","5","5","5","1","3","2","4","4","3","4","2","4","1","5","3","4","4","5","5","5","3","4","3","7","1","4","5","1","3","3","2","3","6","6","4","2","6","5","3","6","3","1","2","2","7","7","3","7","1","1","7","1","2","2","1","7","3","7","572562214427295744","R","79","Male","[""坏我"",""好我"",""坏他"",""好他""]","[""弱我"",""强我"",""弱他"",""强他""]","","","","","","","","yes","","","","","","","","","SRET","EW_formal","","key","j","16.711585858585714","758.3333534223067","422.22223340729164","自己","守信","Positive","morality","","","","","","","","","","",""
"698","","f","psychophysics","20","186219","0.0-7.0-3.0-0.6","4","3","3","2","3","4","5","3","4","5","4","-2","0","-2","0","-1","1","0","0","4","4","5","5","5","1","3","2","4","4","3","4","2","4","1","5","3","4","4","5","5","5","3","4","3","7","1","4","5","1","3","3","2","3","6","6","4","2","6","5","3","6","3","1","2","2","7","7","3","7","1","1","7","1","2","2","1","7","3","7","572562214427295744","R","79","Male","[""坏我"",""好我"",""坏他"",""好他""]","[""弱我"",""强我"",""弱他"",""强他""]","","","","","","","","no","","","","","","","","","SRET","EW_formal","","key","f","16.71380198019785","758.3333534223067","422.22223340729164","自己","利落","Positive","ability","","","","","","","","","","",""
"767","","j","psychophysics","21","187989","0.0-7.0-3.0-0.7","4","3","3","2","3","4","5","3","4","5","4","-2","0","-2","0","-1","1","0","0","4","4","5","5","5","1","3","2","4","4","3","4","2","4","1","5","3","4","4","5","5","5","3","4","3","7","1","4","5","1","3","3","2","3","6","6","4","2","6","5","3","6","3","1","2","2","7","7","3","7","1","1","7","1","2","2","1","7","3","7","572562214427295744","R","79","Male","[""坏我"",""好我"",""坏他"",""好他""]","[""弱我"",""强我"",""弱他"",""强他""]","","","","","","","","yes","","","","","","","","","SRET","EW_formal","","key","j","16.711485714285768","758.3333534223067","422.22223340729164","朋友","礼貌","Positive","morality","","","","","","","","","","",""
"704","","f","psychophysics","22","189697","0.0-7.0-3.0-0.8","4","3","3","2","3","4","5","3","4","5","4","-2","0","-2","0","-1","1","0","0","4","4","5","5","5","1","3","2","4","4","3","4","2","4","1","5","3","4","4","5","5","5","3","4","3","7","1","4","5","1","3","3","2","3","6","6","4","2","6","5","3","6","3","1","2","2","7","7","3","7","1","1","7","1","2","2","1","7","3","7","572562214427295744","R","79","Male","[""坏我"",""好我"",""坏他"",""好他""]","[""弱我"",""强我"",""弱他"",""强他""]","","","","","","","","no","","","","","","","","","SRET","EW_formal","","key","f","16.71075247524774","758.3333534223067","422.22223340729164","朋友","腐败","Negative","morality","","","","","","","","","","",""
"755","","j","psychophysics","23","191455","0.0-7.0-3.0-0.9","4","3","3","2","3","4","5","3","4","5","4","-2","0","-2","0","-1","1","0","0","4","4","5","5","5","1","3","2","4","4","3","4","2","4","1","5","3","4","4","5","5","5","3","4","3","7","1","4","5","1","3","3","2","3","6","6","4","2","6","5","3","6","3","1","2","2","7","7","3","7","1","1","7","1","2","2","1","7","3","7","572562214427295744","R","79","Male","[""坏我"",""好我"",""坏他"",""好他""]","[""弱我"",""强我"",""弱他"",""强他""]","","","","","","","","yes","","","","","","","","","SRET","EW_formal","","key","j","16.712500000000055","758.3333534223067","422.22223340729164","朋友","仁厚","Positive","morality","","","","","","","","","","",""
"697","","f","psychophysics","24","193154","0.0-7.0-3.0-0.10","4","3","3","2","3","4","5","3","4","5","4","-2","0","-2","0","-1","1","0","0","4","4","5","5","5","1","3","2","4","4","3","4","2","4","1","5","3","4","4","5","5","5","3","4","3","7","1","4","5","1","3","3","2","3","6","6","4","2","6","5","3","6","3","1","2","2","7","7","3","7","1","1","7","1","2","2","1","7","3","7","572562214427295744","R","79","Male","[""坏我"",""好我"",""坏他"",""好他""]","[""弱我"",""强我"",""弱他"",""强他""]","","","","","","","","no","","","","","","","","","SRET","EW_formal","","key","f","16.712910891089262","758.3333534223067","422.22223340729164","朋友","愚痴","Negative","ability","","","","","","","","","","",""
"702","","f","psychophysics","25","194860","0.0-7.0-3.0-0.11","4","3","3","2","3","4","5","3","4","5","4","-2","0","-2","0","-1","1","0","0","4","4","5","5","5","1","3","2","4","4","3","4","2","4","1","5","3","4","4","5","5","5","3","4","3","7","1","4","5","1","3","3","2","3","6","6","4","2","6","5","3","6","3","1","2","2","7","7","3","7","1","1","7","1","2","2","1","7","3","7","572562214427295744","R","79","Male","[""坏我"",""好我"",""坏他"",""好他""]","[""弱我"",""强我"",""弱他"",""强他""]","","","","","","","","no","","","","","","","","","SRET","EW_formal","","key","f","16.710831683168262","758.3333534223067","422.22223340729164","自己","不端","Negative","morality","","","","","","","","","","",""
"777","","f","psychophysics","26","196640","0.0-7.0-3.0-0.12","4","3","3","2","3","4","5","3","4","5","4","-2","0","-2","0","-1","1","0","0","4","4","5","5","5","1","3","2","4","4","3","4","2","4","1","5","3","4","4","5","5","5","3","4","3","7","1","4","5","1","3","3","2","3","6","6","4","2","6","5","3","6","3","1","2","2","7","7","3","7","1","1","7","1","2","2","1","7","3","7","572562214427295744","R","79","Male","[""坏我"",""好我"",""坏他"",""好他""]","[""弱我"",""强我"",""弱他"",""强他""]","","","","","","","","no","","","","","","","","","SRET","EW_formal","","key","f","16.712209523809587","758.3333534223067","422.22223340729164","朋友","畏难","Negative","ability","","","","","","","","","","",""
"646","","j","psychophysics","27","198287","0.0-7.0-3.0-0.13","4","3","3","2","3","4","5","3","4","5","4","-2","0","-2","0","-1","1","0","0","4","4","5","5","5","1","3","2","4","4","3","4","2","4","1","5","3","4","4","5","5","5","3","4","3","7","1","4","5","1","3","3","2","3","6","6","4","2","6","5","3","6","3","1","2","2","7","7","3","7","1","1","7","1","2","2","1","7","3","7","572562214427295744","R","79","Male","[""坏我"",""好我"",""坏他"",""好他""]","[""弱我"",""强我"",""弱他"",""强他""]","","","","","","","","yes","","","","","","","","","SRET","EW_formal","","key","j","16.711173469387827","758.3333534223067","422.22223340729164","自己","善良","Positive","morality","","","","","","","","","","",""
"672","","f","psychophysics","28","199962","0.0-7.0-3.0-0.14","4","3","3","2","3","4","5","3","4","5","4","-2","0","-2","0","-1","1","0","0","4","4","5","5","5","1","3","2","4","4","3","4","2","4","1","5","3","4","4","5","5","5","3","4","3","7","1","4","5","1","3","3","2","3","6","6","4","2","6","5","3","6","3","1","2","2","7","7","3","7","1","1","7","1","2","2","1","7","3","7","572562214427295744","R","79","Male","[""坏我"",""好我"",""坏他"",""好他""]","[""弱我"",""强我"",""弱他"",""强他""]","","","","","","","","no","","","","","","","","","SRET","EW_formal","","key","f","16.71141414141407","758.3333534223067","422.22223340729164","朋友","庸碌","Negative","ability","","","","","","","","","","",""
"736","","f","psychophysics","29","201701","0.0-7.0-3.0-0.15","4","3","3","2","3","4","5","3","4","5","4","-2","0","-2","0","-1","1","0","0","4","4","5","5","5","1","3","2","4","4","3","4","2","4","1","5","3","4","4","5","5","5","3","4","3","7","1","4","5","1","3","3","2","3","6","6","4","2","6","5","3","6","3","1","2","2","7","7","3","7","1","1","7","1","2","2","1","7","3","7","572562214427295744","R","79","Male","[""坏我"",""好我"",""坏他"",""好他""]","[""弱我"",""强我"",""弱他"",""强他""]","","","","","","","","no","","","","","","","","","SRET","EW_formal","","key","f","16.70986407766999","758.3333534223067","422.22223340729164","自己","废物","Negative","ability","","","","","","","","","","",""
"679","","f","psychophysics","30","203382","0.0-7.0-3.0-0.16","4","3","3","2","3","4","5","3","4","5","4","-2","0","-2","0","-1","1","0","0","4","4","5","5","5","1","3","2","4","4","3","4","2","4","1","5","3","4","4","5","5","5","3","4","3","7","1","4","5","1","3","3","2","3","6","6","4","2","6","5","3","6","3","1","2","2","7","7","3","7","1","1","7","1","2","2","1","7","3","7","572562214427295744","R","79","Male","[""坏我"",""好我"",""坏他"",""好他""]","[""弱我"",""强我"",""弱他"",""强他""]","","","","","","","","no","","","","","","","","","SRET","EW_formal","","key","f","16.707580000000018","758.3333534223067","422.22223340729164","朋友","驽钝","Negative","ability","","","","","","","","","","",""
"657","","j","psychophysics","31","205042","0.0-7.0-3.0-0.17","4","3","3","2","3","4","5","3","4","5","4","-2","0","-2","0","-1","1","0","0","4","4","5","5","5","1","3","2","4","4","3","4","2","4","1","5","3","4","4","5","5","5","3","4","3","7","1","4","5","1","3","3","2","3","6","6","4","2","6","5","3","6","3","1","2","2","7","7","3","7","1","1","7","1","2","2","1","7","3","7","572562214427295744","R","79","Male","[""坏我"",""好我"",""坏他"",""好他""]","[""弱我"",""强我"",""弱他"",""强他""]","","","","","","","","yes","","","","","","","","","SRET","EW_formal","","key","j","16.70979591836762","758.3333534223067","422.22223340729164","朋友","守时","Positive","morality","","","","","","","","","","",""
"653","","f","psychophysics","32","206697","0.0-7.0-3.0-0.18","4","3","3","2","3","4","5","3","4","5","4","-2","0","-2","0","-1","1","0","0","4","4","5","5","5","1","3","2","4","4","3","4","2","4","1","5","3","4","4","5","5","5","3","4","3","7","1","4","5","1","3","3","2","3","6","6","4","2","6","5","3","6","3","1","2","2","7","7","3","7","1","1","7","1","2","2","1","7","3","7","572562214427295744","R","79","Male","[""坏我"",""好我"",""坏他"",""好他""]","[""弱我"",""强我"",""弱他"",""强他""]","","","","","","","","no","","","","","","","","","SRET","EW_formal","","key","f","16.711826530612154","758.3333534223067","422.22223340729164","朋友","伪善","Negative","morality","","","","","","","","","","",""
"733","","f","psychophysics","33","208431","0.0-7.0-3.0-0.19","4","3","3","2","3","4","5","3","4","5","4","-2","0","-2","0","-1","1","0","0","4","4","5","5","5","1","3","2","4","4","3","4","2","4","1","5","3","4","4","5","5","5","3","4","3","7","1","4","5","1","3","3","2","3","6","6","4","2","6","5","3","6","3","1","2","2","7","7","3","7","1","1","7","1","2","2","1","7","3","7","572562214427295744","R","79","Male","[""坏我"",""好我"",""坏他"",""好他""]","[""弱我"",""强我"",""弱他"",""强他""]","","","","","","","","no","","","","","","","","","SRET","EW_formal","","key","f","16.7118349514562","758.3333534223067","422.22223340729164","自己","窝囊","Negative","ability","","","","","","","","","","",""
"694","","f","psychophysics","34","210127","0.0-7.0-3.0-0.20","4","3","3","2","3","4","5","3","4","5","4","-2","0","-2","0","-1","1","0","0","4","4","5","5","5","1","3","2","4","4","3","4","2","4","1","5","3","4","4","5","5","5","3","4","3","7","1","4","5","1","3","3","2","3","6","6","4","2","6","5","3","6","3","1","2","2","7","7","3","7","1","1","7","1","2","2","1","7","3","7","572562214427295744","R","79","Male","[""坏我"",""好我"",""坏他"",""好他""]","[""弱我"",""强我"",""弱他"",""强他""]","","","","","","","","no","","","","","","","","","SRET","EW_formal","","key","f","16.710719999999856","758.3333534223067","422.22223340729164","自己","君子","Positive","morality","","","","","","","","","","",""
"691","","j","psychophysics","35","211820","0.0-7.0-3.0-0.21","4","3","3","2","3","4","5","3","4","5","4","-2","0","-2","0","-1","1","0","0","4","4","5","5","5","1","3","2","4","4","3","4","2","4","1","5","3","4","4","5","5","5","3","4","3","7","1","4","5","1","3","3","2","3","6","6","4","2","6","5","3","6","3","1","2","2","7","7","3","7","1","1","7","1","2","2","1","7","3","7","572562214427295744","R","79","Male","[""坏我"",""好我"",""坏他"",""好他""]","[""弱我"",""强我"",""弱他"",""强他""]","","","","","","","","yes","","","","","","","","","SRET","EW_formal","","key","j","16.712673267326835","758.3333534223067","422.22223340729164","自己","顶事","Positive","ability","","","","","","","","","","",""
"802","","j","psychophysics","36","213626","0.0-7.0-3.0-0.22","4","3","3","2","3","4","5","3","4","5","4","-2","0","-2","0","-1","1","0","0","4","4","5","5","5","1","3","2","4","4","3","4","2","4","1","5","3","4","4","5","5","5","3","4","3","7","1","4","5","1","3","3","2","3","6","6","4","2","6","5","3","6","3","1","2","2","7","7","3","7","1","1","7","1","2","2","1","7","3","7","572562214427295744","R","79","Male","[""坏我"",""好我"",""坏他"",""好他""]","[""弱我"",""强我"",""弱他"",""强他""]","","","","","","","","yes","","","","","","","","","SRET","EW_formal","","key","j","16.868688679245334","758.3333534223067","422.22223340729164","朋友","远见","Positive","ability","","","","","","","","","","",""
"771","","f","psychophysics","37","215400","0.0-7.0-3.0-0.23","4","3","3","2","3","4","5","3","4","5","4","-2","0","-2","0","-1","1","0","0","4","4","5","5","5","1","3","2","4","4","3","4","2","4","1","5","3","4","4","5","5","5","3","4","3","7","1","4","5","1","3","3","2","3","6","6","4","2","6","5","3","6","3","1","2","2","7","7","3","7","1","1","7","1","2","2","1","7","3","7","572562214427295744","R","79","Male","[""坏我"",""好我"",""坏他"",""好他""]","[""弱我"",""强我"",""弱他"",""强他""]","","","","","","","","no","","","","","","","","","SRET","EW_formal","","key","f","16.711885714285643","758.3333534223067","422.22223340729164","朋友","不孝","Negative","morality","","","","","","","","","","",""
"792","","f","psychophysics","38","217195","0.0-7.0-3.0-0.24","4","3","3","2","3","4","5","3","4","5","4","-2","0","-2","0","-1","1","0","0","4","4","5","5","5","1","3","2","4","4","3","4","2","4","1","5","3","4","4","5","5","5","3","4","3","7","1","4","5","1","3","3","2","3","6","6","4","2","6","5","3","6","3","1","2","2","7","7","3","7","1","1","7","1","2","2","1","7","3","7","572562214427295744","R","79","Male","[""坏我"",""好我"",""坏他"",""好他""]","[""弱我"",""强我"",""弱他"",""强他""]","","","","","","","","no","","","","","","","","","SRET","EW_formal","","key","f","16.712981132075207","758.3333534223067","422.22223340729164","朋友","浅薄","Negative","ability","","","","","","","","","","",""
"717","","f","psychophysics","39","218914","0.0-7.0-3.0-0.25","4","3","3","2","3","4","5","3","4","5","4","-2","0","-2","0","-1","1","0","0","4","4","5","5","5","1","3","2","4","4","3","4","2","4","1","5","3","4","4","5","5","5","3","4","3","7","1","4","5","1","3","3","2","3","6","6","4","2","6","5","3","6","3","1","2","2","7","7","3","7","1","1","7","1","2","2","1","7","3","7","572562214427295744","R","79","Male","[""坏我"",""好我"",""坏他"",""好他""]","[""弱我"",""强我"",""弱他"",""强他""]","","","","","","","","no","","","","","","","","","SRET","EW_formal","","key","f","16.71366666666661","758.3333534223067","422.22223340729164","朋友","低劣","Negative","morality","","","","","","","","","","",""
"703","","j","psychophysics","40","220619","0.0-7.0-3.0-0.26","4","3","3","2","3","4","5","3","4","5","4","-2","0","-2","0","-1","1","0","0","4","4","5","5","5","1","3","2","4","4","3","4","2","4","1","5","3","4","4","5","5","5","3","4","3","7","1","4","5","1","3","3","2","3","6","6","4","2","6","5","3","6","3","1","2","2","7","7","3","7","1","1","7","1","2","2","1","7","3","7","572562214427295744","R","79","Male","[""坏我"",""好我"",""坏他"",""好他""]","[""弱我"",""强我"",""弱他"",""强他""]","","","","","","","","yes","","","","","","","","","SRET","EW_formal","","key","j","16.712534653465205","758.3333534223067","422.22223340729164","自己","才尽","Negative","ability","","","","","","","","","","",""
"699","","j","psychophysics","41","222320","0.0-7.0-3.0-0.27","4","3","3","2","3","4","5","3","4","5","4","-2","0","-2","0","-1","1","0","0","4","4","5","5","5","1","3","2","4","4","3","4","2","4","1","5","3","4","4","5","5","5","3","4","3","7","1","4","5","1","3","3","2","3","6","6","4","2","6","5","3","6","3","1","2","2","7","7","3","7","1","1","7","1","2","2","1","7","3","7","572562214427295744","R","79","Male","[""坏我"",""好我"",""坏他"",""好他""]","[""弱我"",""强我"",""弱他"",""强他""]","","","","","","","","yes","","","","","","","","","SRET","EW_formal","","key","j","16.71194059405929","758.3333534223067","422.22223340729164","自己","仁爱","Positive","morality","","","","","","","","","","",""
"705","","j","psychophysics","42","224027","0.0-7.0-3.0-0.28","4","3","3","2","3","4","5","3","4","5","4","-2","0","-2","0","-1","1","0","0","4","4","5","5","5","1","3","2","4","4","3","4","2","4","1","5","3","4","4","5","5","5","3","4","3","7","1","4","5","1","3","3","2","3","6","6","4","2","6","5","3","6","3","1","2","2","7","7","3","7","1","1","7","1","2","2","1","7","3","7","572562214427295744","R","79","Male","[""坏我"",""好我"",""坏他"",""好他""]","[""弱我"",""强我"",""弱他"",""强他""]","","","","","","","","yes","","","","","","","","","SRET","EW_formal","","key","j","16.711316831683103","758.3333534223067","422.22223340729164","自己","博学","Positive","ability","","","","","","","","","","",""
"678","","f","psychophysics","43","225707","0.0-7.0-3.0-0.29","4","3","3","2","3","4","5","3","4","5","4","-2","0","-2","0","-1","1","0","0","4","4","5","5","5","1","3","2","4","4","3","4","2","4","1","5","3","4","4","5","5","5","3","4","3","7","1","4","5","1","3","3","2","3","6","6","4","2","6","5","3","6","3","1","2","2","7","7","3","7","1","1","7","1","2","2","1","7","3","7","572562214427295744","R","79","Male","[""坏我"",""好我"",""坏他"",""好他""]","[""弱我"",""强我"",""弱他"",""强他""]","","","","","","","","no","","","","","","","","","SRET","EW_formal","","key","f","16.71240404040395","758.3333534223067","422.22223340729164","自己","拙笨","Negative","ability","","","","","","","","","","",""
"661","","f","psychophysics","44","227375","0.0-7.0-3.0-0.30","4","3","3","2","3","4","5","3","4","5","4","-2","0","-2","0","-1","1","0","0","4","4","5","5","5","1","3","2","4","4","3","4","2","4","1","5","3","4","4","5","5","5","3","4","3","7","1","4","5","1","3","3","2","3","6","6","4","2","6","5","3","6","3","1","2","2","7","7","3","7","1","1","7","1","2","2","1","7","3","7","572562214427295744","R","79","Male","[""坏我"",""好我"",""坏他"",""好他""]","[""弱我"",""强我"",""弱他"",""强他""]","","","","","","","","no","","","","","","","","","SRET","EW_formal","","key","f","16.71157575757572","758.3333534223067","422.22223340729164","朋友","昏庸","Negative","ability","","","","","","","","","","",""
"629","","f","psychophysics","45","229007","0.0-7.0-3.0-0.31","4","3","3","2","3","4","5","3","4","5","4","-2","0","-2","0","-1","1","0","0","4","4","5","5","5","1","3","2","4","4","3","4","2","4","1","5","3","4","4","5","5","5","3","4","3","7","1","4","5","1","3","3","2","3","6","6","4","2","6","5","3","6","3","1","2","2","7","7","3","7","1","1","7","1","2","2","1","7","3","7","572562214427295744","R","79","Male","[""坏我"",""好我"",""坏他"",""好他""]","[""弱我"",""强我"",""弱他"",""强他""]","","","","","","","","no","","","","","","","","","SRET","EW_formal","","key","f","16.71246391752574","758.3333534223067","422.22223340729164","朋友","邪恶","Negative","morality","","","","","","","","","","",""
"715","","f","psychophysics","46","230724","0.0-7.0-3.0-0.32","4","3","3","2","3","4","5","3","4","5","4","-2","0","-2","0","-1","1","0","0","4","4","5","5","5","1","3","2","4","4","3","4","2","4","1","5","3","4","4","5","5","5","3","4","3","7","1","4","5","1","3","3","2","3","6","6","4","2","6","5","3","6","3","1","2","2","7","7","3","7","1","1","7","1","2","2","1","7","3","7","572562214427295744","R","79","Male","[""坏我"",""好我"",""坏他"",""好他""]","[""弱我"",""强我"",""弱他"",""强他""]","","","","","","","","no","","","","","","","","","SRET","EW_formal","","key","f","16.711186274509778","758.3333534223067","422.22223340729164","自己","无知","Negative","ability","","","","","","","","","","",""
"678","","f","psychophysics","47","232405","0.0-7.0-3.0-0.33","4","3","3","2","3","4","5","3","4","5","4","-2","0","-2","0","-1","1","0","0","4","4","5","5","5","1","3","2","4","4","3","4","2","4","1","5","3","4","4","5","5","5","3","4","3","7","1","4","5","1","3","3","2","3","6","6","4","2","6","5","3","6","3","1","2","2","7","7","3","7","1","1","7","1","2","2","1","7","3","7","572562214427295744","R","79","Male","[""坏我"",""好我"",""坏他"",""好他""]","[""弱我"",""强我"",""弱他"",""强他""]","","","","","","","","no","","","","","","","","","SRET","EW_formal","","key","f","16.712010101010115","758.3333534223067","422.22223340729164","朋友","诡诈","Negative","morality","","","","","","","","","","",""
"767","","j","psychophysics","48","234176","0.0-7.0-3.0-0.34","4","3","3","2","3","4","5","3","4","5","4","-2","0","-2","0","-1","1","0","0","4","4","5","5","5","1","3","2","4","4","3","4","2","4","1","5","3","4","4","5","5","5","3","4","3","7","1","4","5","1","3","3","2","3","6","6","4","2","6","5","3","6","3","1","2","2","7","7","3","7","1","1","7","1","2","2","1","7","3","7","572562214427295744","R","79","Male","[""坏我"",""好我"",""坏他"",""好他""]","[""弱我"",""强我"",""弱他"",""强他""]","","","","","","","","yes","","","","","","","","","SRET","EW_formal","","key","j","16.712209523809587","758.3333534223067","422.22223340729164","朋友","有力","Positive","ability","","","","","","","","","","",""
"707","","f","psychophysics","49","235886","0.0-7.0-3.0-0.35","4","3","3","2","3","4","5","3","4","5","4","-2","0","-2","0","-1","1","0","0","4","4","5","5","5","1","3","2","4","4","3","4","2","4","1","5","3","4","4","5","5","5","3","4","3","7","1","4","5","1","3","3","2","3","6","6","4","2","6","5","3","6","3","1","2","2","7","7","3","7","1","1","7","1","2","2","1","7","3","7","572562214427295744","R","79","Male","[""坏我"",""好我"",""坏他"",""好他""]","[""弱我"",""强我"",""弱他"",""强他""]","","","","","","","","no","","","","","","","","","SRET","EW_formal","","key","f","16.71166666666692","758.3333534223067","422.22223340729164","自己","逞强","Negative","ability","","","","","","","","","","",""
"699","","j","psychophysics","50","237589","0.0-7.0-3.0-0.36","4","3","3","2","3","4","5","3","4","5","4","-2","0","-2","0","-1","1","0","0","4","4","5","5","5","1","3","2","4","4","3","4","2","4","1","5","3","4","4","5","5","5","3","4","3","7","1","4","5","1","3","3","2","3","6","6","4","2","6","5","3","6","3","1","2","2","7","7","3","7","1","1","7","1","2","2","1","7","3","7","572562214427295744","R","79","Male","[""坏我"",""好我"",""坏他"",""好他""]","[""弱我"",""强我"",""弱他"",""强他""]","","","","","","","","yes","","","","","","","","","SRET","EW_formal","","key","j","16.71146000000008","758.3333534223067","422.22223340729164","朋友","自律","Positive","ability","","","","","","","","","","",""
"758","","f","psychophysics","51","239355","0.0-7.0-3.0-0.37","4","3","3","2","3","4","5","3","4","5","4","-2","0","-2","0","-1","1","0","0","4","4","5","5","5","1","3","2","4","4","3","4","2","4","1","5","3","4","4","5","5","5","3","4","3","7","1","4","5","1","3","3","2","3","6","6","4","2","6","5","3","6","3","1","2","2","7","7","3","7","1","1","7","1","2","2","1","7","3","7","572562214427295744","R","79","Male","[""坏我"",""好我"",""坏他"",""好他""]","[""弱我"",""强我"",""弱他"",""强他""]","","","","","","","","no","","","","","","","","","SRET","EW_formal","","key","f","16.71119047619064","758.3333534223067","422.22223340729164","朋友","业余","Negative","ability","","","","","","","","","","",""
"603","","f","psychophysics","52","240960","0.0-7.0-3.0-0.38","4","3","3","2","3","4","5","3","4","5","4","-2","0","-2","0","-1","1","0","0","4","4","5","5","5","1","3","2","4","4","3","4","2","4","1","5","3","4","4","5","5","5","3","4","3","7","1","4","5","1","3","3","2","3","6","6","4","2","6","5","3","6","3","1","2","2","7","7","3","7","1","1","7","1","2","2","1","7","3","7","572562214427295744","R","79","Male","[""坏我"",""好我"",""坏他"",""好他""]","[""弱我"",""强我"",""弱他"",""强他""]","","","","","","","","no","","","","","","","","","SRET","EW_formal","","key","f","16.713265957446716","758.3333534223067","422.22223340729164","朋友","奸诈","Negative","morality","","","","","","","","","","",""
"702","","j","psychophysics","53","242665","0.0-7.0-3.0-0.39","4","3","3","2","3","4","5","3","4","5","4","-2","0","-2","0","-1","1","0","0","4","4","5","5","5","1","3","2","4","4","3","4","2","4","1","5","3","4","4","5","5","5","3","4","3","7","1","4","5","1","3","3","2","3","6","6","4","2","6","5","3","6","3","1","2","2","7","7","3","7","1","1","7","1","2","2","1","7","3","7","572562214427295744","R","79","Male","[""坏我"",""好我"",""坏他"",""好他""]","[""弱我"",""强我"",""弱他"",""强他""]","","","","","","","","yes","","","","","","","","","SRET","EW_formal","","key","j","16.711725490195985","758.3333534223067","422.22223340729164","朋友","无私","Positive","morality","","","","","","","","","","",""
"630","","j","psychophysics","54","244296","0.0-7.0-3.0-0.40","4","3","3","2","3","4","5","3","4","5","4","-2","0","-2","0","-1","1","0","0","4","4","5","5","5","1","3","2","4","4","3","4","2","4","1","5","3","4","4","5","5","5","3","4","3","7","1","4","5","1","3","3","2","3","6","6","4","2","6","5","3","6","3","1","2","2","7","7","3","7","1","1","7","1","2","2","1","7","3","7","572562214427295744","R","79","Male","[""坏我"",""好我"",""坏他"",""好他""]","[""弱我"",""强我"",""弱他"",""强他""]","","","","","","","","yes","","","","","","","","","SRET","EW_formal","","key","j","16.71256701030934","758.3333534223067","422.22223340729164","自己","好心","Positive","morality","","","","","","","","","","",""
"717","","f","psychophysics","55","246015","0.0-7.0-3.0-0.41","4","3","3","2","3","4","5","3","4","5","4","-2","0","-2","0","-1","1","0","0","4","4","5","5","5","1","3","2","4","4","3","4","2","4","1","5","3","4","4","5","5","5","3","4","3","7","1","4","5","1","3","3","2","3","6","6","4","2","6","5","3","6","3","1","2","2","7","7","3","7","1","1","7","1","2","2","1","7","3","7","572562214427295744","R","79","Male","[""坏我"",""好我"",""坏他"",""好他""]","[""弱我"",""强我"",""弱他"",""强他""]","","","","","","","","no","","","","","","","","","SRET","EW_formal","","key","f","16.713637254901936","758.3333534223067","422.22223340729164","朋友","学霸","Positive","ability","","","","","","","","","","",""
"666","","f","psychophysics","56","247685","0.0-7.0-3.0-0.42","4","3","3","2","3","4","5","3","4","5","4","-2","0","-2","0","-1","1","0","0","4","4","5","5","5","1","3","2","4","4","3","4","2","4","1","5","3","4","4","5","5","5","3","4","3","7","1","4","5","1","3","3","2","3","6","6","4","2","6","5","3","6","3","1","2","2","7","7","3","7","1","1","7","1","2","2","1","7","3","7","572562214427295744","R","79","Male","[""坏我"",""好我"",""坏他"",""好他""]","[""弱我"",""强我"",""弱他"",""强他""]","","","","","","","","no","","","","","","","","","SRET","EW_formal","","key","f","16.712202020202035","758.3333534223067","422.22223340729164","自己","愚钝","Negative","ability","","","","","","","","","","",""
"702","","f","psychophysics","57","249390","0.0-7.0-3.0-0.43","4","3","3","2","3","4","5","3","4","5","4","-2","0","-2","0","-1","1","0","0","4","4","5","5","5","1","3","2","4","4","3","4","2","4","1","5","3","4","4","5","5","5","3","4","3","7","1","4","5","1","3","3","2","3","6","6","4","2","6","5","3","6","3","1","2","2","7","7","3","7","1","1","7","1","2","2","1","7","3","7","572562214427295744","R","79","Male","[""坏我"",""好我"",""坏他"",""好他""]","[""弱我"",""强我"",""弱他"",""强他""]","","","","","","","","no","","","","","","","","","SRET","EW_formal","","key","f","16.715148514851588","758.3333534223067","422.22223340729164","自己","歹毒","Negative","morality","","","","","","","","","","",""
"703","","j","psychophysics","58","251097","0.0-7.0-3.0-0.44","4","3","3","2","3","4","5","3","4","5","4","-2","0","-2","0","-1","1","0","0","4","4","5","5","5","1","3","2","4","4","3","4","2","4","1","5","3","4","4","5","5","5","3","4","3","7","1","4","5","1","3","3","2","3","6","6","4","2","6","5","3","6","3","1","2","2","7","7","3","7","1","1","7","1","2","2","1","7","3","7","572562214427295744","R","79","Male","[""坏我"",""好我"",""坏他"",""好他""]","[""弱我"",""强我"",""弱他"",""强他""]","","","","","","","","yes","","","","","","","","","SRET","EW_formal","","key","j","16.71011881188099","758.3333534223067","422.22223340729164","朋友","变通","Positive","ability","","","","","","","","","","",""
"633","","j","psychophysics","59","252733","0.0-7.0-3.0-0.45","4","3","3","2","3","4","5","3","4","5","4","-2","0","-2","0","-1","1","0","0","4","4","5","5","5","1","3","2","4","4","3","4","2","4","1","5","3","4","4","5","5","5","3","4","3","7","1","4","5","1","3","3","2","3","6","6","4","2","6","5","3","6","3","1","2","2","7","7","3","7","1","1","7","1","2","2","1","7","3","7","572562214427295744","R","79","Male","[""坏我"",""好我"",""坏他"",""好他""]","[""弱我"",""强我"",""弱他"",""强他""]","","","","","","","","yes","","","","","","","","","SRET","EW_formal","","key","j","16.710154639175055","758.3333534223067","422.22223340729164","自己","智慧","Positive","ability","","","","","","","","","","",""
"682","","j","psychophysics","60","254418","0.0-7.0-3.0-0.46","4","3","3","2","3","4","5","3","4","5","4","-2","0","-2","0","-1","1","0","0","4","4","5","5","5","1","3","2","4","4","3","4","2","4","1","5","3","4","4","5","5","5","3","4","3","7","1","4","5","1","3","3","2","3","6","6","4","2","6","5","3","6","3","1","2","2","7","7","3","7","1","1","7","1","2","2","1","7","3","7","572562214427295744","R","79","Male","[""坏我"",""好我"",""坏他"",""好他""]","[""弱我"",""强我"",""弱他"",""强他""]","","","","","","","","yes","","","","","","","","","SRET","EW_formal","","key","j","16.714272727272615","758.3333534223067","422.22223340729164","自己","廉正","Positive","morality","","","","","","","","","","",""
"623","","f","psychophysics","61","256048","0.0-7.0-3.0-0.47","4","3","3","2","3","4","5","3","4","5","4","-2","0","-2","0","-1","1","0","0","4","4","5","5","5","1","3","2","4","4","3","4","2","4","1","5","3","4","4","5","5","5","3","4","3","7","1","4","5","1","3","3","2","3","6","6","4","2","6","5","3","6","3","1","2","2","7","7","3","7","1","1","7","1","2","2","1","7","3","7","572562214427295744","R","79","Male","[""坏我"",""好我"",""坏他"",""好他""]","[""弱我"",""强我"",""弱他"",""强他""]","","","","","","","","no","","","","","","","","","SRET","EW_formal","","key","f","16.71149484536067","758.3333534223067","422.22223340729164","自己","奸险","Negative","morality","","","","","","","","","","",""
"607","","j","psychophysics","62","257657","0.0-7.0-3.0-0.48","4","3","3","2","3","4","5","3","4","5","4","-2","0","-2","0","-1","1","0","0","4","4","5","5","5","1","3","2","4","4","3","4","2","4","1","5","3","4","4","5","5","5","3","4","3","7","1","4","5","1","3","3","2","3","6","6","4","2","6","5","3","6","3","1","2","2","7","7","3","7","1","1","7","1","2","2","1","7","3","7","572562214427295744","R","79","Male","[""坏我"",""好我"",""坏他"",""好他""]","[""弱我"",""强我"",""弱他"",""强他""]","","","","","","","","yes","","","","","","","","","SRET","EW_formal","","key","j","16.710294736842133","758.3333534223067","422.22223340729164","自己","上进","Positive","ability","","","","","","","","","","",""
"754","","j","psychophysics","63","259419","0.0-7.0-3.0-0.49","4","3","3","2","3","4","5","3","4","5","4","-2","0","-2","0","-1","1","0","0","4","4","5","5","5","1","3","2","4","4","3","4","2","4","1","5","3","4","4","5","5","5","3","4","3","7","1","4","5","1","3","3","2","3","6","6","4","2","6","5","3","6","3","1","2","2","7","7","3","7","1","1","7","1","2","2","1","7","3","7","572562214427295744","R","79","Male","[""坏我"",""好我"",""坏他"",""好他""]","[""弱我"",""强我"",""弱他"",""强他""]","","","","","","","","yes","","","","","","","","","SRET","EW_formal","","key","j","16.710209523809663","758.3333534223067","422.22223340729164","朋友","廉明","Positive","morality","","","","","","","","","","",""
"650","","j","psychophysics","64","261071","0.0-7.0-3.0-0.50","4","3","3","2","3","4","5","3","4","5","4","-2","0","-2","0","-1","1","0","0","4","4","5","5","5","1","3","2","4","4","3","4","2","4","1","5","3","4","4","5","5","5","3","4","3","7","1","4","5","1","3","3","2","3","6","6","4","2","6","5","3","6","3","1","2","2","7","7","3","7","1","1","7","1","2","2","1","7","3","7","572562214427295744","R","79","Male","[""坏我"",""好我"",""坏他"",""好他""]","[""弱我"",""强我"",""弱他"",""强他""]","","","","","","","","yes","","","","","","","","","SRET","EW_formal","","key","j","16.71380612244877","758.3333534223067","422.22223340729164","自己","独断","Negative","ability","","","","","","","","","","",""
"671","","j","psychophysics","65","262745","0.0-7.0-3.0-0.51","4","3","3","2","3","4","5","3","4","5","4","-2","0","-2","0","-1","1","0","0","4","4","5","5","5","1","3","2","4","4","3","4","2","4","1","5","3","4","4","5","5","5","3","4","3","7","1","4","5","1","3","3","2","3","6","6","4","2","6","5","3","6","3","1","2","2","7","7","3","7","1","1","7","1","2","2","1","7","3","7","572562214427295744","R","79","Male","[""坏我"",""好我"",""坏他"",""好他""]","[""弱我"",""强我"",""弱他"",""强他""]","","","","","","","","yes","","","","","","","","","SRET","EW_formal","","key","j","16.712050505050673","758.3333534223067","422.22223340729164","自己","果决","Positive","ability","","","","","","","","","","",""
"644","","j","psychophysics","66","264392","0.0-7.0-3.0-0.52","4","3","3","2","3","4","5","3","4","5","4","-2","0","-2","0","-1","1","0","0","4","4","5","5","5","1","3","2","4","4","3","4","2","4","1","5","3","4","4","5","5","5","3","4","3","7","1","4","5","1","3","3","2","3","6","6","4","2","6","5","3","6","3","1","2","2","7","7","3","7","1","1","7","1","2","2","1","7","3","7","572562214427295744","R","79","Male","[""坏我"",""好我"",""坏他"",""好他""]","[""弱我"",""强我"",""弱他"",""强他""]","","","","","","","","yes","","","","","","","","","SRET","EW_formal","","key","j","16.71164948453577","758.3333534223067","422.22223340729164","朋友","忠义","Positive","morality","","","","","","","","","","",""
"670","","f","psychophysics","67","266073","0.0-7.0-3.0-0.53","4","3","3","2","3","4","5","3","4","5","4","-2","0","-2","0","-1","1","0","0","4","4","5","5","5","1","3","2","4","4","3","4","2","4","1","5","3","4","4","5","5","5","3","4","3","7","1","4","5","1","3","3","2","3","6","6","4","2","6","5","3","6","3","1","2","2","7","7","3","7","1","1","7","1","2","2","1","7","3","7","572562214427295744","R","79","Male","[""坏我"",""好我"",""坏他"",""好他""]","[""弱我"",""强我"",""弱他"",""强他""]","","","","","","","","no","","","","","","","","","SRET","EW_formal","","key","f","16.712190000000408","758.3333534223067","422.22223340729164","自己","蛇蝎","Negative","morality","","","","","","","","","","",""
"526","","j","psychophysics","68","267602","0.0-7.0-3.0-0.54","4","3","3","2","3","4","5","3","4","5","4","-2","0","-2","0","-1","1","0","0","4","4","5","5","5","1","3","2","4","4","3","4","2","4","1","5","3","4","4","5","5","5","3","4","3","7","1","4","5","1","3","3","2","3","6","6","4","2","6","5","3","6","3","1","2","2","7","7","3","7","1","1","7","1","2","2","1","7","3","7","572562214427295744","R","79","Male","[""坏我"",""好我"",""坏他"",""好他""]","[""弱我"",""强我"",""弱他"",""强他""]","","","","","","","","yes","","","","","","","","","SRET","EW_formal","","key","j","16.898359550561448","758.3333534223067","422.22223340729164","朋友","忠良","Positive","morality","","","","","","","","","","",""
"562","","j","psychophysics","69","269173","0.0-7.0-3.0-0.55","4","3","3","2","3","4","5","3","4","5","4","-2","0","-2","0","-1","1","0","0","4","4","5","5","5","1","3","2","4","4","3","4","2","4","1","5","3","4","4","5","5","5","3","4","3","7","1","4","5","1","3","3","2","3","6","6","4","2","6","5","3","6","3","1","2","2","7","7","3","7","1","1","7","1","2","2","1","7","3","7","572562214427295744","R","79","Male","[""坏我"",""好我"",""坏他"",""好他""]","[""弱我"",""强我"",""弱他"",""强他""]","","","","","","","","yes","","","","","","","","","SRET","EW_formal","","key","j","16.71005376344121","758.3333534223067","422.22223340729164","自己","能干","Positive","ability","","","","","","","","","","",""
"609","","j","psychophysics","70","270791","0.0-7.0-3.0-0.56","4","3","3","2","3","4","5","3","4","5","4","-2","0","-2","0","-1","1","0","0","4","4","5","5","5","1","3","2","4","4","3","4","2","4","1","5","3","4","4","5","5","5","3","4","3","7","1","4","5","1","3","3","2","3","6","6","4","2","6","5","3","6","3","1","2","2","7","7","3","7","1","1","7","1","2","2","1","7","3","7","572562214427295744","R","79","Male","[""坏我"",""好我"",""坏他"",""好他""]","[""弱我"",""强我"",""弱他"",""强他""]","","","","","","","","yes","","","","","","","","","SRET","EW_formal","","key","j","16.712718750000324","758.3333534223067","422.22223340729164","朋友","沉着","Positive","ability","","","","","","","","","","",""
"628","","j","psychophysics","71","272421","0.0-7.0-3.0-0.57","4","3","3","2","3","4","5","3","4","5","4","-2","0","-2","0","-1","1","0","0","4","4","5","5","5","1","3","2","4","4","3","4","2","4","1","5","3","4","4","5","5","5","3","4","3","7","1","4","5","1","3","3","2","3","6","6","4","2","6","5","3","6","3","1","2","2","7","7","3","7","1","1","7","1","2","2","1","7","3","7","572562214427295744","R","79","Male","[""坏我"",""好我"",""坏他"",""好他""]","[""弱我"",""强我"",""弱他"",""强他""]","","","","","","","","yes","","","","","","","","","SRET","EW_formal","","key","j","16.71148453608273","758.3333534223067","422.22223340729164","朋友","周到","Positive","ability","","","","","","","","","","",""
"672","","j","psychophysics","72","274096","0.0-7.0-3.0-0.58","4","3","3","2","3","4","5","3","4","5","4","-2","0","-2","0","-1","1","0","0","4","4","5","5","5","1","3","2","4","4","3","4","2","4","1","5","3","4","4","5","5","5","3","4","3","7","1","4","5","1","3","3","2","3","6","6","4","2","6","5","3","6","3","1","2","2","7","7","3","7","1","1","7","1","2","2","1","7","3","7","572562214427295744","R","79","Male","[""坏我"",""好我"",""坏他"",""好他""]","[""弱我"",""强我"",""弱他"",""强他""]","","","","","","","","yes","","","","","","","","","SRET","EW_formal","","key","j","16.7100909090909","758.3333534223067","422.22223340729164","自己","全才","Positive","ability","","","","","","","","","","",""
"619","","j","psychophysics","73","275716","0.0-7.0-3.0-0.59","4","3","3","2","3","4","5","3","4","5","4","-2","0","-2","0","-1","1","0","0","4","4","5","5","5","1","3","2","4","4","3","4","2","4","1","5","3","4","4","5","5","5","3","4","3","7","1","4","5","1","3","3","2","3","6","6","4","2","6","5","3","6","3","1","2","2","7","7","3","7","1","1","7","1","2","2","1","7","3","7","572562214427295744","R","79","Male","[""坏我"",""好我"",""坏他"",""好他""]","[""弱我"",""强我"",""弱他"",""强他""]","","","","","","","","yes","","","","","","","","","SRET","EW_formal","","key","j","16.71347916666673","758.3333534223067","422.22223340729164","自己","淡泊","Positive","morality","","","","","","","","","","",""
"590","","j","psychophysics","74","277307","0.0-7.0-3.0-0.60","4","3","3","2","3","4","5","3","4","5","4","-2","0","-2","0","-1","1","0","0","4","4","5","5","5","1","3","2","4","4","3","4","2","4","1","5","3","4","4","5","5","5","3","4","3","7","1","4","5","1","3","3","2","3","6","6","4","2","6","5","3","6","3","1","2","2","7","7","3","7","1","1","7","1","2","2","1","7","3","7","572562214427295744","R","79","Male","[""坏我"",""好我"",""坏他"",""好他""]","[""弱我"",""强我"",""弱他"",""强他""]","","","","","","","","yes","","","","","","","","","SRET","EW_formal","","key","j","16.712340425532137","758.3333534223067","422.22223340729164","自己","专注","Positive","ability","","","","","","","","","","",""
"621","","f","psychophysics","75","278930","0.0-7.0-3.0-0.61","4","3","3","2","3","4","5","3","4","5","4","-2","0","-2","0","-1","1","0","0","4","4","5","5","5","1","3","2","4","4","3","4","2","4","1","5","3","4","4","5","5","5","3","4","3","7","1","4","5","1","3","3","2","3","6","6","4","2","6","5","3","6","3","1","2","2","7","7","3","7","1","1","7","1","2","2","1","7","3","7","572562214427295744","R","79","Male","[""坏我"",""好我"",""坏他"",""好他""]","[""弱我"",""强我"",""弱他"",""强他""]","","","","","","","","no","","","","","","","","","SRET","EW_formal","","key","f","16.712843749999593","758.3333534223067","422.22223340729164","朋友","毛糙","Negative","ability","","","","","","","","","","",""
"692","","f","psychophysics","76","280624","0.0-7.0-3.0-0.62","4","3","3","2","3","4","5","3","4","5","4","-2","0","-2","0","-1","1","0","0","4","4","5","5","5","1","3","2","4","4","3","4","2","4","1","5","3","4","4","5","5","5","3","4","3","7","1","4","5","1","3","3","2","3","6","6","4","2","6","5","3","6","3","1","2","2","7","7","3","7","1","1","7","1","2","2","1","7","3","7","572562214427295744","R","79","Male","[""坏我"",""好我"",""坏他"",""好他""]","[""弱我"",""强我"",""弱他"",""强他""]","","","","","","","","no","","","","","","","","","SRET","EW_formal","","key","f","16.712108910891185","758.3333534223067","422.22223340729164","朋友","势利","Negative","morality","","","","","","","","","","",""
"605","","j","psychophysics","77","282234","0.0-7.0-3.0-0.63","4","3","3","2","3","4","5","3","4","5","4","-2","0","-2","0","-1","1","0","0","4","4","5","5","5","1","3","2","4","4","3","4","2","4","1","5","3","4","4","5","5","5","3","4","3","7","1","4","5","1","3","3","2","3","6","6","4","2","6","5","3","6","3","1","2","2","7","7","3","7","1","1","7","1","2","2","1","7","3","7","572562214427295744","R","79","Male","[""坏我"",""好我"",""坏他"",""好他""]","[""弱我"",""强我"",""弱他"",""强他""]","","","","","","","","yes","","","","","","","","","SRET","EW_formal","","key","j","16.709621052631473","758.3333534223067","422.22223340729164","自己","宽容","Positive","morality","","","","","","","","","","",""
"583","","j","psychophysics","78","283819","0.0-7.0-3.0-0.64","4","3","3","2","3","4","5","3","4","5","4","-2","0","-2","0","-1","1","0","0","4","4","5","5","5","1","3","2","4","4","3","4","2","4","1","5","3","4","4","5","5","5","3","4","3","7","1","4","5","1","3","3","2","3","6","6","4","2","6","5","3","6","3","1","2","2","7","7","3","7","1","1","7","1","2","2","1","7","3","7","572562214427295744","R","79","Male","[""坏我"",""好我"",""坏他"",""好他""]","[""弱我"",""强我"",""弱他"",""强他""]","","","","","","","","yes","","","","","","","","","SRET","EW_formal","","key","j","16.711308510637807","758.3333534223067","422.22223340729164","自己","屈才","Negative","ability","","","","","","","","","","",""
"620","","f","psychophysics","79","285442","0.0-7.0-3.0-0.65","4","3","3","2","3","4","5","3","4","5","4","-2","0","-2","0","-1","1","0","0","4","4","5","5","5","1","3","2","4","4","3","4","2","4","1","5","3","4","4","5","5","5","3","4","3","7","1","4","5","1","3","3","2","3","6","6","4","2","6","5","3","6","3","1","2","2","7","7","3","7","1","1","7","1","2","2","1","7","3","7","572562214427295744","R","79","Male","[""坏我"",""好我"",""坏他"",""好他""]","[""弱我"",""强我"",""弱他"",""强他""]","","","","","","","","no","","","","","","","","","SRET","EW_formal","","key","f","16.711562499999975","758.3333534223067","422.22223340729164","朋友","混账","Negative","morality","","","","","","","","","","",""
"599","","j","psychophysics","80","287043","0.0-7.0-3.0-0.66","4","3","3","2","3","4","5","3","4","5","4","-2","0","-2","0","-1","1","0","0","4","4","5","5","5","1","3","2","4","4","3","4","2","4","1","5","3","4","4","5","5","5","3","4","3","7","1","4","5","1","3","3","2","3","6","6","4","2","6","5","3","6","3","1","2","2","7","7","3","7","1","1","7","1","2","2","1","7","3","7","572562214427295744","R","79","Male","[""坏我"",""好我"",""坏他"",""好他""]","[""弱我"",""强我"",""弱他"",""强他""]","","","","","","","","yes","","","","","","","","","SRET","EW_formal","","key","j","16.712621052631203","758.3333534223067","422.22223340729164","朋友","敏捷","Positive","ability","","","","","","","","","","",""
"544","","f","psychophysics","81","288590","0.0-7.0-3.0-0.67","4","3","3","2","3","4","5","3","4","5","4","-2","0","-2","0","-1","1","0","0","4","4","5","5","5","1","3","2","4","4","3","4","2","4","1","5","3","4","4","5","5","5","3","4","3","7","1","4","5","1","3","3","2","3","6","6","4","2","6","5","3","6","3","1","2","2","7","7","3","7","1","1","7","1","2","2","1","7","3","7","572562214427295744","R","79","Male","[""坏我"",""好我"",""坏他"",""好他""]","[""弱我"",""强我"",""弱他"",""强他""]","","","","","","","","no","","","","","","","","","SRET","EW_formal","","key","f","16.712824175823837","758.3333534223067","422.22223340729164","自己","阴毒","Negative","morality","","","","","","","","","","",""
"785","","f","psychophysics","82","290376","0.0-7.0-3.0-0.68","4","3","3","2","3","4","5","3","4","5","4","-2","0","-2","0","-1","1","0","0","4","4","5","5","5","1","3","2","4","4","3","4","2","4","1","5","3","4","4","5","5","5","3","4","3","7","1","4","5","1","3","3","2","3","6","6","4","2","6","5","3","6","3","1","2","2","7","7","3","7","1","1","7","1","2","2","1","7","3","7","572562214427295744","R","79","Male","[""坏我"",""好我"",""坏他"",""好他""]","[""弱我"",""强我"",""弱他"",""强他""]","","","","","","","","no","","","","","","","","","SRET","EW_formal","","key","f","16.71201886792441","758.3333534223067","422.22223340729164","朋友","短视","Negative","ability","","","","","","","","","","",""
"748","","f","psychophysics","83","292126","0.0-7.0-3.0-0.69","4","3","3","2","3","4","5","3","4","5","4","-2","0","-2","0","-1","1","0","0","4","4","5","5","5","1","3","2","4","4","3","4","2","4","1","5","3","4","4","5","5","5","3","4","3","7","1","4","5","1","3","3","2","3","6","6","4","2","6","5","3","6","3","1","2","2","7","7","3","7","1","1","7","1","2","2","1","7","3","7","572562214427295744","R","79","Male","[""坏我"",""好我"",""坏他"",""好他""]","[""弱我"",""强我"",""弱他"",""强他""]","","","","","","","","no","","","","","","","","","SRET","EW_formal","","key","f","16.707394230769403","758.3333534223067","422.22223340729164","自己","粗心","Negative","ability","","","","","","","","","","",""
"820","","j","psychophysics","84","293948","0.0-7.0-3.0-0.70","4","3","3","2","3","4","5","3","4","5","4","-2","0","-2","0","-1","1","0","0","4","4","5","5","5","1","3","2","4","4","3","4","2","4","1","5","3","4","4","5","5","5","3","4","3","7","1","4","5","1","3","3","2","3","6","6","4","2","6","5","3","6","3","1","2","2","7","7","3","7","1","1","7","1","2","2","1","7","3","7","572562214427295744","R","79","Male","[""坏我"",""好我"",""坏他"",""好他""]","[""弱我"",""强我"",""弱他"",""强他""]","","","","","","","","yes","","","","","","","","","SRET","EW_formal","","key","j","16.710222222222473","758.3333534223067","422.22223340729164","朋友","骁勇","Positive","ability","","","","","","","","","","",""
"592","","f","psychophysics","85","295542","0.0-7.0-3.0-0.71","4","3","3","2","3","4","5","3","4","5","4","-2","0","-2","0","-1","1","0","0","4","4","5","5","5","1","3","2","4","4","3","4","2","4","1","5","3","4","4","5","5","5","3","4","3","7","1","4","5","1","3","3","2","3","6","6","4","2","6","5","3","6","3","1","2","2","7","7","3","7","1","1","7","1","2","2","1","7","3","7","572562214427295744","R","79","Male","[""坏我"",""好我"",""坏他"",""好他""]","[""弱我"",""强我"",""弱他"",""强他""]","","","","","","","","no","","","","","","","","","SRET","EW_formal","","key","f","16.712319148936","758.3333534223067","422.22223340729164","朋友","背叛","Negative","morality","","","","","","","","","","",""
"633","","j","psychophysics","86","297177","0.0-7.0-3.0-0.72","4","3","3","2","3","4","5","3","4","5","4","-2","0","-2","0","-1","1","0","0","4","4","5","5","5","1","3","2","4","4","3","4","2","4","1","5","3","4","4","5","5","5","3","4","3","7","1","4","5","1","3","3","2","3","6","6","4","2","6","5","3","6","3","1","2","2","7","7","3","7","1","1","7","1","2","2","1","7","3","7","572562214427295744","R","79","Male","[""坏我"",""好我"",""坏他"",""好他""]","[""弱我"",""强我"",""弱他"",""强他""]","","","","","","","","yes","","","","","","","","","SRET","EW_formal","","key","j","16.710886597938202","758.3333534223067","422.22223340729164","朋友","高洁","Positive","morality","","","","","","","","","","",""
"588","","j","psychophysics","87","298766","0.0-7.0-3.0-0.73","4","3","3","2","3","4","5","3","4","5","4","-2","0","-2","0","-1","1","0","0","4","4","5","5","5","1","3","2","4","4","3","4","2","4","1","5","3","4","4","5","5","5","3","4","3","7","1","4","5","1","3","3","2","3","6","6","4","2","6","5","3","6","3","1","2","2","7","7","3","7","1","1","7","1","2","2","1","7","3","7","572562214427295744","R","79","Male","[""坏我"",""好我"",""坏他"",""好他""]","[""弱我"",""强我"",""弱他"",""强他""]","","","","","","","","yes","","","","","","","","","SRET","EW_formal","","key","j","16.71140425531887","758.3333534223067","422.22223340729164","自己","守法","Positive","morality","","","","","","","","","","",""
"562","","f","psychophysics","88","300330","0.0-7.0-3.0-0.74","4","3","3","2","3","4","5","3","4","5","4","-2","0","-2","0","-1","1","0","0","4","4","5","5","5","1","3","2","4","4","3","4","2","4","1","5","3","4","4","5","5","5","3","4","3","7","1","4","5","1","3","3","2","3","6","6","4","2","6","5","3","6","3","1","2","2","7","7","3","7","1","1","7","1","2","2","1","7","3","7","572562214427295744","R","79","Male","[""坏我"",""好我"",""坏他"",""好他""]","[""弱我"",""强我"",""弱他"",""强他""]","","","","","","","","no","","","","","","","","","SRET","EW_formal","","key","f","16.89254347826025","758.3333534223067","422.22223340729164","自己","黑心","Negative","morality","","","","","","","","","","",""
"575","","f","psychophysics","89","301908","0.0-7.0-3.0-0.75","4","3","3","2","3","4","5","3","4","5","4","-2","0","-2","0","-1","1","0","0","4","4","5","5","5","1","3","2","4","4","3","4","2","4","1","5","3","4","4","5","5","5","3","4","3","7","1","4","5","1","3","3","2","3","6","6","4","2","6","5","3","6","3","1","2","2","7","7","3","7","1","1","7","1","2","2","1","7","3","7","572562214427295744","R","79","Male","[""坏我"",""好我"",""坏他"",""好他""]","[""弱我"",""强我"",""弱他"",""强他""]","","","","","","","","no","","","","","","","","","SRET","EW_formal","","key","f","16.709516129032107","758.3333534223067","422.22223340729164","自己","无耻","Negative","morality","","","","","","","","","","",""
"667","","f","psychophysics","90","303577","0.0-7.0-3.0-0.76","4","3","3","2","3","4","5","3","4","5","4","-2","0","-2","0","-1","1","0","0","4","4","5","5","5","1","3","2","4","4","3","4","2","4","1","5","3","4","4","5","5","5","3","4","3","7","1","4","5","1","3","3","2","3","6","6","4","2","6","5","3","6","3","1","2","2","7","7","3","7","1","1","7","1","2","2","1","7","3","7","572562214427295744","R","79","Male","[""坏我"",""好我"",""坏他"",""好他""]","[""弱我"",""强我"",""弱他"",""强他""]","","","","","","","","no","","","","","","","","","SRET","EW_formal","","key","f","16.71095959595969","758.3333534223067","422.22223340729164","自己","不良","Negative","morality","","","","","","","","","","",""
"719","","j","psychophysics","91","305298","0.0-7.0-3.0-0.77","4","3","3","2","3","4","5","3","4","5","4","-2","0","-2","0","-1","1","0","0","4","4","5","5","5","1","3","2","4","4","3","4","2","4","1","5","3","4","4","5","5","5","3","4","3","7","1","4","5","1","3","3","2","3","6","6","4","2","6","5","3","6","3","1","2","2","7","7","3","7","1","1","7","1","2","2","1","7","3","7","572562214427295744","R","79","Male","[""坏我"",""好我"",""坏他"",""好他""]","[""弱我"",""强我"",""弱他"",""强他""]","","","","","","","","yes","","","","","","","","","SRET","EW_formal","","key","j","16.710794117646955","758.3333534223067","422.22223340729164","自己","义气","Positive","morality","","","","","","","","","","",""
"657","","j","psychophysics","92","306956","0.0-7.0-3.0-0.78","4","3","3","2","3","4","5","3","4","5","4","-2","0","-2","0","-1","1","0","0","4","4","5","5","5","1","3","2","4","4","3","4","2","4","1","5","3","4","4","5","5","5","3","4","3","7","1","4","5","1","3","3","2","3","6","6","4","2","6","5","3","6","3","1","2","2","7","7","3","7","1","1","7","1","2","2","1","7","3","7","572562214427295744","R","79","Male","[""坏我"",""好我"",""坏他"",""好他""]","[""弱我"",""强我"",""弱他"",""强他""]","","","","","","","","yes","","","","","","","","","SRET","EW_formal","","key","j","16.71158163265292","758.3333534223067","422.22223340729164","朋友","稳健","Positive","ability","","","","","","","","","","",""
"678","","f","psychophysics","93","308636","0.0-7.0-3.0-0.79","4","3","3","2","3","4","5","3","4","5","4","-2","0","-2","0","-1","1","0","0","4","4","5","5","5","1","3","2","4","4","3","4","2","4","1","5","3","4","4","5","5","5","3","4","3","7","1","4","5","1","3","3","2","3","6","6","4","2","6","5","3","6","3","1","2","2","7","7","3","7","1","1","7","1","2","2","1","7","3","7","572562214427295744","R","79","Male","[""坏我"",""好我"",""坏他"",""好他""]","[""弱我"",""强我"",""弱他"",""强他""]","","","","","","","","no","","","","","","","","","SRET","EW_formal","","key","f","16.711560000000173","758.3333534223067","422.22223340729164","朋友","拖拉","Negative","ability","","","","","","","","","","",""
"699","","f","psychophysics","94","310342","0.0-7.0-3.0-0.80","4","3","3","2","3","4","5","3","4","5","4","-2","0","-2","0","-1","1","0","0","4","4","5","5","5","1","3","2","4","4","3","4","2","4","1","5","3","4","4","5","5","5","3","4","3","7","1","4","5","1","3","3","2","3","6","6","4","2","6","5","3","6","3","1","2","2","7","7","3","7","1","1","7","1","2","2","1","7","3","7","572562214427295744","R","79","Male","[""坏我"",""好我"",""坏他"",""好他""]","[""弱我"",""强我"",""弱他"",""强他""]","","","","","","","","no","","","","","","","","","SRET","EW_formal","","key","f","16.712792079207617","758.3333534223067","422.22223340729164","朋友","坦荡","Positive","morality","","","","","","","","","","",""
"639","","f","psychophysics","95","311982","0.0-7.0-3.0-0.81","4","3","3","2","3","4","5","3","4","5","4","-2","0","-2","0","-1","1","0","0","4","4","5","5","5","1","3","2","4","4","3","4","2","4","1","5","3","4","4","5","5","5","3","4","3","7","1","4","5","1","3","3","2","3","6","6","4","2","6","5","3","6","3","1","2","2","7","7","3","7","1","1","7","1","2","2","1","7","3","7","572562214427295744","R","79","Male","[""坏我"",""好我"",""坏他"",""好他""]","[""弱我"",""强我"",""弱他"",""强他""]","","","","","","","","no","","","","","","","","","SRET","EW_formal","","key","f","16.710865979381122","758.3333534223067","422.22223340729164","自己","淫乱","Negative","morality","","","","","","","","","","",""
"610","","j","psychophysics","96","313595","0.0-7.0-3.0-0.82","4","3","3","2","3","4","5","3","4","5","4","-2","0","-2","0","-1","1","0","0","4","4","5","5","5","1","3","2","4","4","3","4","2","4","1","5","3","4","4","5","5","5","3","4","3","7","1","4","5","1","3","3","2","3","6","6","4","2","6","5","3","6","3","1","2","2","7","7","3","7","1","1","7","1","2","2","1","7","3","7","572562214427295744","R","79","Male","[""坏我"",""好我"",""坏他"",""好他""]","[""弱我"",""强我"",""弱他"",""强他""]","","","","","","","","yes","","","","","","","","","SRET","EW_formal","","key","j","16.710336842105455","758.3333534223067","422.22223340729164","朋友","孝顺","Positive","morality","","","","","","","","","","",""
"612","","j","psychophysics","97","315210","0.0-7.0-3.0-0.83","4","3","3","2","3","4","5","3","4","5","4","-2","0","-2","0","-1","1","0","0","4","4","5","5","5","1","3","2","4","4","3","4","2","4","1","5","3","4","4","5","5","5","3","4","3","7","1","4","5","1","3","3","2","3","6","6","4","2","6","5","3","6","3","1","2","2","7","7","3","7","1","1","7","1","2","2","1","7","3","7","572562214427295744","R","79","Male","[""坏我"",""好我"",""坏他"",""好他""]","[""弱我"",""强我"",""弱他"",""强他""]","","","","","","","","yes","","","","","","","","","SRET","EW_formal","","key","j","16.709999999999734","758.3333534223067","422.22223340729164","自己","果断","Positive","ability","","","","","","","","","","",""
"627","","j","psychophysics","98","316839","0.0-7.0-3.0-0.84","4","3","3","2","3","4","5","3","4","5","4","-2","0","-2","0","-1","1","0","0","4","4","5","5","5","1","3","2","4","4","3","4","2","4","1","5","3","4","4","5","5","5","3","4","3","7","1","4","5","1","3","3","2","3","6","6","4","2","6","5","3","6","3","1","2","2","7","7","3","7","1","1","7","1","2","2","1","7","3","7","572562214427295744","R","79","Male","[""坏我"",""好我"",""坏他"",""好他""]","[""弱我"",""强我"",""弱他"",""强他""]","","","","","","","","yes","","","","","","","","","SRET","EW_formal","","key","j","16.710422680411998","758.3333534223067","422.22223340729164","朋友","素养","Positive","morality","","","","","","","","","","",""
"666","","f","psychophysics","99","318508","0.0-7.0-3.0-0.85","4","3","3","2","3","4","5","3","4","5","4","-2","0","-2","0","-1","1","0","0","4","4","5","5","5","1","3","2","4","4","3","4","2","4","1","5","3","4","4","5","5","5","3","4","3","7","1","4","5","1","3","3","2","3","6","6","4","2","6","5","3","6","3","1","2","2","7","7","3","7","1","1","7","1","2","2","1","7","3","7","572562214427295744","R","79","Male","[""坏我"",""好我"",""坏他"",""好他""]","[""弱我"",""强我"",""弱他"",""强他""]","","","","","","","","no","","","","","","","","","SRET","EW_formal","","key","f","16.712195876289098","758.3333534223067","422.22223340729164","朋友","低俗","Negative","morality","","","","","","","","","","",""
"643","","j","psychophysics","100","320154","0.0-7.0-3.0-0.86","4","3","3","2","3","4","5","3","4","5","4","-2","0","-2","0","-1","1","0","0","4","4","5","5","5","1","3","2","4","4","3","4","2","4","1","5","3","4","4","5","5","5","3","4","3","7","1","4","5","1","3","3","2","3","6","6","4","2","6","5","3","6","3","1","2","2","7","7","3","7","1","1","7","1","2","2","1","7","3","7","572562214427295744","R","79","Male","[""坏我"",""好我"",""坏他"",""好他""]","[""弱我"",""强我"",""弱他"",""强他""]","","","","","","","","yes","","","","","","","","","SRET","EW_formal","","key","j","16.712131313131792","758.3333534223067","422.22223340729164","自己","主见","Positive","ability","","","","","","","","","","",""
"690","","f","psychophysics","101","321845","0.0-7.0-3.0-0.87","4","3","3","2","3","4","5","3","4","5","4","-2","0","-2","0","-1","1","0","0","4","4","5","5","5","1","3","2","4","4","3","4","2","4","1","5","3","4","4","5","5","5","3","4","3","7","1","4","5","1","3","3","2","3","6","6","4","2","6","5","3","6","3","1","2","2","7","7","3","7","1","1","7","1","2","2","1","7","3","7","572562214427295744","R","79","Male","[""坏我"",""好我"",""坏他"",""好他""]","[""弱我"",""强我"",""弱他"",""强他""]","","","","","","","","no","","","","","","","","","SRET","EW_formal","","key","f","16.7125900000002","758.3333534223067","422.22223340729164","自己","缓慢","Negative","ability","","","","","","","","","","",""
"13005","
    <p><div style='color:white;font-size:35px; line-height:20px;'>计算任务</div></p><br>
    <p><div style='color:red;font-size:25px; line-height:20px;'>接下来，您将看到一些四则运算题，<b>请从键盘选择 0-9 进行反应。</b></div></p>
    <p><div style='color:red;font-size:25px; line-height:20px;'>请尽可能快地进行计算，计算的速度和正确率将影响报酬的发放。</div></p>
    <p><div class='footer' style='color:white;font-size:25px; line-height:20px;'>如果对本实验还有不清楚之处，请立即向实验员咨询。</p><p style='color:white;font-size:25px; line-height:20px;'>如果您明白了规则：</p><p style='color:white;font-size:22px; line-height:20px;'>请按 继续 进入练习</p>
    </div>
    ","0","html-button-response","102","334851","0.0-7.0-4.0","4","3","3","2","3","4","5","3","4","5","4","-2","0","-2","0","-1","1","0","0","4","4","5","5","5","1","3","2","4","4","3","4","2","4","1","5","3","4","4","5","5","5","3","4","3","7","1","4","5","1","3","3","2","3","6","6","4","2","6","5","3","6","3","1","2","2","7","7","3","7","1","1","7","1","2","2","1","7","3","7","572562214427295744","R","79","Male","[""坏我"",""好我"",""坏他"",""好他""]","[""弱我"",""强我"",""弱他"",""强他""]","","","","","","","","","","","","","","","","","SRET_math","math_instructions","Mon Jan 29 2024 14:32:30 GMT+0800 (中国标准时间)","","","","","","","","","","","","","","","","","","","",""
"2563","","3","psychophysics","103","337420","0.0-7.0-5.0-0.0","4","3","3","2","3","4","5","3","4","5","4","-2","0","-2","0","-1","1","0","0","4","4","5","5","5","1","3","2","4","4","3","4","2","4","1","5","3","4","4","5","5","5","3","4","3","7","1","4","5","1","3","3","2","3","6","6","4","2","6","5","3","6","3","1","2","2","7","7","3","7","1","1","7","1","2","2","1","7","3","7","572562214427295744","R","79","Male","[""坏我"",""好我"",""坏他"",""好他""]","[""弱我"",""强我"",""弱他"",""强他""]","","","","","","","","3","","","","","","","","","SRET","SRET_math_calculate","","key","3","16.71228104575196","758.3333534223067","422.22223340729164","","","","","12/4= ?","3","1","","","","","","","",""
"2068","","3","psychophysics","104","339491","0.0-7.0-5.0-0.1","4","3","3","2","3","4","5","3","4","5","4","-2","0","-2","0","-1","1","0","0","4","4","5","5","5","1","3","2","4","4","3","4","2","4","1","5","3","4","4","5","5","5","3","4","3","7","1","4","5","1","3","3","2","3","6","6","4","2","6","5","3","6","3","1","2","2","7","7","3","7","1","1","7","1","2","2","1","7","3","7","572562214427295744","R","79","Male","[""坏我"",""好我"",""坏他"",""好他""]","[""弱我"",""强我"",""弱他"",""强他""]","","","","","","","","3","","","","","","","","","SRET","SRET_math_calculate","","key","3","16.710926829268438","758.3333534223067","422.22223340729164","","","","","11-8= ?","3","1","","","","","","","",""
"2416","","8","psychophysics","105","341910","0.0-7.0-5.0-0.2","4","3","3","2","3","4","5","3","4","5","4","-2","0","-2","0","-1","1","0","0","4","4","5","5","5","1","3","2","4","4","3","4","2","4","1","5","3","4","4","5","5","5","3","4","3","7","1","4","5","1","3","3","2","3","6","6","4","2","6","5","3","6","3","1","2","2","7","7","3","7","1","1","7","1","2","2","1","7","3","7","572562214427295744","R","79","Male","[""坏我"",""好我"",""坏他"",""好他""]","[""弱我"",""强我"",""弱他"",""强他""]","","","","","","","","8","","","","","","","","","SRET","SRET_math_calculate","","key","8","16.712777777777873","758.3333534223067","422.22223340729164","","","","","5+3= ?","8","1","","","","","","","",""
"3048","","9","psychophysics","106","344961","0.0-7.0-5.0-0.3","4","3","3","2","3","4","5","3","4","5","4","-2","0","-2","0","-1","1","0","0","4","4","5","5","5","1","3","2","4","4","3","4","2","4","1","5","3","4","4","5","5","5","3","4","3","7","1","4","5","1","3","3","2","3","6","6","4","2","6","5","3","6","3","1","2","2","7","7","3","7","1","1","7","1","2","2","1","7","3","7","572562214427295744","R","79","Male","[""坏我"",""好我"",""坏他"",""好他""]","[""弱我"",""强我"",""弱他"",""强他""]","","","","","","","","9","","","","","","","","","SRET","SRET_math_calculate","","key","9","16.711464088397598","758.3333534223067","422.22223340729164","","","","","32-23= ?","9","1","","","","","","","",""
"2232","","7","psychophysics","107","347225","0.0-7.0-5.0-0.4","4","3","3","2","3","4","5","3","4","5","4","-2","0","-2","0","-1","1","0","0","4","4","5","5","5","1","3","2","4","4","3","4","2","4","1","5","3","4","4","5","5","5","3","4","3","7","1","4","5","1","3","3","2","3","6","6","4","2","6","5","3","6","3","1","2","2","7","7","3","7","1","1","7","1","2","2","1","7","3","7","572562214427295744","R","79","Male","[""坏我"",""好我"",""坏他"",""好他""]","[""弱我"",""强我"",""弱他"",""强他""]","","","","","","","","7","","","","","","","","","SRET","SRET_math_calculate","","key","7","16.71111851851844","758.3333534223067","422.22223340729164","","","","","7*1=  ?","7","1","","","","","","","",""
"2200","","9","psychophysics","108","349428","0.0-7.0-5.0-0.5","4","3","3","2","3","4","5","3","4","5","4","-2","0","-2","0","-1","1","0","0","4","4","5","5","5","1","3","2","4","4","3","4","2","4","1","5","3","4","4","5","5","5","3","4","3","7","1","4","5","1","3","3","2","3","6","6","4","2","6","5","3","6","3","1","2","2","7","7","3","7","1","1","7","1","2","2","1","7","3","7","572562214427295744","R","79","Male","[""坏我"",""好我"",""坏他"",""好他""]","[""弱我"",""强我"",""弱他"",""强他""]","","","","","","","","9","","","","","","","","","SRET","SRET_math_calculate","","key","9","16.71139694656466","758.3333534223067","422.22223340729164","","","","","2+7= ?","9","1","","","","","","","",""
"2854","","7","psychophysics","109","352286","0.0-7.0-5.0-0.6","4","3","3","2","3","4","5","3","4","5","4","-2","0","-2","0","-1","1","0","0","4","4","5","5","5","1","3","2","4","4","3","4","2","4","1","5","3","4","4","5","5","5","3","4","3","7","1","4","5","1","3","3","2","3","6","6","4","2","6","5","3","6","3","1","2","2","7","7","3","7","1","1","7","1","2","2","1","7","3","7","572562214427295744","R","79","Male","[""坏我"",""好我"",""坏他"",""好他""]","[""弱我"",""强我"",""弱他"",""强他""]","","","","","","","","7","","","","","","","","","SRET","SRET_math_calculate","","key","7","16.71033529411755","758.3333534223067","422.22223340729164","","","","","6+1= ?","7","1","","","","","","","",""
"2128","","8","psychophysics","110","354418","0.0-7.0-5.0-0.7","4","3","3","2","3","4","5","3","4","5","4","-2","0","-2","0","-1","1","0","0","4","4","5","5","5","1","3","2","4","4","3","4","2","4","1","5","3","4","4","5","5","5","3","4","3","7","1","4","5","1","3","3","2","3","6","6","4","2","6","5","3","6","3","1","2","2","7","7","3","7","1","1","7","1","2","2","1","7","3","7","572562214427295744","R","79","Male","[""坏我"",""好我"",""坏他"",""好他""]","[""弱我"",""强我"",""弱他"",""强他""]","","","","","","","","8","","","","","","","","","SRET","SRET_math_calculate","","key","8","16.710769841269617","758.3333534223067","422.22223340729164","","","","","1*8= ?","8","1","","","","","","","",""
"2398","","9","psychophysics","111","356820","0.0-7.0-5.0-0.8","4","3","3","2","3","4","5","3","4","5","4","-2","0","-2","0","-1","1","0","0","4","4","5","5","5","1","3","2","4","4","3","4","2","4","1","5","3","4","4","5","5","5","3","4","3","7","1","4","5","1","3","3","2","3","6","6","4","2","6","5","3","6","3","1","2","2","7","7","3","7","1","1","7","1","2","2","1","7","3","7","572562214427295744","R","79","Male","[""坏我"",""好我"",""坏他"",""好他""]","[""弱我"",""强我"",""弱他"",""强他""]","","","","","","","","9","","","","","","","","","SRET","SRET_math_calculate","","key","9","16.713538461538207","758.3333534223067","422.22223340729164","","","","","18/2= ?","9","1","","","","","","","",""
"2389","","9","psychophysics","112","359212","0.0-7.0-5.0-0.9","4","3","3","2","3","4","5","3","4","5","4","-2","0","-2","0","-1","1","0","0","4","4","5","5","5","1","3","2","4","4","3","4","2","4","1","5","3","4","4","5","5","5","3","4","3","7","1","4","5","1","3","3","2","3","6","6","4","2","6","5","3","6","3","1","2","2","7","7","3","7","1","1","7","1","2","2","1","7","3","7","572562214427295744","R","79","Male","[""坏我"",""好我"",""坏他"",""好他""]","[""弱我"",""强我"",""弱他"",""强他""]","","","","","","","","9","","","","","","","","","SRET","SRET_math_calculate","","key","9","16.712624113475044","758.3333534223067","422.22223340729164","","","","","3*3= ?","9","1","","","","","","","",""
"2195","","9","psychophysics","113","361412","0.0-7.0-5.0-0.10","4","3","3","2","3","4","5","3","4","5","4","-2","0","-2","0","-1","1","0","0","4","4","5","5","5","1","3","2","4","4","3","4","2","4","1","5","3","4","4","5","5","5","3","4","3","7","1","4","5","1","3","3","2","3","6","6","4","2","6","5","3","6","3","1","2","2","7","7","3","7","1","1","7","1","2","2","1","7","3","7","572562214427295744","R","79","Male","[""坏我"",""好我"",""坏他"",""好他""]","[""弱我"",""强我"",""弱他"",""强他""]","","","","","","","","9","","","","","","","","","SRET","SRET_math_calculate","","key","9","16.71150000000004","758.3333534223067","422.22223340729164","","","","","81/9= ?","9","1","","","","","","","",""
"2186","","2","psychophysics","114","363601","0.0-7.0-5.0-0.11","4","3","3","2","3","4","5","3","4","5","4","-2","0","-2","0","-1","1","0","0","4","4","5","5","5","1","3","2","4","4","3","4","2","4","1","5","3","4","4","5","5","5","3","4","3","7","1","4","5","1","3","3","2","3","6","6","4","2","6","5","3","6","3","1","2","2","7","7","3","7","1","1","7","1","2","2","1","7","3","7","572562214427295744","R","79","Male","[""坏我"",""好我"",""坏他"",""好他""]","[""弱我"",""强我"",""弱他"",""强他""]","","","","","","","","2","","","","","","","","","SRET","SRET_math_calculate","","key","2","16.71213076923114","758.3333534223067","422.22223340729164","","","","","8-6= ?","2","1","","","","","","","",""
"2154","","9","psychophysics","115","365759","0.0-7.0-5.0-0.12","4","3","3","2","3","4","5","3","4","5","4","-2","0","-2","0","-1","1","0","0","4","4","5","5","5","1","3","2","4","4","3","4","2","4","1","5","3","4","4","5","5","5","3","4","3","7","1","4","5","1","3","3","2","3","6","6","4","2","6","5","3","6","3","1","2","2","7","7","3","7","1","1","7","1","2","2","1","7","3","7","572562214427295744","R","79","Male","[""坏我"",""好我"",""坏他"",""好他""]","[""弱我"",""强我"",""弱他"",""强他""]","","","","","","","","9","","","","","","","","","SRET","SRET_math_calculate","","key","9","16.71346093750026","758.3333534223067","422.22223340729164","","","","","1+8= ?","9","1","","","","","","","",""
"1926","","9","psychophysics","116","367687","0.0-7.0-5.0-0.13","4","3","3","2","3","4","5","3","4","5","4","-2","0","-2","0","-1","1","0","0","4","4","5","5","5","1","3","2","4","4","3","4","2","4","1","5","3","4","4","5","5","5","3","4","3","7","1","4","5","1","3","3","2","3","6","6","4","2","6","5","3","6","3","1","2","2","7","7","3","7","1","1","7","1","2","2","1","7","3","7","572562214427295744","R","79","Male","[""坏我"",""好我"",""坏他"",""好他""]","[""弱我"",""强我"",""弱他"",""强他""]","","","","","","","","9","","","","","","","","","SRET","SRET_math_calculate","","key","9","16.712482456140336","758.3333534223067","422.22223340729164","","","","","1+8= ?","9","1","","","","","","","",""
"2503","","1","psychophysics","117","370193","0.0-7.0-5.0-0.14","4","3","3","2","3","4","5","3","4","5","4","-2","0","-2","0","-1","1","0","0","4","4","5","5","5","1","3","2","4","4","3","4","2","4","1","5","3","4","4","5","5","5","3","4","3","7","1","4","5","1","3","3","2","3","6","6","4","2","6","5","3","6","3","1","2","2","7","7","3","7","1","1","7","1","2","2","1","7","3","7","572562214427295744","R","79","Male","[""坏我"",""好我"",""坏他"",""好他""]","[""弱我"",""强我"",""弱他"",""强他""]","","","","","","","","1","","","","","","","","","SRET","SRET_math_calculate","","key","1","16.711664429530206","758.3333534223067","422.22223340729164","","","","","4/4= ?","1","1","","","","","","","",""
"2650","","3","psychophysics","118","372846","0.0-7.0-5.0-0.15","4","3","3","2","3","4","5","3","4","5","4","-2","0","-2","0","-1","1","0","0","4","4","5","5","5","1","3","2","4","4","3","4","2","4","1","5","3","4","4","5","5","5","3","4","3","7","1","4","5","1","3","3","2","3","6","6","4","2","6","5","3","6","3","1","2","2","7","7","3","7","1","1","7","1","2","2","1","7","3","7","572562214427295744","R","79","Male","[""坏我"",""好我"",""坏他"",""好他""]","[""弱我"",""强我"",""弱他"",""强他""]","","","","","","","","3","","","","","","","","","SRET","SRET_math_calculate","","key","3","16.711414012738732","758.3333534223067","422.22223340729164","","","","","6/2= ?","3","1","","","","","","","",""
"2598","","0","psychophysics","119","375449","0.0-7.0-5.0-0.16","4","3","3","2","3","4","5","3","4","5","4","-2","0","-2","0","-1","1","0","0","4","4","5","5","5","1","3","2","4","4","3","4","2","4","1","5","3","4","4","5","5","5","3","4","3","7","1","4","5","1","3","3","2","3","6","6","4","2","6","5","3","6","3","1","2","2","7","7","3","7","1","1","7","1","2","2","1","7","3","7","572562214427295744","R","79","Male","[""坏我"",""好我"",""坏他"",""好他""]","[""弱我"",""强我"",""弱他"",""强他""]","","","","","","","","0","","","","","","","","","SRET","SRET_math_calculate","","key","0","16.710512820512985","758.3333534223067","422.22223340729164","","","","","22-22= ?","0","1","","","","","","","",""
"2600","","0","psychophysics","120","378053","0.0-7.0-5.0-0.17","4","3","3","2","3","4","5","3","4","5","4","-2","0","-2","0","-1","1","0","0","4","4","5","5","5","1","3","2","4","4","3","4","2","4","1","5","3","4","4","5","5","5","3","4","3","7","1","4","5","1","3","3","2","3","6","6","4","2","6","5","3","6","3","1","2","2","7","7","3","7","1","1","7","1","2","2","1","7","3","7","572562214427295744","R","79","Male","[""坏我"",""好我"",""坏他"",""好他""]","[""弱我"",""强我"",""弱他"",""强他""]","","","","","","","","0","","","","","","","","","SRET","SRET_math_calculate","","key","0","16.820941176470917","758.3333534223067","422.22223340729164","","","","","9-9= ?","0","1","","","","","","","",""
"2084","","8","psychophysics","121","380161","0.0-7.0-5.0-0.18","4","3","3","2","3","4","5","3","4","5","4","-2","0","-2","0","-1","1","0","0","4","4","5","5","5","1","3","2","4","4","3","4","2","4","1","5","3","4","4","5","5","5","3","4","3","7","1","4","5","1","3","3","2","3","6","6","4","2","6","5","3","6","3","1","2","2","7","7","3","7","1","1","7","1","2","2","1","7","3","7","572562214427295744","R","79","Male","[""坏我"",""好我"",""坏他"",""好他""]","[""弱我"",""强我"",""弱他"",""强他""]","","","","","","","","8","","","","","","","","","SRET","SRET_math_calculate","","key","8","16.71345238095253","758.3333534223067","422.22223340729164","","","","","3+5= ?","8","1","","","","","","","",""
"2126","","7","psychophysics","122","382292","0.0-7.0-5.0-0.19","4","3","3","2","3","4","5","3","4","5","4","-2","0","-2","0","-1","1","0","0","4","4","5","5","5","1","3","2","4","4","3","4","2","4","1","5","3","4","4","5","5","5","3","4","3","7","1","4","5","1","3","3","2","3","6","6","4","2","6","5","3","6","3","1","2","2","7","7","3","7","1","1","7","1","2","2","1","7","3","7","572562214427295744","R","79","Male","[""坏我"",""好我"",""坏他"",""好他""]","[""弱我"",""强我"",""弱他"",""强他""]","","","","","","","","7","","","","","","","","","SRET","SRET_math_calculate","","key","7","16.71154761904738","758.3333534223067","422.22223340729164","","","","","9-2= ?","7","1","","","","","","","",""
"2321","","5","psychophysics","123","384616","0.0-7.0-5.0-0.20","4","3","3","2","3","4","5","3","4","5","4","-2","0","-2","0","-1","1","0","0","4","4","5","5","5","1","3","2","4","4","3","4","2","4","1","5","3","4","4","5","5","5","3","4","3","7","1","4","5","1","3","3","2","3","6","6","4","2","6","5","3","6","3","1","2","2","7","7","3","7","1","1","7","1","2","2","1","7","3","7","572562214427295744","R","79","Male","[""坏我"",""好我"",""坏他"",""好他""]","[""弱我"",""强我"",""弱他"",""强他""]","","","","","","","","5","","","","","","","","","SRET","SRET_math_calculate","","key","5","16.71153623188392","758.3333534223067","422.22223340729164","","","","","17-12= ? ","5","1","","","","","","","",""
"2060","","4","psychophysics","124","386679","0.0-7.0-5.0-0.21","4","3","3","2","3","4","5","3","4","5","4","-2","0","-2","0","-1","1","0","0","4","4","5","5","5","1","3","2","4","4","3","4","2","4","1","5","3","4","4","5","5","5","3","4","3","7","1","4","5","1","3","3","2","3","6","6","4","2","6","5","3","6","3","1","2","2","7","7","3","7","1","1","7","1","2","2","1","7","3","7","572562214427295744","R","79","Male","[""坏我"",""好我"",""坏他"",""好他""]","[""弱我"",""强我"",""弱他"",""强他""]","","","","","","","","4","","","","","","","","","SRET","SRET_math_calculate","","key","4","16.712764227642616","758.3333534223067","422.22223340729164","","","","","2+2= ?","4","1","","","","","","","",""
"3391","","7","psychophysics","125","390074","0.0-7.0-5.0-0.22","4","3","3","2","3","4","5","3","4","5","4","-2","0","-2","0","-1","1","0","0","4","4","5","5","5","1","3","2","4","4","3","4","2","4","1","5","3","4","4","5","5","5","3","4","3","7","1","4","5","1","3","3","2","3","6","6","4","2","6","5","3","6","3","1","2","2","7","7","3","7","1","1","7","1","2","2","1","7","3","7","572562214427295744","R","79","Male","[""坏我"",""好我"",""坏他"",""好他""]","[""弱我"",""强我"",""弱他"",""强他""]","","","","","","","","7","","","","","","","","","SRET","SRET_math_calculate","","key","7","16.71252970297021","758.3333534223067","422.22223340729164","","","","","13-6= ?","7","1","","","","","","","",""
"2025","","6","psychophysics","126","392102","0.0-7.0-5.0-0.23","4","3","3","2","3","4","5","3","4","5","4","-2","0","-2","0","-1","1","0","0","4","4","5","5","5","1","3","2","4","4","3","4","2","4","1","5","3","4","4","5","5","5","3","4","3","7","1","4","5","1","3","3","2","3","6","6","4","2","6","5","3","6","3","1","2","2","7","7","3","7","1","1","7","1","2","2","1","7","3","7","572562214427295744","R","79","Male","[""坏我"",""好我"",""坏他"",""好他""]","[""弱我"",""强我"",""弱他"",""强他""]","","","","","","","","6","","","","","","","","","SRET","SRET_math_calculate","","key","6","16.713441666666768","758.3333534223067","422.22223340729164","","","","","2+4= ?","6","1","","","","","","","",""
"1838","","2","psychophysics","127","393943","0.0-7.0-5.0-0.24","4","3","3","2","3","4","5","3","4","5","4","-2","0","-2","0","-1","1","0","0","4","4","5","5","5","1","3","2","4","4","3","4","2","4","1","5","3","4","4","5","5","5","3","4","3","7","1","4","5","1","3","3","2","3","6","6","4","2","6","5","3","6","3","1","2","2","7","7","3","7","1","1","7","1","2","2","1","7","3","7","572562214427295744","R","79","Male","[""坏我"",""好我"",""坏他"",""好他""]","[""弱我"",""强我"",""弱他"",""强他""]","","","","","","","","2","","","","","","","","","SRET","SRET_math_calculate","","key","2","16.711018348623757","758.3333534223067","422.22223340729164","","","","","8/4= ?","2","1","","","","","","","",""
"2873","","7","psychophysics","128","396825","0.0-7.0-5.0-0.25","4","3","3","2","3","4","5","3","4","5","4","-2","0","-2","0","-1","1","0","0","4","4","5","5","5","1","3","2","4","4","3","4","2","4","1","5","3","4","4","5","5","5","3","4","3","7","1","4","5","1","3","3","2","3","6","6","4","2","6","5","3","6","3","1","2","2","7","7","3","7","1","1","7","1","2","2","1","7","3","7","572562214427295744","R","79","Male","[""坏我"",""好我"",""坏他"",""好他""]","[""弱我"",""强我"",""弱他"",""强他""]","","","","","","","","7","","","","","","","","","SRET","SRET_math_calculate","","key","7","16.711622093023454","758.3333534223067","422.22223340729164","","","","","11-4= ?","7","1","","","","","","","",""
"3409","","4","psychophysics","129","400237","0.0-7.0-5.0-0.26","4","3","3","2","3","4","5","3","4","5","4","-2","0","-2","0","-1","1","0","0","4","4","5","5","5","1","3","2","4","4","3","4","2","4","1","5","3","4","4","5","5","5","3","4","3","7","1","4","5","1","3","3","2","3","6","6","4","2","6","5","3","6","3","1","2","2","7","7","3","7","1","1","7","1","2","2","1","7","3","7","572562214427295744","R","79","Male","[""坏我"",""好我"",""坏他"",""好他""]","[""弱我"",""强我"",""弱他"",""强他""]","","","","","","","","4","","","","","","","","","SRET","SRET_math_calculate","","key","4","16.711467980295637","758.3333534223067","422.22223340729164","","","","","13-9= ?","4","1","","","","","","","",""
"2315","","0","psychophysics","130","402558","0.0-7.0-5.0-0.27","4","3","3","2","3","4","5","3","4","5","4","-2","0","-2","0","-1","1","0","0","4","4","5","5","5","1","3","2","4","4","3","4","2","4","1","5","3","4","4","5","5","5","3","4","3","7","1","4","5","1","3","3","2","3","6","6","4","2","6","5","3","6","3","1","2","2","7","7","3","7","1","1","7","1","2","2","1","7","3","7","572562214427295744","R","79","Male","[""坏我"",""好我"",""坏他"",""好他""]","[""弱我"",""强我"",""弱他"",""强他""]","","","","","","","","0","","","","","","","","","SRET","SRET_math_calculate","","key","0","16.71014492753623","758.3333534223067","422.22223340729164","","","","","6*0= ?","0","1","","","","","","","",""
"1971","","1","psychophysics","131","404532","0.0-7.0-5.0-0.28","4","3","3","2","3","4","5","3","4","5","4","-2","0","-2","0","-1","1","0","0","4","4","5","5","5","1","3","2","4","4","3","4","2","4","1","5","3","4","4","5","5","5","3","4","3","7","1","4","5","1","3","3","2","3","6","6","4","2","6","5","3","6","3","1","2","2","7","7","3","7","1","1","7","1","2","2","1","7","3","7","572562214427295744","R","79","Male","[""坏我"",""好我"",""坏他"",""好他""]","[""弱我"",""强我"",""弱他"",""强他""]","","","","","","","","1","","","","","","","","","SRET","SRET_math_calculate","","key","1","16.710008547008517","758.3333534223067","422.22223340729164","","","","","12/12= ?","1","1","","","","","","","",""
"1759","","2","psychophysics","132","406294","0.0-7.0-5.0-0.29","4","3","3","2","3","4","5","3","4","5","4","-2","0","-2","0","-1","1","0","0","4","4","5","5","5","1","3","2","4","4","3","4","2","4","1","5","3","4","4","5","5","5","3","4","3","7","1","4","5","1","3","3","2","3","6","6","4","2","6","5","3","6","3","1","2","2","7","7","3","7","1","1","7","1","2","2","1","7","3","7","572562214427295744","R","79","Male","[""坏我"",""好我"",""坏他"",""好他""]","[""弱我"",""强我"",""弱他"",""强他""]","","","","","","","","2","","","","","","","","","SRET","SRET_math_calculate","","key","2","16.710692307692415","758.3333534223067","422.22223340729164","","","","","5-3= ?","2","1","","","","","","","",""
"2431","","5","psychophysics","133","408733","0.0-7.0-5.0-0.30","4","3","3","2","3","4","5","3","4","5","4","-2","0","-2","0","-1","1","0","0","4","4","5","5","5","1","3","2","4","4","3","4","2","4","1","5","3","4","4","5","5","5","3","4","3","7","1","4","5","1","3","3","2","3","6","6","4","2","6","5","3","6","3","1","2","2","7","7","3","7","1","1","7","1","2","2","1","7","3","7","572562214427295744","R","79","Male","[""坏我"",""好我"",""坏他"",""好他""]","[""弱我"",""强我"",""弱他"",""强他""]","","","","","","","","5","","","","","","","","","SRET","SRET_math_calculate","","key","5","16.712082758620543","758.3333534223067","422.22223340729164","","","","","8-3= ? ","5","1","","","","","","","",""
"1765","","3","psychophysics","134","410502","0.0-7.0-5.0-0.31","4","3","3","2","3","4","5","3","4","5","4","-2","0","-2","0","-1","1","0","0","4","4","5","5","5","1","3","2","4","4","3","4","2","4","1","5","3","4","4","5","5","5","3","4","3","7","1","4","5","1","3","3","2","3","6","6","4","2","6","5","3","6","3","1","2","2","7","7","3","7","1","1","7","1","2","2","1","7","3","7","572562214427295744","R","79","Male","[""坏我"",""好我"",""坏他"",""好他""]","[""弱我"",""强我"",""弱他"",""强他""]","","","","","","","","3","","","","","","","","","SRET","SRET_math_calculate","","key","3","16.710971428571447","758.3333534223067","422.22223340729164","","","","","3*1= ?","3","1","","","","","","","",""
"2048","","9","psychophysics","135","412553","0.0-7.0-5.0-0.32","4","3","3","2","3","4","5","3","4","5","4","-2","0","-2","0","-1","1","0","0","4","4","5","5","5","1","3","2","4","4","3","4","2","4","1","5","3","4","4","5","5","5","3","4","3","7","1","4","5","1","3","3","2","3","6","6","4","2","6","5","3","6","3","1","2","2","7","7","3","7","1","1","7","1","2","2","1","7","3","7","572562214427295744","R","79","Male","[""坏我"",""好我"",""坏他"",""好他""]","[""弱我"",""强我"",""弱他"",""强他""]","","","","","","","","9","","","","","","","","","SRET","SRET_math_calculate","","key","9","16.71114754098368","758.3333534223067","422.22223340729164","","","","","1*9= ?","9","1","","","","","","","",""
"2407","","8","psychophysics","136","414962","0.0-7.0-5.0-0.33","4","3","3","2","3","4","5","3","4","5","4","-2","0","-2","0","-1","1","0","0","4","4","5","5","5","1","3","2","4","4","3","4","2","4","1","5","3","4","4","5","5","5","3","4","3","7","1","4","5","1","3","3","2","3","6","6","4","2","6","5","3","6","3","1","2","2","7","7","3","7","1","1","7","1","2","2","1","7","3","7","572562214427295744","R","79","Male","[""坏我"",""好我"",""坏他"",""好他""]","[""弱我"",""强我"",""弱他"",""强他""]","","","","","","","","8","","","","","","","","","SRET","SRET_math_calculate","","key","8","16.71274825174832","758.3333534223067","422.22223340729164","","","","","2*4= ?","8","1","","","","","","","",""
