"rt","stimulus","response","trial_type","trial_index","time_elapsed","internal_node_id","swb_1","swb_2","swb_3","swb_4","swb_5","LOT_1","LOT_2","LOT_3","LOT_4","LOT_5","LOT_6","IPC_1","IPC_2","IPC_3","IPC_4","IPC_5","IPC_6","IPC_7","IPC_8","MorIden_1","MorIden_2","MorIden_3","MorIden_4","MorIden_5","MorIden_6","MorIden_7","MorIden_8","MorIden_9","MorIden_10","moralSeImag_1","moralSeImag_2","moralSeImag_3","moralSeImag_4","moralSeImag_5","moralSeImag_6","moralSeImag_7","moralSeImag_8","moralSeImag_9","sde_1","sde_2","sde_3","sde_4","sde_5","sde_6","sde_7","sde_8","sde_9","sde_10","trap2","sde_11","sde_12","sde_13","sde_14","sde_15","sde_16","sde_17","sde_18","sde_19","sde_20","IM_1","IM_2","IM_3","IM_4","IM_5","IM_6","IM_7","IM_8","IM_9","IM_10","IM_11","IM_12","IM_13","IM_14","IM_15","IM_16","IM_17","IM_18","IM_19","IM_20","subj_idx","friend_name","ParticipantID","Sex","Word","Word2","value","success","timeout","failed_images","failed_audio","failed_video","user_agent","responses","item_order","radio_event_ids","radio_event_times","key_event_times","mouse_event_times","straightlining","zigzagging","honeypot","task_id","screen_id","time_stamp","response_type","key_press","avg_frame_time","center_x","center_y","person","word","valence","domain","math","correct_response","correct","status","view_history","identity","duration","Image","condition","question_order","trap2_item"
"29989","
   <p><div style='color:white; font-size: 25px'>您好，欢迎参加本次实验。</div></p>
   <p><div style='color:white; font-size: 25px'>为充分保障您的权利，请确保您已经知晓并同意《参与实验同意书》以及《数据公开知情同意书》。</div></p>
   <p><div style='color:white; font-size: 25px'>如果您未见过上述内容，请咨询实验员。</div></p>
   <p style='color:white; font-size: 25px'>如果您选择继续实验，则表示您已经清楚两份知情同意书的内容并同意。</p>
   <p><div style = ""color: pink;font-size:30px;"">请确保您记得day0的实验编号，您将在本次实验输入该编号，若您忘记，请咨询实验员后作答。</div></p>
   <p><div style = ""color:lightblue;font-size:25px;"">请您尽可能认真地作答，我们将依据您在各问卷和按键任务中的作答质量发放报酬。</div></p>
   <p> <div style = ""color: green""><按空格键至下页></div> </p>
   "," ","html-keyboard-response","0","29992","0.0-0.0","7","7","7","7","7","5","5","5","5","5","5","2","1","2","2","2","2","2","2","5","5","5","5","5","5","5","5","5","5","8","8","7","8","7","8","8","9","8","7","7","7","7","7","7","7","1","7","7","1","7","6","7","7","7","7","7","7","6","7","7","7","7","7","7","7","7","7","7","7","7","7","7","7","7","7","7","7","6","7","634716408718032896","刘","591","Male","[""好他"",""坏我"",""坏他"",""好我""]","[""强他"",""弱我"",""弱他"",""强我""]","","","","","","","","","","","","","","","","","","","","","","","","","","","","","","","","","","","","","","",""
"","","","call-function","1","29993","0.0-1.0-0.0","7","7","7","7","7","5","5","5","5","5","5","2","1","2","2","2","2","2","2","5","5","5","5","5","5","5","5","5","5","8","8","7","8","7","8","8","9","8","7","7","7","7","7","7","7","1","7","7","1","7","6","7","7","7","7","7","7","6","7","7","7","7","7","7","7","7","7","7","7","7","7","7","7","7","7","7","7","6","7","634716408718032896","刘","591","Male","[""好他"",""坏我"",""坏他"",""好我""]","[""强他"",""弱我"",""弱他"",""强我""]","","","","","","","","","","","","","","","","","","","","","","","","","","","","","","","","","","","","","","",""
"13261","","[{""name"":""Sex"",""value"":""0""},{""name"":""friend_name"",""value"":""刘""},{""name"":""ParticipantID"",""value"":""591""}]","survey-html-form","2","43254","0.0-1.0-1.0","7","7","7","7","7","5","5","5","5","5","5","2","1","2","2","2","2","2","2","5","5","5","5","5","5","5","5","5","5","8","8","7","8","7","8","8","9","8","7","7","7","7","7","7","7","1","7","7","1","7","6","7","7","7","7","7","7","6","7","7","7","7","7","7","7","7","7","7","7","7","7","7","7","7","7","7","7","6","7","634716408718032896","刘","591","Male","[""好他"",""坏我"",""坏他"",""好我""]","[""强他"",""弱我"",""弱他"",""强我""]","","","","","","","","","","","","","","","","","","","","","","","","","","","","","","","","","","","","","","",""
"","","","preload","3","43681","0.0-2.0","7","7","7","7","7","5","5","5","5","5","5","2","1","2","2","2","2","2","2","5","5","5","5","5","5","5","5","5","5","8","8","7","8","7","8","8","9","8","7","7","7","7","7","7","7","1","7","7","1","7","6","7","7","7","7","7","7","6","7","7","7","7","7","7","7","7","7","7","7","7","7","7","7","7","7","7","7","6","7","634716408718032896","刘","591","Male","[""好他"",""坏我"",""坏他"",""好我""]","[""强他"",""弱我"",""弱他"",""强我""]","","true","false","[]","[]","[]","","","","","","","","","","","","","","","","","","","","","","","","","","","","","","","","",""
"","","","fullscreen","4","44594","0.0-3.0","7","7","7","7","7","5","5","5","5","5","5","2","1","2","2","2","2","2","2","5","5","5","5","5","5","5","5","5","5","8","8","7","8","7","8","8","9","8","7","7","7","7","7","7","7","1","7","7","1","7","6","7","7","7","7","7","7","6","7","7","7","7","7","7","7","7","7","7","7","7","7","7","7","7","7","7","7","6","7","634716408718032896","刘","591","Male","[""好他"",""坏我"",""坏他"",""好我""]","[""强他"",""弱我"",""弱他"",""强我""]","","true","","","","","{}","","","","","","","","","","","","","","","","","","","","","","","","","","","","","","","",""
"5307.199999809265","","{""Q01"":""7"",""Q02"":""7"",""Q03"":""7"",""Q04"":""7"",""Q05"":""7""}","survey-template","5","49903","0.0-4.0","7","7","7","7","7","5","5","5","5","5","5","2","1","2","2","2","2","2","2","5","5","5","5","5","5","5","5","5","5","8","8","7","8","7","8","8","9","8","7","7","7","7","7","7","7","1","7","7","1","7","6","7","7","7","7","7","7","6","7","7","7","7","7","7","7","7","7","7","7","7","7","7","7","7","7","7","7","6","7","634716408718032896","刘","591","Male","[""好他"",""坏我"",""坏他"",""好我""]","[""强他"",""弱我"",""弱他"",""强我""]","","","","","","","","{""Q01"":""7"",""Q02"":""7"",""Q03"":""7"",""Q04"":""7"",""Q05"":""7""}","[0,1,2,3,4]","[""Q01"",""Q02"",""Q03"",""Q04"",""Q05""]","[1834.5999999046326,2370.5999999046326,3002.199999809265,3482.5,4051.5]","[]","[1834.5999999046326,2370.5999999046326,2794.7999999523163,3002.199999809265,3482.5,4051.5,5306.5]","1","0","0","","","","","","","","","","","","","","","","","","","","","","",""
"11725.600000143051","","{""Q01"":""5"",""Q02"":""5"",""Q03"":""5"",""Q04"":""5"",""Q05"":""5"",""Q06"":""5""}","survey-template","6","61631","0.0-5.0","7","7","7","7","7","5","5","5","5","5","5","2","1","2","2","2","2","2","2","5","5","5","5","5","5","5","5","5","5","8","8","7","8","7","8","8","9","8","7","7","7","7","7","7","7","1","7","7","1","7","6","7","7","7","7","7","7","6","7","7","7","7","7","7","7","7","7","7","7","7","7","7","7","7","7","7","7","6","7","634716408718032896","刘","591","Male","[""好他"",""坏我"",""坏他"",""好我""]","[""强他"",""弱我"",""弱他"",""强我""]","","","","","","","","{""Q01"":""5"",""Q02"":""5"",""Q03"":""5"",""Q04"":""5"",""Q05"":""5"",""Q06"":""5""}","[0,1,2,3,4,5]","[""Q01"",""Q03"",""Q04"",""Q05"",""Q05"",""Q06"",""Q02""]","[932.6000001430511,1516.2999999523163,2364.7999999523163,2756.600000143051,2981.7999999523163,4764.900000095367,5844.700000047684]","[]","[932.6000001430511,1516.2999999523163,2364.7999999523163,2756.600000143051,2981.7999999523163,3860.5,4764.900000095367,5844.700000047684,11724.799999952316]","0.5","0.8","0","","","","","","","","","","","","","","","","","","","","","","",""
"10204.5","","{""Q01"":""2"",""Q02"":""1"",""Q03"":""2"",""Q04"":""2"",""Q05"":""2"",""Q06"":""2"",""Q07"":""2"",""Q08"":""2""}","survey-template","7","71839","0.0-6.0","7","7","7","7","7","5","5","5","5","5","5","2","1","2","2","2","2","2","2","5","5","5","5","5","5","5","5","5","5","8","8","7","8","7","8","8","9","8","7","7","7","7","7","7","7","1","7","7","1","7","6","7","7","7","7","7","7","6","7","7","7","7","7","7","7","7","7","7","7","7","7","7","7","7","7","7","7","6","7","634716408718032896","刘","591","Male","[""好他"",""坏我"",""坏他"",""好我""]","[""强他"",""弱我"",""弱他"",""强我""]","","","","","","","","{""Q01"":""2"",""Q02"":""1"",""Q03"":""2"",""Q04"":""2"",""Q05"":""2"",""Q06"":""2"",""Q07"":""2"",""Q08"":""2""}","[0,1,2,3,4,5,6,7]","[""Q01"",""Q02"",""Q03"",""Q04"",""Q05"",""Q06"",""Q07"",""Q08""]","[1139.5,4331.5,5284,5644,5947.799999952316,6611.200000047684,6931.899999856949,7435.599999904633]","[]","[1139.5,4331.5,4852,5284,5644,5947.799999952316,6411.700000047684,6611.200000047684,6931.899999856949,7435.599999904633,10203.599999904633]","0.875","0.2857142857142857","0","","","","","","","","","","","","","","","","","","","","","","",""
"50437","
    <p><div style='color:white;font-size:35px; line-height:20px;'>词汇评估任务</div></p><br>
    <p><div style='color:white;font-size:25px; line-height:20px;'>请再次回忆该亲密的朋友，你们至少2年前就认识了，并且最近2年经常见面。</div></p>
    <p><div style='color:white;font-size:25px; line-height:20px;'>在本实验中，您将会看到一些形容词。</div></p>
    <p><div style='color:yellow;font-size:25px; line-height:20px;'>您的任务是判断这些形容词是否符合对您自己或您的朋友的描述。</div></p><p style='font-size:35px'>符合按<span style=""color:lightgreen""> j 键</span>，不符合按<span style=""color:red""> f 键</span></p>","0","html-button-response","8","122278","0.0-7.0-0.0","7","7","7","7","7","5","5","5","5","5","5","2","1","2","2","2","2","2","2","5","5","5","5","5","5","5","5","5","5","8","8","7","8","7","8","8","9","8","7","7","7","7","7","7","7","1","7","7","1","7","6","7","7","7","7","7","7","6","7","7","7","7","7","7","7","7","7","7","7","7","7","7","7","7","7","7","7","6","7","634716408718032896","刘","591","Male","[""好他"",""坏我"",""坏他"",""好我""]","[""强他"",""弱我"",""弱他"",""强我""]","","","","","","","","","","","","","","","","","SRET_EW","EW_instructions","Tue Jan 30 2024 13:23:38 GMT+0800 (中国标准时间)","","","","","","","","","","","","","","","","","","","",""
"820","","j","psychophysics","9","124102","0.0-7.0-1.0-0.0","7","7","7","7","7","5","5","5","5","5","5","2","1","2","2","2","2","2","2","5","5","5","5","5","5","5","5","5","5","8","8","7","8","7","8","8","9","8","7","7","7","7","7","7","7","1","7","7","1","7","6","7","7","7","7","7","7","6","7","7","7","7","7","7","7","7","7","7","7","7","7","7","7","7","7","7","7","6","7","634716408718032896","刘","591","Male","[""好他"",""坏我"",""坏他"",""好我""]","[""强他"",""弱我"",""弱他"",""强我""]","","","","","","","","yes","","","","","","","","","SRET_EW","EW_practice","","key","j","16.646788990825687","768","428","朋友","忠实","Positive","morality","","","","","","","","","","",""
"765","","f","psychophysics","10","125871","0.0-7.0-1.0-0.1","7","7","7","7","7","5","5","5","5","5","5","2","1","2","2","2","2","2","2","5","5","5","5","5","5","5","5","5","5","8","8","7","8","7","8","8","9","8","7","7","7","7","7","7","7","1","7","7","1","7","6","7","7","7","7","7","7","6","7","7","7","7","7","7","7","7","7","7","7","7","7","7","7","7","7","7","7","6","7","634716408718032896","刘","591","Male","[""好他"",""坏我"",""坏他"",""好我""]","[""强他"",""弱我"",""弱他"",""强我""]","","","","","","","","no","","","","","","","","","SRET_EW","EW_practice","","key","f","16.652380952380952","768","428","自己","刻板","Negative","ability","","","","","","","","","","",""
"620","","j","psychophysics","11","127492","0.0-7.0-1.0-0.2","7","7","7","7","7","5","5","5","5","5","5","2","1","2","2","2","2","2","2","5","5","5","5","5","5","5","5","5","5","8","8","7","8","7","8","8","9","8","7","7","7","7","7","7","7","1","7","7","1","7","6","7","7","7","7","7","7","6","7","7","7","7","7","7","7","7","7","7","7","7","7","7","7","7","7","7","7","6","7","634716408718032896","刘","591","Male","[""好他"",""坏我"",""坏他"",""好我""]","[""强他"",""弱我"",""弱他"",""强我""]","","","","","","","","yes","","","","","","","","","SRET_EW","EW_practice","","key","j","16.656701030927955","768","428","自己","严谨","Positive","ability","","","","","","","","","","",""
"794","","f","psychophysics","12","129288","0.0-7.0-1.0-0.3","7","7","7","7","7","5","5","5","5","5","5","2","1","2","2","2","2","2","2","5","5","5","5","5","5","5","5","5","5","8","8","7","8","7","8","8","9","8","7","7","7","7","7","7","7","1","7","7","1","7","6","7","7","7","7","7","7","6","7","7","7","7","7","7","7","7","7","7","7","7","7","7","7","7","7","7","7","6","7","634716408718032896","刘","591","Male","[""好他"",""坏我"",""坏他"",""好我""]","[""强他"",""弱我"",""弱他"",""强我""]","","","","","","","","no","","","","","","","","","SRET_EW","EW_practice","","key","f","16.65140186915885","768","428","朋友","徇私","Negative","morality","","","","","","","","","","",""
"22181","
    <p><div style='color:white;font-size:35px; line-height:20px;'>请您再次阅读实验要求</div></p><br>
    <p><div style='color:white;font-size:25px; line-height:20px;'>请回忆某一个亲密的朋友，你们至少2年前就认识了，并且最近2年经常见面。</div></p>
    <p><div style='color:white;font-size:25px; line-height:20px;'>在本实验中，您将会看到一些形容词。</div></p>
    <p><div style='color:yellow;font-size:25px; line-height:20px;'>您的任务是判断这些形容词是否符合对您自己或您的朋友的描述。</div></p>
    <p><div class='footer' style='font-size:25px; line-height:20px;'>如果对本实验还有不清楚之处，请立即向实验员咨询。</p><p style='font-size:25px; line-height:20px;'>如果您明白了规则：</p><p style='font-size:22px; line-height:20px;'>请按 继续 进入正式实验</p>
    </div>
    <p style='font-size:35px'>符合按<span style=""color:lightgreen""> j 键</span>，不符合按<span style=""color:red""> f 键</span></p>","0","html-button-response","13","151470","0.0-7.0-2.0","7","7","7","7","7","5","5","5","5","5","5","2","1","2","2","2","2","2","2","5","5","5","5","5","5","5","5","5","5","8","8","7","8","7","8","8","9","8","7","7","7","7","7","7","7","1","7","7","1","7","6","7","7","7","7","7","7","6","7","7","7","7","7","7","7","7","7","7","7","7","7","7","7","7","7","7","7","6","7","634716408718032896","刘","591","Male","[""好他"",""坏我"",""坏他"",""好我""]","[""强他"",""弱我"",""弱他"",""强我""]","","","","","","","","","","","","","","","","","SRET_EW","prac_instructions","Tue Jan 30 2024 13:23:38 GMT+0800 (中国标准时间)","","","","","","","","","","","","","","","","","","","",""
"806","","f","psychophysics","14","153278","0.0-7.0-3.0-0.0","7","7","7","7","7","5","5","5","5","5","5","2","1","2","2","2","2","2","2","5","5","5","5","5","5","5","5","5","5","8","8","7","8","7","8","8","9","8","7","7","7","7","7","7","7","1","7","7","1","7","6","7","7","7","7","7","7","6","7","7","7","7","7","7","7","7","7","7","7","7","7","7","7","7","7","7","7","6","7","634716408718032896","刘","591","Male","[""好他"",""坏我"",""坏他"",""好我""]","[""强他"",""弱我"",""弱他"",""强我""]","","","","","","","","no","","","","","","","","","SRET","EW_formal","","key","f","16.64629629629646","768","428","自己","说谎","Negative","morality","","","","","","","","","","",""
"1118","","j","psychophysics","15","155397","0.0-7.0-3.0-0.1","7","7","7","7","7","5","5","5","5","5","5","2","1","2","2","2","2","2","2","5","5","5","5","5","5","5","5","5","5","8","8","7","8","7","8","8","9","8","7","7","7","7","7","7","7","1","7","7","1","7","6","7","7","7","7","7","7","6","7","7","7","7","7","7","7","7","7","7","7","7","7","7","7","7","7","7","7","6","7","634716408718032896","刘","591","Male","[""好他"",""坏我"",""坏他"",""好我""]","[""强他"",""弱我"",""弱他"",""强我""]","","","","","","","","yes","","","","","","","","","SRET","EW_formal","","key","j","16.651968503937145","768","428","朋友","务实","Positive","ability","","","","","","","","","","",""
"954","","j","psychophysics","16","157353","0.0-7.0-3.0-0.2","7","7","7","7","7","5","5","5","5","5","5","2","1","2","2","2","2","2","2","5","5","5","5","5","5","5","5","5","5","8","8","7","8","7","8","8","9","8","7","7","7","7","7","7","7","1","7","7","1","7","6","7","7","7","7","7","7","6","7","7","7","7","7","7","7","7","7","7","7","7","7","7","7","7","7","7","7","6","7","634716408718032896","刘","591","Male","[""好他"",""坏我"",""坏他"",""好我""]","[""强他"",""弱我"",""弱他"",""强我""]","","","","","","","","yes","","","","","","","","","SRET","EW_formal","","key","j","16.654310344827536","768","428","自己","坚贞","Positive","morality","","","","","","","","","","",""
"699","","f","psychophysics","17","159053","0.0-7.0-3.0-0.3","7","7","7","7","7","5","5","5","5","5","5","2","1","2","2","2","2","2","2","5","5","5","5","5","5","5","5","5","5","8","8","7","8","7","8","8","9","8","7","7","7","7","7","7","7","1","7","7","1","7","6","7","7","7","7","7","7","6","7","7","7","7","7","7","7","7","7","7","7","7","7","7","7","7","7","7","7","6","7","634716408718032896","刘","591","Male","[""好他"",""坏我"",""坏他"",""好我""]","[""强他"",""弱我"",""弱他"",""强我""]","","","","","","","","no","","","","","","","","","SRET","EW_formal","","key","f","16.651485148515025","768","428","朋友","迷糊","Negative","ability","","","","","","","","","","",""
"969","","j","psychophysics","18","161023","0.0-7.0-3.0-0.4","7","7","7","7","7","5","5","5","5","5","5","2","1","2","2","2","2","2","2","5","5","5","5","5","5","5","5","5","5","8","8","7","8","7","8","8","9","8","7","7","7","7","7","7","7","1","7","7","1","7","6","7","7","7","7","7","7","6","7","7","7","7","7","7","7","7","7","7","7","7","7","7","7","7","7","7","7","6","7","634716408718032896","刘","591","Male","[""好他"",""坏我"",""坏他"",""好我""]","[""强他"",""弱我"",""弱他"",""强我""]","","","","","","","","yes","","","","","","","","","SRET","EW_formal","","key","j","16.64957264957265","768","428","朋友","君子","Positive","morality","","","","","","","","","","",""
"730","","j","psychophysics","19","162754","0.0-7.0-3.0-0.5","7","7","7","7","7","5","5","5","5","5","5","2","1","2","2","2","2","2","2","5","5","5","5","5","5","5","5","5","5","8","8","7","8","7","8","8","9","8","7","7","7","7","7","7","7","1","7","7","1","7","6","7","7","7","7","7","7","6","7","7","7","7","7","7","7","7","7","7","7","7","7","7","7","7","7","7","7","6","7","634716408718032896","刘","591","Male","[""好他"",""坏我"",""坏他"",""好我""]","[""强他"",""弱我"",""弱他"",""强我""]","","","","","","","","yes","","","","","","","","","SRET","EW_formal","","key","j","16.651456310679666","768","428","朋友","高洁","Positive","morality","","","","","","","","","","",""
"940","","j","psychophysics","20","164695","0.0-7.0-3.0-0.6","7","7","7","7","7","5","5","5","5","5","5","2","1","2","2","2","2","2","2","5","5","5","5","5","5","5","5","5","5","8","8","7","8","7","8","8","9","8","7","7","7","7","7","7","7","1","7","7","1","7","6","7","7","7","7","7","7","6","7","7","7","7","7","7","7","7","7","7","7","7","7","7","7","7","7","7","7","6","7","634716408718032896","刘","591","Male","[""好他"",""坏我"",""坏他"",""好我""]","[""强他"",""弱我"",""弱他"",""强我""]","","","","","","","","yes","","","","","","","","","SRET","EW_formal","","key","j","16.6525862068964","768","428","朋友","专注","Positive","ability","","","","","","","","","","",""
"862","","f","psychophysics","21","166559","0.0-7.0-3.0-0.7","7","7","7","7","7","5","5","5","5","5","5","2","1","2","2","2","2","2","2","5","5","5","5","5","5","5","5","5","5","8","8","7","8","7","8","8","9","8","7","7","7","7","7","7","7","1","7","7","1","7","6","7","7","7","7","7","7","6","7","7","7","7","7","7","7","7","7","7","7","7","7","7","7","7","7","7","7","6","7","634716408718032896","刘","591","Male","[""好他"",""坏我"",""坏他"",""好我""]","[""强他"",""弱我"",""弱他"",""强我""]","","","","","","","","no","","","","","","","","","SRET","EW_formal","","key","f","16.6495495495496","768","428","自己","粗心","Negative","ability","","","","","","","","","","",""
"919","","j","psychophysics","22","168480","0.0-7.0-3.0-0.8","7","7","7","7","7","5","5","5","5","5","5","2","1","2","2","2","2","2","2","5","5","5","5","5","5","5","5","5","5","8","8","7","8","7","8","8","9","8","7","7","7","7","7","7","7","1","7","7","1","7","6","7","7","7","7","7","7","6","7","7","7","7","7","7","7","7","7","7","7","7","7","7","7","7","7","7","7","6","7","634716408718032896","刘","591","Male","[""好他"",""坏我"",""坏他"",""好我""]","[""强他"",""弱我"",""弱他"",""强我""]","","","","","","","","yes","","","","","","","","","SRET","EW_formal","","key","j","16.648245614035037","768","428","朋友","正气","Positive","morality","","","","","","","","","","",""
"894","","f","psychophysics","23","170376","0.0-7.0-3.0-0.9","7","7","7","7","7","5","5","5","5","5","5","2","1","2","2","2","2","2","2","5","5","5","5","5","5","5","5","5","5","8","8","7","8","7","8","8","9","8","7","7","7","7","7","7","7","1","7","7","1","7","6","7","7","7","7","7","7","6","7","7","7","7","7","7","7","7","7","7","7","7","7","7","7","7","7","7","7","6","7","634716408718032896","刘","591","Male","[""好他"",""坏我"",""坏他"",""好我""]","[""强他"",""弱我"",""弱他"",""强我""]","","","","","","","","no","","","","","","","","","SRET","EW_formal","","key","f","16.652212389380633","768","428","自己","背叛","Negative","morality","","","","","","","","","","",""
"704","","j","psychophysics","24","172082","0.0-7.0-3.0-0.10","7","7","7","7","7","5","5","5","5","5","5","2","1","2","2","2","2","2","2","5","5","5","5","5","5","5","5","5","5","8","8","7","8","7","8","8","9","8","7","7","7","7","7","7","7","1","7","7","1","7","6","7","7","7","7","7","7","6","7","7","7","7","7","7","7","7","7","7","7","7","7","7","7","7","7","7","7","6","7","634716408718032896","刘","591","Male","[""好他"",""坏我"",""坏他"",""好我""]","[""强他"",""弱我"",""弱他"",""强我""]","","","","","","","","yes","","","","","","","","","SRET","EW_formal","","key","j","16.652941176470645","768","428","朋友","全才","Positive","ability","","","","","","","","","","",""
"791","","f","psychophysics","25","173877","0.0-7.0-3.0-0.11","7","7","7","7","7","5","5","5","5","5","5","2","1","2","2","2","2","2","2","5","5","5","5","5","5","5","5","5","5","8","8","7","8","7","8","8","9","8","7","7","7","7","7","7","7","1","7","7","1","7","6","7","7","7","7","7","7","6","7","7","7","7","7","7","7","7","7","7","7","7","7","7","7","7","7","7","7","6","7","634716408718032896","刘","591","Male","[""好他"",""坏我"",""坏他"",""好我""]","[""强他"",""弱我"",""弱他"",""强我""]","","","","","","","","no","","","","","","","","","SRET","EW_formal","","key","f","16.65000000000022","768","428","自己","自私","Negative","morality","","","","","","","","","","",""
"809","","f","psychophysics","26","175686","0.0-7.0-3.0-0.12","7","7","7","7","7","5","5","5","5","5","5","2","1","2","2","2","2","2","2","5","5","5","5","5","5","5","5","5","5","8","8","7","8","7","8","8","9","8","7","7","7","7","7","7","7","1","7","7","1","7","6","7","7","7","7","7","7","6","7","7","7","7","7","7","7","7","7","7","7","7","7","7","7","7","7","7","7","6","7","634716408718032896","刘","591","Male","[""好他"",""坏我"",""坏他"",""好我""]","[""强他"",""弱我"",""弱他"",""强我""]","","","","","","","","no","","","","","","","","","SRET","EW_formal","","key","f","16.6518518518518","768","428","自己","愚痴","Negative","ability","","","","","","","","","","",""
"799","","j","psychophysics","27","177487","0.0-7.0-3.0-0.13","7","7","7","7","7","5","5","5","5","5","5","2","1","2","2","2","2","2","2","5","5","5","5","5","5","5","5","5","5","8","8","7","8","7","8","8","9","8","7","7","7","7","7","7","7","1","7","7","1","7","6","7","7","7","7","7","7","6","7","7","7","7","7","7","7","7","7","7","7","7","7","7","7","7","7","7","7","6","7","634716408718032896","刘","591","Male","[""好他"",""坏我"",""坏他"",""好我""]","[""强他"",""弱我"",""弱他"",""强我""]","","","","","","","","yes","","","","","","","","","SRET","EW_formal","","key","j","16.65046728971941","768","428","自己","思辨","Positive","ability","","","","","","","","","","",""
"758","","j","psychophysics","28","179247","0.0-7.0-3.0-0.14","7","7","7","7","7","5","5","5","5","5","5","2","1","2","2","2","2","2","2","5","5","5","5","5","5","5","5","5","5","8","8","7","8","7","8","8","9","8","7","7","7","7","7","7","7","1","7","7","1","7","6","7","7","7","7","7","7","6","7","7","7","7","7","7","7","7","7","7","7","7","7","7","7","7","7","7","7","6","7","634716408718032896","刘","591","Male","[""好他"",""坏我"",""坏他"",""好我""]","[""强他"",""弱我"",""弱他"",""强我""]","","","","","","","","yes","","","","","","","","","SRET","EW_formal","","key","j","16.65619047619042","768","428","自己","聪明","Positive","ability","","","","","","","","","","",""
"665","","f","psychophysics","29","180914","0.0-7.0-3.0-0.15","7","7","7","7","7","5","5","5","5","5","5","2","1","2","2","2","2","2","2","5","5","5","5","5","5","5","5","5","5","8","8","7","8","7","8","8","9","8","7","7","7","7","7","7","7","1","7","7","1","7","6","7","7","7","7","7","7","6","7","7","7","7","7","7","7","7","7","7","7","7","7","7","7","7","7","7","7","6","7","634716408718032896","刘","591","Male","[""好他"",""坏我"",""坏他"",""好我""]","[""强他"",""弱我"",""弱他"",""强我""]","","","","","","","","no","","","","","","","","","SRET","EW_formal","","key","f","16.651515151515152","768","428","朋友","拙笨","Negative","ability","","","","","","","","","","",""
"775","","f","psychophysics","30","182689","0.0-7.0-3.0-0.16","7","7","7","7","7","5","5","5","5","5","5","2","1","2","2","2","2","2","2","5","5","5","5","5","5","5","5","5","5","8","8","7","8","7","8","8","9","8","7","7","7","7","7","7","7","1","7","7","1","7","6","7","7","7","7","7","7","6","7","7","7","7","7","7","7","7","7","7","7","7","7","7","7","7","7","7","7","6","7","634716408718032896","刘","591","Male","[""好他"",""坏我"",""坏他"",""好我""]","[""强他"",""弱我"",""弱他"",""强我""]","","","","","","","","no","","","","","","","","","SRET","EW_formal","","key","f","16.650943396226417","768","428","朋友","缺德","Negative","morality","","","","","","","","","","",""
"730","","j","psychophysics","31","184420","0.0-7.0-3.0-0.17","7","7","7","7","7","5","5","5","5","5","5","2","1","2","2","2","2","2","2","5","5","5","5","5","5","5","5","5","5","8","8","7","8","7","8","8","9","8","7","7","7","7","7","7","7","1","7","7","1","7","6","7","7","7","7","7","7","6","7","7","7","7","7","7","7","7","7","7","7","7","7","7","7","7","7","7","7","6","7","634716408718032896","刘","591","Male","[""好他"",""坏我"",""坏他"",""好我""]","[""强他"",""弱我"",""弱他"",""强我""]","","","","","","","","yes","","","","","","","","","SRET","EW_formal","","key","j","16.651456310679666","768","428","朋友","仁爱","Positive","morality","","","","","","","","","","",""
"775","","f","psychophysics","32","186198","0.0-7.0-3.0-0.18","7","7","7","7","7","5","5","5","5","5","5","2","1","2","2","2","2","2","2","5","5","5","5","5","5","5","5","5","5","8","8","7","8","7","8","8","9","8","7","7","7","7","7","7","7","1","7","7","1","7","6","7","7","7","7","7","7","6","7","7","7","7","7","7","7","7","7","7","7","7","7","7","7","7","7","7","7","6","7","634716408718032896","刘","591","Male","[""好他"",""坏我"",""坏他"",""好我""]","[""强他"",""弱我"",""弱他"",""强我""]","","","","","","","","no","","","","","","","","","SRET","EW_formal","","key","f","16.65047619047608","768","428","自己","阴毒","Negative","morality","","","","","","","","","","",""
"863","","f","psychophysics","33","188061","0.0-7.0-3.0-0.19","7","7","7","7","7","5","5","5","5","5","5","2","1","2","2","2","2","2","2","5","5","5","5","5","5","5","5","5","5","8","8","7","8","7","8","8","9","8","7","7","7","7","7","7","7","1","7","7","1","7","6","7","7","7","7","7","7","6","7","7","7","7","7","7","7","7","7","7","7","7","7","7","7","7","7","7","7","6","7","634716408718032896","刘","591","Male","[""好他"",""坏我"",""坏他"",""好我""]","[""强他"",""弱我"",""弱他"",""强我""]","","","","","","","","no","","","","","","","","","SRET","EW_formal","","key","f","16.653153153153152","768","428","朋友","伪善","Negative","morality","","","","","","","","","","",""
"799","","f","psychophysics","34","189862","0.0-7.0-3.0-0.20","7","7","7","7","7","5","5","5","5","5","5","2","1","2","2","2","2","2","2","5","5","5","5","5","5","5","5","5","5","8","8","7","8","7","8","8","9","8","7","7","7","7","7","7","7","1","7","7","1","7","6","7","7","7","7","7","7","6","7","7","7","7","7","7","7","7","7","7","7","7","7","7","7","7","7","7","7","6","7","634716408718032896","刘","591","Male","[""好他"",""坏我"",""坏他"",""好我""]","[""强他"",""弱我"",""弱他"",""强我""]","","","","","","","","no","","","","","","","","","SRET","EW_formal","","key","f","16.65233644859802","768","428","朋友","新手","Negative","ability","","","","","","","","","","",""
"734","","j","psychophysics","35","191597","0.0-7.0-3.0-0.21","7","7","7","7","7","5","5","5","5","5","5","2","1","2","2","2","2","2","2","5","5","5","5","5","5","5","5","5","5","8","8","7","8","7","8","8","9","8","7","7","7","7","7","7","7","1","7","7","1","7","6","7","7","7","7","7","7","6","7","7","7","7","7","7","7","7","7","7","7","7","7","7","7","7","7","7","7","6","7","634716408718032896","刘","591","Male","[""好他"",""坏我"",""坏他"",""好我""]","[""强他"",""弱我"",""弱他"",""强我""]","","","","","","","","yes","","","","","","","","","SRET","EW_formal","","key","j","16.65096153846165","768","428","朋友","礼貌","Positive","morality","","","","","","","","","","",""
"844","","f","psychophysics","36","193443","0.0-7.0-3.0-0.22","7","7","7","7","7","5","5","5","5","5","5","2","1","2","2","2","2","2","2","5","5","5","5","5","5","5","5","5","5","8","8","7","8","7","8","8","9","8","7","7","7","7","7","7","7","1","7","7","1","7","6","7","7","7","7","7","7","6","7","7","7","7","7","7","7","7","7","7","7","7","7","7","7","7","7","7","7","6","7","634716408718032896","刘","591","Male","[""好他"",""坏我"",""坏他"",""好我""]","[""强他"",""弱我"",""弱他"",""强我""]","","","","","","","","no","","","","","","","","","SRET","EW_formal","","key","f","16.64862385321085","768","428","朋友","不仁","Negative","morality","","","","","","","","","","",""
"770","","j","psychophysics","37","195214","0.0-7.0-3.0-0.23","7","7","7","7","7","5","5","5","5","5","5","2","1","2","2","2","2","2","2","5","5","5","5","5","5","5","5","5","5","8","8","7","8","7","8","8","9","8","7","7","7","7","7","7","7","1","7","7","1","7","6","7","7","7","7","7","7","6","7","7","7","7","7","7","7","7","7","7","7","7","7","7","7","7","7","7","7","6","7","634716408718032896","刘","591","Male","[""好他"",""坏我"",""坏他"",""好我""]","[""强他"",""弱我"",""弱他"",""强我""]","","","","","","","","yes","","","","","","","","","SRET","EW_formal","","key","j","16.653773584905824","768","428","自己","孝顺","Positive","morality","","","","","","","","","","",""
"699","","j","psychophysics","38","196914","0.0-7.0-3.0-0.24","7","7","7","7","7","5","5","5","5","5","5","2","1","2","2","2","2","2","2","5","5","5","5","5","5","5","5","5","5","8","8","7","8","7","8","8","9","8","7","7","7","7","7","7","7","1","7","7","1","7","6","7","7","7","7","7","7","6","7","7","7","7","7","7","7","7","7","7","7","7","7","7","7","7","7","7","7","6","7","634716408718032896","刘","591","Male","[""好他"",""坏我"",""坏他"",""好我""]","[""强他"",""弱我"",""弱他"",""强我""]","","","","","","","","yes","","","","","","","","","SRET","EW_formal","","key","j","16.65643564356424","768","428","朋友","远见","Positive","ability","","","","","","","","","","",""
"711","","f","psychophysics","39","198626","0.0-7.0-3.0-0.25","7","7","7","7","7","5","5","5","5","5","5","2","1","2","2","2","2","2","2","5","5","5","5","5","5","5","5","5","5","8","8","7","8","7","8","8","9","8","7","7","7","7","7","7","7","1","7","7","1","7","6","7","7","7","7","7","7","6","7","7","7","7","7","7","7","7","7","7","7","7","7","7","7","7","7","7","7","6","7","634716408718032896","刘","591","Male","[""好他"",""坏我"",""坏他"",""好我""]","[""强他"",""弱我"",""弱他"",""强我""]","","","","","","","","no","","","","","","","","","SRET","EW_formal","","key","f","16.64901960784325","768","428","自己","狡狯","Negative","morality","","","","","","","","","","",""
"705","","j","psychophysics","40","200331","0.0-7.0-3.0-0.26","7","7","7","7","7","5","5","5","5","5","5","2","1","2","2","2","2","2","2","5","5","5","5","5","5","5","5","5","5","8","8","7","8","7","8","8","9","8","7","7","7","7","7","7","7","1","7","7","1","7","6","7","7","7","7","7","7","6","7","7","7","7","7","7","7","7","7","7","7","7","7","7","7","7","7","7","7","6","7","634716408718032896","刘","591","Male","[""好他"",""坏我"",""坏他"",""好我""]","[""强他"",""弱我"",""弱他"",""强我""]","","","","","","","","yes","","","","","","","","","SRET","EW_formal","","key","j","16.651485148514737","768","428","自己","守法","Positive","morality","","","","","","","","","","",""
"850","","j","psychophysics","41","202182","0.0-7.0-3.0-0.27","7","7","7","7","7","5","5","5","5","5","5","2","1","2","2","2","2","2","2","5","5","5","5","5","5","5","5","5","5","8","8","7","8","7","8","8","9","8","7","7","7","7","7","7","7","1","7","7","1","7","6","7","7","7","7","7","7","6","7","7","7","7","7","7","7","7","7","7","7","7","7","7","7","7","7","7","7","6","7","634716408718032896","刘","591","Male","[""好他"",""坏我"",""坏他"",""好我""]","[""强他"",""弱我"",""弱他"",""强我""]","","","","","","","","yes","","","","","","","","","SRET","EW_formal","","key","j","16.64727272727283","768","428","自己","学霸","Positive","ability","","","","","","","","","","",""
"660","","j","psychophysics","42","203843","0.0-7.0-3.0-0.28","7","7","7","7","7","5","5","5","5","5","5","2","1","2","2","2","2","2","2","5","5","5","5","5","5","5","5","5","5","8","8","7","8","7","8","8","9","8","7","7","7","7","7","7","7","1","7","7","1","7","6","7","7","7","7","7","7","6","7","7","7","7","7","7","7","7","7","7","7","7","7","7","7","7","7","7","7","6","7","634716408718032896","刘","591","Male","[""好他"",""坏我"",""坏他"",""好我""]","[""强他"",""弱我"",""弱他"",""强我""]","","","","","","","","yes","","","","","","","","","SRET","EW_formal","","key","j","16.649494949495125","768","428","自己","善良","Positive","morality","","","","","","","","","","",""
"749","","f","psychophysics","43","205593","0.0-7.0-3.0-0.29","7","7","7","7","7","5","5","5","5","5","5","2","1","2","2","2","2","2","2","5","5","5","5","5","5","5","5","5","5","8","8","7","8","7","8","8","9","8","7","7","7","7","7","7","7","1","7","7","1","7","6","7","7","7","7","7","7","6","7","7","7","7","7","7","7","7","7","7","7","7","7","7","7","7","7","7","7","6","7","634716408718032896","刘","591","Male","[""好他"",""坏我"",""坏他"",""好我""]","[""强他"",""弱我"",""弱他"",""强我""]","","","","","","","","no","","","","","","","","","SRET","EW_formal","","key","f","16.650000000000055","768","428","朋友","盲目","Negative","ability","","","","","","","","","","",""
"925","","f","psychophysics","44","207518","0.0-7.0-3.0-0.30","7","7","7","7","7","5","5","5","5","5","5","2","1","2","2","2","2","2","2","5","5","5","5","5","5","5","5","5","5","8","8","7","8","7","8","8","9","8","7","7","7","7","7","7","7","1","7","7","1","7","6","7","7","7","7","7","7","6","7","7","7","7","7","7","7","7","7","7","7","7","7","7","7","7","7","7","7","6","7","634716408718032896","刘","591","Male","[""好他"",""坏我"",""坏他"",""好我""]","[""强他"",""弱我"",""弱他"",""强我""]","","","","","","","","no","","","","","","","","","SRET","EW_formal","","key","f","16.65130434782629","768","428","自己","低劣","Negative","morality","","","","","","","","","","",""
"869","","j","psychophysics","45","209389","0.0-7.0-3.0-0.31","7","7","7","7","7","5","5","5","5","5","5","2","1","2","2","2","2","2","2","5","5","5","5","5","5","5","5","5","5","8","8","7","8","7","8","8","9","8","7","7","7","7","7","7","7","1","7","7","1","7","6","7","7","7","7","7","7","6","7","7","7","7","7","7","7","7","7","7","7","7","7","7","7","7","7","7","7","6","7","634716408718032896","刘","591","Male","[""好他"",""坏我"",""坏他"",""好我""]","[""强他"",""弱我"",""弱他"",""强我""]","","","","","","","","yes","","","","","","","","","SRET","EW_formal","","key","j","16.650450450450556","768","428","自己","变通","Positive","ability","","","","","","","","","","",""
"919","","j","psychophysics","46","211311","0.0-7.0-3.0-0.32","7","7","7","7","7","5","5","5","5","5","5","2","1","2","2","2","2","2","2","5","5","5","5","5","5","5","5","5","5","8","8","7","8","7","8","8","9","8","7","7","7","7","7","7","7","1","7","7","1","7","6","7","7","7","7","7","7","6","7","7","7","7","7","7","7","7","7","7","7","7","7","7","7","7","7","7","7","6","7","634716408718032896","刘","591","Male","[""好他"",""坏我"",""坏他"",""好我""]","[""强他"",""弱我"",""弱他"",""强我""]","","","","","","","","yes","","","","","","","","","SRET","EW_formal","","key","j","16.652631578947318","768","428","朋友","中用","Positive","ability","","","","","","","","","","",""
"978","","j","psychophysics","47","213289","0.0-7.0-3.0-0.33","7","7","7","7","7","5","5","5","5","5","5","2","1","2","2","2","2","2","2","5","5","5","5","5","5","5","5","5","5","8","8","7","8","7","8","8","9","8","7","7","7","7","7","7","7","1","7","7","1","7","6","7","7","7","7","7","7","6","7","7","7","7","7","7","7","7","7","7","7","7","7","7","7","7","7","7","7","6","7","634716408718032896","刘","591","Male","[""好他"",""坏我"",""坏他"",""好我""]","[""强他"",""弱我"",""弱他"",""强我""]","","","","","","","","yes","","","","","","","","","SRET","EW_formal","","key","j","16.651694915254186","768","428","自己","热心","Positive","morality","","","","","","","","","","",""
"869","","f","psychophysics","48","215160","0.0-7.0-3.0-0.34","7","7","7","7","7","5","5","5","5","5","5","2","1","2","2","2","2","2","2","5","5","5","5","5","5","5","5","5","5","8","8","7","8","7","8","8","9","8","7","7","7","7","7","7","7","1","7","7","1","7","6","7","7","7","7","7","7","6","7","7","7","7","7","7","7","7","7","7","7","7","7","7","7","7","7","7","7","6","7","634716408718032896","刘","591","Male","[""好他"",""坏我"",""坏他"",""好我""]","[""强他"",""弱我"",""弱他"",""强我""]","","","","","","","","no","","","","","","","","","SRET","EW_formal","","key","f","16.652678571428623","768","428","自己","奸险","Negative","morality","","","","","","","","","","",""
"974","","j","psychophysics","49","217135","0.0-7.0-3.0-0.35","7","7","7","7","7","5","5","5","5","5","5","2","1","2","2","2","2","2","2","5","5","5","5","5","5","5","5","5","5","8","8","7","8","7","8","8","9","8","7","7","7","7","7","7","7","1","7","7","1","7","6","7","7","7","7","7","7","6","7","7","7","7","7","7","7","7","7","7","7","7","7","7","7","7","7","7","7","6","7","634716408718032896","刘","591","Male","[""好他"",""坏我"",""坏他"",""好我""]","[""强他"",""弱我"",""弱他"",""强我""]","","","","","","","","yes","","","","","","","","","SRET","EW_formal","","key","j","16.651282051282152","768","428","自己","懂行","Positive","ability","","","","","","","","","","",""
"925","","f","psychophysics","50","219060","0.0-7.0-3.0-0.36","7","7","7","7","7","5","5","5","5","5","5","2","1","2","2","2","2","2","2","5","5","5","5","5","5","5","5","5","5","8","8","7","8","7","8","8","9","8","7","7","7","7","7","7","7","1","7","7","1","7","6","7","7","7","7","7","7","6","7","7","7","7","7","7","7","7","7","7","7","7","7","7","7","7","7","7","7","6","7","634716408718032896","刘","591","Male","[""好他"",""坏我"",""坏他"",""好我""]","[""强他"",""弱我"",""弱他"",""强我""]","","","","","","","","no","","","","","","","","","SRET","EW_formal","","key","f","16.650434782608595","768","428","朋友","马虎","Negative","ability","","","","","","","","","","",""
"904","","f","psychophysics","51","220966","0.0-7.0-3.0-0.37","7","7","7","7","7","5","5","5","5","5","5","2","1","2","2","2","2","2","2","5","5","5","5","5","5","5","5","5","5","8","8","7","8","7","8","8","9","8","7","7","7","7","7","7","7","1","7","7","1","7","6","7","7","7","7","7","7","6","7","7","7","7","7","7","7","7","7","7","7","7","7","7","7","7","7","7","7","6","7","634716408718032896","刘","591","Male","[""好他"",""坏我"",""坏他"",""好我""]","[""强他"",""弱我"",""弱他"",""强我""]","","","","","","","","no","","","","","","","","","SRET","EW_formal","","key","f","16.654867256637168","768","428","朋友","无为","Negative","ability","","","","","","","","","","",""
"984","","f","psychophysics","52","222951","0.0-7.0-3.0-0.38","7","7","7","7","7","5","5","5","5","5","5","2","1","2","2","2","2","2","2","5","5","5","5","5","5","5","5","5","5","8","8","7","8","7","8","8","9","8","7","7","7","7","7","7","7","1","7","7","1","7","6","7","7","7","7","7","7","6","7","7","7","7","7","7","7","7","7","7","7","7","7","7","7","7","7","7","7","6","7","634716408718032896","刘","591","Male","[""好他"",""坏我"",""坏他"",""好我""]","[""强他"",""弱我"",""弱他"",""强我""]","","","","","","","","no","","","","","","","","","SRET","EW_formal","","key","f","16.652941176470442","768","428","朋友","罪恶","Negative","morality","","","","","","","","","","",""
"860","","j","psychophysics","53","224811","0.0-7.0-3.0-0.39","7","7","7","7","7","5","5","5","5","5","5","2","1","2","2","2","2","2","2","5","5","5","5","5","5","5","5","5","5","8","8","7","8","7","8","8","9","8","7","7","7","7","7","7","7","1","7","7","1","7","6","7","7","7","7","7","7","6","7","7","7","7","7","7","7","7","7","7","7","7","7","7","7","7","7","7","7","6","7","634716408718032896","刘","591","Male","[""好他"",""坏我"",""坏他"",""好我""]","[""强他"",""弱我"",""弱他"",""强我""]","","","","","","","","yes","","","","","","","","","SRET","EW_formal","","key","j","16.65","768","428","自己","高尚","Positive","morality","","","","","","","","","","",""
"804","","j","psychophysics","54","226617","0.0-7.0-3.0-0.40","7","7","7","7","7","5","5","5","5","5","5","2","1","2","2","2","2","2","2","5","5","5","5","5","5","5","5","5","5","8","8","7","8","7","8","8","9","8","7","7","7","7","7","7","7","1","7","7","1","7","6","7","7","7","7","7","7","6","7","7","7","7","7","7","7","7","7","7","7","7","7","7","7","7","7","7","7","6","7","634716408718032896","刘","591","Male","[""好他"",""坏我"",""坏他"",""好我""]","[""强他"",""弱我"",""弱他"",""强我""]","","","","","","","","yes","","","","","","","","","SRET","EW_formal","","key","j","16.65462962962947","768","428","朋友","守信","Positive","morality","","","","","","","","","","",""
"799","","f","psychophysics","55","228418","0.0-7.0-3.0-0.41","7","7","7","7","7","5","5","5","5","5","5","2","1","2","2","2","2","2","2","5","5","5","5","5","5","5","5","5","5","8","8","7","8","7","8","8","9","8","7","7","7","7","7","7","7","1","7","7","1","7","6","7","7","7","7","7","7","6","7","7","7","7","7","7","7","7","7","7","7","7","7","7","7","7","7","7","7","6","7","634716408718032896","刘","591","Male","[""好他"",""坏我"",""坏他"",""好我""]","[""强他"",""弱我"",""弱他"",""强我""]","","","","","","","","no","","","","","","","","","SRET","EW_formal","","key","f","16.649532710280372","768","428","自己","废物","Negative","ability","","","","","","","","","","",""
"715","","j","psychophysics","56","230133","0.0-7.0-3.0-0.42","7","7","7","7","7","5","5","5","5","5","5","2","1","2","2","2","2","2","2","5","5","5","5","5","5","5","5","5","5","8","8","7","8","7","8","8","9","8","7","7","7","7","7","7","7","1","7","7","1","7","6","7","7","7","7","7","7","6","7","7","7","7","7","7","7","7","7","7","7","7","7","7","7","7","7","7","7","6","7","634716408718032896","刘","591","Male","[""好他"",""坏我"",""坏他"",""好我""]","[""强他"",""弱我"",""弱他"",""强我""]","","","","","","","","yes","","","","","","","","","SRET","EW_formal","","key","j","16.65588235294112","768","428","朋友","干练","Positive","ability","","","","","","","","","","",""
"1064","","f","psychophysics","57","232198","0.0-7.0-3.0-0.43","7","7","7","7","7","5","5","5","5","5","5","2","1","2","2","2","2","2","2","5","5","5","5","5","5","5","5","5","5","8","8","7","8","7","8","8","9","8","7","7","7","7","7","7","7","1","7","7","1","7","6","7","7","7","7","7","7","6","7","7","7","7","7","7","7","7","7","7","7","7","7","7","7","7","7","7","7","6","7","634716408718032896","刘","591","Male","[""好他"",""坏我"",""坏他"",""好我""]","[""强他"",""弱我"",""弱他"",""强我""]","","","","","","","","no","","","","","","","","","SRET","EW_formal","","key","f","16.652845528455426","768","428","自己","迂拙","Negative","ability","","","","","","","","","","",""
"1060","","j","psychophysics","58","234259","0.0-7.0-3.0-0.44","7","7","7","7","7","5","5","5","5","5","5","2","1","2","2","2","2","2","2","5","5","5","5","5","5","5","5","5","5","8","8","7","8","7","8","8","9","8","7","7","7","7","7","7","7","1","7","7","1","7","6","7","7","7","7","7","7","6","7","7","7","7","7","7","7","7","7","7","7","7","7","7","7","7","7","7","7","6","7","634716408718032896","刘","591","Male","[""好他"",""坏我"",""坏他"",""好我""]","[""强他"",""弱我"",""弱他"",""强我""]","","","","","","","","yes","","","","","","","","","SRET","EW_formal","","key","j","16.6520325203253","768","428","自己","忠勇","Positive","morality","","","","","","","","","","",""
"740","","j","psychophysics","59","235999","0.0-7.0-3.0-0.45","7","7","7","7","7","5","5","5","5","5","5","2","1","2","2","2","2","2","2","5","5","5","5","5","5","5","5","5","5","8","8","7","8","7","8","8","9","8","7","7","7","7","7","7","7","1","7","7","1","7","6","7","7","7","7","7","7","6","7","7","7","7","7","7","7","7","7","7","7","7","7","7","7","7","7","7","7","6","7","634716408718032896","刘","591","Male","[""好他"",""坏我"",""坏他"",""好我""]","[""强他"",""弱我"",""弱他"",""强我""]","","","","","","","","yes","","","","","","","","","SRET","EW_formal","","key","j","16.650485436893202","768","428","自己","好心","Positive","morality","","","","","","","","","","",""
"893","","j","psychophysics","60","237894","0.0-7.0-3.0-0.46","7","7","7","7","7","5","5","5","5","5","5","2","1","2","2","2","2","2","2","5","5","5","5","5","5","5","5","5","5","8","8","7","8","7","8","8","9","8","7","7","7","7","7","7","7","1","7","7","1","7","6","7","7","7","7","7","7","6","7","7","7","7","7","7","7","7","7","7","7","7","7","7","7","7","7","7","7","6","7","634716408718032896","刘","591","Male","[""好他"",""坏我"",""坏他"",""好我""]","[""强他"",""弱我"",""弱他"",""强我""]","","","","","","","","yes","","","","","","","","","SRET","EW_formal","","key","j","16.65132743362837","768","428","朋友","忠义","Positive","morality","","","","","","","","","","",""
"720","","j","psychophysics","61","239615","0.0-7.0-3.0-0.47","7","7","7","7","7","5","5","5","5","5","5","2","1","2","2","2","2","2","2","5","5","5","5","5","5","5","5","5","5","8","8","7","8","7","8","8","9","8","7","7","7","7","7","7","7","1","7","7","1","7","6","7","7","7","7","7","7","6","7","7","7","7","7","7","7","7","7","7","7","7","7","7","7","7","7","7","7","6","7","634716408718032896","刘","591","Male","[""好他"",""坏我"",""坏他"",""好我""]","[""强他"",""弱我"",""弱他"",""强我""]","","","","","","","","yes","","","","","","","","","SRET","EW_formal","","key","j","16.650000000000173","768","428","自己","敏捷","Positive","ability","","","","","","","","","","",""
"654","","j","psychophysics","62","241271","0.0-7.0-3.0-0.48","7","7","7","7","7","5","5","5","5","5","5","2","1","2","2","2","2","2","2","5","5","5","5","5","5","5","5","5","5","8","8","7","8","7","8","8","9","8","7","7","7","7","7","7","7","1","7","7","1","7","6","7","7","7","7","7","7","6","7","7","7","7","7","7","7","7","7","7","7","7","7","7","7","7","7","7","7","6","7","634716408718032896","刘","591","Male","[""好他"",""坏我"",""坏他"",""好我""]","[""强他"",""弱我"",""弱他"",""强我""]","","","","","","","","yes","","","","","","","","","SRET","EW_formal","","key","j","16.65252525252531","768","428","自己","能干","Positive","ability","","","","","","","","","","",""
"835","","j","psychophysics","63","243106","0.0-7.0-3.0-0.49","7","7","7","7","7","5","5","5","5","5","5","2","1","2","2","2","2","2","2","5","5","5","5","5","5","5","5","5","5","8","8","7","8","7","8","8","9","8","7","7","7","7","7","7","7","1","7","7","1","7","6","7","7","7","7","7","7","6","7","7","7","7","7","7","7","7","7","7","7","7","7","7","7","7","7","7","7","6","7","634716408718032896","刘","591","Male","[""好他"",""坏我"",""坏他"",""好我""]","[""强他"",""弱我"",""弱他"",""强我""]","","","","","","","","yes","","","","","","","","","SRET","EW_formal","","key","j","16.65412844036713","768","428","朋友","诚信","Positive","morality","","","","","","","","","","",""
"745","","j","psychophysics","64","244852","0.0-7.0-3.0-0.50","7","7","7","7","7","5","5","5","5","5","5","2","1","2","2","2","2","2","2","5","5","5","5","5","5","5","5","5","5","8","8","7","8","7","8","8","9","8","7","7","7","7","7","7","7","1","7","7","1","7","6","7","7","7","7","7","7","6","7","7","7","7","7","7","7","7","7","7","7","7","7","7","7","7","7","7","7","6","7","634716408718032896","刘","591","Male","[""好他"",""坏我"",""坏他"",""好我""]","[""强他"",""弱我"",""弱他"",""强我""]","","","","","","","","yes","","","","","","","","","SRET","EW_formal","","key","j","16.655769230769344","768","428","朋友","坦荡","Positive","morality","","","","","","","","","","",""
"1084","","f","psychophysics","65","246937","0.0-7.0-3.0-0.51","7","7","7","7","7","5","5","5","5","5","5","2","1","2","2","2","2","2","2","5","5","5","5","5","5","5","5","5","5","8","8","7","8","7","8","8","9","8","7","7","7","7","7","7","7","1","7","7","1","7","6","7","7","7","7","7","7","6","7","7","7","7","7","7","7","7","7","7","7","7","7","7","7","7","7","7","7","6","7","634716408718032896","刘","591","Male","[""好他"",""坏我"",""坏他"",""好我""]","[""强他"",""弱我"",""弱他"",""强我""]","","","","","","","","no","","","","","","","","","SRET","EW_formal","","key","f","16.646774193548247","768","428","自己","怠惰","Negative","ability","","","","","","","","","","",""
"1053","","f","psychophysics","66","248992","0.0-7.0-3.0-0.52","7","7","7","7","7","5","5","5","5","5","5","2","1","2","2","2","2","2","2","5","5","5","5","5","5","5","5","5","5","8","8","7","8","7","8","8","9","8","7","7","7","7","7","7","7","1","7","7","1","7","6","7","7","7","7","7","7","6","7","7","7","7","7","7","7","7","7","7","7","7","7","7","7","7","7","7","7","6","7","634716408718032896","刘","591","Male","[""好他"",""坏我"",""坏他"",""好我""]","[""强他"",""弱我"",""弱他"",""强我""]","","","","","","","","no","","","","","","","","","SRET","EW_formal","","key","f","16.649999999999906","768","428","朋友","混账","Negative","morality","","","","","","","","","","",""
"686","","j","psychophysics","67","250678","0.0-7.0-3.0-0.53","7","7","7","7","7","5","5","5","5","5","5","2","1","2","2","2","2","2","2","5","5","5","5","5","5","5","5","5","5","8","8","7","8","7","8","8","9","8","7","7","7","7","7","7","7","1","7","7","1","7","6","7","7","7","7","7","7","6","7","7","7","7","7","7","7","7","7","7","7","7","7","7","7","7","7","7","7","6","7","634716408718032896","刘","591","Male","[""好他"",""坏我"",""坏他"",""好我""]","[""强他"",""弱我"",""弱他"",""强我""]","","","","","","","","yes","","","","","","","","","SRET","EW_formal","","key","j","16.652475247524695","768","428","自己","爱国","Positive","morality","","","","","","","","","","",""
"883","","f","psychophysics","68","252563","0.0-7.0-3.0-0.54","7","7","7","7","7","5","5","5","5","5","5","2","1","2","2","2","2","2","2","5","5","5","5","5","5","5","5","5","5","8","8","7","8","7","8","8","9","8","7","7","7","7","7","7","7","1","7","7","1","7","6","7","7","7","7","7","7","6","7","7","7","7","7","7","7","7","7","7","7","7","7","7","7","7","7","7","7","6","7","634716408718032896","刘","591","Male","[""好他"",""坏我"",""坏他"",""好我""]","[""强他"",""弱我"",""弱他"",""强我""]","","","","","","","","no","","","","","","","","","SRET","EW_formal","","key","f","16.649107142857247","768","428","朋友","贪污","Negative","morality","","","","","","","","","","",""
"895","","f","psychophysics","69","254458","0.0-7.0-3.0-0.55","7","7","7","7","7","5","5","5","5","5","5","2","1","2","2","2","2","2","2","5","5","5","5","5","5","5","5","5","5","8","8","7","8","7","8","8","9","8","7","7","7","7","7","7","7","1","7","7","1","7","6","7","7","7","7","7","7","6","7","7","7","7","7","7","7","7","7","7","7","7","7","7","7","7","7","7","7","6","7","634716408718032896","刘","591","Male","[""好他"",""坏我"",""坏他"",""好我""]","[""强他"",""弱我"",""弱他"",""强我""]","","","","","","","","no","","","","","","","","","SRET","EW_formal","","key","f","16.652212389380377","768","428","自己","草率","Negative","ability","","","","","","","","","","",""
"574","","j","psychophysics","70","256034","0.0-7.0-3.0-0.56","7","7","7","7","7","5","5","5","5","5","5","2","1","2","2","2","2","2","2","5","5","5","5","5","5","5","5","5","5","8","8","7","8","7","8","8","9","8","7","7","7","7","7","7","7","1","7","7","1","7","6","7","7","7","7","7","7","6","7","7","7","7","7","7","7","7","7","7","7","7","7","7","7","7","7","7","7","6","7","634716408718032896","刘","591","Male","[""好他"",""坏我"",""坏他"",""好我""]","[""强他"",""弱我"",""弱他"",""强我""]","","","","","","","","yes","","","","","","","","","SRET","EW_formal","","key","j","16.655913978494624","768","428","朋友","努力","Positive","ability","","","","","","","","","","",""
"755","","f","psychophysics","71","257790","0.0-7.0-3.0-0.57","7","7","7","7","7","5","5","5","5","5","5","2","1","2","2","2","2","2","2","5","5","5","5","5","5","5","5","5","5","8","8","7","8","7","8","8","9","8","7","7","7","7","7","7","7","1","7","7","1","7","6","7","7","7","7","7","7","6","7","7","7","7","7","7","7","7","7","7","7","7","7","7","7","7","7","7","7","6","7","634716408718032896","刘","591","Male","[""好他"",""坏我"",""坏他"",""好我""]","[""强他"",""弱我"",""弱他"",""强我""]","","","","","","","","no","","","","","","","","","SRET","EW_formal","","key","f","16.655238095237983","768","428","朋友","驽钝","Negative","ability","","","","","","","","","","",""
"868","","j","psychophysics","72","259660","0.0-7.0-3.0-0.58","7","7","7","7","7","5","5","5","5","5","5","2","1","2","2","2","2","2","2","5","5","5","5","5","5","5","5","5","5","8","8","7","8","7","8","8","9","8","7","7","7","7","7","7","7","1","7","7","1","7","6","7","7","7","7","7","7","6","7","7","7","7","7","7","7","7","7","7","7","7","7","7","7","7","7","7","7","6","7","634716408718032896","刘","591","Male","[""好他"",""坏我"",""坏他"",""好我""]","[""强他"",""弱我"",""弱他"",""强我""]","","","","","","","","yes","","","","","","","","","SRET","EW_formal","","key","j","16.646846846847005","768","428","朋友","骁勇","Positive","ability","","","","","","","","","","",""
"869","","f","psychophysics","73","261531","0.0-7.0-3.0-0.59","7","7","7","7","7","5","5","5","5","5","5","2","1","2","2","2","2","2","2","5","5","5","5","5","5","5","5","5","5","8","8","7","8","7","8","8","9","8","7","7","7","7","7","7","7","1","7","7","1","7","6","7","7","7","7","7","7","6","7","7","7","7","7","7","7","7","7","7","7","7","7","7","7","7","7","7","7","6","7","634716408718032896","刘","591","Male","[""好他"",""坏我"",""坏他"",""好我""]","[""强他"",""弱我"",""弱他"",""强我""]","","","","","","","","no","","","","","","","","","SRET","EW_formal","","key","f","16.65405405405437","768","428","朋友","窝囊","Negative","ability","","","","","","","","","","",""
"684","","j","psychophysics","74","263216","0.0-7.0-3.0-0.60","7","7","7","7","7","5","5","5","5","5","5","2","1","2","2","2","2","2","2","5","5","5","5","5","5","5","5","5","5","8","8","7","8","7","8","8","9","8","7","7","7","7","7","7","7","1","7","7","1","7","6","7","7","7","7","7","7","6","7","7","7","7","7","7","7","7","7","7","7","7","7","7","7","7","7","7","7","6","7","634716408718032896","刘","591","Male","[""好他"",""坏我"",""坏他"",""好我""]","[""强他"",""弱我"",""弱他"",""强我""]","","","","","","","","yes","","","","","","","","","SRET","EW_formal","","key","j","16.651485148514737","768","428","朋友","肯干","Positive","ability","","","","","","","","","","",""
"974","","f","psychophysics","75","265192","0.0-7.0-3.0-0.61","7","7","7","7","7","5","5","5","5","5","5","2","1","2","2","2","2","2","2","5","5","5","5","5","5","5","5","5","5","8","8","7","8","7","8","8","9","8","7","7","7","7","7","7","7","1","7","7","1","7","6","7","7","7","7","7","7","6","7","7","7","7","7","7","7","7","7","7","7","7","7","7","7","7","7","7","7","6","7","634716408718032896","刘","591","Male","[""好他"",""坏我"",""坏他"",""好我""]","[""强他"",""弱我"",""弱他"",""强我""]","","","","","","","","no","","","","","","","","","SRET","EW_formal","","key","f","16.64786324786315","768","428","自己","淡泊","Positive","morality","","","","","","","","","","",""
"755","","f","psychophysics","76","266947","0.0-7.0-3.0-0.62","7","7","7","7","7","5","5","5","5","5","5","2","1","2","2","2","2","2","2","5","5","5","5","5","5","5","5","5","5","8","8","7","8","7","8","8","9","8","7","7","7","7","7","7","7","1","7","7","1","7","6","7","7","7","7","7","7","6","7","7","7","7","7","7","7","7","7","7","7","7","7","7","7","7","7","7","7","6","7","634716408718032896","刘","591","Male","[""好他"",""坏我"",""坏他"",""好我""]","[""强他"",""弱我"",""弱他"",""强我""]","","","","","","","","no","","","","","","","","","SRET","EW_formal","","key","f","16.65142857142879","768","428","朋友","黑心","Negative","morality","","","","","","","","","","",""
"919","","j","psychophysics","77","268867","0.0-7.0-3.0-0.63","7","7","7","7","7","5","5","5","5","5","5","2","1","2","2","2","2","2","2","5","5","5","5","5","5","5","5","5","5","8","8","7","8","7","8","8","9","8","7","7","7","7","7","7","7","1","7","7","1","7","6","7","7","7","7","7","7","6","7","7","7","7","7","7","7","7","7","7","7","7","7","7","7","7","7","7","7","6","7","634716408718032896","刘","591","Male","[""好他"",""坏我"",""坏他"",""好我""]","[""强他"",""弱我"",""弱他"",""强我""]","","","","","","","","yes","","","","","","","","","SRET","EW_formal","","key","j","16.65438596491259","768","428","自己","利落","Positive","ability","","","","","","","","","","",""
"830","","f","psychophysics","78","270698","0.0-7.0-3.0-0.64","7","7","7","7","7","5","5","5","5","5","5","2","1","2","2","2","2","2","2","5","5","5","5","5","5","5","5","5","5","8","8","7","8","7","8","8","9","8","7","7","7","7","7","7","7","1","7","7","1","7","6","7","7","7","7","7","7","6","7","7","7","7","7","7","7","7","7","7","7","7","7","7","7","7","7","7","7","6","7","634716408718032896","刘","591","Male","[""好他"",""坏我"",""坏他"",""好我""]","[""强他"",""弱我"",""弱他"",""强我""]","","","","","","","","no","","","","","","","","","SRET","EW_formal","","key","f","16.648623853211117","768","428","自己","不孝","Negative","morality","","","","","","","","","","",""
"994","","f","psychophysics","79","272693","0.0-7.0-3.0-0.65","7","7","7","7","7","5","5","5","5","5","5","2","1","2","2","2","2","2","2","5","5","5","5","5","5","5","5","5","5","8","8","7","8","7","8","8","9","8","7","7","7","7","7","7","7","1","7","7","1","7","6","7","7","7","7","7","7","6","7","7","7","7","7","7","7","7","7","7","7","7","7","7","7","7","7","7","7","6","7","634716408718032896","刘","591","Male","[""好他"",""坏我"",""坏他"",""好我""]","[""强他"",""弱我"",""弱他"",""强我""]","","","","","","","","no","","","","","","","","","SRET","EW_formal","","key","f","16.65126050420168","768","428","朋友","差生","Negative","ability","","","","","","","","","","",""
"1054","","f","psychophysics","80","274748","0.0-7.0-3.0-0.66","7","7","7","7","7","5","5","5","5","5","5","2","1","2","2","2","2","2","2","5","5","5","5","5","5","5","5","5","5","8","8","7","8","7","8","8","9","8","7","7","7","7","7","7","7","1","7","7","1","7","6","7","7","7","7","7","7","6","7","7","7","7","7","7","7","7","7","7","7","7","7","7","7","7","7","7","7","6","7","634716408718032896","刘","591","Male","[""好他"",""坏我"",""坏他"",""好我""]","[""强他"",""弱我"",""弱他"",""强我""]","","","","","","","","no","","","","","","","","","SRET","EW_formal","","key","f","16.64344262295082","768","428","自己","狡诈","Negative","morality","","","","","","","","","","",""
"798","","j","psychophysics","81","276548","0.0-7.0-3.0-0.67","7","7","7","7","7","5","5","5","5","5","5","2","1","2","2","2","2","2","2","5","5","5","5","5","5","5","5","5","5","8","8","7","8","7","8","8","9","8","7","7","7","7","7","7","7","1","7","7","1","7","6","7","7","7","7","7","7","6","7","7","7","7","7","7","7","7","7","7","7","7","7","7","7","7","7","7","7","6","7","634716408718032896","刘","591","Male","[""好他"",""坏我"",""坏他"",""好我""]","[""强他"",""弱我"",""弱他"",""强我""]","","","","","","","","yes","","","","","","","","","SRET","EW_formal","","key","j","16.65514018691567","768","428","自己","谦逊","Positive","morality","","","","","","","","","","",""
"690","","j","psychophysics","82","278239","0.0-7.0-3.0-0.68","7","7","7","7","7","5","5","5","5","5","5","2","1","2","2","2","2","2","2","5","5","5","5","5","5","5","5","5","5","8","8","7","8","7","8","8","9","8","7","7","7","7","7","7","7","1","7","7","1","7","6","7","7","7","7","7","7","6","7","7","7","7","7","7","7","7","7","7","7","7","7","7","7","7","7","7","7","6","7","634716408718032896","刘","591","Male","[""好他"",""坏我"",""坏他"",""好我""]","[""强他"",""弱我"",""弱他"",""强我""]","","","","","","","","yes","","","","","","","","","SRET","EW_formal","","key","j","16.653465346534652","768","428","自己","精干","Positive","ability","","","","","","","","","","",""
"886","","j","psychophysics","83","280126","0.0-7.0-3.0-0.69","7","7","7","7","7","5","5","5","5","5","5","2","1","2","2","2","2","2","2","5","5","5","5","5","5","5","5","5","5","8","8","7","8","7","8","8","9","8","7","7","7","7","7","7","7","1","7","7","1","7","6","7","7","7","7","7","7","6","7","7","7","7","7","7","7","7","7","7","7","7","7","7","7","7","7","7","7","6","7","634716408718032896","刘","591","Male","[""好他"",""坏我"",""坏他"",""好我""]","[""强他"",""弱我"",""弱他"",""强我""]","","","","","","","","yes","","","","","","","","","SRET","EW_formal","","key","j","16.652678571428364","768","428","自己","顶事","Positive","ability","","","","","","","","","","",""
"1272","","f","psychophysics","84","282400","0.0-7.0-3.0-0.70","7","7","7","7","7","5","5","5","5","5","5","2","1","2","2","2","2","2","2","5","5","5","5","5","5","5","5","5","5","8","8","7","8","7","8","8","9","8","7","7","7","7","7","7","7","1","7","7","1","7","6","7","7","7","7","7","7","6","7","7","7","7","7","7","7","7","7","7","7","7","7","7","7","7","7","7","7","6","7","634716408718032896","刘","591","Male","[""好他"",""坏我"",""坏他"",""好我""]","[""强他"",""弱我"",""弱他"",""强我""]","","","","","","","","no","","","","","","","","","SRET","EW_formal","","key","f","16.6522058823526","768","428","自己","昏庸","Negative","ability","","","","","","","","","","",""
"1048","","f","psychophysics","85","284449","0.0-7.0-3.0-0.71","7","7","7","7","7","5","5","5","5","5","5","2","1","2","2","2","2","2","2","5","5","5","5","5","5","5","5","5","5","8","8","7","8","7","8","8","9","8","7","7","7","7","7","7","7","1","7","7","1","7","6","7","7","7","7","7","7","6","7","7","7","7","7","7","7","7","7","7","7","7","7","7","7","7","7","7","7","6","7","634716408718032896","刘","591","Male","[""好他"",""坏我"",""坏他"",""好我""]","[""强他"",""弱我"",""弱他"",""强我""]","","","","","","","","no","","","","","","","","","SRET","EW_formal","","key","f","16.651639344262296","768","428","朋友","下流","Negative","morality","","","","","","","","","","",""
"784","","j","psychophysics","86","286235","0.0-7.0-3.0-0.72","7","7","7","7","7","5","5","5","5","5","5","2","1","2","2","2","2","2","2","5","5","5","5","5","5","5","5","5","5","8","8","7","8","7","8","8","9","8","7","7","7","7","7","7","7","1","7","7","1","7","6","7","7","7","7","7","7","6","7","7","7","7","7","7","7","7","7","7","7","7","7","7","7","7","7","7","7","6","7","634716408718032896","刘","591","Male","[""好他"",""坏我"",""坏他"",""好我""]","[""强他"",""弱我"",""弱他"",""强我""]","","","","","","","","yes","","","","","","","","","SRET","EW_formal","","key","j","16.650943396226417","768","428","朋友","守时","Positive","morality","","","","","","","","","","",""
"839","","f","psychophysics","87","288075","0.0-7.0-3.0-0.73","7","7","7","7","7","5","5","5","5","5","5","2","1","2","2","2","2","2","2","5","5","5","5","5","5","5","5","5","5","8","8","7","8","7","8","8","9","8","7","7","7","7","7","7","7","1","7","7","1","7","6","7","7","7","7","7","7","6","7","7","7","7","7","7","7","7","7","7","7","7","7","7","7","7","7","7","7","6","7","634716408718032896","刘","591","Male","[""好他"",""坏我"",""坏他"",""好我""]","[""强他"",""弱我"",""弱他"",""强我""]","","","","","","","","no","","","","","","","","","SRET","EW_formal","","key","f","16.648181818181712","768","428","朋友","龌龊","Negative","morality","","","","","","","","","","",""
"955","","j","psychophysics","88","290031","0.0-7.0-3.0-0.74","7","7","7","7","7","5","5","5","5","5","5","2","1","2","2","2","2","2","2","5","5","5","5","5","5","5","5","5","5","8","8","7","8","7","8","8","9","8","7","7","7","7","7","7","7","1","7","7","1","7","6","7","7","7","7","7","7","6","7","7","7","7","7","7","7","7","7","7","7","7","7","7","7","7","7","7","7","6","7","634716408718032896","刘","591","Male","[""好他"",""坏我"",""坏他"",""好我""]","[""强他"",""弱我"",""弱他"",""强我""]","","","","","","","","yes","","","","","","","","","SRET","EW_formal","","key","j","16.650862068965516","768","428","朋友","娴熟","Positive","ability","","","","","","","","","","",""
"818","","f","psychophysics","89","291851","0.0-7.0-3.0-0.75","7","7","7","7","7","5","5","5","5","5","5","2","1","2","2","2","2","2","2","5","5","5","5","5","5","5","5","5","5","8","8","7","8","7","8","8","9","8","7","7","7","7","7","7","7","1","7","7","1","7","6","7","7","7","7","7","7","6","7","7","7","7","7","7","7","7","7","7","7","7","7","7","7","7","7","7","7","6","7","634716408718032896","刘","591","Male","[""好他"",""坏我"",""坏他"",""好我""]","[""强他"",""弱我"",""弱他"",""强我""]","","","","","","","","no","","","","","","","","","SRET","EW_formal","","key","f","16.65185185185207","768","428","朋友","小人","Negative","morality","","","","","","","","","","",""
"734","","j","psychophysics","90","293586","0.0-7.0-3.0-0.76","7","7","7","7","7","5","5","5","5","5","5","2","1","2","2","2","2","2","2","5","5","5","5","5","5","5","5","5","5","8","8","7","8","7","8","8","9","8","7","7","7","7","7","7","7","1","7","7","1","7","6","7","7","7","7","7","7","6","7","7","7","7","7","7","7","7","7","7","7","7","7","7","7","7","7","7","7","6","7","634716408718032896","刘","591","Male","[""好他"",""坏我"",""坏他"",""好我""]","[""强他"",""弱我"",""弱他"",""强我""]","","","","","","","","yes","","","","","","","","","SRET","EW_formal","","key","j","16.650000000000336","768","428","朋友","高明","Positive","ability","","","","","","","","","","",""
"974","","f","psychophysics","91","295562","0.0-7.0-3.0-0.77","7","7","7","7","7","5","5","5","5","5","5","2","1","2","2","2","2","2","2","5","5","5","5","5","5","5","5","5","5","8","8","7","8","7","8","8","9","8","7","7","7","7","7","7","7","1","7","7","1","7","6","7","7","7","7","7","7","6","7","7","7","7","7","7","7","7","7","7","7","7","7","7","7","7","7","7","7","6","7","634716408718032896","刘","591","Male","[""好他"",""坏我"",""坏他"",""好我""]","[""强他"",""弱我"",""弱他"",""强我""]","","","","","","","","no","","","","","","","","","SRET","EW_formal","","key","f","16.64957264957265","768","428","自己","刻薄","Negative","morality","","","","","","","","","","",""
"764","","f","psychophysics","92","297327","0.0-7.0-3.0-0.78","7","7","7","7","7","5","5","5","5","5","5","2","1","2","2","2","2","2","2","5","5","5","5","5","5","5","5","5","5","8","8","7","8","7","8","8","9","8","7","7","7","7","7","7","7","1","7","7","1","7","6","7","7","7","7","7","7","6","7","7","7","7","7","7","7","7","7","7","7","7","7","7","7","7","7","7","7","6","7","634716408718032896","刘","591","Male","[""好他"",""坏我"",""坏他"",""好我""]","[""强他"",""弱我"",""弱他"",""强我""]","","","","","","","","no","","","","","","","","","SRET","EW_formal","","key","f","16.65142857142879","768","428","自己","弱智","Negative","ability","","","","","","","","","","",""
"794","","f","psychophysics","93","299123","0.0-7.0-3.0-0.79","7","7","7","7","7","5","5","5","5","5","5","2","1","2","2","2","2","2","2","5","5","5","5","5","5","5","5","5","5","8","8","7","8","7","8","8","9","8","7","7","7","7","7","7","7","1","7","7","1","7","6","7","7","7","7","7","7","6","7","7","7","7","7","7","7","7","7","7","7","7","7","7","7","7","7","7","7","6","7","634716408718032896","刘","591","Male","[""好他"",""坏我"",""坏他"",""好我""]","[""强他"",""弱我"",""弱他"",""强我""]","","","","","","","","no","","","","","","","","","SRET","EW_formal","","key","f","16.65233644859802","768","428","朋友","浅薄","Negative","ability","","","","","","","","","","",""
"1218","","f","psychophysics","94","301343","0.0-7.0-3.0-0.80","7","7","7","7","7","5","5","5","5","5","5","2","1","2","2","2","2","2","2","5","5","5","5","5","5","5","5","5","5","8","8","7","8","7","8","8","9","8","7","7","7","7","7","7","7","1","7","7","1","7","6","7","7","7","7","7","7","6","7","7","7","7","7","7","7","7","7","7","7","7","7","7","7","7","7","7","7","6","7","634716408718032896","刘","591","Male","[""好他"",""坏我"",""坏他"",""好我""]","[""强他"",""弱我"",""弱他"",""强我""]","","","","","","","","no","","","","","","","","","SRET","EW_formal","","key","f","16.649999999999913","768","428","自己","犹豫","Negative","ability","","","","","","","","","","",""
"805","","f","psychophysics","95","303148","0.0-7.0-3.0-0.81","7","7","7","7","7","5","5","5","5","5","5","2","1","2","2","2","2","2","2","5","5","5","5","5","5","5","5","5","5","8","8","7","8","7","8","8","9","8","7","7","7","7","7","7","7","1","7","7","1","7","6","7","7","7","7","7","7","6","7","7","7","7","7","7","7","7","7","7","7","7","7","7","7","7","7","7","7","6","7","634716408718032896","刘","591","Male","[""好他"",""坏我"",""坏他"",""好我""]","[""强他"",""弱我"",""弱他"",""强我""]","","","","","","","","no","","","","","","","","","SRET","EW_formal","","key","f","16.65277777777778","768","428","朋友","畏难","Negative","ability","","","","","","","","","","",""
"1059","","f","psychophysics","96","305208","0.0-7.0-3.0-0.82","7","7","7","7","7","5","5","5","5","5","5","2","1","2","2","2","2","2","2","5","5","5","5","5","5","5","5","5","5","8","8","7","8","7","8","8","9","8","7","7","7","7","7","7","7","1","7","7","1","7","6","7","7","7","7","7","7","6","7","7","7","7","7","7","7","7","7","7","7","7","7","7","7","7","7","7","7","6","7","634716408718032896","刘","591","Male","[""好他"",""坏我"",""坏他"",""好我""]","[""强他"",""弱我"",""弱他"",""强我""]","","","","","","","","no","","","","","","","","","SRET","EW_formal","","key","f","16.652845528455188","768","428","自己","短视","Negative","ability","","","","","","","","","","",""
"855","","f","psychophysics","97","307064","0.0-7.0-3.0-0.83","7","7","7","7","7","5","5","5","5","5","5","2","1","2","2","2","2","2","2","5","5","5","5","5","5","5","5","5","5","8","8","7","8","7","8","8","9","8","7","7","7","7","7","7","7","1","7","7","1","7","6","7","7","7","7","7","7","6","7","7","7","7","7","7","7","7","7","7","7","7","7","7","7","7","7","7","7","6","7","634716408718032896","刘","591","Male","[""好他"",""坏我"",""坏他"",""好我""]","[""强他"",""弱我"",""弱他"",""强我""]","","","","","","","","no","","","","","","","","","SRET","EW_formal","","key","f","16.65","768","428","自己","蛇蝎","Negative","morality","","","","","","","","","","",""
"765","","j","psychophysics","98","308829","0.0-7.0-3.0-0.84","7","7","7","7","7","5","5","5","5","5","5","2","1","2","2","2","2","2","2","5","5","5","5","5","5","5","5","5","5","8","8","7","8","7","8","8","9","8","7","7","7","7","7","7","7","1","7","7","1","7","6","7","7","7","7","7","7","6","7","7","7","7","7","7","7","7","7","7","7","7","7","7","7","7","7","7","7","6","7","634716408718032896","刘","591","Male","[""好他"",""坏我"",""坏他"",""好我""]","[""强他"",""弱我"",""弱他"",""强我""]","","","","","","","","yes","","","","","","","","","SRET","EW_formal","","key","j","16.655238095237983","768","428","自己","主见","Positive","ability","","","","","","","","","","",""
"1056","","f","psychophysics","99","310887","0.0-7.0-3.0-0.85","7","7","7","7","7","5","5","5","5","5","5","2","1","2","2","2","2","2","2","5","5","5","5","5","5","5","5","5","5","8","8","7","8","7","8","8","9","8","7","7","7","7","7","7","7","1","7","7","1","7","6","7","7","7","7","7","7","6","7","7","7","7","7","7","7","7","7","7","7","7","7","7","7","7","7","7","7","6","7","634716408718032896","刘","591","Male","[""好他"",""坏我"",""坏他"",""好我""]","[""强他"",""弱我"",""弱他"",""强我""]","","","","","","","","no","","","","","","","","","SRET","EW_formal","","key","f","16.652845528455188","768","428","自己","缓慢","Negative","ability","","","","","","","","","","",""
"836","","j","psychophysics","100","312725","0.0-7.0-3.0-0.86","7","7","7","7","7","5","5","5","5","5","5","2","1","2","2","2","2","2","2","5","5","5","5","5","5","5","5","5","5","8","8","7","8","7","8","8","9","8","7","7","7","7","7","7","7","1","7","7","1","7","6","7","7","7","7","7","7","6","7","7","7","7","7","7","7","7","7","7","7","7","7","7","7","7","7","7","7","6","7","634716408718032896","刘","591","Male","[""好他"",""坏我"",""坏他"",""好我""]","[""强他"",""弱我"",""弱他"",""强我""]","","","","","","","","yes","","","","","","","","","SRET","EW_formal","","key","j","16.650458715596542","768","428","朋友","素养","Positive","morality","","","","","","","","","","",""
"805","","f","psychophysics","101","314531","0.0-7.0-3.0-0.87","7","7","7","7","7","5","5","5","5","5","5","2","1","2","2","2","2","2","2","5","5","5","5","5","5","5","5","5","5","8","8","7","8","7","8","8","9","8","7","7","7","7","7","7","7","1","7","7","1","7","6","7","7","7","7","7","7","6","7","7","7","7","7","7","7","7","7","7","7","7","7","7","7","7","7","7","7","6","7","634716408718032896","刘","591","Male","[""好他"",""坏我"",""坏他"",""好我""]","[""强他"",""弱我"",""弱他"",""强我""]","","","","","","","","no","","","","","","","","","SRET","EW_formal","","key","f","16.65140186915899","768","428","朋友","低俗","Negative","morality","","","","","","","","","","",""
"72594","
    <p><div style='color:white;font-size:35px; line-height:20px;'>计算任务</div></p><br>
    <p><div style='color:red;font-size:25px; line-height:20px;'>接下来，您将看到一些四则运算题，<b>请从键盘选择 0-9 进行反应。</b></div></p>
    <p><div style='color:red;font-size:25px; line-height:20px;'>请尽可能快地进行计算，计算的速度和正确率将影响报酬的发放。</div></p>
    <p><div class='footer' style='color:white;font-size:25px; line-height:20px;'>如果对本实验还有不清楚之处，请立即向实验员咨询。</p><p style='color:white;font-size:25px; line-height:20px;'>如果您明白了规则：</p><p style='color:white;font-size:22px; line-height:20px;'>请按 继续 进入练习</p>
    </div>
    ","0","html-button-response","102","387126","0.0-7.0-4.0","7","7","7","7","7","5","5","5","5","5","5","2","1","2","2","2","2","2","2","5","5","5","5","5","5","5","5","5","5","8","8","7","8","7","8","8","9","8","7","7","7","7","7","7","7","1","7","7","1","7","6","7","7","7","7","7","7","6","7","7","7","7","7","7","7","7","7","7","7","7","7","7","7","7","7","7","7","6","7","634716408718032896","刘","591","Male","[""好他"",""坏我"",""坏他"",""好我""]","[""强他"",""弱我"",""弱他"",""强我""]","","","","","","","","","","","","","","","","","SRET_math","math_instructions","Tue Jan 30 2024 13:23:38 GMT+0800 (中国标准时间)","","","","","","","","","","","","","","","","","","","",""
"2063","","8","psychophysics","103","389191","0.0-7.0-5.0-0.0","7","7","7","7","7","5","5","5","5","5","5","2","1","2","2","2","2","2","2","5","5","5","5","5","5","5","5","5","5","8","8","7","8","7","8","8","9","8","7","7","7","7","7","7","7","1","7","7","1","7","6","7","7","7","7","7","7","6","7","7","7","7","7","7","7","7","7","7","7","7","7","7","7","7","7","7","7","6","7","634716408718032896","刘","591","Male","[""好他"",""坏我"",""坏他"",""好我""]","[""强他"",""弱我"",""弱他"",""强我""]","","","","","","","","8","","","","","","","","","SRET","SRET_math_calculate","","key","8","16.64677419354848","768","428","","","","","32-23= ?","9","0","","","","","","","",""
"3087","","9","psychophysics","104","392279","0.0-7.0-5.0-0.1","7","7","7","7","7","5","5","5","5","5","5","2","1","2","2","2","2","2","2","5","5","5","5","5","5","5","5","5","5","8","8","7","8","7","8","8","9","8","7","7","7","7","7","7","7","1","7","7","1","7","6","7","7","7","7","7","7","6","7","7","7","7","7","7","7","7","7","7","7","7","7","7","7","7","7","7","7","6","7","634716408718032896","刘","591","Male","[""好他"",""坏我"",""坏他"",""好我""]","[""强他"",""弱我"",""弱他"",""强我""]","","","","","","","","9","","","","","","","","","SRET","SRET_math_calculate","","key","9","16.65135135135135","768","428","","","","","43-34= ?","9","1","","","","","","","",""
"1690","","4","psychophysics","105","393970","0.0-7.0-5.0-0.2","7","7","7","7","7","5","5","5","5","5","5","2","1","2","2","2","2","2","2","5","5","5","5","5","5","5","5","5","5","8","8","7","8","7","8","8","9","8","7","7","7","7","7","7","7","1","7","7","1","7","6","7","7","7","7","7","7","6","7","7","7","7","7","7","7","7","7","7","7","7","7","7","7","7","7","7","7","6","7","634716408718032896","刘","591","Male","[""好他"",""坏我"",""坏他"",""好我""]","[""强他"",""弱我"",""弱他"",""强我""]","","","","","","","","4","","","","","","","","","SRET","SRET_math_calculate","","key","4","16.655","768","428","","","","","9-5= ?","4","1","","","","","","","",""
"1894","","3","psychophysics","106","395865","0.0-7.0-5.0-0.3","7","7","7","7","7","5","5","5","5","5","5","2","1","2","2","2","2","2","2","5","5","5","5","5","5","5","5","5","5","8","8","7","8","7","8","8","9","8","7","7","7","7","7","7","7","1","7","7","1","7","6","7","7","7","7","7","7","6","7","7","7","7","7","7","7","7","7","7","7","7","7","7","7","7","7","7","7","6","7","634716408718032896","刘","591","Male","[""好他"",""坏我"",""坏他"",""好我""]","[""强他"",""弱我"",""弱他"",""强我""]","","","","","","","","3","","","","","","","","","SRET","SRET_math_calculate","","key","3","16.652212389380633","768","428","","","","","12/4= ?","3","1","","","","","","","",""
"1806","","8","psychophysics","107","397672","0.0-7.0-5.0-0.4","7","7","7","7","7","5","5","5","5","5","5","2","1","2","2","2","2","2","2","5","5","5","5","5","5","5","5","5","5","8","8","7","8","7","8","8","9","8","7","7","7","7","7","7","7","1","7","7","1","7","6","7","7","7","7","7","7","6","7","7","7","7","7","7","7","7","7","7","7","7","7","7","7","7","7","7","7","6","7","634716408718032896","刘","591","Male","[""好他"",""坏我"",""坏他"",""好我""]","[""强他"",""弱我"",""弱他"",""强我""]","","","","","","","","8","","","","","","","","","SRET","SRET_math_calculate","","key","8","16.65648148148116","768","428","","","","","8*1= ?","8","1","","","","","","","",""
"1779","","2","psychophysics","108","399452","0.0-7.0-5.0-0.5","7","7","7","7","7","5","5","5","5","5","5","2","1","2","2","2","2","2","2","5","5","5","5","5","5","5","5","5","5","8","8","7","8","7","8","8","9","8","7","7","7","7","7","7","7","1","7","7","1","7","6","7","7","7","7","7","7","6","7","7","7","7","7","7","7","7","7","7","7","7","7","7","7","7","7","7","7","6","7","634716408718032896","刘","591","Male","[""好他"",""坏我"",""坏他"",""好我""]","[""强他"",""弱我"",""弱他"",""强我""]","","","","","","","","2","","","","","","","","","SRET","SRET_math_calculate","","key","2","16.654285714285827","768","428","","","","","5-3= ?","2","1","","","","","","","",""
"1664","","3","psychophysics","109","401118","0.0-7.0-5.0-0.6","7","7","7","7","7","5","5","5","5","5","5","2","1","2","2","2","2","2","2","5","5","5","5","5","5","5","5","5","5","8","8","7","8","7","8","8","9","8","7","7","7","7","7","7","7","1","7","7","1","7","6","7","7","7","7","7","7","6","7","7","7","7","7","7","7","7","7","7","7","7","7","7","7","7","7","7","7","6","7","634716408718032896","刘","591","Male","[""好他"",""坏我"",""坏他"",""好我""]","[""强他"",""弱我"",""弱他"",""强我""]","","","","","","","","3","","","","","","","","","SRET","SRET_math_calculate","","key","3","16.65099999999977","768","428","","","","","1+2= ?","3","1","","","","","","","",""
"2049","","7","psychophysics","110","403168","0.0-7.0-5.0-0.7","7","7","7","7","7","5","5","5","5","5","5","2","1","2","2","2","2","2","2","5","5","5","5","5","5","5","5","5","5","8","8","7","8","7","8","8","9","8","7","7","7","7","7","7","7","1","7","7","1","7","6","7","7","7","7","7","7","6","7","7","7","7","7","7","7","7","7","7","7","7","7","7","7","7","7","7","7","6","7","634716408718032896","刘","591","Male","[""好他"",""坏我"",""坏他"",""好我""]","[""强他"",""弱我"",""弱他"",""强我""]","","","","","","","","7","","","","","","","","","SRET","SRET_math_calculate","","key","7","16.65245901639325","768","428","","","","","11-4= ?","7","1","","","","","","","",""
"1765","","4","psychophysics","111","404934","0.0-7.0-5.0-0.8","7","7","7","7","7","5","5","5","5","5","5","2","1","2","2","2","2","2","2","5","5","5","5","5","5","5","5","5","5","8","8","7","8","7","8","8","9","8","7","7","7","7","7","7","7","1","7","7","1","7","6","7","7","7","7","7","7","6","7","7","7","7","7","7","7","7","7","7","7","7","7","7","7","7","7","7","7","6","7","634716408718032896","刘","591","Male","[""好他"",""坏我"",""坏他"",""好我""]","[""强他"",""弱我"",""弱他"",""强我""]","","","","","","","","4","","","","","","","","","SRET","SRET_math_calculate","","key","4","16.650476190476635","768","428","","","","","13-9= ?","4","1","","","","","","","",""
"1861","","8","psychophysics","112","406799","0.0-7.0-5.0-0.9","7","7","7","7","7","5","5","5","5","5","5","2","1","2","2","2","2","2","2","5","5","5","5","5","5","5","5","5","5","8","8","7","8","7","8","8","9","8","7","7","7","7","7","7","7","1","7","7","1","7","6","7","7","7","7","7","7","6","7","7","7","7","7","7","7","7","7","7","7","7","7","7","7","7","7","7","7","6","7","634716408718032896","刘","591","Male","[""好他"",""坏我"",""坏他"",""好我""]","[""强他"",""弱我"",""弱他"",""强我""]","","","","","","","","8","","","","","","","","","SRET","SRET_math_calculate","","key","8","16.64864864864865","768","428","","","","","56/7= ?","8","1","","","","","","","",""
"1705","","5","psychophysics","113","408505","0.0-7.0-5.0-0.10","7","7","7","7","7","5","5","5","5","5","5","2","1","2","2","2","2","2","2","5","5","5","5","5","5","5","5","5","5","8","8","7","8","7","8","8","9","8","7","7","7","7","7","7","7","1","7","7","1","7","6","7","7","7","7","7","7","6","7","7","7","7","7","7","7","7","7","7","7","7","7","7","7","7","7","7","7","6","7","634716408718032896","刘","591","Male","[""好他"",""坏我"",""坏他"",""好我""]","[""强他"",""弱我"",""弱他"",""强我""]","","","","","","","","5","","","","","","","","","SRET","SRET_math_calculate","","key","5","16.64653465346523","768","428","","","","","10-5= ?","5","1","","","","","","","",""
"1870","","0","psychophysics","114","410376","0.0-7.0-5.0-0.11","7","7","7","7","7","5","5","5","5","5","5","2","1","2","2","2","2","2","2","5","5","5","5","5","5","5","5","5","5","8","8","7","8","7","8","8","9","8","7","7","7","7","7","7","7","1","7","7","1","7","6","7","7","7","7","7","7","6","7","7","7","7","7","7","7","7","7","7","7","7","7","7","7","7","7","7","7","6","7","634716408718032896","刘","591","Male","[""好他"",""坏我"",""坏他"",""好我""]","[""强他"",""弱我"",""弱他"",""强我""]","","","","","","","","0","","","","","","","","","SRET","SRET_math_calculate","","key","0","16.650892857142544","768","428","","","","","6*0= ?","0","1","","","","","","","",""
"1826","","6","psychophysics","115","412203","0.0-7.0-5.0-0.12","7","7","7","7","7","5","5","5","5","5","5","2","1","2","2","2","2","2","2","5","5","5","5","5","5","5","5","5","5","8","8","7","8","7","8","8","9","8","7","7","7","7","7","7","7","1","7","7","1","7","6","7","7","7","7","7","7","6","7","7","7","7","7","7","7","7","7","7","7","7","7","7","7","7","7","7","7","6","7","634716408718032896","刘","591","Male","[""好他"",""坏我"",""坏他"",""好我""]","[""强他"",""弱我"",""弱他"",""强我""]","","","","","","","","6","","","","","","","","","SRET","SRET_math_calculate","","key","6","16.65185185185207","768","428","","","","","11-5= ?","6","1","","","","","","","",""
"1936","","0","psychophysics","116","414142","0.0-7.0-5.0-0.13","7","7","7","7","7","5","5","5","5","5","5","2","1","2","2","2","2","2","2","5","5","5","5","5","5","5","5","5","5","8","8","7","8","7","8","8","9","8","7","7","7","7","7","7","7","1","7","7","1","7","6","7","7","7","7","7","7","6","7","7","7","7","7","7","7","7","7","7","7","7","7","7","7","7","7","7","7","6","7","634716408718032896","刘","591","Male","[""好他"",""坏我"",""坏他"",""好我""]","[""强他"",""弱我"",""弱他"",""强我""]","","","","","","","","0","","","","","","","","","SRET","SRET_math_calculate","","key","0","16.655172413793103","768","428","","","","","32-32= ?","0","1","","","","","","","",""
"1774","","5","psychophysics","117","415917","0.0-7.0-5.0-0.14","7","7","7","7","7","5","5","5","5","5","5","2","1","2","2","2","2","2","2","5","5","5","5","5","5","5","5","5","5","8","8","7","8","7","8","8","9","8","7","7","7","7","7","7","7","1","7","7","1","7","6","7","7","7","7","7","7","6","7","7","7","7","7","7","7","7","7","7","7","7","7","7","7","7","7","7","7","6","7","634716408718032896","刘","591","Male","[""好他"",""坏我"",""坏他"",""好我""]","[""强他"",""弱我"",""弱他"",""强我""]","","","","","","","","5","","","","","","","","","SRET","SRET_math_calculate","","key","5","16.648571428571206","768","428","","","","","8-3= ? ","5","1","","","","","","","",""
"1875","","0","psychophysics","118","417793","0.0-7.0-5.0-0.15","7","7","7","7","7","5","5","5","5","5","5","2","1","2","2","2","2","2","2","5","5","5","5","5","5","5","5","5","5","8","8","7","8","7","8","8","9","8","7","7","7","7","7","7","7","1","7","7","1","7","6","7","7","7","7","7","7","6","7","7","7","7","7","7","7","7","7","7","7","7","7","7","7","7","7","7","7","6","7","634716408718032896","刘","591","Male","[""好他"",""坏我"",""坏他"",""好我""]","[""强他"",""弱我"",""弱他"",""强我""]","","","","","","","","0","","","","","","","","","SRET","SRET_math_calculate","","key","0","16.652678571428883","768","428","","","","","9-9= ?","0","1","","","","","","","",""
"1780","","3","psychophysics","119","419574","0.0-7.0-5.0-0.16","7","7","7","7","7","5","5","5","5","5","5","2","1","2","2","2","2","2","2","5","5","5","5","5","5","5","5","5","5","8","8","7","8","7","8","8","9","8","7","7","7","7","7","7","7","1","7","7","1","7","6","7","7","7","7","7","7","6","7","7","7","7","7","7","7","7","7","7","7","7","7","7","7","7","7","7","7","6","7","634716408718032896","刘","591","Male","[""好他"",""坏我"",""坏他"",""好我""]","[""强他"",""弱我"",""弱他"",""强我""]","","","","","","","","3","","","","","","","","","SRET","SRET_math_calculate","","key","3","16.65377358490555","768","428","","","","","2+1= ?","3","1","","","","","","","",""
"1746","","1","psychophysics","120","421320","0.0-7.0-5.0-0.17","7","7","7","7","7","5","5","5","5","5","5","2","1","2","2","2","2","2","2","5","5","5","5","5","5","5","5","5","5","8","8","7","8","7","8","8","9","8","7","7","7","7","7","7","7","1","7","7","1","7","6","7","7","7","7","7","7","6","7","7","7","7","7","7","7","7","7","7","7","7","7","7","7","7","7","7","7","6","7","634716408718032896","刘","591","Male","[""好他"",""坏我"",""坏他"",""好我""]","[""强他"",""弱我"",""弱他"",""强我""]","","","","","","","","1","","","","","","","","","SRET","SRET_math_calculate","","key","1","16.651923076922966","768","428","","","","","12/12= ?","1","1","","","","","","","",""
"1765","","8","psychophysics","121","423086","0.0-7.0-5.0-0.18","7","7","7","7","7","5","5","5","5","5","5","2","1","2","2","2","2","2","2","5","5","5","5","5","5","5","5","5","5","8","8","7","8","7","8","8","9","8","7","7","7","7","7","7","7","1","7","7","1","7","6","7","7","7","7","7","7","6","7","7","7","7","7","7","7","7","7","7","7","7","7","7","7","7","7","7","7","6","7","634716408718032896","刘","591","Male","[""好他"",""坏我"",""坏他"",""好我""]","[""强他"",""弱我"",""弱他"",""强我""]","","","","","","","","8","","","","","","","","","SRET","SRET_math_calculate","","key","8","16.654285714285827","768","428","","","","","7+1= ?","8","1","","","","","","","",""
"1724","","1","psychophysics","122","424811","0.0-7.0-5.0-0.19","7","7","7","7","7","5","5","5","5","5","5","2","1","2","2","2","2","2","2","5","5","5","5","5","5","5","5","5","5","8","8","7","8","7","8","8","9","8","7","7","7","7","7","7","7","1","7","7","1","7","6","7","7","7","7","7","7","6","7","7","7","7","7","7","7","7","7","7","7","7","7","7","7","7","7","7","7","6","7","634716408718032896","刘","591","Male","[""好他"",""坏我"",""坏他"",""好我""]","[""强他"",""弱我"",""弱他"",""强我""]","","","","","","","","1","","","","","","","","","SRET","SRET_math_calculate","","key","1","16.65686274509804","768","428","","","","","9-8= ?","1","1","","","","","","","",""
"1778","","8","psychophysics","123","426591","0.0-7.0-5.0-0.20","7","7","7","7","7","5","5","5","5","5","5","2","1","2","2","2","2","2","2","5","5","5","5","5","5","5","5","5","5","8","8","7","8","7","8","8","9","8","7","7","7","7","7","7","7","1","7","7","1","7","6","7","7","7","7","7","7","6","7","7","7","7","7","7","7","7","7","7","7","7","7","7","7","7","7","7","7","6","7","634716408718032896","刘","591","Male","[""好他"",""坏我"",""坏他"",""好我""]","[""强他"",""弱我"",""弱他"",""强我""]","","","","","","","","8","","","","","","","","","SRET","SRET_math_calculate","","key","8","16.654716981132296","768","428","","","","","50-42= ?","8","1","","","","","","","",""
"1770","","2","psychophysics","124","428362","0.0-7.0-5.0-0.21","7","7","7","7","7","5","5","5","5","5","5","2","1","2","2","2","2","2","2","5","5","5","5","5","5","5","5","5","5","8","8","7","8","7","8","8","9","8","7","7","7","7","7","7","7","1","7","7","1","7","6","7","7","7","7","7","7","6","7","7","7","7","7","7","7","7","7","7","7","7","7","7","7","7","7","7","7","6","7","634716408718032896","刘","591","Male","[""好他"",""坏我"",""坏他"",""好我""]","[""强他"",""弱我"",""弱他"",""强我""]","","","","","","","","2","","","","","","","","","SRET","SRET_math_calculate","","key","2","16.65188679245261","768","428","","","","","18/9= ?","2","1","","","","","","","",""
"1750","","5","psychophysics","125","430113","0.0-7.0-5.0-0.22","7","7","7","7","7","5","5","5","5","5","5","2","1","2","2","2","2","2","2","5","5","5","5","5","5","5","5","5","5","8","8","7","8","7","8","8","9","8","7","7","7","7","7","7","7","1","7","7","1","7","6","7","7","7","7","7","7","6","7","7","7","7","7","7","7","7","7","7","7","7","7","7","7","7","7","7","7","6","7","634716408718032896","刘","591","Male","[""好他"",""坏我"",""坏他"",""好我""]","[""强他"",""弱我"",""弱他"",""强我""]","","","","","","","","5","","","","","","","","","SRET","SRET_math_calculate","","key","5","16.64903846153846","768","428","","","","","17-12= ? ","5","1","","","","","","","",""
"1650","","4","psychophysics","126","431765","0.0-7.0-5.0-0.23","7","7","7","7","7","5","5","5","5","5","5","2","1","2","2","2","2","2","2","5","5","5","5","5","5","5","5","5","5","8","8","7","8","7","8","8","9","8","7","7","7","7","7","7","7","1","7","7","1","7","6","7","7","7","7","7","7","6","7","7","7","7","7","7","7","7","7","7","7","7","7","7","7","7","7","7","7","6","7","634716408718032896","刘","591","Male","[""好他"",""坏我"",""坏他"",""好我""]","[""强他"",""弱我"",""弱他"",""强我""]","","","","","","","","4","","","","","","","","","SRET","SRET_math_calculate","","key","4","16.655102040816445","768","428","","","","","2+2= ?","4","1","","","","","","","",""
"2015","","7","psychophysics","127","433781","0.0-7.0-5.0-0.24","7","7","7","7","7","5","5","5","5","5","5","2","1","2","2","2","2","2","2","5","5","5","5","5","5","5","5","5","5","8","8","7","8","7","8","8","9","8","7","7","7","7","7","7","7","1","7","7","1","7","6","7","7","7","7","7","7","6","7","7","7","7","7","7","7","7","7","7","7","7","7","7","7","7","7","7","7","6","7","634716408718032896","刘","591","Male","[""好他"",""坏我"",""坏他"",""好我""]","[""强他"",""弱我"",""弱他"",""强我""]","","","","","","","","7","","","","","","","","","SRET","SRET_math_calculate","","key","7","16.653333333333528","768","428","","","","","49/7 = ?","7","1","","","","","","","",""
"1716","","5","psychophysics","128","435500","0.0-7.0-5.0-0.25","7","7","7","7","7","5","5","5","5","5","5","2","1","2","2","2","2","2","2","5","5","5","5","5","5","5","5","5","5","8","8","7","8","7","8","8","9","8","7","7","7","7","7","7","7","1","7","7","1","7","6","7","7","7","7","7","7","6","7","7","7","7","7","7","7","7","7","7","7","7","7","7","7","7","7","7","7","6","7","634716408718032896","刘","591","Male","[""好他"",""坏我"",""坏他"",""好我""]","[""强他"",""弱我"",""弱他"",""强我""]","","","","","","","","5","","","","","","","","","SRET","SRET_math_calculate","","key","5","16.655882352941404","768","428","","","","","9-4= ?","5","1","","","","","","","",""
"1905","","8","psychophysics","129","437406","0.0-7.0-5.0-0.26","7","7","7","7","7","5","5","5","5","5","5","2","1","2","2","2","2","2","2","5","5","5","5","5","5","5","5","5","5","8","8","7","8","7","8","8","9","8","7","7","7","7","7","7","7","1","7","7","1","7","6","7","7","7","7","7","7","6","7","7","7","7","7","7","7","7","7","7","7","7","7","7","7","7","7","7","7","6","7","634716408718032896","刘","591","Male","[""好他"",""坏我"",""坏他"",""好我""]","[""强他"",""弱我"",""弱他"",""强我""]","","","","","","","","8","","","","","","","","","SRET","SRET_math_calculate","","key","8","16.652631578947574","768","428","","","","","11-3= ?","8","1","","","","","","","",""
"1725","","7","psychophysics","130","439132","0.0-7.0-5.0-0.27","7","7","7","7","7","5","5","5","5","5","5","2","1","2","2","2","2","2","2","5","5","5","5","5","5","5","5","5","5","8","8","7","8","7","8","8","9","8","7","7","7","7","7","7","7","1","7","7","1","7","6","7","7","7","7","7","7","6","7","7","7","7","7","7","7","7","7","7","7","7","7","7","7","7","7","7","7","6","7","634716408718032896","刘","591","Male","[""好他"",""坏我"",""坏他"",""好我""]","[""强他"",""弱我"",""弱他"",""强我""]","","","","","","","","7","","","","","","","","","SRET","SRET_math_calculate","","key","7","16.64901960784325","768","428","","","","","1+6= ?","7","1","","","","","","","",""
"1789","","8","psychophysics","131","440923","0.0-7.0-5.0-0.28","7","7","7","7","7","5","5","5","5","5","5","2","1","2","2","2","2","2","2","5","5","5","5","5","5","5","5","5","5","8","8","7","8","7","8","8","9","8","7","7","7","7","7","7","7","1","7","7","1","7","6","7","7","7","7","7","7","6","7","7","7","7","7","7","7","7","7","7","7","7","7","7","7","7","7","7","7","6","7","634716408718032896","刘","591","Male","[""好他"",""坏我"",""坏他"",""好我""]","[""强他"",""弱我"",""弱他"",""强我""]","","","","","","","","8","","","","","","","","","SRET","SRET_math_calculate","","key","8","16.65046728971941","768","428","","","","","1+7= ?","8","1","","","","","","","",""
"1859","","8","psychophysics","132","442783","0.0-7.0-5.0-0.29","7","7","7","7","7","5","5","5","5","5","5","2","1","2","2","2","2","2","2","5","5","5","5","5","5","5","5","5","5","8","8","7","8","7","8","8","9","8","7","7","7","7","7","7","7","1","7","7","1","7","6","7","7","7","7","7","7","6","7","7","7","7","7","7","7","7","7","7","7","7","7","7","7","7","7","7","7","6","7","634716408718032896","刘","591","Male","[""好他"",""坏我"",""坏他"",""好我""]","[""强他"",""弱我"",""弱他"",""强我""]","","","","","","","","8","","","","","","","","","SRET","SRET_math_calculate","","key","8","16.646846846846742","768","428","","","","","72/9= ?","8","1","","","","","","","",""
"1785","","1","psychophysics","133","444569","0.0-7.0-5.0-0.30","7","7","7","7","7","5","5","5","5","5","5","2","1","2","2","2","2","2","2","5","5","5","5","5","5","5","5","5","5","8","8","7","8","7","8","8","9","8","7","7","7","7","7","7","7","1","7","7","1","7","6","7","7","7","7","7","7","6","7","7","7","7","7","7","7","7","7","7","7","7","7","7","7","7","7","7","7","6","7","634716408718032896","刘","591","Male","[""好他"",""坏我"",""坏他"",""好我""]","[""强他"",""弱我"",""弱他"",""强我""]","","","","","","","","1","","","","","","","","","SRET","SRET_math_calculate","","key","1","16.647169811320534","768","428","","","","","4/4= ?","1","1","","","","","","","",""
"1735","","8","psychophysics","134","446306","0.0-7.0-5.0-0.31","7","7","7","7","7","5","5","5","5","5","5","2","1","2","2","2","2","2","2","5","5","5","5","5","5","5","5","5","5","8","8","7","8","7","8","8","9","8","7","7","7","7","7","7","7","1","7","7","1","7","6","7","7","7","7","7","7","6","7","7","7","7","7","7","7","7","7","7","7","7","7","7","7","7","7","7","7","6","7","634716408718032896","刘","591","Male","[""好他"",""坏我"",""坏他"",""好我""]","[""强他"",""弱我"",""弱他"",""强我""]","","","","","","","","8","","","","","","","","","SRET","SRET_math_calculate","","key","8","16.648543689320274","768","428","","","","","1*8= ?","8","1","","","","","","","",""
"1876","","7","psychophysics","135","448182","0.0-7.0-5.0-0.32","7","7","7","7","7","5","5","5","5","5","5","2","1","2","2","2","2","2","2","5","5","5","5","5","5","5","5","5","5","8","8","7","8","7","8","8","9","8","7","7","7","7","7","7","7","1","7","7","1","7","6","7","7","7","7","7","7","6","7","7","7","7","7","7","7","7","7","7","7","7","7","7","7","7","7","7","7","6","7","634716408718032896","刘","591","Male","[""好他"",""坏我"",""坏他"",""好我""]","[""强他"",""弱我"",""弱他"",""强我""]","","","","","","","","7","","","","","","","","","SRET","SRET_math_calculate","","key","7","16.651785714285715","768","428","","","","","2+5= ?","7","1","","","","","","","",""
"1888","","0","psychophysics","136","450072","0.0-7.0-5.0-0.33","7","7","7","7","7","5","5","5","5","5","5","2","1","2","2","2","2","2","2","5","5","5","5","5","5","5","5","5","5","8","8","7","8","7","8","8","9","8","7","7","7","7","7","7","7","1","7","7","1","7","6","7","7","7","7","7","7","6","7","7","7","7","7","7","7","7","7","7","7","7","7","7","7","7","7","7","7","6","7","634716408718032896","刘","591","Male","[""好他"",""坏我"",""坏他"",""好我""]","[""强他"",""弱我"",""弱他"",""强我""]","","","","","","","","0","","","","","","","","","SRET","SRET_math_calculate","","key","0","16.650442477876105","768","428","","","","","5*0= ?","0","1","","","","","","","",""
"1925","","3","psychophysics","137","451999","0.0-7.0-5.0-0.34","7","7","7","7","7","5","5","5","5","5","5","2","1","2","2","2","2","2","2","5","5","5","5","5","5","5","5","5","5","8","8","7","8","7","8","8","9","8","7","7","7","7","7","7","7","1","7","7","1","7","6","7","7","7","7","7","7","6","7","7","7","7","7","7","7","7","7","7","7","7","7","7","7","7","7","7","7","6","7","634716408718032896","刘","591","Male","[""好他"",""坏我"",""坏他"",""好我""]","[""强他"",""弱我"",""弱他"",""强我""]","","","","","","","","3","","","","","","","","","SRET","SRET_math_calculate","","key","3","16.65175438596481","768","428","","","","","3+0= ?","3","1","","","","","","","",""
"1820","","2","psychophysics","138","453820","0.0-7.0-5.0-0.35","7","7","7","7","7","5","5","5","5","5","5","2","1","2","2","2","2","2","2","5","5","5","5","5","5","5","5","5","5","8","8","7","8","7","8","8","9","8","7","7","7","7","7","7","7","1","7","7","1","7","6","7","7","7","7","7","7","6","7","7","7","7","7","7","7","7","7","7","7","7","7","7","7","7","7","7","7","6","7","634716408718032896","刘","591","Male","[""好他"",""坏我"",""坏他"",""好我""]","[""强他"",""弱我"",""弱他"",""强我""]","","","","","","","","2","","","","","","","","","SRET","SRET_math_calculate","","key","2","16.65137614678899","768","428","","","","","9-7= ?","2","1","","","","","","","",""
"1797","","9","psychophysics","139","455620","0.0-7.0-5.0-0.36","7","7","7","7","7","5","5","5","5","5","5","2","1","2","2","2","2","2","2","5","5","5","5","5","5","5","5","5","5","8","8","7","8","7","8","8","9","8","7","7","7","7","7","7","7","1","7","7","1","7","6","7","7","7","7","7","7","6","7","7","7","7","7","7","7","7","7","7","7","7","7","7","7","7","7","7","7","6","7","634716408718032896","刘","591","Male","[""好他"",""坏我"",""坏他"",""好我""]","[""强他"",""弱我"",""弱他"",""强我""]","","","","","","","","9","","","","","","","","","SRET","SRET_math_calculate","","key","9","16.65046728971941","768","428","","","","","1*9= ?","9","1","","","","","","","",""
"1875","","6","psychophysics","140","457495","0.0-7.0-5.0-0.37","7","7","7","7","7","5","5","5","5","5","5","2","1","2","2","2","2","2","2","5","5","5","5","5","5","5","5","5","5","8","8","7","8","7","8","8","9","8","7","7","7","7","7","7","7","1","7","7","1","7","6","7","7","7","7","7","7","6","7","7","7","7","7","7","7","7","7","7","7","7","7","7","7","7","7","7","7","6","7","634716408718032896","刘","591","Male","[""好他"",""坏我"",""坏他"",""好我""]","[""强他"",""弱我"",""弱他"",""强我""]","","","","","","","","6","","","","","","","","","SRET","SRET_math_calculate","","key","6","16.651351351351245","768","428","","","","","4+2= ?","6","1","","","","","","","",""
"1800","","9","psychophysics","141","459296","0.0-7.0-5.0-0.38","7","7","7","7","7","5","5","5","5","5","5","2","1","2","2","2","2","2","2","5","5","5","5","5","5","5","5","5","5","8","8","7","8","7","8","8","9","8","7","7","7","7","7","7","7","1","7","7","1","7","6","7","7","7","7","7","7","6","7","7","7","7","7","7","7","7","7","7","7","7","7","7","7","7","7","7","7","6","7","634716408718032896","刘","591","Male","[""好他"",""坏我"",""坏他"",""好我""]","[""强他"",""弱我"",""弱他"",""强我""]","","","","","","","","9","","","","","","","","","SRET","SRET_math_calculate","","key","9","16.654205607476637","768","428","","","","","5+4= ?","9","1","","","","","","","",""
"1871","","6","psychophysics","142","461169","0.0-7.0-5.0-0.39","7","7","7","7","7","5","5","5","5","5","5","2","1","2","2","2","2","2","2","5","5","5","5","5","5","5","5","5","5","8","8","7","8","7","8","8","9","8","7","7","7","7","7","7","7","1","7","7","1","7","6","7","7","7","7","7","7","6","7","7","7","7","7","7","7","7","7","7","7","7","7","7","7","7","7","7","7","6","7","634716408718032896","刘","591","Male","[""好他"",""坏我"",""坏他"",""好我""]","[""强他"",""弱我"",""弱他"",""强我""]","","","","","","","","6","","","","","","","","","SRET","SRET_math_calculate","","key","6","16.65446428571418","768","428","","","","","8-2= ?","6","1","","","","","","","",""
"1727","","3","psychophysics","143","462898","0.0-7.0-5.0-0.40","7","7","7","7","7","5","5","5","5","5","5","2","1","2","2","2","2","2","2","5","5","5","5","5","5","5","5","5","5","8","8","7","8","7","8","8","9","8","7","7","7","7","7","7","7","1","7","7","1","7","6","7","7","7","7","7","7","6","7","7","7","7","7","7","7","7","7","7","7","7","7","7","7","7","7","7","7","6","7","634716408718032896","刘","591","Male","[""好他"",""坏我"",""坏他"",""好我""]","[""强他"",""弱我"",""弱他"",""强我""]","","","","","","","","3","","","","","","","","","SRET","SRET_math_calculate","","key","3","16.647572815534094","768","428","","","","","8-5= ?","3","1","","","","","","","",""
