"rt","stimulus","response","trial_type","trial_index","time_elapsed","internal_node_id","swb_1","swb_2","swb_3","swb_4","swb_5","LOT_1","LOT_2","LOT_3","LOT_4","LOT_5","LOT_6","IPC_1","IPC_2","IPC_3","IPC_4","IPC_5","IPC_6","IPC_7","IPC_8","MorIden_1","MorIden_2","MorIden_3","MorIden_4","MorIden_5","MorIden_6","MorIden_7","MorIden_8","MorIden_9","MorIden_10","moralSeImag_1","moralSeImag_2","moralSeImag_3","moralSeImag_4","moralSeImag_5","moralSeImag_6","moralSeImag_7","moralSeImag_8","moralSeImag_9","sde_1","sde_2","sde_3","sde_4","sde_5","sde_6","sde_7","sde_8","sde_9","sde_10","trap2","sde_11","sde_12","sde_13","sde_14","sde_15","sde_16","sde_17","sde_18","sde_19","sde_20","IM_1","IM_2","IM_3","IM_4","IM_5","IM_6","IM_7","IM_8","IM_9","IM_10","IM_11","IM_12","IM_13","IM_14","IM_15","IM_16","IM_17","IM_18","IM_19","IM_20","subj_idx","friend_name","ParticipantID","Sex","Word","Word2","value","success","timeout","failed_images","failed_audio","failed_video","user_agent","responses","item_order","radio_event_ids","radio_event_times","key_event_times","mouse_event_times","straightlining","zigzagging","honeypot","task_id","screen_id","time_stamp","response_type","key_press","avg_frame_time","center_x","center_y","person","word","valence","domain","math","correct_response","correct","status","view_history","identity","duration","Image","condition","question_order","trap2_item"
"7542","
   <p><div style='color:white; font-size: 25px'>您好，欢迎参加本次实验。</div></p>
   <p><div style='color:white; font-size: 25px'>为充分保障您的权利，请确保您已经知晓并同意《参与实验同意书》以及《数据公开知情同意书》。</div></p>
   <p><div style='color:white; font-size: 25px'>如果您未见过上述内容，请咨询实验员。</div></p>
   <p style='color:white; font-size: 25px'>如果您选择继续实验，则表示您已经清楚两份知情同意书的内容并同意。</p>
   <p><div style = ""color: pink;font-size:30px;"">请确保您记得day0的实验编号，您将在本次实验输入该编号，若您忘记，请咨询实验员后作答。</div></p>
   <p><div style = ""color:lightblue;font-size:25px;"">请您尽可能认真地作答，我们将依据您在各问卷和按键任务中的作答质量发放报酬。</div></p>
   <p> <div style = ""color: green""><按空格键至下页></div> </p>
   "," ","html-keyboard-response","0","7547","0.0-0.0","5","5","5","5","4","4","4","4","4","4","5","1","1","0","0","0","1","1","1","5","4","5","5","4","4","4","4","4","4","4","4","3","4","4","3","4","4","4","5","6","5","5","5","3","5","5","6","5","1","5","3","3","5","5","5","5","6","6","6","3","3","3","3","2","5","3","6","6","5","6","5","6","5","3","6","5","5","3","5","763092748139237377","李","25","Male","[""好我"",""坏我"",""坏他"",""好他""]","[""强我"",""弱我"",""弱他"",""强他""]","","","","","","","","","","","","","","","","","","","","","","","","","","","","","","","","","","","","","","",""
"","","","call-function","1","7551","0.0-1.0-0.0","5","5","5","5","4","4","4","4","4","4","5","1","1","0","0","0","1","1","1","5","4","5","5","4","4","4","4","4","4","4","4","3","4","4","3","4","4","4","5","6","5","5","5","3","5","5","6","5","1","5","3","3","5","5","5","5","6","6","6","3","3","3","3","2","5","3","6","6","5","6","5","6","5","3","6","5","5","3","5","763092748139237377","李","25","Male","[""好我"",""坏我"",""坏他"",""好他""]","[""强我"",""弱我"",""弱他"",""强他""]","","","","","","","","","","","","","","","","","","","","","","","","","","","","","","","","","","","","","","",""
"40592","","[{""name"":""Sex"",""value"":""0""},{""name"":""friend_name"",""value"":""李""},{""name"":""ParticipantID"",""value"":""25""}]","survey-html-form","2","48144","0.0-1.0-1.0","5","5","5","5","4","4","4","4","4","4","5","1","1","0","0","0","1","1","1","5","4","5","5","4","4","4","4","4","4","4","4","3","4","4","3","4","4","4","5","6","5","5","5","3","5","5","6","5","1","5","3","3","5","5","5","5","6","6","6","3","3","3","3","2","5","3","6","6","5","6","5","6","5","3","6","5","5","3","5","763092748139237377","李","25","Male","[""好我"",""坏我"",""坏他"",""好他""]","[""强我"",""弱我"",""弱他"",""强他""]","","","","","","","","","","","","","","","","","","","","","","","","","","","","","","","","","","","","","","",""
"","","","preload","3","48793","0.0-2.0","5","5","5","5","4","4","4","4","4","4","5","1","1","0","0","0","1","1","1","5","4","5","5","4","4","4","4","4","4","4","4","3","4","4","3","4","4","4","5","6","5","5","5","3","5","5","6","5","1","5","3","3","5","5","5","5","6","6","6","3","3","3","3","2","5","3","6","6","5","6","5","6","5","3","6","5","5","3","5","763092748139237377","李","25","Male","[""好我"",""坏我"",""坏他"",""好他""]","[""强我"",""弱我"",""弱他"",""强他""]","","true","false","[]","[]","[]","","","","","","","","","","","","","","","","","","","","","","","","","","","","","","","","",""
"","","","fullscreen","4","61606","0.0-3.0","5","5","5","5","4","4","4","4","4","4","5","1","1","0","0","0","1","1","1","5","4","5","5","4","4","4","4","4","4","4","4","3","4","4","3","4","4","4","5","6","5","5","5","3","5","5","6","5","1","5","3","3","5","5","5","5","6","6","6","3","3","3","3","2","5","3","6","6","5","6","5","6","5","3","6","5","5","3","5","763092748139237377","李","25","Male","[""好我"",""坏我"",""坏他"",""好他""]","[""强我"",""弱我"",""弱他"",""强他""]","","true","","","","","{}","","","","","","","","","","","","","","","","","","","","","","","","","","","","","","","",""
"23245.799999952316","","{""Q01"":""5"",""Q02"":""5"",""Q03"":""5"",""Q04"":""5"",""Q05"":""4""}","survey-template","5","84857","0.0-4.0","5","5","5","5","4","4","4","4","4","4","5","1","1","0","0","0","1","1","1","5","4","5","5","4","4","4","4","4","4","4","4","3","4","4","3","4","4","4","5","6","5","5","5","3","5","5","6","5","1","5","3","3","5","5","5","5","6","6","6","3","3","3","3","2","5","3","6","6","5","6","5","6","5","3","6","5","5","3","5","763092748139237377","李","25","Male","[""好我"",""坏我"",""坏他"",""好他""]","[""强我"",""弱我"",""弱他"",""强他""]","","","","","","","","{""Q01"":""5"",""Q02"":""5"",""Q03"":""5"",""Q04"":""5"",""Q05"":""4""}","[0,1,2,3,4]","[""Q01"",""Q02"",""Q03"",""Q04"",""Q05""]","[4926.299999952316,9024.299999952316,11413.5,15966.200000047684,21248]","[]","[4926.299999952316,9024.299999952316,11413.5,15966.200000047684,19747.700000047684,21248,23243.600000023842]","0.8","0.25","0","","","","","","","","","","","","","","","","","","","","","","",""
"16503.600000023842","","{""Q01"":""4"",""Q02"":""4"",""Q03"":""4"",""Q04"":""4"",""Q05"":""4"",""Q06"":""5""}","survey-template","6","101369","0.0-5.0","5","5","5","5","4","4","4","4","4","4","5","1","1","0","0","0","1","1","1","5","4","5","5","4","4","4","4","4","4","4","4","3","4","4","3","4","4","4","5","6","5","5","5","3","5","5","6","5","1","5","3","3","5","5","5","5","6","6","6","3","3","3","3","2","5","3","6","6","5","6","5","6","5","3","6","5","5","3","5","763092748139237377","李","25","Male","[""好我"",""坏我"",""坏他"",""好他""]","[""强我"",""弱我"",""弱他"",""强他""]","","","","","","","","{""Q01"":""4"",""Q02"":""4"",""Q03"":""4"",""Q04"":""4"",""Q05"":""4"",""Q06"":""5""}","[0,1,2,3,4,5]","[""Q01"",""Q02"",""Q03"",""Q04"",""Q05"",""Q06""]","[3480.100000023842,5938.600000023842,7713.399999976158,9614,11279.100000023842,14869]","[]","[3480.100000023842,5938.600000023842,7713.399999976158,9614,11279.100000023842,14869,16502.199999928474]","0.5","0","0","","","","","","","","","","","","","","","","","","","","","","",""
"28740.200000047684","","{""Q01"":""1"",""Q02"":""1"",""Q03"":""0"",""Q04"":""0"",""Q05"":""0"",""Q06"":""1"",""Q07"":""1"",""Q08"":""1""}","survey-template","7","130116","0.0-6.0","5","5","5","5","4","4","4","4","4","4","5","1","1","0","0","0","1","1","1","5","4","5","5","4","4","4","4","4","4","4","4","3","4","4","3","4","4","4","5","6","5","5","5","3","5","5","6","5","1","5","3","3","5","5","5","5","6","6","6","3","3","3","3","2","5","3","6","6","5","6","5","6","5","3","6","5","5","3","5","763092748139237377","李","25","Male","[""好我"",""坏我"",""坏他"",""好他""]","[""强我"",""弱我"",""弱他"",""强他""]","","","","","","","","{""Q01"":""1"",""Q02"":""1"",""Q03"":""0"",""Q04"":""0"",""Q05"":""0"",""Q06"":""1"",""Q07"":""1"",""Q08"":""1""}","[0,1,2,3,4,5,6,7]","[""Q01"",""Q02"",""Q03"",""Q04"",""Q05"",""Q06"",""Q07"",""Q08""]","[3989.5,7335.300000071526,9884.600000023842,13537.800000071526,15360.800000071526,18063.400000095367,20405,22421.300000071526]","[]","[2460.600000023842,3989.5,7335.300000071526,9884.600000023842,13537.800000071526,15360.800000071526,18063.400000095367,20405,22421.300000071526,28738]","0.625","0.2857142857142857","0","","","","","","","","","","","","","","","","","","","","","","",""
"17199","
    <p><div style='color:white;font-size:35px; line-height:20px;'>词汇评估任务</div></p><br>
    <p><div style='color:white;font-size:25px; line-height:20px;'>请再次回忆该亲密的朋友，你们至少2年前就认识了，并且最近2年经常见面。</div></p>
    <p><div style='color:white;font-size:25px; line-height:20px;'>在本实验中，您将会看到一些形容词。</div></p>
    <p><div style='color:yellow;font-size:25px; line-height:20px;'>您的任务是判断这些形容词是否符合对您自己或您的朋友的描述。</div></p><p style='font-size:35px'>符合按<span style=""color:lightgreen""> j 键</span>，不符合按<span style=""color:red""> f 键</span></p>","0","html-button-response","8","147320","0.0-7.0-0.0","5","5","5","5","4","4","4","4","4","4","5","1","1","0","0","0","1","1","1","5","4","5","5","4","4","4","4","4","4","4","4","3","4","4","3","4","4","4","5","6","5","5","5","3","5","5","6","5","1","5","3","3","5","5","5","5","6","6","6","3","3","3","3","2","5","3","6","6","5","6","5","6","5","3","6","5","5","3","5","763092748139237377","李","25","Male","[""好我"",""坏我"",""坏他"",""好他""]","[""强我"",""弱我"",""弱他"",""强他""]","","","","","","","","","","","","","","","","","SRET_EW","EW_instructions","Mon Jan 29 2024 16:25:34 GMT+0800 (中国标准时间)","","","","","","","","","","","","","","","","","","","",""
"699","","f","psychophysics","9","149028","0.0-7.0-1.0-0.0","5","5","5","5","4","4","4","4","4","4","5","1","1","0","0","0","1","1","1","5","4","5","5","4","4","4","4","4","4","4","4","3","4","4","3","4","4","4","5","6","5","5","5","3","5","5","6","5","1","5","3","3","5","5","5","5","6","6","6","3","3","3","3","2","5","3","6","6","5","6","5","6","5","3","6","5","5","3","5","763092748139237377","李","25","Male","[""好我"",""坏我"",""坏他"",""好他""]","[""强我"",""弱我"",""弱他"",""强他""]","","","","","","","","no","","","","","","","","","SRET_EW","EW_practice","","key","f","17.12404999999999","630","416","朋友","忠实","Positive","morality","","","","","","","","","","",""
"746","","j","psychophysics","10","150777","0.0-7.0-1.0-0.1","5","5","5","5","4","4","4","4","4","4","5","1","1","0","0","0","1","1","1","5","4","5","5","4","4","4","4","4","4","4","4","3","4","4","3","4","4","4","5","6","5","5","5","3","5","5","6","5","1","5","3","3","5","5","5","5","6","6","6","3","3","3","3","2","5","3","6","6","5","6","5","6","5","3","6","5","5","3","5","763092748139237377","李","25","Male","[""好我"",""坏我"",""坏他"",""好他""]","[""强我"",""弱我"",""弱他"",""强他""]","","","","","","","","yes","","","","","","","","","SRET_EW","EW_practice","","key","j","16.82753398058257","630","416","自己","刻板","Negative","ability","","","","","","","","","","",""
"1081","","f","psychophysics","11","152861","0.0-7.0-1.0-0.2","5","5","5","5","4","4","4","4","4","4","5","1","1","0","0","0","1","1","1","5","4","5","5","4","4","4","4","4","4","4","4","3","4","4","3","4","4","4","5","6","5","5","5","3","5","5","6","5","1","5","3","3","5","5","5","5","6","6","6","3","3","3","3","2","5","3","6","6","5","6","5","6","5","3","6","5","5","3","5","763092748139237377","李","25","Male","[""好我"",""坏我"",""坏他"",""好他""]","[""强我"",""弱我"",""弱他"",""强他""]","","","","","","","","no","","","","","","","","","SRET_EW","EW_practice","","key","f","16.670459677419256","630","416","朋友","徇私","Negative","morality","","","","","","","","","","",""
"843","","j","psychophysics","12","154707","0.0-7.0-1.0-0.3","5","5","5","5","4","4","4","4","4","4","5","1","1","0","0","0","1","1","1","5","4","5","5","4","4","4","4","4","4","4","4","3","4","4","3","4","4","4","5","6","5","5","5","3","5","5","6","5","1","5","3","3","5","5","5","5","6","6","6","3","3","3","3","2","5","3","6","6","5","6","5","6","5","3","6","5","5","3","5","763092748139237377","李","25","Male","[""好我"",""坏我"",""坏他"",""好他""]","[""强我"",""弱我"",""弱他"",""强他""]","","","","","","","","yes","","","","","","","","","SRET_EW","EW_practice","","key","j","16.825422018348537","630","416","自己","严谨","Positive","ability","","","","","","","","","","",""
"87146","
    <p><div style='color:white;font-size:35px; line-height:20px;'>请您再次阅读实验要求</div></p><br>
    <p><div style='color:white;font-size:25px; line-height:20px;'>请回忆某一个亲密的朋友，你们至少2年前就认识了，并且最近2年经常见面。</div></p>
    <p><div style='color:white;font-size:25px; line-height:20px;'>在本实验中，您将会看到一些形容词。</div></p>
    <p><div style='color:yellow;font-size:25px; line-height:20px;'>您的任务是判断这些形容词是否符合对您自己或您的朋友的描述。</div></p>
    <p><div class='footer' style='font-size:25px; line-height:20px;'>如果对本实验还有不清楚之处，请立即向实验员咨询。</p><p style='font-size:25px; line-height:20px;'>如果您明白了规则：</p><p style='font-size:22px; line-height:20px;'>请按 继续 进入正式实验</p>
    </div>
    <p style='font-size:35px'>符合按<span style=""color:lightgreen""> j 键</span>，不符合按<span style=""color:red""> f 键</span></p>","0","html-button-response","13","241855","0.0-7.0-2.0","5","5","5","5","4","4","4","4","4","4","5","1","1","0","0","0","1","1","1","5","4","5","5","4","4","4","4","4","4","4","4","3","4","4","3","4","4","4","5","6","5","5","5","3","5","5","6","5","1","5","3","3","5","5","5","5","6","6","6","3","3","3","3","2","5","3","6","6","5","6","5","6","5","3","6","5","5","3","5","763092748139237377","李","25","Male","[""好我"",""坏我"",""坏他"",""好他""]","[""强我"",""弱我"",""弱他"",""强他""]","","","","","","","","","","","","","","","","","SRET_EW","prac_instructions","Mon Jan 29 2024 16:25:34 GMT+0800 (中国标准时间)","","","","","","","","","","","","","","","","","","","",""
"1062","","j","psychophysics","14","243921","0.0-7.0-3.0-0.0","5","5","5","5","4","4","4","4","4","4","5","1","1","0","0","0","1","1","1","5","4","5","5","4","4","4","4","4","4","4","4","3","4","4","3","4","4","4","5","6","5","5","5","3","5","5","6","5","1","5","3","3","5","5","5","5","6","6","6","3","3","3","3","2","5","3","6","6","5","6","5","6","5","3","6","5","5","3","5","763092748139237377","李","25","Male","[""好我"",""坏我"",""坏他"",""好他""]","[""强我"",""弱我"",""弱他"",""强他""]","","","","","","","","yes","","","","","","","","","SRET","EW_formal","","key","j","16.79412195121948","630","416","自己","坚贞","Positive","morality","","","","","","","","","","",""
"656","","f","psychophysics","15","245582","0.0-7.0-3.0-0.1","5","5","5","5","4","4","4","4","4","4","5","1","1","0","0","0","1","1","1","5","4","5","5","4","4","4","4","4","4","4","4","3","4","4","3","4","4","4","5","6","5","5","5","3","5","5","6","5","1","5","3","3","5","5","5","5","6","6","6","3","3","3","3","2","5","3","6","6","5","6","5","6","5","3","6","5","5","3","5","763092748139237377","李","25","Male","[""好我"",""坏我"",""坏他"",""好他""]","[""强我"",""弱我"",""弱他"",""强他""]","","","","","","","","no","","","","","","","","","SRET","EW_formal","","key","f","16.667373737373513","630","416","朋友","迷糊","Negative","ability","","","","","","","","","","",""
"1246","","j","psychophysics","16","247829","0.0-7.0-3.0-0.2","5","5","5","5","4","4","4","4","4","4","5","1","1","0","0","0","1","1","1","5","4","5","5","4","4","4","4","4","4","4","4","3","4","4","3","4","4","4","5","6","5","5","5","3","5","5","6","5","1","5","3","3","5","5","5","5","6","6","6","3","3","3","3","2","5","3","6","6","5","6","5","6","5","3","6","5","5","3","5","763092748139237377","李","25","Male","[""好我"",""坏我"",""坏他"",""好他""]","[""强我"",""弱我"",""弱他"",""强他""]","","","","","","","","yes","","","","","","","","","SRET","EW_formal","","key","j","16.668208955223943","630","416","朋友","务实","Positive","ability","","","","","","","","","","",""
"795","","f","psychophysics","17","249626","0.0-7.0-3.0-0.3","5","5","5","5","4","4","4","4","4","4","5","1","1","0","0","0","1","1","1","5","4","5","5","4","4","4","4","4","4","4","4","3","4","4","3","4","4","4","5","6","5","5","5","3","5","5","6","5","1","5","3","3","5","5","5","5","6","6","6","3","3","3","3","2","5","3","6","6","5","6","5","6","5","3","6","5","5","3","5","763092748139237377","李","25","Male","[""好我"",""坏我"",""坏他"",""好他""]","[""强我"",""弱我"",""弱他"",""强他""]","","","","","","","","no","","","","","","","","","SRET","EW_formal","","key","f","16.66722429906525","630","416","自己","说谎","Negative","morality","","","","","","","","","","",""
"920","","j","psychophysics","18","251549","0.0-7.0-3.0-0.4","5","5","5","5","4","4","4","4","4","4","5","1","1","0","0","0","1","1","1","5","4","5","5","4","4","4","4","4","4","4","4","3","4","4","3","4","4","4","5","6","5","5","5","3","5","5","6","5","1","5","3","3","5","5","5","5","6","6","6","3","3","3","3","2","5","3","6","6","5","6","5","6","5","3","6","5","5","3","5","763092748139237377","李","25","Male","[""好我"",""坏我"",""坏他"",""好他""]","[""强我"",""弱我"",""弱他"",""强他""]","","","","","","","","yes","","","","","","","","","SRET","EW_formal","","key","j","16.665605263158028","630","416","自己","远见","Positive","ability","","","","","","","","","","",""
"655","","f","psychophysics","19","253206","0.0-7.0-3.0-0.5","5","5","5","5","4","4","4","4","4","4","5","1","1","0","0","0","1","1","1","5","4","5","5","4","4","4","4","4","4","4","4","3","4","4","3","4","4","4","5","6","5","5","5","3","5","5","6","5","1","5","3","3","5","5","5","5","6","6","6","3","3","3","3","2","5","3","6","6","5","6","5","6","5","3","6","5","5","3","5","763092748139237377","李","25","Male","[""好我"",""坏我"",""坏他"",""好他""]","[""强我"",""弱我"",""弱他"",""强他""]","","","","","","","","no","","","","","","","","","SRET","EW_formal","","key","f","16.665989898989796","630","416","朋友","盲目","Negative","ability","","","","","","","","","","",""
"740","","j","psychophysics","20","254947","0.0-7.0-3.0-0.6","5","5","5","5","4","4","4","4","4","4","5","1","1","0","0","0","1","1","1","5","4","5","5","4","4","4","4","4","4","4","4","3","4","4","3","4","4","4","5","6","5","5","5","3","5","5","6","5","1","5","3","3","5","5","5","5","6","6","6","3","3","3","3","2","5","3","6","6","5","6","5","6","5","3","6","5","5","3","5","763092748139237377","李","25","Male","[""好我"",""坏我"",""坏他"",""好他""]","[""强我"",""弱我"",""弱他"",""强他""]","","","","","","","","yes","","","","","","","","","SRET","EW_formal","","key","j","16.66634951456302","630","416","自己","干练","Positive","ability","","","","","","","","","","",""
"593","","j","psychophysics","21","256542","0.0-7.0-3.0-0.7","5","5","5","5","4","4","4","4","4","4","5","1","1","0","0","0","1","1","1","5","4","5","5","4","4","4","4","4","4","4","4","3","4","4","3","4","4","4","5","6","5","5","5","3","5","5","6","5","1","5","3","3","5","5","5","5","6","6","6","3","3","3","3","2","5","3","6","6","5","6","5","6","5","3","6","5","5","3","5","763092748139237377","李","25","Male","[""好我"",""坏我"",""坏他"",""好他""]","[""强我"",""弱我"",""弱他"",""强他""]","","","","","","","","yes","","","","","","","","","SRET","EW_formal","","key","j","16.668410526315903","630","416","自己","忠诚","Positive","morality","","","","","","","","","","",""
"644","","j","psychophysics","22","258188","0.0-7.0-3.0-0.8","5","5","5","5","4","4","4","4","4","4","5","1","1","0","0","0","1","1","1","5","4","5","5","4","4","4","4","4","4","4","4","3","4","4","3","4","4","4","5","6","5","5","5","3","5","5","6","5","1","5","3","3","5","5","5","5","6","6","6","3","3","3","3","2","5","3","6","6","5","6","5","6","5","3","6","5","5","3","5","763092748139237377","李","25","Male","[""好我"",""坏我"",""坏他"",""好他""]","[""强我"",""弱我"",""弱他"",""强他""]","","","","","","","","yes","","","","","","","","","SRET","EW_formal","","key","j","16.67074226804129","630","416","朋友","自律","Positive","ability","","","","","","","","","","",""
"530","","f","psychophysics","23","259726","0.0-7.0-3.0-0.9","5","5","5","5","4","4","4","4","4","4","5","1","1","0","0","0","1","1","1","5","4","5","5","4","4","4","4","4","4","4","4","3","4","4","3","4","4","4","5","6","5","5","5","3","5","5","6","5","1","5","3","3","5","5","5","5","6","6","6","3","3","3","3","2","5","3","6","6","5","6","5","6","5","3","6","5","5","3","5","763092748139237377","李","25","Male","[""好我"",""坏我"",""坏他"",""好他""]","[""强我"",""弱我"",""弱他"",""强他""]","","","","","","","","no","","","","","","","","","SRET","EW_formal","","key","f","16.67155434782636","630","416","自己","腐败","Negative","morality","","","","","","","","","","",""
"1060","","f","psychophysics","24","261789","0.0-7.0-3.0-0.10","5","5","5","5","4","4","4","4","4","4","5","1","1","0","0","0","1","1","1","5","4","5","5","4","4","4","4","4","4","4","4","3","4","4","3","4","4","4","5","6","5","5","5","3","5","5","6","5","1","5","3","3","5","5","5","5","6","6","6","3","3","3","3","2","5","3","6","6","5","6","5","6","5","3","6","5","5","3","5","763092748139237377","李","25","Male","[""好我"",""坏我"",""坏他"",""好他""]","[""强我"",""弱我"",""弱他"",""强他""]","","","","","","","","no","","","","","","","","","SRET","EW_formal","","key","f","16.66788524590179","630","416","朋友","背叛","Negative","morality","","","","","","","","","","",""
"840","","j","psychophysics","25","263634","0.0-7.0-3.0-0.11","5","5","5","5","4","4","4","4","4","4","5","1","1","0","0","0","1","1","1","5","4","5","5","4","4","4","4","4","4","4","4","3","4","4","3","4","4","4","5","6","5","5","5","3","5","5","6","5","1","5","3","3","5","5","5","5","6","6","6","3","3","3","3","2","5","3","6","6","5","6","5","6","5","3","6","5","5","3","5","763092748139237377","李","25","Male","[""好我"",""坏我"",""坏他"",""好他""]","[""强我"",""弱我"",""弱他"",""强他""]","","","","","","","","yes","","","","","","","","","SRET","EW_formal","","key","j","16.669918181818105","630","416","朋友","热心","Positive","morality","","","","","","","","","","",""
"652","","f","psychophysics","26","265289","0.0-7.0-3.0-0.12","5","5","5","5","4","4","4","4","4","4","5","1","1","0","0","0","1","1","1","5","4","5","5","4","4","4","4","4","4","4","4","3","4","4","3","4","4","4","5","6","5","5","5","3","5","5","6","5","1","5","3","3","5","5","5","5","6","6","6","3","3","3","3","2","5","3","6","6","5","6","5","6","5","3","6","5","5","3","5","763092748139237377","李","25","Male","[""好我"",""坏我"",""坏他"",""好他""]","[""强我"",""弱我"",""弱他"",""强他""]","","","","","","","","no","","","","","","","","","SRET","EW_formal","","key","f","16.666857142857282","630","416","自己","不良","Negative","morality","","","","","","","","","","",""
"741","","f","psychophysics","27","267038","0.0-7.0-3.0-0.13","5","5","5","5","4","4","4","4","4","4","5","1","1","0","0","0","1","1","1","5","4","5","5","4","4","4","4","4","4","4","4","3","4","4","3","4","4","4","5","6","5","5","5","3","5","5","6","5","1","5","3","3","5","5","5","5","6","6","6","3","3","3","3","2","5","3","6","6","5","6","5","6","5","3","6","5","5","3","5","763092748139237377","李","25","Male","[""好我"",""坏我"",""坏他"",""好他""]","[""强我"",""弱我"",""弱他"",""强他""]","","","","","","","","no","","","","","","","","","SRET","EW_formal","","key","f","16.669826923077032","630","416","自己","逞能","Negative","ability","","","","","","","","","","",""
"1235","","j","psychophysics","28","269281","0.0-7.0-3.0-0.14","5","5","5","5","4","4","4","4","4","4","5","1","1","0","0","0","1","1","1","5","4","5","5","4","4","4","4","4","4","4","4","3","4","4","3","4","4","4","5","6","5","5","5","3","5","5","6","5","1","5","3","3","5","5","5","5","6","6","6","3","3","3","3","2","5","3","6","6","5","6","5","6","5","3","6","5","5","3","5","763092748139237377","李","25","Male","[""好我"",""坏我"",""坏他"",""好他""]","[""强我"",""弱我"",""弱他"",""强他""]","","","","","","","","yes","","","","","","","","","SRET","EW_formal","","key","j","16.66832835820926","630","416","朋友","独立","Positive","ability","","","","","","","","","","",""
"726","","f","psychophysics","29","271010","0.0-7.0-3.0-0.15","5","5","5","5","4","4","4","4","4","4","5","1","1","0","0","0","1","1","1","5","4","5","5","4","4","4","4","4","4","4","4","3","4","4","3","4","4","4","5","6","5","5","5","3","5","5","6","5","1","5","3","3","5","5","5","5","6","6","6","3","3","3","3","2","5","3","6","6","5","6","5","6","5","3","6","5","5","3","5","763092748139237377","李","25","Male","[""好我"",""坏我"",""坏他"",""好他""]","[""强我"",""弱我"",""弱他"",""强他""]","","","","","","","","no","","","","","","","","","SRET","EW_formal","","key","f","16.66848543689313","630","416","朋友","拜金","Negative","morality","","","","","","","","","","",""
"715","","f","psychophysics","30","272727","0.0-7.0-3.0-0.16","5","5","5","5","4","4","4","4","4","4","5","1","1","0","0","0","1","1","1","5","4","5","5","4","4","4","4","4","4","4","4","3","4","4","3","4","4","4","5","6","5","5","5","3","5","5","6","5","1","5","3","3","5","5","5","5","6","6","6","3","3","3","3","2","5","3","6","6","5","6","5","6","5","3","6","5","5","3","5","763092748139237377","李","25","Male","[""好我"",""坏我"",""坏他"",""好他""]","[""强我"",""弱我"",""弱他"",""强他""]","","","","","","","","no","","","","","","","","","SRET","EW_formal","","key","f","16.670529411764424","630","416","朋友","虚伪","Negative","morality","","","","","","","","","","",""
"984","","f","psychophysics","31","274714","0.0-7.0-3.0-0.17","5","5","5","5","4","4","4","4","4","4","5","1","1","0","0","0","1","1","1","5","4","5","5","4","4","4","4","4","4","4","4","3","4","4","3","4","4","4","5","6","5","5","5","3","5","5","6","5","1","5","3","3","5","5","5","5","6","6","6","3","3","3","3","2","5","3","6","6","5","6","5","6","5","3","6","5","5","3","5","763092748139237377","李","25","Male","[""好我"",""坏我"",""坏他"",""好他""]","[""强我"",""弱我"",""弱他"",""强他""]","","","","","","","","no","","","","","","","","","SRET","EW_formal","","key","f","16.666169491524993","630","416","自己","毛糙","Negative","ability","","","","","","","","","","",""
"823","","f","psychophysics","32","276540","0.0-7.0-3.0-0.18","5","5","5","5","4","4","4","4","4","4","5","1","1","0","0","0","1","1","1","5","4","5","5","4","4","4","4","4","4","4","4","3","4","4","3","4","4","4","5","6","5","5","5","3","5","5","6","5","1","5","3","3","5","5","5","5","6","6","6","3","3","3","3","2","5","3","6","6","5","6","5","6","5","3","6","5","5","3","5","763092748139237377","李","25","Male","[""好我"",""坏我"",""坏他"",""好他""]","[""强我"",""弱我"",""弱他"",""强他""]","","","","","","","","no","","","","","","","","","SRET","EW_formal","","key","f","16.667212962962502","630","416","自己","歹毒","Negative","morality","","","","","","","","","","",""
"745","","f","psychophysics","33","278290","0.0-7.0-3.0-0.19","5","5","5","5","4","4","4","4","4","4","5","1","1","0","0","0","1","1","1","5","4","5","5","4","4","4","4","4","4","4","4","3","4","4","3","4","4","4","5","6","5","5","5","3","5","5","6","5","1","5","3","3","5","5","5","5","6","6","6","3","3","3","3","2","5","3","6","6","5","6","5","6","5","3","6","5","5","3","5","763092748139237377","李","25","Male","[""好我"",""坏我"",""坏他"",""好他""]","[""强我"",""弱我"",""弱他"",""强他""]","","","","","","","","no","","","","","","","","","SRET","EW_formal","","key","f","16.82831067961157","630","416","朋友","短浅","Negative","ability","","","","","","","","","","",""
"688","","j","psychophysics","34","279981","0.0-7.0-3.0-0.20","5","5","5","5","4","4","4","4","4","4","5","1","1","0","0","0","1","1","1","5","4","5","5","4","4","4","4","4","4","4","4","3","4","4","3","4","4","4","5","6","5","5","5","3","5","5","6","5","1","5","3","3","5","5","5","5","6","6","6","3","3","3","3","2","5","3","6","6","5","6","5","6","5","3","6","5","5","3","5","763092748139237377","李","25","Male","[""好我"",""坏我"",""坏他"",""好他""]","[""强我"",""弱我"",""弱他"",""强他""]","","","","","","","","yes","","","","","","","","","SRET","EW_formal","","key","j","16.836410000000033","630","416","自己","高尚","Positive","morality","","","","","","","","","","",""
"599","","j","psychophysics","35","281582","0.0-7.0-3.0-0.21","5","5","5","5","4","4","4","4","4","4","5","1","1","0","0","0","1","1","1","5","4","5","5","4","4","4","4","4","4","4","4","3","4","4","3","4","4","4","5","6","5","5","5","3","5","5","6","5","1","5","3","3","5","5","5","5","6","6","6","3","3","3","3","2","5","3","6","6","5","6","5","6","5","3","6","5","5","3","5","763092748139237377","李","25","Male","[""好我"",""坏我"",""坏他"",""好他""]","[""强我"",""弱我"",""弱他"",""强他""]","","","","","","","","yes","","","","","","","","","SRET","EW_formal","","key","j","16.666926315789553","630","416","朋友","有力","Positive","ability","","","","","","","","","","",""
"583","","f","psychophysics","36","283167","0.0-7.0-3.0-0.22","5","5","5","5","4","4","4","4","4","4","5","1","1","0","0","0","1","1","1","5","4","5","5","4","4","4","4","4","4","4","4","3","4","4","3","4","4","4","5","6","5","5","5","3","5","5","6","5","1","5","3","3","5","5","5","5","6","6","6","3","3","3","3","2","5","3","6","6","5","6","5","6","5","3","6","5","5","3","5","763092748139237377","李","25","Male","[""好我"",""坏我"",""坏他"",""好他""]","[""强我"",""弱我"",""弱他"",""强他""]","","","","","","","","no","","","","","","","","","SRET","EW_formal","","key","f","16.66989361702098","630","416","朋友","龌龊","Negative","morality","","","","","","","","","","",""
"1371","","j","psychophysics","37","285542","0.0-7.0-3.0-0.23","5","5","5","5","4","4","4","4","4","4","5","1","1","0","0","0","1","1","1","5","4","5","5","4","4","4","4","4","4","4","4","3","4","4","3","4","4","4","5","6","5","5","5","3","5","5","6","5","1","5","3","3","5","5","5","5","6","6","6","3","3","3","3","2","5","3","6","6","5","6","5","6","5","3","6","5","5","3","5","763092748139237377","李","25","Male","[""好我"",""坏我"",""坏他"",""好他""]","[""强我"",""弱我"",""弱他"",""强他""]","","","","","","","","yes","","","","","","","","","SRET","EW_formal","","key","j","16.66717021276593","630","416","朋友","思辨","Positive","ability","","","","","","","","","","",""
"838","","f","psychophysics","38","287394","0.0-7.0-3.0-0.24","5","5","5","5","4","4","4","4","4","4","5","1","1","0","0","0","1","1","1","5","4","5","5","4","4","4","4","4","4","4","4","3","4","4","3","4","4","4","5","6","5","5","5","3","5","5","6","5","1","5","3","3","5","5","5","5","6","6","6","3","3","3","3","2","5","3","6","6","5","6","5","6","5","3","6","5","5","3","5","763092748139237377","李","25","Male","[""好我"",""坏我"",""坏他"",""好他""]","[""强我"",""弱我"",""弱他"",""强他""]","","","","","","","","no","","","","","","","","","SRET","EW_formal","","key","f","16.81491818181821","630","416","自己","庸碌","Negative","ability","","","","","","","","","","",""
"1170","","j","psychophysics","39","289575","0.0-7.0-3.0-0.25","5","5","5","5","4","4","4","4","4","4","5","1","1","0","0","0","1","1","1","5","4","5","5","4","4","4","4","4","4","4","4","3","4","4","3","4","4","4","5","6","5","5","5","3","5","5","6","5","1","5","3","3","5","5","5","5","6","6","6","3","3","3","3","2","5","3","6","6","5","6","5","6","5","3","6","5","5","3","5","763092748139237377","李","25","Male","[""好我"",""坏我"",""坏他"",""好他""]","[""强我"",""弱我"",""弱他"",""强他""]","","","","","","","","yes","","","","","","","","","SRET","EW_formal","","key","j","16.66113846153827","630","416","朋友","慈悲","Positive","morality","","","","","","","","","","",""
"655","","f","psychophysics","40","291232","0.0-7.0-3.0-0.26","5","5","5","5","4","4","4","4","4","4","5","1","1","0","0","0","1","1","1","5","4","5","5","4","4","4","4","4","4","4","4","3","4","4","3","4","4","4","5","6","5","5","5","3","5","5","6","5","1","5","3","3","5","5","5","5","6","6","6","3","3","3","3","2","5","3","6","6","5","6","5","6","5","3","6","5","5","3","5","763092748139237377","李","25","Male","[""好我"",""坏我"",""坏他"",""好他""]","[""强我"",""弱我"",""弱他"",""强他""]","","","","","","","","no","","","","","","","","","SRET","EW_formal","","key","f","16.671153061224945","630","416","朋友","卑鄙","Negative","morality","","","","","","","","","","",""
"590","","j","psychophysics","41","292824","0.0-7.0-3.0-0.27","5","5","5","5","4","4","4","4","4","4","5","1","1","0","0","0","1","1","1","5","4","5","5","4","4","4","4","4","4","4","4","3","4","4","3","4","4","4","5","6","5","5","5","3","5","5","6","5","1","5","3","3","5","5","5","5","6","6","6","3","3","3","3","2","5","3","6","6","5","6","5","6","5","3","6","5","5","3","5","763092748139237377","李","25","Male","[""好我"",""坏我"",""坏他"",""好他""]","[""强我"",""弱我"",""弱他"",""强他""]","","","","","","","","yes","","","","","","","","","SRET","EW_formal","","key","j","16.671063829787407","630","416","自己","文明","Positive","morality","","","","","","","","","","",""
"642","","j","psychophysics","42","294470","0.0-7.0-3.0-0.28","5","5","5","5","4","4","4","4","4","4","5","1","1","0","0","0","1","1","1","5","4","5","5","4","4","4","4","4","4","4","4","3","4","4","3","4","4","4","5","6","5","5","5","3","5","5","6","5","1","5","3","3","5","5","5","5","6","6","6","3","3","3","3","2","5","3","6","6","5","6","5","6","5","3","6","5","5","3","5","763092748139237377","李","25","Male","[""好我"",""坏我"",""坏他"",""好他""]","[""强我"",""弱我"",""弱他"",""强他""]","","","","","","","","yes","","","","","","","","","SRET","EW_formal","","key","j","16.829154639175407","630","416","朋友","守信","Positive","morality","","","","","","","","","","",""
"1002","","j","psychophysics","43","296474","0.0-7.0-3.0-0.29","5","5","5","5","4","4","4","4","4","4","5","1","1","0","0","0","1","1","1","5","4","5","5","4","4","4","4","4","4","4","4","3","4","4","3","4","4","4","5","6","5","5","5","3","5","5","6","5","1","5","3","3","5","5","5","5","6","6","6","3","3","3","3","2","5","3","6","6","5","6","5","6","5","3","6","5","5","3","5","763092748139237377","李","25","Male","[""好我"",""坏我"",""坏他"",""好他""]","[""强我"",""弱我"",""弱他"",""强他""]","","","","","","","","yes","","","","","","","","","SRET","EW_formal","","key","j","16.80994915254256","630","416","自己","变通","Positive","ability","","","","","","","","","","",""
"633","","f","psychophysics","44","298109","0.0-7.0-3.0-0.30","5","5","5","5","4","4","4","4","4","4","5","1","1","0","0","0","1","1","1","5","4","5","5","4","4","4","4","4","4","4","4","3","4","4","3","4","4","4","5","6","5","5","5","3","5","5","6","5","1","5","3","3","5","5","5","5","6","6","6","3","3","3","3","2","5","3","6","6","5","6","5","6","5","3","6","5","5","3","5","763092748139237377","李","25","Male","[""好我"",""坏我"",""坏他"",""好他""]","[""强我"",""弱我"",""弱他"",""强他""]","","","","","","","","no","","","","","","","","","SRET","EW_formal","","key","f","16.840639175257895","630","416","朋友","无能","Negative","ability","","","","","","","","","","",""
"726","","f","psychophysics","45","299839","0.0-7.0-3.0-0.31","5","5","5","5","4","4","4","4","4","4","5","1","1","0","0","0","1","1","1","5","4","5","5","4","4","4","4","4","4","4","4","3","4","4","3","4","4","4","5","6","5","5","5","3","5","5","6","5","1","5","3","3","5","5","5","5","6","6","6","3","3","3","3","2","5","3","6","6","5","6","5","6","5","3","6","5","5","3","5","763092748139237377","李","25","Male","[""好我"",""坏我"",""坏他"",""好他""]","[""强我"",""弱我"",""弱他"",""强他""]","","","","","","","","no","","","","","","","","","SRET","EW_formal","","key","f","16.669794117647232","630","416","朋友","浅薄","Negative","ability","","","","","","","","","","",""
"659","","f","psychophysics","46","301501","0.0-7.0-3.0-0.32","5","5","5","5","4","4","4","4","4","4","5","1","1","0","0","0","1","1","1","5","4","5","5","4","4","4","4","4","4","4","4","3","4","4","3","4","4","4","5","6","5","5","5","3","5","5","6","5","1","5","3","3","5","5","5","5","6","6","6","3","3","3","3","2","5","3","6","6","5","6","5","6","5","3","6","5","5","3","5","763092748139237377","李","25","Male","[""好我"",""坏我"",""坏他"",""好他""]","[""强我"",""弱我"",""弱他"",""强他""]","","","","","","","","no","","","","","","","","","SRET","EW_formal","","key","f","16.836193877550873","630","416","朋友","逞强","Negative","ability","","","","","","","","","","",""
"735","","j","psychophysics","47","303238","0.0-7.0-3.0-0.33","5","5","5","5","4","4","4","4","4","4","5","1","1","0","0","0","1","1","1","5","4","5","5","4","4","4","4","4","4","4","4","3","4","4","3","4","4","4","5","6","5","5","5","3","5","5","6","5","1","5","3","3","5","5","5","5","6","6","6","3","3","3","3","2","5","3","6","6","5","6","5","6","5","3","6","5","5","3","5","763092748139237377","李","25","Male","[""好我"",""坏我"",""坏他"",""好他""]","[""强我"",""弱我"",""弱他"",""强他""]","","","","","","","","yes","","","","","","","","","SRET","EW_formal","","key","j","16.67048543689318","630","416","朋友","精干","Positive","ability","","","","","","","","","","",""
"763","","f","psychophysics","48","305007","0.0-7.0-3.0-0.34","5","5","5","5","4","4","4","4","4","4","5","1","1","0","0","0","1","1","1","5","4","5","5","4","4","4","4","4","4","4","4","3","4","4","3","4","4","4","5","6","5","5","5","3","5","5","6","5","1","5","3","3","5","5","5","5","6","6","6","3","3","3","3","2","5","3","6","6","5","6","5","6","5","3","6","5","5","3","5","763092748139237377","李","25","Male","[""好我"",""坏我"",""坏他"",""好他""]","[""强我"",""弱我"",""弱他"",""强他""]","","","","","","","","no","","","","","","","","","SRET","EW_formal","","key","f","16.829836538461116","630","416","朋友","业余","Negative","ability","","","","","","","","","","",""
"733","","j","psychophysics","49","306747","0.0-7.0-3.0-0.35","5","5","5","5","4","4","4","4","4","4","5","1","1","0","0","0","1","1","1","5","4","5","5","4","4","4","4","4","4","4","4","3","4","4","3","4","4","4","5","6","5","5","5","3","5","5","6","5","1","5","3","3","5","5","5","5","6","6","6","3","3","3","3","2","5","3","6","6","5","6","5","6","5","3","6","5","5","3","5","763092748139237377","李","25","Male","[""好我"",""坏我"",""坏他"",""好他""]","[""强我"",""弱我"",""弱他"",""强他""]","","","","","","","","yes","","","","","","","","","SRET","EW_formal","","key","j","16.83260194174787","630","416","自己","清廉","Positive","morality","","","","","","","","","","",""
"532","","j","psychophysics","50","308287","0.0-7.0-3.0-0.36","5","5","5","5","4","4","4","4","4","4","5","1","1","0","0","0","1","1","1","5","4","5","5","4","4","4","4","4","4","4","4","3","4","4","3","4","4","4","5","6","5","5","5","3","5","5","6","5","1","5","3","3","5","5","5","5","6","6","6","3","3","3","3","2","5","3","6","6","5","6","5","6","5","3","6","5","5","3","5","763092748139237377","李","25","Male","[""好我"",""坏我"",""坏他"",""好他""]","[""强我"",""弱我"",""弱他"",""强他""]","","","","","","","","yes","","","","","","","","","SRET","EW_formal","","key","j","16.671186813186587","630","416","自己","聪明","Positive","ability","","","","","","","","","","",""
"556","","j","psychophysics","51","309849","0.0-7.0-3.0-0.37","5","5","5","5","4","4","4","4","4","4","5","1","1","0","0","0","1","1","1","5","4","5","5","4","4","4","4","4","4","4","4","3","4","4","3","4","4","4","5","6","5","5","5","3","5","5","6","5","1","5","3","3","5","5","5","5","6","6","6","3","3","3","3","2","5","3","6","6","5","6","5","6","5","3","6","5","5","3","5","763092748139237377","李","25","Male","[""好我"",""坏我"",""坏他"",""好他""]","[""强我"",""弱我"",""弱他"",""强他""]","","","","","","","","yes","","","","","","","","","SRET","EW_formal","","key","j","16.66707526881721","630","416","自己","好心","Positive","morality","","","","","","","","","","",""
"668","","f","psychophysics","52","311519","0.0-7.0-3.0-0.38","5","5","5","5","4","4","4","4","4","4","5","1","1","0","0","0","1","1","1","5","4","5","5","4","4","4","4","4","4","4","4","3","4","4","3","4","4","4","5","6","5","5","5","3","5","5","6","5","1","5","3","3","5","5","5","5","6","6","6","3","3","3","3","2","5","3","6","6","5","6","5","6","5","3","6","5","5","3","5","763092748139237377","李","25","Male","[""好我"",""坏我"",""坏他"",""好他""]","[""强我"",""弱我"",""弱他"",""强他""]","","","","","","","","no","","","","","","","","","SRET","EW_formal","","key","f","16.667444444444346","630","416","自己","谦逊","Positive","morality","","","","","","","","","","",""
"895","","j","psychophysics","53","313417","0.0-7.0-3.0-0.39","5","5","5","5","4","4","4","4","4","4","5","1","1","0","0","0","1","1","1","5","4","5","5","4","4","4","4","4","4","4","4","3","4","4","3","4","4","4","5","6","5","5","5","3","5","5","6","5","1","5","3","3","5","5","5","5","6","6","6","3","3","3","3","2","5","3","6","6","5","6","5","6","5","3","6","5","5","3","5","763092748139237377","李","25","Male","[""好我"",""坏我"",""坏他"",""好他""]","[""强我"",""弱我"",""弱他"",""强他""]","","","","","","","","yes","","","","","","","","","SRET","EW_formal","","key","j","16.66735398230108","630","416","朋友","刚正","Positive","morality","","","","","","","","","","",""
"976","","j","psychophysics","54","315396","0.0-7.0-3.0-0.40","5","5","5","5","4","4","4","4","4","4","5","1","1","0","0","0","1","1","1","5","4","5","5","4","4","4","4","4","4","4","4","3","4","4","3","4","4","4","5","6","5","5","5","3","5","5","6","5","1","5","3","3","5","5","5","5","6","6","6","3","3","3","3","2","5","3","6","6","5","6","5","6","5","3","6","5","5","3","5","763092748139237377","李","25","Male","[""好我"",""坏我"",""坏他"",""好他""]","[""强我"",""弱我"",""弱他"",""强他""]","","","","","","","","yes","","","","","","","","","SRET","EW_formal","","key","j","16.669067796610268","630","416","朋友","上进","Positive","ability","","","","","","","","","","",""
"648","","j","psychophysics","55","317046","0.0-7.0-3.0-0.41","5","5","5","5","4","4","4","4","4","4","5","1","1","0","0","0","1","1","1","5","4","5","5","4","4","4","4","4","4","4","4","3","4","4","3","4","4","4","5","6","5","5","5","3","5","5","6","5","1","5","3","3","5","5","5","5","6","6","6","3","3","3","3","2","5","3","6","6","5","6","5","6","5","3","6","5","5","3","5","763092748139237377","李","25","Male","[""好我"",""坏我"",""坏他"",""好他""]","[""强我"",""弱我"",""弱他"",""强他""]","","","","","","","","yes","","","","","","","","","SRET","EW_formal","","key","j","16.65483673469387","630","416","朋友","诚信","Positive","morality","","","","","","","","","","",""
"572","","j","psychophysics","56","318621","0.0-7.0-3.0-0.42","5","5","5","5","4","4","4","4","4","4","5","1","1","0","0","0","1","1","1","5","4","5","5","4","4","4","4","4","4","4","4","3","4","4","3","4","4","4","5","6","5","5","5","3","5","5","6","5","1","5","3","3","5","5","5","5","6","6","6","3","3","3","3","2","5","3","6","6","5","6","5","6","5","3","6","5","5","3","5","763092748139237377","李","25","Male","[""好我"",""坏我"",""坏他"",""好他""]","[""强我"",""弱我"",""弱他"",""强他""]","","","","","","","","yes","","","","","","","","","SRET","EW_formal","","key","j","16.667967741935943","630","416","自己","守法","Positive","morality","","","","","","","","","","",""
"582","","f","psychophysics","57","320206","0.0-7.0-3.0-0.43","5","5","5","5","4","4","4","4","4","4","5","1","1","0","0","0","1","1","1","5","4","5","5","4","4","4","4","4","4","4","4","3","4","4","3","4","4","4","5","6","5","5","5","3","5","5","6","5","1","5","3","3","5","5","5","5","6","6","6","3","3","3","3","2","5","3","6","6","5","6","5","6","5","3","6","5","5","3","5","763092748139237377","李","25","Male","[""好我"",""坏我"",""坏他"",""好他""]","[""强我"",""弱我"",""弱他"",""强他""]","","","","","","","","no","","","","","","","","","SRET","EW_formal","","key","f","16.67014893617028","630","416","自己","偏私","Negative","morality","","","","","","","","","","",""
"593","","j","psychophysics","58","321804","0.0-7.0-3.0-0.44","5","5","5","5","4","4","4","4","4","4","5","1","1","0","0","0","1","1","1","5","4","5","5","4","4","4","4","4","4","4","4","3","4","4","3","4","4","4","5","6","5","5","5","3","5","5","6","5","1","5","3","3","5","5","5","5","6","6","6","3","3","3","3","2","5","3","6","6","5","6","5","6","5","3","6","5","5","3","5","763092748139237377","李","25","Male","[""好我"",""坏我"",""坏他"",""好他""]","[""强我"",""弱我"",""弱他"",""强他""]","","","","","","","","yes","","","","","","","","","SRET","EW_formal","","key","j","16.846361702127243","630","416","自己","果决","Positive","ability","","","","","","","","","","",""
"620","","f","psychophysics","59","323430","0.0-7.0-3.0-0.45","5","5","5","5","4","4","4","4","4","4","5","1","1","0","0","0","1","1","1","5","4","5","5","4","4","4","4","4","4","4","4","3","4","4","3","4","4","4","5","6","5","5","5","3","5","5","6","5","1","5","3","3","5","5","5","5","6","6","6","3","3","3","3","2","5","3","6","6","5","6","5","6","5","3","6","5","5","3","5","763092748139237377","李","25","Male","[""好我"",""坏我"",""坏他"",""好他""]","[""强我"",""弱我"",""弱他"",""强他""]","","","","","","","","no","","","","","","","","","SRET","EW_formal","","key","f","16.839749999999793","630","416","朋友","贪腐","Negative","morality","","","","","","","","","","",""
"1238","","f","psychophysics","60","325670","0.0-7.0-3.0-0.46","5","5","5","5","4","4","4","4","4","4","5","1","1","0","0","0","1","1","1","5","4","5","5","4","4","4","4","4","4","4","4","3","4","4","3","4","4","4","5","6","5","5","5","3","5","5","6","5","1","5","3","3","5","5","5","5","6","6","6","3","3","3","3","2","5","3","6","6","5","6","5","6","5","3","6","5","5","3","5","763092748139237377","李","25","Male","[""好我"",""坏我"",""坏他"",""好他""]","[""强我"",""弱我"",""弱他"",""强他""]","","","","","","","","no","","","","","","","","","SRET","EW_formal","","key","f","16.66883458646629","630","416","自己","屈才","Negative","ability","","","","","","","","","","",""
"687","","j","psychophysics","61","327369","0.0-7.0-3.0-0.47","5","5","5","5","4","4","4","4","4","4","5","1","1","0","0","0","1","1","1","5","4","5","5","4","4","4","4","4","4","4","4","3","4","4","3","4","4","4","5","6","5","5","5","3","5","5","6","5","1","5","3","3","5","5","5","5","6","6","6","3","3","3","3","2","5","3","6","6","5","6","5","6","5","3","6","5","5","3","5","763092748139237377","李","25","Male","[""好我"",""坏我"",""坏他"",""好他""]","[""强我"",""弱我"",""弱他"",""强他""]","","","","","","","","yes","","","","","","","","","SRET","EW_formal","","key","j","16.83753999999957","630","416","自己","娴熟","Positive","ability","","","","","","","","","","",""
"618","","j","psychophysics","62","328989","0.0-7.0-3.0-0.48","5","5","5","5","4","4","4","4","4","4","5","1","1","0","0","0","1","1","1","5","4","5","5","4","4","4","4","4","4","4","4","3","4","4","3","4","4","4","5","6","5","5","5","3","5","5","6","5","1","5","3","3","5","5","5","5","6","6","6","3","3","3","3","2","5","3","6","6","5","6","5","6","5","3","6","5","5","3","5","763092748139237377","李","25","Male","[""好我"",""坏我"",""坏他"",""好他""]","[""强我"",""弱我"",""弱他"",""强他""]","","","","","","","","yes","","","","","","","","","SRET","EW_formal","","key","j","16.667895833333507","630","416","自己","沉着","Positive","ability","","","","","","","","","","",""
"791","","j","psychophysics","63","330789","0.0-7.0-3.0-0.49","5","5","5","5","4","4","4","4","4","4","5","1","1","0","0","0","1","1","1","5","4","5","5","4","4","4","4","4","4","4","4","3","4","4","3","4","4","4","5","6","5","5","5","3","5","5","6","5","1","5","3","3","5","5","5","5","6","6","6","3","3","3","3","2","5","3","6","6","5","6","5","6","5","3","6","5","5","3","5","763092748139237377","李","25","Male","[""好我"",""坏我"",""坏他"",""好他""]","[""强我"",""弱我"",""弱他"",""强他""]","","","","","","","","yes","","","","","","","","","SRET","EW_formal","","key","j","16.824254716981535","630","416","自己","骁勇","Positive","ability","","","","","","","","","","",""
"859","","j","psychophysics","64","332651","0.0-7.0-3.0-0.50","5","5","5","5","4","4","4","4","4","4","5","1","1","0","0","0","1","1","1","5","4","5","5","4","4","4","4","4","4","4","4","3","4","4","3","4","4","4","5","6","5","5","5","3","5","5","6","5","1","5","3","3","5","5","5","5","6","6","6","3","3","3","3","2","5","3","6","6","5","6","5","6","5","3","6","5","5","3","5","763092748139237377","李","25","Male","[""好我"",""坏我"",""坏他"",""好他""]","[""强我"",""弱我"",""弱他"",""强他""]","","","","","","","","yes","","","","","","","","","SRET","EW_formal","","key","j","16.6671621621621","630","416","朋友","中用","Positive","ability","","","","","","","","","","",""
"580","","j","psychophysics","65","334235","0.0-7.0-3.0-0.51","5","5","5","5","4","4","4","4","4","4","5","1","1","0","0","0","1","1","1","5","4","5","5","4","4","4","4","4","4","4","4","3","4","4","3","4","4","4","5","6","5","5","5","3","5","5","6","5","1","5","3","3","5","5","5","5","6","6","6","3","3","3","3","2","5","3","6","6","5","6","5","6","5","3","6","5","5","3","5","763092748139237377","李","25","Male","[""好我"",""坏我"",""坏他"",""好他""]","[""强我"",""弱我"",""弱他"",""强他""]","","","","","","","","yes","","","","","","","","","SRET","EW_formal","","key","j","16.848096774193152","630","416","朋友","稳健","Positive","ability","","","","","","","","","","",""
"596","","j","psychophysics","66","335834","0.0-7.0-3.0-0.52","5","5","5","5","4","4","4","4","4","4","5","1","1","0","0","0","1","1","1","5","4","5","5","4","4","4","4","4","4","4","4","3","4","4","3","4","4","4","5","6","5","5","5","3","5","5","6","5","1","5","3","3","5","5","5","5","6","6","6","3","3","3","3","2","5","3","6","6","5","6","5","6","5","3","6","5","5","3","5","763092748139237377","李","25","Male","[""好我"",""坏我"",""坏他"",""好他""]","[""强我"",""弱我"",""弱他"",""强他""]","","","","","","","","yes","","","","","","","","","SRET","EW_formal","","key","j","16.67066315789462","630","416","自己","廉正","Positive","morality","","","","","","","","","","",""
"866","","f","psychophysics","67","337702","0.0-7.0-3.0-0.53","5","5","5","5","4","4","4","4","4","4","5","1","1","0","0","0","1","1","1","5","4","5","5","4","4","4","4","4","4","4","4","3","4","4","3","4","4","4","5","6","5","5","5","3","5","5","6","5","1","5","3","3","5","5","5","5","6","6","6","3","3","3","3","2","5","3","6","6","5","6","5","6","5","3","6","5","5","3","5","763092748139237377","李","25","Male","[""好我"",""坏我"",""坏他"",""好他""]","[""强我"",""弱我"",""弱他"",""强他""]","","","","","","","","no","","","","","","","","","SRET","EW_formal","","key","f","16.67060360360339","630","416","自己","差生","Negative","ability","","","","","","","","","","",""
"655","","f","psychophysics","68","339360","0.0-7.0-3.0-0.54","5","5","5","5","4","4","4","4","4","4","5","1","1","0","0","0","1","1","1","5","4","5","5","4","4","4","4","4","4","4","4","3","4","4","3","4","4","4","5","6","5","5","5","3","5","5","6","5","1","5","3","3","5","5","5","5","6","6","6","3","3","3","3","2","5","3","6","6","5","6","5","6","5","3","6","5","5","3","5","763092748139237377","李","25","Male","[""好我"",""坏我"",""坏他"",""好他""]","[""强我"",""弱我"",""弱他"",""强他""]","","","","","","","","no","","","","","","","","","SRET","EW_formal","","key","f","16.66874747474753","630","416","朋友","驽钝","Negative","ability","","","","","","","","","","",""
"679","","f","psychophysics","69","341043","0.0-7.0-3.0-0.55","5","5","5","5","4","4","4","4","4","4","5","1","1","0","0","0","1","1","1","5","4","5","5","4","4","4","4","4","4","4","4","3","4","4","3","4","4","4","5","6","5","5","5","3","5","5","6","5","1","5","3","3","5","5","5","5","6","6","6","3","3","3","3","2","5","3","6","6","5","6","5","6","5","3","6","5","5","3","5","763092748139237377","李","25","Male","[""好我"",""坏我"",""坏他"",""好他""]","[""强我"",""弱我"",""弱他"",""强他""]","","","","","","","","no","","","","","","","","","SRET","EW_formal","","key","f","16.67183000000019","630","416","朋友","下流","Negative","morality","","","","","","","","","","",""
"650","","j","psychophysics","70","342695","0.0-7.0-3.0-0.56","5","5","5","5","4","4","4","4","4","4","5","1","1","0","0","0","1","1","1","5","4","5","5","4","4","4","4","4","4","4","4","3","4","4","3","4","4","4","5","6","5","5","5","3","5","5","6","5","1","5","3","3","5","5","5","5","6","6","6","3","3","3","3","2","5","3","6","6","5","6","5","6","5","3","6","5","5","3","5","763092748139237377","李","25","Male","[""好我"",""坏我"",""坏他"",""好他""]","[""强我"",""弱我"",""弱他"",""强他""]","","","","","","","","yes","","","","","","","","","SRET","EW_formal","","key","j","16.670959183673627","630","416","自己","扎实","Positive","ability","","","","","","","","","","",""
"580","","j","psychophysics","71","344277","0.0-7.0-3.0-0.57","5","5","5","5","4","4","4","4","4","4","5","1","1","0","0","0","1","1","1","5","4","5","5","4","4","4","4","4","4","4","4","3","4","4","3","4","4","4","5","6","5","5","5","3","5","5","6","5","1","5","3","3","5","5","5","5","6","6","6","3","3","3","3","2","5","3","6","6","5","6","5","6","5","3","6","5","5","3","5","763092748139237377","李","25","Male","[""好我"",""坏我"",""坏他"",""好他""]","[""强我"",""弱我"",""弱他"",""强他""]","","","","","","","","yes","","","","","","","","","SRET","EW_formal","","key","j","16.67031914893627","630","416","朋友","善良","Positive","morality","","","","","","","","","","",""
"925","","j","psychophysics","72","346206","0.0-7.0-3.0-0.58","5","5","5","5","4","4","4","4","4","4","5","1","1","0","0","0","1","1","1","5","4","5","5","4","4","4","4","4","4","4","4","3","4","4","3","4","4","4","5","6","5","5","5","3","5","5","6","5","1","5","3","3","5","5","5","5","6","6","6","3","3","3","3","2","5","3","6","6","5","6","5","6","5","3","6","5","5","3","5","763092748139237377","李","25","Male","[""好我"",""坏我"",""坏他"",""好他""]","[""强我"",""弱我"",""弱他"",""强他""]","","","","","","","","yes","","","","","","","","","SRET","EW_formal","","key","j","16.670543859648955","630","416","朋友","全才","Positive","ability","","","","","","","","","","",""
"697","","f","psychophysics","73","347909","0.0-7.0-3.0-0.59","5","5","5","5","4","4","4","4","4","4","5","1","1","0","0","0","1","1","1","5","4","5","5","4","4","4","4","4","4","4","4","3","4","4","3","4","4","4","5","6","5","5","5","3","5","5","6","5","1","5","3","3","5","5","5","5","6","6","6","3","3","3","3","2","5","3","6","6","5","6","5","6","5","3","6","5","5","3","5","763092748139237377","李","25","Male","[""好我"",""坏我"",""坏他"",""好他""]","[""强我"",""弱我"",""弱他"",""强他""]","","","","","","","","no","","","","","","","","","SRET","EW_formal","","key","f","16.666137254901923","630","416","朋友","奸诈","Negative","morality","","","","","","","","","","",""
"836","","f","psychophysics","74","349747","0.0-7.0-3.0-0.60","5","5","5","5","4","4","4","4","4","4","5","1","1","0","0","0","1","1","1","5","4","5","5","4","4","4","4","4","4","4","4","3","4","4","3","4","4","4","5","6","5","5","5","3","5","5","6","5","1","5","3","3","5","5","5","5","6","6","6","3","3","3","3","2","5","3","6","6","5","6","5","6","5","3","6","5","5","3","5","763092748139237377","李","25","Male","[""好我"",""坏我"",""坏他"",""好他""]","[""强我"",""弱我"",""弱他"",""强他""]","","","","","","","","no","","","","","","","","","SRET","EW_formal","","key","f","16.667889908256775","630","416","朋友","短视","Negative","ability","","","","","","","","","","",""
"672","","f","psychophysics","75","351423","0.0-7.0-3.0-0.61","5","5","5","5","4","4","4","4","4","4","5","1","1","0","0","0","1","1","1","5","4","5","5","4","4","4","4","4","4","4","4","3","4","4","3","4","4","4","5","6","5","5","5","3","5","5","6","5","1","5","3","3","5","5","5","5","6","6","6","3","3","3","3","2","5","3","6","6","5","6","5","6","5","3","6","5","5","3","5","763092748139237377","李","25","Male","[""好我"",""坏我"",""坏他"",""好他""]","[""强我"",""弱我"",""弱他"",""强他""]","","","","","","","","no","","","","","","","","","SRET","EW_formal","","key","f","16.669000000000292","630","416","自己","不仁","Negative","morality","","","","","","","","","","",""
"652","","j","psychophysics","76","353077","0.0-7.0-3.0-0.62","5","5","5","5","4","4","4","4","4","4","5","1","1","0","0","0","1","1","1","5","4","5","5","4","4","4","4","4","4","4","4","3","4","4","3","4","4","4","5","6","5","5","5","3","5","5","6","5","1","5","3","3","5","5","5","5","6","6","6","3","3","3","3","2","5","3","6","6","5","6","5","6","5","3","6","5","5","3","5","763092748139237377","李","25","Male","[""好我"",""坏我"",""坏他"",""好他""]","[""强我"",""弱我"",""弱他"",""强他""]","","","","","","","","yes","","","","","","","","","SRET","EW_formal","","key","j","16.84005102040769","630","416","自己","廉明","Positive","morality","","","","","","","","","","",""
"745","","f","psychophysics","77","354824","0.0-7.0-3.0-0.63","5","5","5","5","4","4","4","4","4","4","5","1","1","0","0","0","1","1","1","5","4","5","5","4","4","4","4","4","4","4","4","3","4","4","3","4","4","4","5","6","5","5","5","3","5","5","6","5","1","5","3","3","5","5","5","5","6","6","6","3","3","3","3","2","5","3","6","6","5","6","5","6","5","3","6","5","5","3","5","763092748139237377","李","25","Male","[""好我"",""坏我"",""坏他"",""好他""]","[""强我"",""弱我"",""弱他"",""强他""]","","","","","","","","no","","","","","","","","","SRET","EW_formal","","key","f","16.66812621359261","630","416","自己","恶劣","Negative","morality","","","","","","","","","","",""
"756","","f","psychophysics","78","356583","0.0-7.0-3.0-0.64","5","5","5","5","4","4","4","4","4","4","5","1","1","0","0","0","1","1","1","5","4","5","5","4","4","4","4","4","4","4","4","3","4","4","3","4","4","4","5","6","5","5","5","3","5","5","6","5","1","5","3","3","5","5","5","5","6","6","6","3","3","3","3","2","5","3","6","6","5","6","5","6","5","3","6","5","5","3","5","763092748139237377","李","25","Male","[""好我"",""坏我"",""坏他"",""好他""]","[""强我"",""弱我"",""弱他"",""强他""]","","","","","","","","no","","","","","","","","","SRET","EW_formal","","key","f","16.827076923076955","630","416","自己","拖拉","Negative","ability","","","","","","","","","","",""
"1061","","j","psychophysics","79","358645","0.0-7.0-3.0-0.65","5","5","5","5","4","4","4","4","4","4","5","1","1","0","0","0","1","1","1","5","4","5","5","4","4","4","4","4","4","4","4","3","4","4","3","4","4","4","5","6","5","5","5","3","5","5","6","5","1","5","3","3","5","5","5","5","6","6","6","3","3","3","3","2","5","3","6","6","5","6","5","6","5","3","6","5","5","3","5","763092748139237377","李","25","Male","[""好我"",""坏我"",""坏他"",""好他""]","[""强我"",""弱我"",""弱他"",""强他""]","","","","","","","","yes","","","","","","","","","SRET","EW_formal","","key","j","16.669032520324947","630","416","朋友","无私","Positive","morality","","","","","","","","","","",""
"654","","f","psychophysics","80","360302","0.0-7.0-3.0-0.66","5","5","5","5","4","4","4","4","4","4","5","1","1","0","0","0","1","1","1","5","4","5","5","4","4","4","4","4","4","4","4","3","4","4","3","4","4","4","5","6","5","5","5","3","5","5","6","5","1","5","3","3","5","5","5","5","6","6","6","3","3","3","3","2","5","3","6","6","5","6","5","6","5","3","6","5","5","3","5","763092748139237377","李","25","Male","[""好我"",""坏我"",""坏他"",""好他""]","[""强我"",""弱我"",""弱他"",""强他""]","","","","","","","","no","","","","","","","","","SRET","EW_formal","","key","f","16.66262244897935","630","416","自己","阴毒","Negative","morality","","","","","","","","","","",""
"700","","f","psychophysics","81","362005","0.0-7.0-3.0-0.67","5","5","5","5","4","4","4","4","4","4","5","1","1","0","0","0","1","1","1","5","4","5","5","4","4","4","4","4","4","4","4","3","4","4","3","4","4","4","5","6","5","5","5","3","5","5","6","5","1","5","3","3","5","5","5","5","6","6","6","3","3","3","3","2","5","3","6","6","5","6","5","6","5","3","6","5","5","3","5","763092748139237377","李","25","Male","[""好我"",""坏我"",""坏他"",""好他""]","[""强我"",""弱我"",""弱他"",""强他""]","","","","","","","","no","","","","","","","","","SRET","EW_formal","","key","f","16.672524752475134","630","416","朋友","愚痴","Negative","ability","","","","","","","","","","",""
"724","","f","psychophysics","82","363735","0.0-7.0-3.0-0.68","5","5","5","5","4","4","4","4","4","4","5","1","1","0","0","0","1","1","1","5","4","5","5","4","4","4","4","4","4","4","4","3","4","4","3","4","4","4","5","6","5","5","5","3","5","5","6","5","1","5","3","3","5","5","5","5","6","6","6","3","3","3","3","2","5","3","6","6","5","6","5","6","5","3","6","5","5","3","5","763092748139237377","李","25","Male","[""好我"",""坏我"",""坏他"",""好他""]","[""强我"",""弱我"",""弱他"",""强他""]","","","","","","","","no","","","","","","","","","SRET","EW_formal","","key","f","16.829049019608075","630","416","朋友","黑心","Negative","morality","","","","","","","","","","",""
"824","","f","psychophysics","83","365561","0.0-7.0-3.0-0.69","5","5","5","5","4","4","4","4","4","4","5","1","1","0","0","0","1","1","1","5","4","5","5","4","4","4","4","4","4","4","4","3","4","4","3","4","4","4","5","6","5","5","5","3","5","5","6","5","1","5","3","3","5","5","5","5","6","6","6","3","3","3","3","2","5","3","6","6","5","6","5","6","5","3","6","5","5","3","5","763092748139237377","李","25","Male","[""好我"",""坏我"",""坏他"",""好他""]","[""强我"",""弱我"",""弱他"",""强他""]","","","","","","","","no","","","","","","","","","SRET","EW_formal","","key","f","16.672724770642112","630","416","自己","粗心","Negative","ability","","","","","","","","","","",""
"615","","j","psychophysics","84","367178","0.0-7.0-3.0-0.70","5","5","5","5","4","4","4","4","4","4","5","1","1","0","0","0","1","1","1","5","4","5","5","4","4","4","4","4","4","4","4","3","4","4","3","4","4","4","5","6","5","5","5","3","5","5","6","5","1","5","3","3","5","5","5","5","6","6","6","3","3","3","3","2","5","3","6","6","5","6","5","6","5","3","6","5","5","3","5","763092748139237377","李","25","Male","[""好我"",""坏我"",""坏他"",""好他""]","[""强我"",""弱我"",""弱他"",""强他""]","","","","","","","","yes","","","","","","","","","SRET","EW_formal","","key","j","16.671416666666726","630","416","朋友","慷慨","Positive","morality","","","","","","","","","","",""
"627","","j","psychophysics","85","368808","0.0-7.0-3.0-0.71","5","5","5","5","4","4","4","4","4","4","5","1","1","0","0","0","1","1","1","5","4","5","5","4","4","4","4","4","4","4","4","3","4","4","3","4","4","4","5","6","5","5","5","3","5","5","6","5","1","5","3","3","5","5","5","5","6","6","6","3","3","3","3","2","5","3","6","6","5","6","5","6","5","3","6","5","5","3","5","763092748139237377","李","25","Male","[""好我"",""坏我"",""坏他"",""好他""]","[""强我"",""弱我"",""弱他"",""强他""]","","","","","","","","yes","","","","","","","","","SRET","EW_formal","","key","j","16.660226804123276","630","416","朋友","敬业","Positive","morality","","","","","","","","","","",""
"719","","j","psychophysics","86","370531","0.0-7.0-3.0-0.72","5","5","5","5","4","4","4","4","4","4","5","1","1","0","0","0","1","1","1","5","4","5","5","4","4","4","4","4","4","4","4","3","4","4","3","4","4","4","5","6","5","5","5","3","5","5","6","5","1","5","3","3","5","5","5","5","6","6","6","3","3","3","3","2","5","3","6","6","5","6","5","6","5","3","6","5","5","3","5","763092748139237377","李","25","Male","[""好我"",""坏我"",""坏他"",""好他""]","[""强我"",""弱我"",""弱他"",""强他""]","","","","","","","","yes","","","","","","","","","SRET","EW_formal","","key","j","16.670137254902453","630","416","朋友","利落","Positive","ability","","","","","","","","","","",""
"787","","f","psychophysics","87","372321","0.0-7.0-3.0-0.73","5","5","5","5","4","4","4","4","4","4","5","1","1","0","0","0","1","1","1","5","4","5","5","4","4","4","4","4","4","4","4","3","4","4","3","4","4","4","5","6","5","5","5","3","5","5","6","5","1","5","3","3","5","5","5","5","6","6","6","3","3","3","3","2","5","3","6","6","5","6","5","6","5","3","6","5","5","3","5","763092748139237377","李","25","Male","[""好我"",""坏我"",""坏他"",""好他""]","[""强我"",""弱我"",""弱他"",""强他""]","","","","","","","","no","","","","","","","","","SRET","EW_formal","","key","f","16.6681603773586","630","416","自己","蛇蝎","Negative","morality","","","","","","","","","","",""
"740","","j","psychophysics","88","374069","0.0-7.0-3.0-0.74","5","5","5","5","4","4","4","4","4","4","5","1","1","0","0","0","1","1","1","5","4","5","5","4","4","4","4","4","4","4","4","3","4","4","3","4","4","4","5","6","5","5","5","3","5","5","6","5","1","5","3","3","5","5","5","5","6","6","6","3","3","3","3","2","5","3","6","6","5","6","5","6","5","3","6","5","5","3","5","763092748139237377","李","25","Male","[""好我"",""坏我"",""坏他"",""好他""]","[""强我"",""弱我"",""弱他"",""强他""]","","","","","","","","yes","","","","","","","","","SRET","EW_formal","","key","j","16.66981730769252","630","416","自己","依靠","Negative","ability","","","","","","","","","","",""
"687","","f","psychophysics","89","375759","0.0-7.0-3.0-0.75","5","5","5","5","4","4","4","4","4","4","5","1","1","0","0","0","1","1","1","5","4","5","5","4","4","4","4","4","4","4","4","3","4","4","3","4","4","4","5","6","5","5","5","3","5","5","6","5","1","5","3","3","5","5","5","5","6","6","6","3","3","3","3","2","5","3","6","6","5","6","5","6","5","3","6","5","5","3","5","763092748139237377","李","25","Male","[""好我"",""坏我"",""坏他"",""好他""]","[""强我"",""弱我"",""弱他"",""强他""]","","","","","","","","no","","","","","","","","","SRET","EW_formal","","key","f","16.670709999999964","630","416","自己","混账","Negative","morality","","","","","","","","","","",""
"626","","j","psychophysics","90","377387","0.0-7.0-3.0-0.76","5","5","5","5","4","4","4","4","4","4","5","1","1","0","0","0","1","1","1","5","4","5","5","4","4","4","4","4","4","4","4","3","4","4","3","4","4","4","5","6","5","5","5","3","5","5","6","5","1","5","3","3","5","5","5","5","6","6","6","3","3","3","3","2","5","3","6","6","5","6","5","6","5","3","6","5","5","3","5","763092748139237377","李","25","Male","[""好我"",""坏我"",""坏他"",""好他""]","[""强我"",""弱我"",""弱他"",""强他""]","","","","","","","","yes","","","","","","","","","SRET","EW_formal","","key","j","16.66185567010321","630","416","自己","坚持","Positive","ability","","","","","","","","","","",""
"630","","j","psychophysics","91","379024","0.0-7.0-3.0-0.77","5","5","5","5","4","4","4","4","4","4","5","1","1","0","0","0","1","1","1","5","4","5","5","4","4","4","4","4","4","4","4","3","4","4","3","4","4","4","5","6","5","5","5","3","5","5","6","5","1","5","3","3","5","5","5","5","6","6","6","3","3","3","3","2","5","3","6","6","5","6","5","6","5","3","6","5","5","3","5","763092748139237377","李","25","Male","[""好我"",""坏我"",""坏他"",""好他""]","[""强我"",""弱我"",""弱他"",""强他""]","","","","","","","","yes","","","","","","","","","SRET","EW_formal","","key","j","16.842597938143918","630","416","朋友","义气","Positive","morality","","","","","","","","","","",""
"1663","","j","psychophysics","92","381689","0.0-7.0-3.0-0.78","5","5","5","5","4","4","4","4","4","4","5","1","1","0","0","0","1","1","1","5","4","5","5","4","4","4","4","4","4","4","4","3","4","4","3","4","4","4","5","6","5","5","5","3","5","5","6","5","1","5","3","3","5","5","5","5","6","6","6","3","3","3","3","2","5","3","6","6","5","6","5","6","5","3","6","5","5","3","5","763092748139237377","李","25","Male","[""好我"",""坏我"",""坏他"",""好他""]","[""强我"",""弱我"",""弱他"",""强他""]","","","","","","","","yes","","","","","","","","","SRET","EW_formal","","key","j","16.66940506329116","630","416","自己","淡泊","Positive","morality","","","","","","","","","","",""
"619","","f","psychophysics","93","383313","0.0-7.0-3.0-0.79","5","5","5","5","4","4","4","4","4","4","5","1","1","0","0","0","1","1","1","5","4","5","5","4","4","4","4","4","4","4","4","3","4","4","3","4","4","4","5","6","5","5","5","3","5","5","6","5","1","5","3","3","5","5","5","5","6","6","6","3","3","3","3","2","5","3","6","6","5","6","5","6","5","3","6","5","5","3","5","763092748139237377","李","25","Male","[""好我"",""坏我"",""坏他"",""好他""]","[""强我"",""弱我"",""弱他"",""强他""]","","","","","","","","no","","","","","","","","","SRET","EW_formal","","key","f","16.66694845360843","630","416","朋友","诡诈","Negative","morality","","","","","","","","","","",""
"862","","f","psychophysics","94","385178","0.0-7.0-3.0-0.80","5","5","5","5","4","4","4","4","4","4","5","1","1","0","0","0","1","1","1","5","4","5","5","4","4","4","4","4","4","4","4","3","4","4","3","4","4","4","5","6","5","5","5","3","5","5","6","5","1","5","3","3","5","5","5","5","6","6","6","3","3","3","3","2","5","3","6","6","5","6","5","6","5","3","6","5","5","3","5","763092748139237377","李","25","Male","[""好我"",""坏我"",""坏他"",""好他""]","[""强我"",""弱我"",""弱他"",""强他""]","","","","","","","","no","","","","","","","","","SRET","EW_formal","","key","f","16.668774774774747","630","416","朋友","拙笨","Negative","ability","","","","","","","","","","",""
"900","","f","psychophysics","95","387080","0.0-7.0-3.0-0.81","5","5","5","5","4","4","4","4","4","4","5","1","1","0","0","0","1","1","1","5","4","5","5","4","4","4","4","4","4","4","4","3","4","4","3","4","4","4","5","6","5","5","5","3","5","5","6","5","1","5","3","3","5","5","5","5","6","6","6","3","3","3","3","2","5","3","6","6","5","6","5","6","5","3","6","5","5","3","5","763092748139237377","李","25","Male","[""好我"",""坏我"",""坏他"",""好他""]","[""强我"",""弱我"",""弱他"",""强他""]","","","","","","","","no","","","","","","","","","SRET","EW_formal","","key","f","16.667973451327175","630","416","自己","迂拙","Negative","ability","","","","","","","","","","",""
"1068","","j","psychophysics","96","389151","0.0-7.0-3.0-0.82","5","5","5","5","4","4","4","4","4","4","5","1","1","0","0","0","1","1","1","5","4","5","5","4","4","4","4","4","4","4","4","3","4","4","3","4","4","4","5","6","5","5","5","3","5","5","6","5","1","5","3","3","5","5","5","5","6","6","6","3","3","3","3","2","5","3","6","6","5","6","5","6","5","3","6","5","5","3","5","763092748139237377","李","25","Male","[""好我"",""坏我"",""坏他"",""好他""]","[""强我"",""弱我"",""弱他"",""强他""]","","","","","","","","yes","","","","","","","","","SRET","EW_formal","","key","j","16.668447154471878","630","416","自己","伪善","Negative","morality","","","","","","","","","","",""
"930","","f","psychophysics","97","391084","0.0-7.0-3.0-0.83","5","5","5","5","4","4","4","4","4","4","5","1","1","0","0","0","1","1","1","5","4","5","5","4","4","4","4","4","4","4","4","3","4","4","3","4","4","4","5","6","5","5","5","3","5","5","6","5","1","5","3","3","5","5","5","5","6","6","6","3","3","3","3","2","5","3","6","6","5","6","5","6","5","3","6","5","5","3","5","763092748139237377","李","25","Male","[""好我"",""坏我"",""坏他"",""好他""]","[""强我"",""弱我"",""弱他"",""强他""]","","","","","","","","no","","","","","","","","","SRET","EW_formal","","key","f","16.6595217391307","630","416","自己","笨蛋","Negative","ability","","","","","","","","","","",""
"876","","j","psychophysics","98","392962","0.0-7.0-3.0-0.84","5","5","5","5","4","4","4","4","4","4","5","1","1","0","0","0","1","1","1","5","4","5","5","4","4","4","4","4","4","4","4","3","4","4","3","4","4","4","5","6","5","5","5","3","5","5","6","5","1","5","3","3","5","5","5","5","6","6","6","3","3","3","3","2","5","3","6","6","5","6","5","6","5","3","6","5","5","3","5","763092748139237377","李","25","Male","[""好我"",""坏我"",""坏他"",""好他""]","[""强我"",""弱我"",""弱他"",""强他""]","","","","","","","","yes","","","","","","","","","SRET","EW_formal","","key","j","16.663633928571862","630","416","朋友","素养","Positive","morality","","","","","","","","","","",""
"932","","j","psychophysics","99","394896","0.0-7.0-3.0-0.85","5","5","5","5","4","4","4","4","4","4","5","1","1","0","0","0","1","1","1","5","4","5","5","4","4","4","4","4","4","4","4","3","4","4","3","4","4","4","5","6","5","5","5","3","5","5","6","5","1","5","3","3","5","5","5","5","6","6","6","3","3","3","3","2","5","3","6","6","5","6","5","6","5","3","6","5","5","3","5","763092748139237377","李","25","Male","[""好我"",""坏我"",""坏他"",""好他""]","[""强我"",""弱我"",""弱他"",""强他""]","","","","","","","","yes","","","","","","","","","SRET","EW_formal","","key","j","16.669539130434554","630","416","自己","主见","Positive","ability","","","","","","","","","","",""
"871","","f","psychophysics","100","396774","0.0-7.0-3.0-0.86","5","5","5","5","4","4","4","4","4","4","5","1","1","0","0","0","1","1","1","5","4","5","5","4","4","4","4","4","4","4","4","3","4","4","3","4","4","4","5","6","5","5","5","3","5","5","6","5","1","5","3","3","5","5","5","5","6","6","6","3","3","3","3","2","5","3","6","6","5","6","5","6","5","3","6","5","5","3","5","763092748139237377","李","25","Male","[""好我"",""坏我"",""坏他"",""好他""]","[""强我"",""弱我"",""弱他"",""强他""]","","","","","","","","no","","","","","","","","","SRET","EW_formal","","key","f","16.668000000000404","630","416","朋友","低俗","Negative","morality","","","","","","","","","","",""
"1067","","f","psychophysics","101","398844","0.0-7.0-3.0-0.87","5","5","5","5","4","4","4","4","4","4","5","1","1","0","0","0","1","1","1","5","4","5","5","4","4","4","4","4","4","4","4","3","4","4","3","4","4","4","5","6","5","5","5","3","5","5","6","5","1","5","3","3","5","5","5","5","6","6","6","3","3","3","3","2","5","3","6","6","5","6","5","6","5","3","6","5","5","3","5","763092748139237377","李","25","Male","[""好我"",""坏我"",""坏他"",""好他""]","[""强我"",""弱我"",""弱他"",""强他""]","","","","","","","","no","","","","","","","","","SRET","EW_formal","","key","f","16.797853658536575","630","416","自己","缓慢","Negative","ability","","","","","","","","","","",""
"30859","
    <p><div style='color:white;font-size:35px; line-height:20px;'>计算任务</div></p><br>
    <p><div style='color:red;font-size:25px; line-height:20px;'>接下来，您将看到一些四则运算题，<b>请从键盘选择 0-9 进行反应。</b></div></p>
    <p><div style='color:red;font-size:25px; line-height:20px;'>请尽可能快地进行计算，计算的速度和正确率将影响报酬的发放。</div></p>
    <p><div class='footer' style='color:white;font-size:25px; line-height:20px;'>如果对本实验还有不清楚之处，请立即向实验员咨询。</p><p style='color:white;font-size:25px; line-height:20px;'>如果您明白了规则：</p><p style='color:white;font-size:22px; line-height:20px;'>请按 继续 进入练习</p>
    </div>
    ","0","html-button-response","102","429704","0.0-7.0-4.0","5","5","5","5","4","4","4","4","4","4","5","1","1","0","0","0","1","1","1","5","4","5","5","4","4","4","4","4","4","4","4","3","4","4","3","4","4","4","5","6","5","5","5","3","5","5","6","5","1","5","3","3","5","5","5","5","6","6","6","3","3","3","3","2","5","3","6","6","5","6","5","6","5","3","6","5","5","3","5","763092748139237377","李","25","Male","[""好我"",""坏我"",""坏他"",""好他""]","[""强我"",""弱我"",""弱他"",""强他""]","","","","","","","","","","","","","","","","","SRET_math","math_instructions","Mon Jan 29 2024 16:25:34 GMT+0800 (中国标准时间)","","","","","","","","","","","","","","","","","","","",""
"2547","","9","psychophysics","103","432296","0.0-7.0-5.0-0.0","5","5","5","5","4","4","4","4","4","4","5","1","1","0","0","0","1","1","1","5","4","5","5","4","4","4","4","4","4","4","4","3","4","4","3","4","4","4","5","6","5","5","5","3","5","5","6","5","1","5","3","3","5","5","5","5","6","6","6","3","3","3","3","2","5","3","6","6","5","6","5","6","5","3","6","5","5","3","5","763092748139237377","李","25","Male","[""好我"",""坏我"",""坏他"",""好他""]","[""强我"",""弱我"",""弱他"",""强他""]","","","","","","","","9","","","","","","","","","SRET","SRET_math_calculate","","key","9","16.843220779220967","630","416","","","","","12-12= ?","0","0","","","","","","","",""
"2416","","5","psychophysics","104","434744","0.0-7.0-5.0-0.1","5","5","5","5","4","4","4","4","4","4","5","1","1","0","0","0","1","1","1","5","4","5","5","4","4","4","4","4","4","4","4","3","4","4","3","4","4","4","5","6","5","5","5","3","5","5","6","5","1","5","3","3","5","5","5","5","6","6","6","3","3","3","3","2","5","3","6","6","5","6","5","6","5","3","6","5","5","3","5","763092748139237377","李","25","Male","[""好我"",""坏我"",""坏他"",""好他""]","[""强我"",""弱我"",""弱他"",""强他""]","","","","","","","","5","","","","","","","","","SRET","SRET_math_calculate","","key","5","16.78104827586192","630","416","","","","","9-4= ?","5","1","","","","","","","",""
"2299","","7","psychophysics","105","437079","0.0-7.0-5.0-0.2","5","5","5","5","4","4","4","4","4","4","5","1","1","0","0","0","1","1","1","5","4","5","5","4","4","4","4","4","4","4","4","3","4","4","3","4","4","4","5","6","5","5","5","3","5","5","6","5","1","5","3","3","5","5","5","5","6","6","6","3","3","3","3","2","5","3","6","6","5","6","5","6","5","3","6","5","5","3","5","763092748139237377","李","25","Male","[""好我"",""坏我"",""坏他"",""好他""]","[""强我"",""弱我"",""弱他"",""强他""]","","","","","","","","7","","","","","","","","","SRET","SRET_math_calculate","","key","7","16.788014492753934","630","416","","","","","3+4= ?","7","1","","","","","","","",""
"2551","","8","psychophysics","106","439661","0.0-7.0-5.0-0.3","5","5","5","5","4","4","4","4","4","4","5","1","1","0","0","0","1","1","1","5","4","5","5","4","4","4","4","4","4","4","4","3","4","4","3","4","4","4","5","6","5","5","5","3","5","5","6","5","1","5","3","3","5","5","5","5","6","6","6","3","3","3","3","2","5","3","6","6","5","6","5","6","5","3","6","5","5","3","5","763092748139237377","李","25","Male","[""好我"",""坏我"",""坏他"",""好他""]","[""强我"",""弱我"",""弱他"",""强他""]","","","","","","","","8","","","","","","","","","SRET","SRET_math_calculate","","key","8","16.77673856209122","630","416","","","","","72/9= ?","8","1","","","","","","","",""
"2498","","0","psychophysics","107","442190","0.0-7.0-5.0-0.4","5","5","5","5","4","4","4","4","4","4","5","1","1","0","0","0","1","1","1","5","4","5","5","4","4","4","4","4","4","4","4","3","4","4","3","4","4","4","5","6","5","5","5","3","5","5","6","5","1","5","3","3","5","5","5","5","6","6","6","3","3","3","3","2","5","3","6","6","5","6","5","6","5","3","6","5","5","3","5","763092748139237377","李","25","Male","[""好我"",""坏我"",""坏他"",""好他""]","[""强我"",""弱我"",""弱他"",""强他""]","","","","","","","","0","","","","","","","","","SRET","SRET_math_calculate","","key","0","16.66922516556301","630","416","","","","","1-1= ?","0","1","","","","","","","",""
"2161","","6","psychophysics","108","444355","0.0-7.0-5.0-0.5","5","5","5","5","4","4","4","4","4","4","5","1","1","0","0","0","1","1","1","5","4","5","5","4","4","4","4","4","4","4","4","3","4","4","3","4","4","4","5","6","5","5","5","3","5","5","6","5","1","5","3","3","5","5","5","5","6","6","6","3","3","3","3","2","5","3","6","6","5","6","5","6","5","3","6","5","5","3","5","763092748139237377","李","25","Male","[""好我"",""坏我"",""坏他"",""好他""]","[""强我"",""弱我"",""弱他"",""强他""]","","","","","","","","6","","","","","","","","","SRET","SRET_math_calculate","","key","6","16.667682170542587","630","416","","","","","11-5= ?","6","1","","","","","","","",""
"2722","","1","psychophysics","109","447109","0.0-7.0-5.0-0.6","5","5","5","5","4","4","4","4","4","4","5","1","1","0","0","0","1","1","1","5","4","5","5","4","4","4","4","4","4","4","4","3","4","4","3","4","4","4","5","6","5","5","5","3","5","5","6","5","1","5","3","3","5","5","5","5","6","6","6","3","3","3","3","2","5","3","6","6","5","6","5","6","5","3","6","5","5","3","5","763092748139237377","李","25","Male","[""好我"",""坏我"",""坏他"",""好他""]","[""强我"",""弱我"",""弱他"",""强他""]","","","","","","","","1","","","","","","","","","SRET","SRET_math_calculate","","key","1","16.666554878048796","630","416","","","","","12/12= ?","1","1","","","","","","","",""
"2332","","9","psychophysics","110","449445","0.0-7.0-5.0-0.7","5","5","5","5","4","4","4","4","4","4","5","1","1","0","0","0","1","1","1","5","4","5","5","4","4","4","4","4","4","4","4","3","4","4","3","4","4","4","5","6","5","5","5","3","5","5","6","5","1","5","3","3","5","5","5","5","6","6","6","3","3","3","3","2","5","3","6","6","5","6","5","6","5","3","6","5","5","3","5","763092748139237377","李","25","Male","[""好我"",""坏我"",""坏他"",""好他""]","[""强我"",""弱我"",""弱他"",""强他""]","","","","","","","","9","","","","","","","","","SRET","SRET_math_calculate","","key","9","16.67071223021577","630","416","","","","","5+4= ?","9","1","","","","","","","",""
"2328","","8","psychophysics","111","451776","0.0-7.0-5.0-0.8","5","5","5","5","4","4","4","4","4","4","5","1","1","0","0","0","1","1","1","5","4","5","5","4","4","4","4","4","4","4","4","3","4","4","3","4","4","4","5","6","5","5","5","3","5","5","6","5","1","5","3","3","5","5","5","5","6","6","6","3","3","3","3","2","5","3","6","6","5","6","5","6","5","3","6","5","5","3","5","763092748139237377","李","25","Male","[""好我"",""坏我"",""坏他"",""好他""]","[""强我"",""弱我"",""弱他"",""强他""]","","","","","","","","8","","","","","","","","","SRET","SRET_math_calculate","","key","8","16.666553956834623","630","416","","","","","3+5= ?","8","1","","","","","","","",""
"2573","","2","psychophysics","112","454353","0.0-7.0-5.0-0.9","5","5","5","5","4","4","4","4","4","4","5","1","1","0","0","0","1","1","1","5","4","5","5","4","4","4","4","4","4","4","4","3","4","4","3","4","4","4","5","6","5","5","5","3","5","5","6","5","1","5","3","3","5","5","5","5","6","6","6","3","3","3","3","2","5","3","6","6","5","6","5","6","5","3","6","5","5","3","5","763092748139237377","李","25","Male","[""好我"",""坏我"",""坏他"",""好他""]","[""强我"",""弱我"",""弱他"",""强他""]","","","","","","","","2","","","","","","","","","SRET","SRET_math_calculate","","key","2","16.668052287581695","630","416","","","","","18/9= ?","2","1","","","","","","","",""
"2025","","9","psychophysics","113","456410","0.0-7.0-5.0-0.10","5","5","5","5","4","4","4","4","4","4","5","1","1","0","0","0","1","1","1","5","4","5","5","4","4","4","4","4","4","4","4","3","4","4","3","4","4","4","5","6","5","5","5","3","5","5","6","5","1","5","3","3","5","5","5","5","6","6","6","3","3","3","3","2","5","3","6","6","5","6","5","6","5","3","6","5","5","3","5","763092748139237377","李","25","Male","[""好我"",""坏我"",""坏他"",""好他""]","[""强我"",""弱我"",""弱他"",""强他""]","","","","","","","","9","","","","","","","","","SRET","SRET_math_calculate","","key","9","16.802680327868583","630","416","","","","","8+1= ?","9","1","","","","","","","",""
"2129","","1","psychophysics","114","458543","0.0-7.0-5.0-0.11","5","5","5","5","4","4","4","4","4","4","5","1","1","0","0","0","1","1","1","5","4","5","5","4","4","4","4","4","4","4","4","3","4","4","3","4","4","4","5","6","5","5","5","3","5","5","6","5","1","5","3","3","5","5","5","5","6","6","6","3","3","3","3","2","5","3","6","6","5","6","5","6","5","3","6","5","5","3","5","763092748139237377","李","25","Male","[""好我"",""坏我"",""坏他"",""好他""]","[""强我"",""弱我"",""弱他"",""强他""]","","","","","","","","1","","","","","","","","","SRET","SRET_math_calculate","","key","1","16.670952755905134","630","416","","","","","4/4= ?","1","1","","","","","","","",""
"2288","","2","psychophysics","115","460835","0.0-7.0-5.0-0.12","5","5","5","5","4","4","4","4","4","4","5","1","1","0","0","0","1","1","1","5","4","5","5","4","4","4","4","4","4","4","4","3","4","4","3","4","4","4","5","6","5","5","5","3","5","5","6","5","1","5","3","3","5","5","5","5","6","6","6","3","3","3","3","2","5","3","6","6","5","6","5","6","5","3","6","5","5","3","5","763092748139237377","李","25","Male","[""好我"",""坏我"",""坏他"",""好他""]","[""强我"",""弱我"",""弱他"",""强他""]","","","","","","","","2","","","","","","","","","SRET","SRET_math_calculate","","key","2","16.671227941176124","630","416","","","","","8/4= ?","2","1","","","","","","","",""
"2153","","9","psychophysics","116","463013","0.0-7.0-5.0-0.13","5","5","5","5","4","4","4","4","4","4","5","1","1","0","0","0","1","1","1","5","4","5","5","4","4","4","4","4","4","4","4","3","4","4","3","4","4","4","5","6","5","5","5","3","5","5","6","5","1","5","3","3","5","5","5","5","6","6","6","3","3","3","3","2","5","3","6","6","5","6","5","6","5","3","6","5","5","3","5","763092748139237377","李","25","Male","[""好我"",""坏我"",""坏他"",""好他""]","[""强我"",""弱我"",""弱他"",""强他""]","","","","","","","","9","","","","","","","","","SRET","SRET_math_calculate","","key","9","16.66572307692348","630","416","","","","","3*3= ?","9","1","","","","","","","",""
"1949","","9","psychophysics","117","464965","0.0-7.0-5.0-0.14","5","5","5","5","4","4","4","4","4","4","5","1","1","0","0","0","1","1","1","5","4","5","5","4","4","4","4","4","4","4","4","3","4","4","3","4","4","4","5","6","5","5","5","3","5","5","6","5","1","5","3","3","5","5","5","5","6","6","6","3","3","3","3","2","5","3","6","6","5","6","5","6","5","3","6","5","5","3","5","763092748139237377","李","25","Male","[""好我"",""坏我"",""坏他"",""好他""]","[""强我"",""弱我"",""弱他"",""强他""]","","","","","","","","9","","","","","","","","","SRET","SRET_math_calculate","","key","9","16.66595689655163","630","416","","","","","1+8= ?","9","1","","","","","","","",""
"2270","","3","psychophysics","118","467268","0.0-7.0-5.0-0.15","5","5","5","5","4","4","4","4","4","4","5","1","1","0","0","0","1","1","1","5","4","5","5","4","4","4","4","4","4","4","4","3","4","4","3","4","4","4","5","6","5","5","5","3","5","5","6","5","1","5","3","3","5","5","5","5","6","6","6","3","3","3","3","2","5","3","6","6","5","6","5","6","5","3","6","5","5","3","5","763092748139237377","李","25","Male","[""好我"",""坏我"",""坏他"",""好他""]","[""强我"",""弱我"",""弱他"",""强他""]","","","","","","","","3","","","","","","","","","SRET","SRET_math_calculate","","key","3","16.66637226277376","630","416","","","","","8-5= ?","3","1","","","","","","","",""
"2215","","2","psychophysics","119","469517","0.0-7.0-5.0-0.16","5","5","5","5","4","4","4","4","4","4","5","1","1","0","0","0","1","1","1","5","4","5","5","4","4","4","4","4","4","4","4","3","4","4","3","4","4","4","5","6","5","5","5","3","5","5","6","5","1","5","3","3","5","5","5","5","6","6","6","3","3","3","3","2","5","3","6","6","5","6","5","6","5","3","6","5","5","3","5","763092748139237377","李","25","Male","[""好我"",""坏我"",""坏他"",""好他""]","[""强我"",""弱我"",""弱他"",""强他""]","","","","","","","","2","","","","","","","","","SRET","SRET_math_calculate","","key","2","16.79033082706768","630","416","","","","","5-3= ?","2","1","","","","","","","",""
"2415","","6","psychophysics","120","471969","0.0-7.0-5.0-0.17","5","5","5","5","4","4","4","4","4","4","5","1","1","0","0","0","1","1","1","5","4","5","5","4","4","4","4","4","4","4","4","3","4","4","3","4","4","4","5","6","5","5","5","3","5","5","6","5","1","5","3","3","5","5","5","5","6","6","6","3","3","3","3","2","5","3","6","6","5","6","5","6","5","3","6","5","5","3","5","763092748139237377","李","25","Male","[""好我"",""坏我"",""坏他"",""好他""]","[""强我"",""弱我"",""弱他"",""强他""]","","","","","","","","6","","","","","","","","","SRET","SRET_math_calculate","","key","6","16.780650684931746","630","416","","","","","2*3= ?","6","1","","","","","","","",""
"6720","","5","psychophysics","121","478692","0.0-7.0-5.0-0.18","5","5","5","5","4","4","4","4","4","4","5","1","1","0","0","0","1","1","1","5","4","5","5","4","4","4","4","4","4","4","4","3","4","4","3","4","4","4","5","6","5","5","5","3","5","5","6","5","1","5","3","3","5","5","5","5","6","6","6","3","3","3","3","2","5","3","6","6","5","6","5","6","5","3","6","5","5","3","5","763092748139237377","李","25","Male","[""好我"",""坏我"",""坏他"",""好他""]","[""强我"",""弱我"",""弱他"",""强他""]","","","","","","","","5","","","","","","","","","SRET","SRET_math_calculate","","key","5","16.667383084577114","630","416","","","","","14-9= ?","5","1","","","","","","","",""
"2124","","7","psychophysics","122","480836","0.0-7.0-5.0-0.19","5","5","5","5","4","4","4","4","4","4","5","1","1","0","0","0","1","1","1","5","4","5","5","4","4","4","4","4","4","4","4","3","4","4","3","4","4","4","5","6","5","5","5","3","5","5","6","5","1","5","3","3","5","5","5","5","6","6","6","3","3","3","3","2","5","3","6","6","5","6","5","6","5","3","6","5","5","3","5","763092748139237377","李","25","Male","[""好我"",""坏我"",""坏他"",""好他""]","[""强我"",""弱我"",""弱他"",""强他""]","","","","","","","","7","","","","","","","","","SRET","SRET_math_calculate","","key","7","16.668102362204625","630","416","","","","","1+6= ?","7","1","","","","","","","",""
"2219","","8","psychophysics","123","483089","0.0-7.0-5.0-0.20","5","5","5","5","4","4","4","4","4","4","5","1","1","0","0","0","1","1","1","5","4","5","5","4","4","4","4","4","4","4","4","3","4","4","3","4","4","4","5","6","5","5","5","3","5","5","6","5","1","5","3","3","5","5","5","5","6","6","6","3","3","3","3","2","5","3","6","6","5","6","5","6","5","3","6","5","5","3","5","763092748139237377","李","25","Male","[""好我"",""坏我"",""坏他"",""好他""]","[""强我"",""弱我"",""弱他"",""强他""]","","","","","","","","8","","","","","","","","","SRET","SRET_math_calculate","","key","8","16.78917910447761","630","416","","","","","6+2= ?","8","1","","","","","","","",""
"2687","","4","psychophysics","124","485779","0.0-7.0-5.0-0.21","5","5","5","5","4","4","4","4","4","4","5","1","1","0","0","0","1","1","1","5","4","5","5","4","4","4","4","4","4","4","4","3","4","4","3","4","4","4","5","6","5","5","5","3","5","5","6","5","1","5","3","3","5","5","5","5","6","6","6","3","3","3","3","2","5","3","6","6","5","6","5","6","5","3","6","5","5","3","5","763092748139237377","李","25","Male","[""好我"",""坏我"",""坏他"",""好他""]","[""强我"",""弱我"",""弱他"",""强他""]","","","","","","","","4","","","","","","","","","SRET","SRET_math_calculate","","key","4","16.667212500000097","630","416","","","","","8-4= ?","4","1","","","","","","","",""
"2040","","9","psychophysics","125","487825","0.0-7.0-5.0-0.22","5","5","5","5","4","4","4","4","4","4","5","1","1","0","0","0","1","1","1","5","4","5","5","4","4","4","4","4","4","4","4","3","4","4","3","4","4","4","5","6","5","5","5","3","5","5","6","5","1","5","3","3","5","5","5","5","6","6","6","3","3","3","3","2","5","3","6","6","5","6","5","6","5","3","6","5","5","3","5","763092748139237377","李","25","Male","[""好我"",""坏我"",""坏他"",""好他""]","[""强我"",""弱我"",""弱他"",""强他""]","","","","","","","","9","","","","","","","","","SRET","SRET_math_calculate","","key","9","16.66757377049195","630","416","","","","","1*9= ?","9","1","","","","","","","",""
"3585","","8","psychophysics","126","491413","0.0-7.0-5.0-0.23","5","5","5","5","4","4","4","4","4","4","5","1","1","0","0","0","1","1","1","5","4","5","5","4","4","4","4","4","4","4","4","3","4","4","3","4","4","4","5","6","5","5","5","3","5","5","6","5","1","5","3","3","5","5","5","5","6","6","6","3","3","3","3","2","5","3","6","6","5","6","5","6","5","3","6","5","5","3","5","763092748139237377","李","25","Male","[""好我"",""坏我"",""坏他"",""好他""]","[""强我"",""弱我"",""弱他"",""强他""]","","","","","","","","8","","","","","","","","","SRET","SRET_math_calculate","","key","8","16.66729906542068","630","416","","","","","13-5= ?","8","1","","","","","","","",""
"2477","","0","psychophysics","127","493925","0.0-7.0-5.0-0.24","5","5","5","5","4","4","4","4","4","4","5","1","1","0","0","0","1","1","1","5","4","5","5","4","4","4","4","4","4","4","4","3","4","4","3","4","4","4","5","6","5","5","5","3","5","5","6","5","1","5","3","3","5","5","5","5","6","6","6","3","3","3","3","2","5","3","6","6","5","6","5","6","5","3","6","5","5","3","5","763092748139237377","李","25","Male","[""好我"",""坏我"",""坏他"",""好他""]","[""强我"",""弱我"",""弱他"",""强他""]","","","","","","","","0","","","","","","","","","SRET","SRET_math_calculate","","key","0","16.77967785234913","630","416","","","","","7*0= ?","0","1","","","","","","","",""
"2254","","3","psychophysics","128","496183","0.0-7.0-5.0-0.25","5","5","5","5","4","4","4","4","4","4","5","1","1","0","0","0","1","1","1","5","4","5","5","4","4","4","4","4","4","4","4","3","4","4","3","4","4","4","5","6","5","5","5","3","5","5","6","5","1","5","3","3","5","5","5","5","6","6","6","3","3","3","3","2","5","3","6","6","5","6","5","6","5","3","6","5","5","3","5","763092748139237377","李","25","Male","[""好我"",""坏我"",""坏他"",""好他""]","[""强我"",""弱我"",""弱他"",""强他""]","","","","","","","","3","","","","","","","","","SRET","SRET_math_calculate","","key","3","16.668470149253817","630","416","","","","","6/2= ?","3","1","","","","","","","",""
"2161","","7","psychophysics","129","498382","0.0-7.0-5.0-0.26","5","5","5","5","4","4","4","4","4","4","5","1","1","0","0","0","1","1","1","5","4","5","5","4","4","4","4","4","4","4","4","3","4","4","3","4","4","4","5","6","5","5","5","3","5","5","6","5","1","5","3","3","5","5","5","5","6","6","6","3","3","3","3","2","5","3","6","6","5","6","5","6","5","3","6","5","5","3","5","763092748139237377","李","25","Male","[""好我"",""坏我"",""坏他"",""好他""]","[""强我"",""弱我"",""弱他"",""强他""]","","","","","","","","7","","","","","","","","","SRET","SRET_math_calculate","","key","7","16.793376923076664","630","416","","","","","4+3= ?","7","1","","","","","","","",""
"2111","","7","psychophysics","130","500528","0.0-7.0-5.0-0.27","5","5","5","5","4","4","4","4","4","4","5","1","1","0","0","0","1","1","1","5","4","5","5","4","4","4","4","4","4","4","4","3","4","4","3","4","4","4","5","6","5","5","5","3","5","5","6","5","1","5","3","3","5","5","5","5","6","6","6","3","3","3","3","2","5","3","6","6","5","6","5","6","5","3","6","5","5","3","5","763092748139237377","李","25","Male","[""好我"",""坏我"",""坏他"",""好他""]","[""强我"",""弱我"",""弱他"",""强他""]","","","","","","","","7","","","","","","","","","SRET","SRET_math_calculate","","key","7","16.802409448818576","630","416","","","","","11-4= ?","7","1","","","","","","","",""
"2020","","2","psychophysics","131","502552","0.0-7.0-5.0-0.28","5","5","5","5","4","4","4","4","4","4","5","1","1","0","0","0","1","1","1","5","4","5","5","4","4","4","4","4","4","4","4","3","4","4","3","4","4","4","5","6","5","5","5","3","5","5","6","5","1","5","3","3","5","5","5","5","6","6","6","3","3","3","3","2","5","3","6","6","5","6","5","6","5","3","6","5","5","3","5","763092748139237377","李","25","Male","[""好我"",""坏我"",""坏他"",""好他""]","[""强我"",""弱我"",""弱他"",""强他""]","","","","","","","","2","","","","","","","","","SRET","SRET_math_calculate","","key","2","16.670791666666627","630","416","","","","","1+1= ?","2","1","","","","","","","",""
"2154","","3","psychophysics","132","504743","0.0-7.0-5.0-0.29","5","5","5","5","4","4","4","4","4","4","5","1","1","0","0","0","1","1","1","5","4","5","5","4","4","4","4","4","4","4","4","3","4","4","3","4","4","4","5","6","5","5","5","3","5","5","6","5","1","5","3","3","5","5","5","5","6","6","6","3","3","3","3","2","5","3","6","6","5","6","5","6","5","3","6","5","5","3","5","763092748139237377","李","25","Male","[""好我"",""坏我"",""坏他"",""好他""]","[""强我"",""弱我"",""弱他"",""强他""]","","","","","","","","3","","","","","","","","","SRET","SRET_math_calculate","","key","3","16.797692307692397","630","416","","","","","3*1= ?","3","1","","","","","","","",""
"3294","","4","psychophysics","133","508041","0.0-7.0-5.0-0.30","5","5","5","5","4","4","4","4","4","4","5","1","1","0","0","0","1","1","1","5","4","5","5","4","4","4","4","4","4","4","4","3","4","4","3","4","4","4","5","6","5","5","5","3","5","5","6","5","1","5","3","3","5","5","5","5","6","6","6","3","3","3","3","2","5","3","6","6","5","6","5","6","5","3","6","5","5","3","5","763092748139237377","李","25","Male","[""好我"",""坏我"",""坏他"",""好他""]","[""强我"",""弱我"",""弱他"",""强他""]","","","","","","","","4","","","","","","","","","SRET","SRET_math_calculate","","key","4","16.668370558375607","630","416","","","","","20/5= ?","4","1","","","","","","","",""
"2874","","9","psychophysics","134","510947","0.0-7.0-5.0-0.31","5","5","5","5","4","4","4","4","4","4","5","1","1","0","0","0","1","1","1","5","4","5","5","4","4","4","4","4","4","4","4","3","4","4","3","4","4","4","5","6","5","5","5","3","5","5","6","5","1","5","3","3","5","5","5","5","6","6","6","3","3","3","3","2","5","3","6","6","5","6","5","6","5","3","6","5","5","3","5","763092748139237377","李","25","Male","[""好我"",""坏我"",""坏他"",""好他""]","[""强我"",""弱我"",""弱他"",""强他""]","","","","","","","","9","","","","","","","","","SRET","SRET_math_calculate","","key","9","16.66772832369938","630","416","","","","","43-34= ?","9","1","","","","","","","",""
"2598","","1","psychophysics","135","513579","0.0-7.0-5.0-0.32","5","5","5","5","4","4","4","4","4","4","5","1","1","0","0","0","1","1","1","5","4","5","5","4","4","4","4","4","4","4","4","3","4","4","3","4","4","4","5","6","5","5","5","3","5","5","6","5","1","5","3","3","5","5","5","5","6","6","6","3","3","3","3","2","5","3","6","6","5","6","5","6","5","3","6","5","5","3","5","763092748139237377","李","25","Male","[""好我"",""坏我"",""坏他"",""好他""]","[""强我"",""弱我"",""弱他"",""强他""]","","","","","","","","1","","","","","","","","","SRET","SRET_math_calculate","","key","1","16.66678343949043","630","416","","","","","30-29= ?","1","1","","","","","","","",""
"2666","","7","psychophysics","136","516247","0.0-7.0-5.0-0.33","5","5","5","5","4","4","4","4","4","4","5","1","1","0","0","0","1","1","1","5","4","5","5","4","4","4","4","4","4","4","4","3","4","4","3","4","4","4","5","6","5","5","5","3","5","5","6","5","1","5","3","3","5","5","5","5","6","6","6","3","3","3","3","2","5","3","6","6","5","6","5","6","5","3","6","5","5","3","5","763092748139237377","李","25","Male","[""好我"",""坏我"",""坏他"",""好他""]","[""强我"",""弱我"",""弱他"",""强他""]","","","","","","","","7","","","","","","","","","SRET","SRET_math_calculate","","key","7","16.774810126582175","630","416","","","","","49/7 = ?","7","1","","","","","","","",""
"2128","","6","psychophysics","137","518413","0.0-7.0-5.0-0.34","5","5","5","5","4","4","4","4","4","4","5","1","1","0","0","0","1","1","1","5","4","5","5","4","4","4","4","4","4","4","4","3","4","4","3","4","4","4","5","6","5","5","5","3","5","5","6","5","1","5","3","3","5","5","5","5","6","6","6","3","3","3","3","2","5","3","6","6","5","6","5","6","5","3","6","5","5","3","5","763092748139237377","李","25","Male","[""好我"",""坏我"",""坏他"",""好他""]","[""强我"",""弱我"",""弱他"",""强他""]","","","","","","","","6","","","","","","","","","SRET","SRET_math_calculate","","key","6","16.798351562500102","630","416","","","","","5+1= ?","6","1","","","","","","","",""
"2301","","5","psychophysics","138","520719","0.0-7.0-5.0-0.35","5","5","5","5","4","4","4","4","4","4","5","1","1","0","0","0","1","1","1","5","4","5","5","4","4","4","4","4","4","4","4","3","4","4","3","4","4","4","5","6","5","5","5","3","5","5","6","5","1","5","3","3","5","5","5","5","6","6","6","3","3","3","3","2","5","3","6","6","5","6","5","6","5","3","6","5","5","3","5","763092748139237377","李","25","Male","[""好我"",""坏我"",""坏他"",""好他""]","[""强我"",""弱我"",""弱他"",""强他""]","","","","","","","","5","","","","","","","","","SRET","SRET_math_calculate","","key","5","16.667985401460033","630","416","","","","","3+2= ?","5","1","","","","","","","",""
"2111","","9","psychophysics","139","522859","0.0-7.0-5.0-0.36","5","5","5","5","4","4","4","4","4","4","5","1","1","0","0","0","1","1","1","5","4","5","5","4","4","4","4","4","4","4","4","3","4","4","3","4","4","4","5","6","5","5","5","3","5","5","6","5","1","5","3","3","5","5","5","5","6","6","6","3","3","3","3","2","5","3","6","6","5","6","5","6","5","3","6","5","5","3","5","763092748139237377","李","25","Male","[""好我"",""坏我"",""坏他"",""好他""]","[""强我"",""弱我"",""弱他"",""强他""]","","","","","","","","9","","","","","","","","","SRET","SRET_math_calculate","","key","9","16.667851562500346","630","416","","","","","2+7= ?","9","1","","","","","","","",""
"1890","","9","psychophysics","140","524753","0.0-7.0-5.0-0.37","5","5","5","5","4","4","4","4","4","4","5","1","1","0","0","0","1","1","1","5","4","5","5","4","4","4","4","4","4","4","4","3","4","4","3","4","4","4","5","6","5","5","5","3","5","5","6","5","1","5","3","3","5","5","5","5","6","6","6","3","3","3","3","2","5","3","6","6","5","6","5","6","5","3","6","5","5","3","5","763092748139237377","李","25","Male","[""好我"",""坏我"",""坏他"",""好他""]","[""强我"",""弱我"",""弱他"",""强他""]","","","","","","","","9","","","","","","","","","SRET","SRET_math_calculate","","key","9","16.667513274336315","630","416","","","","","1+8= ?","9","1","","","","","","","",""
"2337","","6","psychophysics","141","527094","0.0-7.0-5.0-0.38","5","5","5","5","4","4","4","4","4","4","5","1","1","0","0","0","1","1","1","5","4","5","5","4","4","4","4","4","4","4","4","3","4","4","3","4","4","4","5","6","5","5","5","3","5","5","6","5","1","5","3","3","5","5","5","5","6","6","6","3","3","3","3","2","5","3","6","6","5","6","5","6","5","3","6","5","5","3","5","763092748139237377","李","25","Male","[""好我"",""坏我"",""坏他"",""好他""]","[""强我"",""弱我"",""弱他"",""强他""]","","","","","","","","6","","","","","","","","","SRET","SRET_math_calculate","","key","6","16.66846043165445","630","416","","","","","9-3= ?","6","1","","","","","","","",""
"2624","","2","psychophysics","142","529723","0.0-7.0-5.0-0.39","5","5","5","5","4","4","4","4","4","4","5","1","1","0","0","0","1","1","1","5","4","5","5","4","4","4","4","4","4","4","4","3","4","4","3","4","4","4","5","6","5","5","5","3","5","5","6","5","1","5","3","3","5","5","5","5","6","6","6","3","3","3","3","2","5","3","6","6","5","6","5","6","5","3","6","5","5","3","5","763092748139237377","李","25","Male","[""好我"",""坏我"",""坏他"",""好他""]","[""强我"",""弱我"",""弱他"",""强他""]","","","","","","","","2","","","","","","","","","SRET","SRET_math_calculate","","key","2","16.668675159235413","630","416","","","","","12/6= ?","2","1","","","","","","","",""
"2328","","7","psychophysics","143","532055","0.0-7.0-5.0-0.40","5","5","5","5","4","4","4","4","4","4","5","1","1","0","0","0","1","1","1","5","4","5","5","4","4","4","4","4","4","4","4","3","4","4","3","4","4","4","5","6","5","5","5","3","5","5","6","5","1","5","3","3","5","5","5","5","6","6","6","3","3","3","3","2","5","3","6","6","5","6","5","6","5","3","6","5","5","3","5","763092748139237377","李","25","Male","[""好我"",""坏我"",""坏他"",""好他""]","[""强我"",""弱我"",""弱他"",""强他""]","","","","","","","","7","","","","","","","","","SRET","SRET_math_calculate","","key","7","16.66605035971227","630","416","","","","","13-6= ?","7","1","","","","","","","",""
