"rt","stimulus","response","trial_type","trial_index","time_elapsed","internal_node_id","swb_1","swb_2","swb_3","swb_4","swb_5","LOT_1","LOT_2","LOT_3","LOT_4","LOT_5","LOT_6","IPC_1","IPC_2","IPC_3","IPC_4","IPC_5","IPC_6","IPC_7","IPC_8","MorIden_1","MorIden_2","MorIden_3","MorIden_4","MorIden_5","MorIden_6","MorIden_7","MorIden_8","MorIden_9","MorIden_10","moralSeImag_1","moralSeImag_2","moralSeImag_3","moralSeImag_4","moralSeImag_5","moralSeImag_6","moralSeImag_7","moralSeImag_8","moralSeImag_9","sde_1","sde_2","sde_3","sde_4","sde_5","sde_6","sde_7","sde_8","sde_9","sde_10","trap2","sde_11","sde_12","sde_13","sde_14","sde_15","sde_16","sde_17","sde_18","sde_19","sde_20","IM_1","IM_2","IM_3","IM_4","IM_5","IM_6","IM_7","IM_8","IM_9","IM_10","IM_11","IM_12","IM_13","IM_14","IM_15","IM_16","IM_17","IM_18","IM_19","IM_20","subj_idx","friend_name","ParticipantID","Sex","Word","Word2","value","success","timeout","failed_images","failed_audio","failed_video","user_agent","responses","item_order","radio_event_ids","radio_event_times","key_event_times","mouse_event_times","straightlining","zigzagging","honeypot","task_id","screen_id","time_stamp","response_type","key_press","avg_frame_time","center_x","center_y","person","word","valence","domain","math","correct_response","correct","status","view_history","identity","duration","Image","condition","question_order","trap2_item"
"1166","
   <p><div style='color:white; font-size: 25px'>您好，欢迎参加本次实验。</div></p>
   <p><div style='color:white; font-size: 25px'>为充分保障您的权利，请确保您已经知晓并同意《参与实验同意书》以及《数据公开知情同意书》。</div></p>
   <p><div style='color:white; font-size: 25px'>如果您未见过上述内容，请咨询实验员。</div></p>
   <p style='color:white; font-size: 25px'>如果您选择继续实验，则表示您已经清楚两份知情同意书的内容并同意。</p>
   <p><div style = ""color: pink;font-size:30px;"">请确保您记得day0的实验编号，您将在本次实验输入该编号，若您忘记，请咨询实验员后作答。</div></p>
   <p><div style = ""color:lightblue;font-size:25px;"">请您尽可能认真地作答，我们将依据您在各问卷和按键任务中的作答质量发放报酬。</div></p>
   <p> <div style = ""color: green""><按空格键至下页></div> </p>
   "," ","html-keyboard-response","0","1169","0.0-0.0","6","4","5","5","6","5","2","5","5","5","4","1","1","1","1","0","1","1","1","5","5","4","4","4","4","4","4","4","4","8","7","6","7","7","6","8","8","8","6","3","3","5","6","3","6","2","5","2","1","3","3","4","3","5","5","5","3","5","2","2","3","2","3","2","6","3","6","4","4","7","6","7","4","1","3","3","6","3","5","803250783939338242","顾","526","Female","[""坏她"",""好她"",""好我"",""坏我""]","[""弱她"",""强她"",""强我"",""弱我""]","","","","","","","","","","","","","","","","","","","","","","","","","","","","","","","","","","","","","","",""
"","","","call-function","1","1170","0.0-1.0-0.0","6","4","5","5","6","5","2","5","5","5","4","1","1","1","1","0","1","1","1","5","5","4","4","4","4","4","4","4","4","8","7","6","7","7","6","8","8","8","6","3","3","5","6","3","6","2","5","2","1","3","3","4","3","5","5","5","3","5","2","2","3","2","3","2","6","3","6","4","4","7","6","7","4","1","3","3","6","3","5","803250783939338242","顾","526","Female","[""坏她"",""好她"",""好我"",""坏我""]","[""弱她"",""强她"",""强我"",""弱我""]","","","","","","","","","","","","","","","","","","","","","","","","","","","","","","","","","","","","","","",""
"13111","","[{""name"":""Sex"",""value"":""1""},{""name"":""friend_name"",""value"":""顾""},{""name"":""ParticipantID"",""value"":""526""}]","survey-html-form","2","14281","0.0-1.0-1.0","6","4","5","5","6","5","2","5","5","5","4","1","1","1","1","0","1","1","1","5","5","4","4","4","4","4","4","4","4","8","7","6","7","7","6","8","8","8","6","3","3","5","6","3","6","2","5","2","1","3","3","4","3","5","5","5","3","5","2","2","3","2","3","2","6","3","6","4","4","7","6","7","4","1","3","3","6","3","5","803250783939338242","顾","526","Female","[""坏她"",""好她"",""好我"",""坏我""]","[""弱她"",""强她"",""强我"",""弱我""]","","","","","","","","","","","","","","","","","","","","","","","","","","","","","","","","","","","","","","",""
"","","","preload","3","14870","0.0-2.0","6","4","5","5","6","5","2","5","5","5","4","1","1","1","1","0","1","1","1","5","5","4","4","4","4","4","4","4","4","8","7","6","7","7","6","8","8","8","6","3","3","5","6","3","6","2","5","2","1","3","3","4","3","5","5","5","3","5","2","2","3","2","3","2","6","3","6","4","4","7","6","7","4","1","3","3","6","3","5","803250783939338242","顾","526","Female","[""坏她"",""好她"",""好我"",""坏我""]","[""弱她"",""强她"",""强我"",""弱我""]","","true","false","[]","[]","[]","","","","","","","","","","","","","","","","","","","","","","","","","","","","","","","","",""
"","","","fullscreen","4","16491","0.0-3.0","6","4","5","5","6","5","2","5","5","5","4","1","1","1","1","0","1","1","1","5","5","4","4","4","4","4","4","4","4","8","7","6","7","7","6","8","8","8","6","3","3","5","6","3","6","2","5","2","1","3","3","4","3","5","5","5","3","5","2","2","3","2","3","2","6","3","6","4","4","7","6","7","4","1","3","3","6","3","5","803250783939338242","顾","526","Female","[""坏她"",""好她"",""好我"",""坏我""]","[""弱她"",""强她"",""强我"",""弱我""]","","true","","","","","{}","","","","","","","","","","","","","","","","","","","","","","","","","","","","","","","",""
"16882.300000000017","","{""Q01"":""6"",""Q02"":""4"",""Q03"":""5"",""Q04"":""5"",""Q05"":""6""}","survey-template","5","33377","0.0-4.0","6","4","5","5","6","5","2","5","5","5","4","1","1","1","1","0","1","1","1","5","5","4","4","4","4","4","4","4","4","8","7","6","7","7","6","8","8","8","6","3","3","5","6","3","6","2","5","2","1","3","3","4","3","5","5","5","3","5","2","2","3","2","3","2","6","3","6","4","4","7","6","7","4","1","3","3","6","3","5","803250783939338242","顾","526","Female","[""坏她"",""好她"",""好我"",""坏我""]","[""弱她"",""强她"",""强我"",""弱我""]","","","","","","","","{""Q01"":""6"",""Q02"":""4"",""Q03"":""5"",""Q04"":""5"",""Q05"":""6""}","[0,1,2,3,4]","[""Q01"",""Q02"",""Q02"",""Q03"",""Q03"",""Q04"",""Q05""]","[2507,4979.5,6553.700000000012,8412.200000000012,10646.600000000006,14261.100000000006,15948.700000000012]","[]","[2507,4979.5,6553.700000000012,8412.200000000012,10646.600000000006,14261.100000000006,15948.700000000012,16881.20000000001]","0.4","0.5","0","","","","","","","","","","","","","","","","","","","","","","",""
"18947.600000000006","","{""Q01"":""5"",""Q02"":""2"",""Q03"":""5"",""Q04"":""5"",""Q05"":""5"",""Q06"":""4""}","survey-template","6","52328","0.0-5.0","6","4","5","5","6","5","2","5","5","5","4","1","1","1","1","0","1","1","1","5","5","4","4","4","4","4","4","4","4","8","7","6","7","7","6","8","8","8","6","3","3","5","6","3","6","2","5","2","1","3","3","4","3","5","5","5","3","5","2","2","3","2","3","2","6","3","6","4","4","7","6","7","4","1","3","3","6","3","5","803250783939338242","顾","526","Female","[""坏她"",""好她"",""好我"",""坏我""]","[""弱她"",""强她"",""强我"",""弱我""]","","","","","","","","{""Q01"":""5"",""Q02"":""2"",""Q03"":""5"",""Q04"":""5"",""Q05"":""5"",""Q06"":""4""}","[0,1,2,3,4,5]","[""Q01"",""Q02"",""Q03"",""Q04"",""Q05"",""Q06""]","[3111.5,6856.3000000000175,10309,12378.100000000006,13686.5,17986.800000000017]","[]","[3111.5,5833.400000000023,6856.3000000000175,8911.600000000006,10309,12378.100000000006,13686.5,17986.800000000017,18946.300000000017]","0.3333333333333333","0.6","0","","","","","","","","","","","","","","","","","","","","","","",""
"17506.899999999994","","{""Q01"":""1"",""Q02"":""1"",""Q03"":""1"",""Q04"":""1"",""Q05"":""0"",""Q06"":""1"",""Q07"":""1"",""Q08"":""1""}","survey-template","7","69840","0.0-6.0","6","4","5","5","6","5","2","5","5","5","4","1","1","1","1","0","1","1","1","5","5","4","4","4","4","4","4","4","4","8","7","6","7","7","6","8","8","8","6","3","3","5","6","3","6","2","5","2","1","3","3","4","3","5","5","5","3","5","2","2","3","2","3","2","6","3","6","4","4","7","6","7","4","1","3","3","6","3","5","803250783939338242","顾","526","Female","[""坏她"",""好她"",""好我"",""坏我""]","[""弱她"",""强她"",""强我"",""弱我""]","","","","","","","","{""Q01"":""1"",""Q02"":""1"",""Q03"":""1"",""Q04"":""1"",""Q05"":""0"",""Q06"":""1"",""Q07"":""1"",""Q08"":""1""}","[0,1,2,3,4,5,6,7]","[""Q01"",""Q02"",""Q03"",""Q04"",""Q05"",""Q06"",""Q07"",""Q08""]","[3149.0999999999767,5027.299999999988,6426.799999999988,8323.699999999983,12095.199999999983,13704.399999999994,15013.299999999988,16393.899999999994]","[]","[3149.0999999999767,5027.299999999988,6426.799999999988,8323.699999999983,10432.199999999983,12095.199999999983,13704.399999999994,15013.299999999988,16393.899999999994,17505.699999999983]","0.875","0.2857142857142857","0","","","","","","","","","","","","","","","","","","","","","","",""
"9609","
    <p><div style='color:white;font-size:35px; line-height:20px;'>词汇评估任务</div></p><br>
    <p><div style='color:white;font-size:25px; line-height:20px;'>请再次回忆该亲密的朋友，你们至少2年前就认识了，并且最近2年经常见面。</div></p>
    <p><div style='color:white;font-size:25px; line-height:20px;'>在本实验中，您将会看到一些形容词。</div></p>
    <p><div style='color:yellow;font-size:25px; line-height:20px;'>您的任务是判断这些形容词是否符合对您自己或您的朋友的描述。</div></p><p style='font-size:35px'>符合按<span style=""color:lightgreen""> f 键</span>，不符合按<span style=""color:red""> j 键</span></p>","0","html-button-response","8","79452","0.0-7.0-0.0","6","4","5","5","6","5","2","5","5","5","4","1","1","1","1","0","1","1","1","5","5","4","4","4","4","4","4","4","4","8","7","6","7","7","6","8","8","8","6","3","3","5","6","3","6","2","5","2","1","3","3","4","3","5","5","5","3","5","2","2","3","2","3","2","6","3","6","4","4","7","6","7","4","1","3","3","6","3","5","803250783939338242","顾","526","Female","[""坏她"",""好她"",""好我"",""坏我""]","[""弱她"",""强她"",""强我"",""弱我""]","","","","","","","","","","","","","","","","","SRET_EW","EW_instructions","Wed Jan 31 2024 18:38:46 GMT+0800 (中国标准时间)","","","","","","","","","","","","","","","","","","","",""
"669","","j","psychophysics","9","81125","0.0-7.0-1.0-0.0","6","4","5","5","6","5","2","5","5","5","4","1","1","1","1","0","1","1","1","5","5","4","4","4","4","4","4","4","4","8","7","6","7","7","6","8","8","8","6","3","3","5","6","3","6","2","5","2","1","3","3","4","3","5","5","5","3","5","2","2","3","2","3","2","6","3","6","4","4","7","6","7","4","1","3","3","6","3","5","803250783939338242","顾","526","Female","[""坏她"",""好她"",""好我"",""坏我""]","[""弱她"",""强她"",""强我"",""弱我""]","","","","","","","","no","","","","","","","","","SRET_EW","EW_practice","","key","j","16.65400000000009","640","356","朋友","徇私","Negative","morality","","","","","","","","","","",""
"823","","f","psychophysics","10","82951","0.0-7.0-1.0-0.1","6","4","5","5","6","5","2","5","5","5","4","1","1","1","1","0","1","1","1","5","5","4","4","4","4","4","4","4","4","8","7","6","7","7","6","8","8","8","6","3","3","5","6","3","6","2","5","2","1","3","3","4","3","5","5","5","3","5","2","2","3","2","3","2","6","3","6","4","4","7","6","7","4","1","3","3","6","3","5","803250783939338242","顾","526","Female","[""坏她"",""好她"",""好我"",""坏我""]","[""弱她"",""强她"",""强我"",""弱我""]","","","","","","","","yes","","","","","","","","","SRET_EW","EW_practice","","key","f","16.65779816513759","640","356","朋友","忠实","Positive","morality","","","","","","","","","","",""
"796","","f","psychophysics","11","84750","0.0-7.0-1.0-0.2","6","4","5","5","6","5","2","5","5","5","4","1","1","1","1","0","1","1","1","5","5","4","4","4","4","4","4","4","4","8","7","6","7","7","6","8","8","8","6","3","3","5","6","3","6","2","5","2","1","3","3","4","3","5","5","5","3","5","2","2","3","2","3","2","6","3","6","4","4","7","6","7","4","1","3","3","6","3","5","803250783939338242","顾","526","Female","[""坏她"",""好她"",""好我"",""坏我""]","[""弱她"",""强她"",""强我"",""弱我""]","","","","","","","","yes","","","","","","","","","SRET_EW","EW_practice","","key","f","16.57943925233645","640","356","自己","严谨","Positive","ability","","","","","","","","","","",""
"1230","","j","psychophysics","12","86983","0.0-7.0-1.0-0.3","6","4","5","5","6","5","2","5","5","5","4","1","1","1","1","0","1","1","1","5","5","4","4","4","4","4","4","4","4","8","7","6","7","7","6","8","8","8","6","3","3","5","6","3","6","2","5","2","1","3","3","4","3","5","5","5","3","5","2","2","3","2","3","2","6","3","6","4","4","7","6","7","4","1","3","3","6","3","5","803250783939338242","顾","526","Female","[""坏她"",""好她"",""好我"",""坏我""]","[""弱她"",""强她"",""强我"",""弱我""]","","","","","","","","no","","","","","","","","","SRET_EW","EW_practice","","key","j","16.657142857142812","640","356","自己","刻板","Negative","ability","","","","","","","","","","",""
"6616","
    <p><div style='color:white;font-size:35px; line-height:20px;'>请您再次阅读实验要求</div></p><br>
    <p><div style='color:white;font-size:25px; line-height:20px;'>请回忆某一个亲密的朋友，你们至少2年前就认识了，并且最近2年经常见面。</div></p>
    <p><div style='color:white;font-size:25px; line-height:20px;'>在本实验中，您将会看到一些形容词。</div></p>
    <p><div style='color:yellow;font-size:25px; line-height:20px;'>您的任务是判断这些形容词是否符合对您自己或您的朋友的描述。</div></p>
    <p><div class='footer' style='font-size:25px; line-height:20px;'>如果对本实验还有不清楚之处，请立即向实验员咨询。</p><p style='font-size:25px; line-height:20px;'>如果您明白了规则：</p><p style='font-size:22px; line-height:20px;'>请按 继续 进入正式实验</p>
    </div>
    <p style='font-size:35px'>符合按<span style=""color:lightgreen""> f 键</span>，不符合按<span style=""color:red""> j 键</span></p>","0","html-button-response","13","93602","0.0-7.0-2.0","6","4","5","5","6","5","2","5","5","5","4","1","1","1","1","0","1","1","1","5","5","4","4","4","4","4","4","4","4","8","7","6","7","7","6","8","8","8","6","3","3","5","6","3","6","2","5","2","1","3","3","4","3","5","5","5","3","5","2","2","3","2","3","2","6","3","6","4","4","7","6","7","4","1","3","3","6","3","5","803250783939338242","顾","526","Female","[""坏她"",""好她"",""好我"",""坏我""]","[""弱她"",""强她"",""强我"",""弱我""]","","","","","","","","","","","","","","","","","SRET_EW","prac_instructions","Wed Jan 31 2024 18:38:46 GMT+0800 (中国标准时间)","","","","","","","","","","","","","","","","","","","",""
"956","","j","psychophysics","14","95563","0.0-7.0-3.0-0.0","6","4","5","5","6","5","2","5","5","5","4","1","1","1","1","0","1","1","1","5","5","4","4","4","4","4","4","4","4","8","7","6","7","7","6","8","8","8","6","3","3","5","6","3","6","2","5","2","1","3","3","4","3","5","5","5","3","5","2","2","3","2","3","2","6","3","6","4","4","7","6","7","4","1","3","3","6","3","5","803250783939338242","顾","526","Female","[""坏她"",""好她"",""好我"",""坏我""]","[""弱她"",""强她"",""强我"",""弱我""]","","","","","","","","no","","","","","","","","","SRET","EW_formal","","key","j","16.644915254237215","640","356","朋友","务实","Positive","ability","","","","","","","","","","",""
"null","","null","psychophysics","15","98568","0.0-7.0-3.0-0.1","6","4","5","5","6","5","2","5","5","5","4","1","1","1","1","0","1","1","1","5","5","4","4","4","4","4","4","4","4","8","7","6","7","7","6","8","8","8","6","3","3","5","6","3","6","2","5","2","1","3","3","4","3","5","5","5","3","5","2","2","3","2","3","2","6","3","6","4","4","7","6","7","4","1","3","3","6","3","5","803250783939338242","顾","526","Female","[""坏她"",""好她"",""好我"",""坏我""]","[""弱她"",""强她"",""强我"",""弱我""]","","","","","","","","","","","","","","","","","SRET","EW_formal","","key","null","16.658100558659235","640","356","自己","说谎","Negative","morality","","","","","","","","","","",""
"595","","f","psychophysics","16","100165","0.0-7.0-3.0-0.2","6","4","5","5","6","5","2","5","5","5","4","1","1","1","1","0","1","1","1","5","5","4","4","4","4","4","4","4","4","8","7","6","7","7","6","8","8","8","6","3","3","5","6","3","6","2","5","2","1","3","3","4","3","5","5","5","3","5","2","2","3","2","3","2","6","3","6","4","4","7","6","7","4","1","3","3","6","3","5","803250783939338242","顾","526","Female","[""坏她"",""好她"",""好我"",""坏我""]","[""弱她"",""强她"",""强我"",""弱我""]","","","","","","","","yes","","","","","","","","","SRET","EW_formal","","key","f","16.612631578947337","640","356","自己","坚贞","Positive","morality","","","","","","","","","","",""
"749","","f","psychophysics","17","101914","0.0-7.0-3.0-0.3","6","4","5","5","6","5","2","5","5","5","4","1","1","1","1","0","1","1","1","5","5","4","4","4","4","4","4","4","4","8","7","6","7","7","6","8","8","8","6","3","3","5","6","3","6","2","5","2","1","3","3","4","3","5","5","5","3","5","2","2","3","2","3","2","6","3","6","4","4","7","6","7","4","1","3","3","6","3","5","803250783939338242","顾","526","Female","[""坏她"",""好她"",""好我"",""坏我""]","[""弱她"",""强她"",""强我"",""弱我""]","","","","","","","","yes","","","","","","","","","SRET","EW_formal","","key","f","16.658653846153847","640","356","朋友","迷糊","Negative","ability","","","","","","","","","","",""
"692","","f","psychophysics","18","103607","0.0-7.0-3.0-0.4","6","4","5","5","6","5","2","5","5","5","4","1","1","1","1","0","1","1","1","5","5","4","4","4","4","4","4","4","4","8","7","6","7","7","6","8","8","8","6","3","3","5","6","3","6","2","5","2","1","3","3","4","3","5","5","5","3","5","2","2","3","2","3","2","6","3","6","4","4","7","6","7","4","1","3","3","6","3","5","803250783939338242","顾","526","Female","[""坏她"",""好她"",""好我"",""坏我""]","[""弱她"",""强她"",""强我"",""弱我""]","","","","","","","","yes","","","","","","","","","SRET","EW_formal","","key","f","16.643564356435643","640","356","自己","孝顺","Positive","morality","","","","","","","","","","",""
"586","","f","psychophysics","19","105195","0.0-7.0-3.0-0.5","6","4","5","5","6","5","2","5","5","5","4","1","1","1","1","0","1","1","1","5","5","4","4","4","4","4","4","4","4","8","7","6","7","7","6","8","8","8","6","3","3","5","6","3","6","2","5","2","1","3","3","4","3","5","5","5","3","5","2","2","3","2","3","2","6","3","6","4","4","7","6","7","4","1","3","3","6","3","5","803250783939338242","顾","526","Female","[""坏她"",""好她"",""好我"",""坏我""]","[""弱她"",""强她"",""强我"",""弱我""]","","","","","","","","yes","","","","","","","","","SRET","EW_formal","","key","f","16.659574468085108","640","356","朋友","高效","Positive","ability","","","","","","","","","","",""
"963","","j","psychophysics","20","107158","0.0-7.0-3.0-0.6","6","4","5","5","6","5","2","5","5","5","4","1","1","1","1","0","1","1","1","5","5","4","4","4","4","4","4","4","4","8","7","6","7","7","6","8","8","8","6","3","3","5","6","3","6","2","5","2","1","3","3","4","3","5","5","5","3","5","2","2","3","2","3","2","6","3","6","4","4","7","6","7","4","1","3","3","6","3","5","803250783939338242","顾","526","Female","[""坏她"",""好她"",""好我"",""坏我""]","[""弱她"",""强她"",""强我"",""弱我""]","","","","","","","","no","","","","","","","","","SRET","EW_formal","","key","j","16.65982905982916","640","356","朋友","远见","Positive","ability","","","","","","","","","","",""
"613","","f","psychophysics","21","108772","0.0-7.0-3.0-0.7","6","4","5","5","6","5","2","5","5","5","4","1","1","1","1","0","1","1","1","5","5","4","4","4","4","4","4","4","4","8","7","6","7","7","6","8","8","8","6","3","3","5","6","3","6","2","5","2","1","3","3","4","3","5","5","5","3","5","2","2","3","2","3","2","6","3","6","4","4","7","6","7","4","1","3","3","6","3","5","803250783939338242","顾","526","Female","[""坏她"",""好她"",""好我"",""坏我""]","[""弱她"",""强她"",""强我"",""弱我""]","","","","","","","","yes","","","","","","","","","SRET","EW_formal","","key","f","16.658333333333303","640","356","自己","果决","Positive","ability","","","","","","","","","","",""
"600","","f","psychophysics","22","110373","0.0-7.0-3.0-0.8","6","4","5","5","6","5","2","5","5","5","4","1","1","1","1","0","1","1","1","5","5","4","4","4","4","4","4","4","4","8","7","6","7","7","6","8","8","8","6","3","3","5","6","3","6","2","5","2","1","3","3","4","3","5","5","5","3","5","2","2","3","2","3","2","6","3","6","4","4","7","6","7","4","1","3","3","6","3","5","803250783939338242","顾","526","Female","[""坏她"",""好她"",""好我"",""坏我""]","[""弱她"",""强她"",""强我"",""弱我""]","","","","","","","","yes","","","","","","","","","SRET","EW_formal","","key","f","16.659999999999968","640","356","朋友","专注","Positive","ability","","","","","","","","","","",""
"802","","j","psychophysics","23","112177","0.0-7.0-3.0-0.9","6","4","5","5","6","5","2","5","5","5","4","1","1","1","1","0","1","1","1","5","5","4","4","4","4","4","4","4","4","8","7","6","7","7","6","8","8","8","6","3","3","5","6","3","6","2","5","2","1","3","3","4","3","5","5","5","3","5","2","2","3","2","3","2","6","3","6","4","4","7","6","7","4","1","3","3","6","3","5","803250783939338242","顾","526","Female","[""坏她"",""好她"",""好我"",""坏我""]","[""弱她"",""强她"",""强我"",""弱我""]","","","","","","","","no","","","","","","","","","SRET","EW_formal","","key","j","16.6588785046729","640","356","自己","无助","Negative","ability","","","","","","","","","","",""
"732","","f","psychophysics","24","113912","0.0-7.0-3.0-0.10","6","4","5","5","6","5","2","5","5","5","4","1","1","1","1","0","1","1","1","5","5","4","4","4","4","4","4","4","4","8","7","6","7","7","6","8","8","8","6","3","3","5","6","3","6","2","5","2","1","3","3","4","3","5","5","5","3","5","2","2","3","2","3","2","6","3","6","4","4","7","6","7","4","1","3","3","6","3","5","803250783939338242","顾","526","Female","[""坏她"",""好她"",""好我"",""坏我""]","[""弱她"",""强她"",""强我"",""弱我""]","","","","","","","","yes","","","","","","","","","SRET","EW_formal","","key","f","16.63883495145634","640","356","朋友","短浅","Negative","ability","","","","","","","","","","",""
"783","","f","psychophysics","25","115696","0.0-7.0-3.0-0.11","6","4","5","5","6","5","2","5","5","5","4","1","1","1","1","0","1","1","1","5","5","4","4","4","4","4","4","4","4","8","7","6","7","7","6","8","8","8","6","3","3","5","6","3","6","2","5","2","1","3","3","4","3","5","5","5","3","5","2","2","3","2","3","2","6","3","6","4","4","7","6","7","4","1","3","3","6","3","5","803250783939338242","顾","526","Female","[""坏她"",""好她"",""好我"",""坏我""]","[""弱她"",""强她"",""强我"",""弱我""]","","","","","","","","yes","","","","","","","","","SRET","EW_formal","","key","f","16.659433962264096","640","356","朋友","坦荡","Positive","morality","","","","","","","","","","",""
"846","","f","psychophysics","26","117544","0.0-7.0-3.0-0.12","6","4","5","5","6","5","2","5","5","5","4","1","1","1","1","0","1","1","1","5","5","4","4","4","4","4","4","4","4","8","7","6","7","7","6","8","8","8","6","3","3","5","6","3","6","2","5","2","1","3","3","4","3","5","5","5","3","5","2","2","3","2","3","2","6","3","6","4","4","7","6","7","4","1","3","3","6","3","5","803250783939338242","顾","526","Female","[""坏她"",""好她"",""好我"",""坏我""]","[""弱她"",""强她"",""强我"",""弱我""]","","","","","","","","yes","","","","","","","","","SRET","EW_formal","","key","f","16.662727272727352","640","356","自己","思辨","Positive","ability","","","","","","","","","","",""
"1010","","f","psychophysics","27","119557","0.0-7.0-3.0-0.13","6","4","5","5","6","5","2","5","5","5","4","1","1","1","1","0","1","1","1","5","5","4","4","4","4","4","4","4","4","8","7","6","7","7","6","8","8","8","6","3","3","5","6","3","6","2","5","2","1","3","3","4","3","5","5","5","3","5","2","2","3","2","3","2","6","3","6","4","4","7","6","7","4","1","3","3","6","3","5","803250783939338242","顾","526","Female","[""坏她"",""好她"",""好我"",""坏我""]","[""弱她"",""强她"",""强我"",""弱我""]","","","","","","","","yes","","","","","","","","","SRET","EW_formal","","key","f","16.647499999999976","640","356","朋友","好心","Positive","morality","","","","","","","","","","",""
"637","","f","psychophysics","28","121197","0.0-7.0-3.0-0.14","6","4","5","5","6","5","2","5","5","5","4","1","1","1","1","0","1","1","1","5","5","4","4","4","4","4","4","4","4","8","7","6","7","7","6","8","8","8","6","3","3","5","6","3","6","2","5","2","1","3","3","4","3","5","5","5","3","5","2","2","3","2","3","2","6","3","6","4","4","7","6","7","4","1","3","3","6","3","5","803250783939338242","顾","526","Female","[""坏她"",""好她"",""好我"",""坏我""]","[""弱她"",""强她"",""强我"",""弱我""]","","","","","","","","yes","","","","","","","","","SRET","EW_formal","","key","f","16.658163265306122","640","356","朋友","果断","Positive","ability","","","","","","","","","","",""
"809","","f","psychophysics","29","123008","0.0-7.0-3.0-0.15","6","4","5","5","6","5","2","5","5","5","4","1","1","1","1","0","1","1","1","5","5","4","4","4","4","4","4","4","4","8","7","6","7","7","6","8","8","8","6","3","3","5","6","3","6","2","5","2","1","3","3","4","3","5","5","5","3","5","2","2","3","2","3","2","6","3","6","4","4","7","6","7","4","1","3","3","6","3","5","803250783939338242","顾","526","Female","[""坏她"",""好她"",""好我"",""坏我""]","[""弱她"",""强她"",""强我"",""弱我""]","","","","","","","","yes","","","","","","","","","SRET","EW_formal","","key","f","16.65700934579442","640","356","自己","仁爱","Positive","morality","","","","","","","","","","",""
"1520","","j","psychophysics","30","125530","0.0-7.0-3.0-0.16","6","4","5","5","6","5","2","5","5","5","4","1","1","1","1","0","1","1","1","5","5","4","4","4","4","4","4","4","4","8","7","6","7","7","6","8","8","8","6","3","3","5","6","3","6","2","5","2","1","3","3","4","3","5","5","5","3","5","2","2","3","2","3","2","6","3","6","4","4","7","6","7","4","1","3","3","6","3","5","803250783939338242","顾","526","Female","[""坏她"",""好她"",""好我"",""坏我""]","[""弱她"",""强她"",""强我"",""弱我""]","","","","","","","","no","","","","","","","","","SRET","EW_formal","","key","j","16.656291390728516","640","356","朋友","驽钝","Negative","ability","","","","","","","","","","",""
"965","","j","psychophysics","31","127497","0.0-7.0-3.0-0.17","6","4","5","5","6","5","2","5","5","5","4","1","1","1","1","0","1","1","1","5","5","4","4","4","4","4","4","4","4","8","7","6","7","7","6","8","8","8","6","3","3","5","6","3","6","2","5","2","1","3","3","4","3","5","5","5","3","5","2","2","3","2","3","2","6","3","6","4","4","7","6","7","4","1","3","3","6","3","5","803250783939338242","顾","526","Female","[""坏她"",""好她"",""好我"",""坏我""]","[""弱她"",""强她"",""强我"",""弱我""]","","","","","","","","no","","","","","","","","","SRET","EW_formal","","key","j","16.658974358974284","640","356","自己","拙笨","Negative","ability","","","","","","","","","","",""
"913","","f","psychophysics","32","129412","0.0-7.0-3.0-0.18","6","4","5","5","6","5","2","5","5","5","4","1","1","1","1","0","1","1","1","5","5","4","4","4","4","4","4","4","4","8","7","6","7","7","6","8","8","8","6","3","3","5","6","3","6","2","5","2","1","3","3","4","3","5","5","5","3","5","2","2","3","2","3","2","6","3","6","4","4","7","6","7","4","1","3","3","6","3","5","803250783939338242","顾","526","Female","[""坏她"",""好她"",""好我"",""坏我""]","[""弱她"",""强她"",""强我"",""弱我""]","","","","","","","","yes","","","","","","","","","SRET","EW_formal","","key","f","16.657017543859727","640","356","自己","中用","Positive","ability","","","","","","","","","","",""
"945","","j","psychophysics","33","131358","0.0-7.0-3.0-0.19","6","4","5","5","6","5","2","5","5","5","4","1","1","1","1","0","1","1","1","5","5","4","4","4","4","4","4","4","4","8","7","6","7","7","6","8","8","8","6","3","3","5","6","3","6","2","5","2","1","3","3","4","3","5","5","5","3","5","2","2","3","2","3","2","6","3","6","4","4","7","6","7","4","1","3","3","6","3","5","803250783939338242","顾","526","Female","[""坏她"",""好她"",""好我"",""坏我""]","[""弱她"",""强她"",""强我"",""弱我""]","","","","","","","","no","","","","","","","","","SRET","EW_formal","","key","j","16.601724137931186","640","356","朋友","淡泊","Positive","morality","","","","","","","","","","",""
"1021","","j","psychophysics","34","133381","0.0-7.0-3.0-0.20","6","4","5","5","6","5","2","5","5","5","4","1","1","1","1","0","1","1","1","5","5","4","4","4","4","4","4","4","4","8","7","6","7","7","6","8","8","8","6","3","3","5","6","3","6","2","5","2","1","3","3","4","3","5","5","5","3","5","2","2","3","2","3","2","6","3","6","4","4","7","6","7","4","1","3","3","6","3","5","803250783939338242","顾","526","Female","[""坏她"",""好她"",""好我"",""坏我""]","[""弱她"",""强她"",""强我"",""弱我""]","","","","","","","","no","","","","","","","","","SRET","EW_formal","","key","j","16.660000000000096","640","356","朋友","龌龊","Negative","morality","","","","","","","","","","",""
"660","","f","psychophysics","35","135044","0.0-7.0-3.0-0.21","6","4","5","5","6","5","2","5","5","5","4","1","1","1","1","0","1","1","1","5","5","4","4","4","4","4","4","4","4","8","7","6","7","7","6","8","8","8","6","3","3","5","6","3","6","2","5","2","1","3","3","4","3","5","5","5","3","5","2","2","3","2","3","2","6","3","6","4","4","7","6","7","4","1","3","3","6","3","5","803250783939338242","顾","526","Female","[""坏她"",""好她"",""好我"",""坏我""]","[""弱她"",""强她"",""强我"",""弱我""]","","","","","","","","yes","","","","","","","","","SRET","EW_formal","","key","f","16.661616161616163","640","356","朋友","上进","Positive","ability","","","","","","","","","","",""
"896","","j","psychophysics","36","136942","0.0-7.0-3.0-0.22","6","4","5","5","6","5","2","5","5","5","4","1","1","1","1","0","1","1","1","5","5","4","4","4","4","4","4","4","4","8","7","6","7","7","6","8","8","8","6","3","3","5","6","3","6","2","5","2","1","3","3","4","3","5","5","5","3","5","2","2","3","2","3","2","6","3","6","4","4","7","6","7","4","1","3","3","6","3","5","803250783939338242","顾","526","Female","[""坏她"",""好她"",""好我"",""坏我""]","[""弱她"",""强她"",""强我"",""弱我""]","","","","","","","","no","","","","","","","","","SRET","EW_formal","","key","j","16.660176991150493","640","356","朋友","诡诈","Negative","morality","","","","","","","","","","",""
"721","","j","psychophysics","37","138664","0.0-7.0-3.0-0.23","6","4","5","5","6","5","2","5","5","5","4","1","1","1","1","0","1","1","1","5","5","4","4","4","4","4","4","4","4","8","7","6","7","7","6","8","8","8","6","3","3","5","6","3","6","2","5","2","1","3","3","4","3","5","5","5","3","5","2","2","3","2","3","2","6","3","6","4","4","7","6","7","4","1","3","3","6","3","5","803250783939338242","顾","526","Female","[""坏她"",""好她"",""好我"",""坏我""]","[""弱她"",""强她"",""强我"",""弱我""]","","","","","","","","no","","","","","","","","","SRET","EW_formal","","key","j","16.6549019607842","640","356","朋友","犹豫","Negative","ability","","","","","","","","","","",""
"903","","j","psychophysics","38","140568","0.0-7.0-3.0-0.24","6","4","5","5","6","5","2","5","5","5","4","1","1","1","1","0","1","1","1","5","5","4","4","4","4","4","4","4","4","8","7","6","7","7","6","8","8","8","6","3","3","5","6","3","6","2","5","2","1","3","3","4","3","5","5","5","3","5","2","2","3","2","3","2","6","3","6","4","4","7","6","7","4","1","3","3","6","3","5","803250783939338242","顾","526","Female","[""坏她"",""好她"",""好我"",""坏我""]","[""弱她"",""强她"",""强我"",""弱我""]","","","","","","","","no","","","","","","","","","SRET","EW_formal","","key","j","16.65929203539823","640","356","朋友","差生","Negative","ability","","","","","","","","","","",""
"759","","j","psychophysics","39","142329","0.0-7.0-3.0-0.25","6","4","5","5","6","5","2","5","5","5","4","1","1","1","1","0","1","1","1","5","5","4","4","4","4","4","4","4","4","8","7","6","7","7","6","8","8","8","6","3","3","5","6","3","6","2","5","2","1","3","3","4","3","5","5","5","3","5","2","2","3","2","3","2","6","3","6","4","4","7","6","7","4","1","3","3","6","3","5","803250783939338242","顾","526","Female","[""坏她"",""好她"",""好我"",""坏我""]","[""弱她"",""强她"",""强我"",""弱我""]","","","","","","","","no","","","","","","","","","SRET","EW_formal","","key","j","16.65714285714286","640","356","自己","愚钝","Negative","ability","","","","","","","","","","",""
"875","","f","psychophysics","40","144205","0.0-7.0-3.0-0.26","6","4","5","5","6","5","2","5","5","5","4","1","1","1","1","0","1","1","1","5","5","4","4","4","4","4","4","4","4","8","7","6","7","7","6","8","8","8","6","3","3","5","6","3","6","2","5","2","1","3","3","4","3","5","5","5","3","5","2","2","3","2","3","2","6","3","6","4","4","7","6","7","4","1","3","3","6","3","5","803250783939338242","顾","526","Female","[""坏她"",""好她"",""好我"",""坏我""]","[""弱她"",""强她"",""强我"",""弱我""]","","","","","","","","yes","","","","","","","","","SRET","EW_formal","","key","f","16.65892857142847","640","356","朋友","奉献","Positive","morality","","","","","","","","","","",""
"703","","j","psychophysics","41","145910","0.0-7.0-3.0-0.27","6","4","5","5","6","5","2","5","5","5","4","1","1","1","1","0","1","1","1","5","5","4","4","4","4","4","4","4","4","8","7","6","7","7","6","8","8","8","6","3","3","5","6","3","6","2","5","2","1","3","3","4","3","5","5","5","3","5","2","2","3","2","3","2","6","3","6","4","4","7","6","7","4","1","3","3","6","3","5","803250783939338242","顾","526","Female","[""坏她"",""好她"",""好我"",""坏我""]","[""弱她"",""强她"",""强我"",""弱我""]","","","","","","","","no","","","","","","","","","SRET","EW_formal","","key","j","16.663366336633665","640","356","朋友","贪腐","Negative","morality","","","","","","","","","","",""
"779","","j","psychophysics","42","147691","0.0-7.0-3.0-0.28","6","4","5","5","6","5","2","5","5","5","4","1","1","1","1","0","1","1","1","5","5","4","4","4","4","4","4","4","4","8","7","6","7","7","6","8","8","8","6","3","3","5","6","3","6","2","5","2","1","3","3","4","3","5","5","5","3","5","2","2","3","2","3","2","6","3","6","4","4","7","6","7","4","1","3","3","6","3","5","803250783939338242","顾","526","Female","[""坏她"",""好她"",""好我"",""坏我""]","[""弱她"",""强她"",""强我"",""弱我""]","","","","","","","","no","","","","","","","","","SRET","EW_formal","","key","j","16.649999999999945","640","356","朋友","窝囊","Negative","ability","","","","","","","","","","",""
"1102","","f","psychophysics","43","149796","0.0-7.0-3.0-0.29","6","4","5","5","6","5","2","5","5","5","4","1","1","1","1","0","1","1","1","5","5","4","4","4","4","4","4","4","4","8","7","6","7","7","6","8","8","8","6","3","3","5","6","3","6","2","5","2","1","3","3","4","3","5","5","5","3","5","2","2","3","2","3","2","6","3","6","4","4","7","6","7","4","1","3","3","6","3","5","803250783939338242","顾","526","Female","[""坏她"",""好她"",""好我"",""坏我""]","[""弱她"",""强她"",""强我"",""弱我""]","","","","","","","","yes","","","","","","","","","SRET","EW_formal","","key","f","16.659200000000187","640","356","朋友","礼貌","Positive","morality","","","","","","","","","","",""
"601","","j","psychophysics","44","151398","0.0-7.0-3.0-0.30","6","4","5","5","6","5","2","5","5","5","4","1","1","1","1","0","1","1","1","5","5","4","4","4","4","4","4","4","4","8","7","6","7","7","6","8","8","8","6","3","3","5","6","3","6","2","5","2","1","3","3","4","3","5","5","5","3","5","2","2","3","2","3","2","6","3","6","4","4","7","6","7","4","1","3","3","6","3","5","803250783939338242","顾","526","Female","[""坏她"",""好她"",""好我"",""坏我""]","[""弱她"",""强她"",""强我"",""弱我""]","","","","","","","","no","","","","","","","","","SRET","EW_formal","","key","j","16.66000000000012","640","356","自己","虚伪","Negative","morality","","","","","","","","","","",""
"671","","f","psychophysics","45","153070","0.0-7.0-3.0-0.31","6","4","5","5","6","5","2","5","5","5","4","1","1","1","1","0","1","1","1","5","5","4","4","4","4","4","4","4","4","8","7","6","7","7","6","8","8","8","6","3","3","5","6","3","6","2","5","2","1","3","3","4","3","5","5","5","3","5","2","2","3","2","3","2","6","3","6","4","4","7","6","7","4","1","3","3","6","3","5","803250783939338242","顾","526","Female","[""坏她"",""好她"",""好我"",""坏我""]","[""弱她"",""强她"",""强我"",""弱我""]","","","","","","","","yes","","","","","","","","","SRET","EW_formal","","key","f","16.66","640","356","自己","努力","Positive","ability","","","","","","","","","","",""
"820","","j","psychophysics","46","154891","0.0-7.0-3.0-0.32","6","4","5","5","6","5","2","5","5","5","4","1","1","1","1","0","1","1","1","5","5","4","4","4","4","4","4","4","4","8","7","6","7","7","6","8","8","8","6","3","3","5","6","3","6","2","5","2","1","3","3","4","3","5","5","5","3","5","2","2","3","2","3","2","6","3","6","4","4","7","6","7","4","1","3","3","6","3","5","803250783939338242","顾","526","Female","[""坏她"",""好她"",""好我"",""坏我""]","[""弱她"",""强她"",""强我"",""弱我""]","","","","","","","","no","","","","","","","","","SRET","EW_formal","","key","j","16.662962962962748","640","356","自己","短视","Negative","ability","","","","","","","","","","",""
"736","","f","psychophysics","47","156629","0.0-7.0-3.0-0.33","6","4","5","5","6","5","2","5","5","5","4","1","1","1","1","0","1","1","1","5","5","4","4","4","4","4","4","4","4","8","7","6","7","7","6","8","8","8","6","3","3","5","6","3","6","2","5","2","1","3","3","4","3","5","5","5","3","5","2","2","3","2","3","2","6","3","6","4","4","7","6","7","4","1","3","3","6","3","5","803250783939338242","顾","526","Female","[""坏她"",""好她"",""好我"",""坏我""]","[""弱她"",""强她"",""强我"",""弱我""]","","","","","","","","yes","","","","","","","","","SRET","EW_formal","","key","f","16.65922330097082","640","356","自己","懂行","Positive","ability","","","","","","","","","","",""
"708","","f","psychophysics","48","158338","0.0-7.0-3.0-0.34","6","4","5","5","6","5","2","5","5","5","4","1","1","1","1","0","1","1","1","5","5","4","4","4","4","4","4","4","4","8","7","6","7","7","6","8","8","8","6","3","3","5","6","3","6","2","5","2","1","3","3","4","3","5","5","5","3","5","2","2","3","2","3","2","6","3","6","4","4","7","6","7","4","1","3","3","6","3","5","803250783939338242","顾","526","Female","[""坏她"",""好她"",""好我"",""坏我""]","[""弱她"",""强她"",""强我"",""弱我""]","","","","","","","","yes","","","","","","","","","SRET","EW_formal","","key","f","16.659803921568514","640","356","自己","智慧","Positive","ability","","","","","","","","","","",""
"717","","j","psychophysics","49","160057","0.0-7.0-3.0-0.35","6","4","5","5","6","5","2","5","5","5","4","1","1","1","1","0","1","1","1","5","5","4","4","4","4","4","4","4","4","8","7","6","7","7","6","8","8","8","6","3","3","5","6","3","6","2","5","2","1","3","3","4","3","5","5","5","3","5","2","2","3","2","3","2","6","3","6","4","4","7","6","7","4","1","3","3","6","3","5","803250783939338242","顾","526","Female","[""坏她"",""好她"",""好我"",""坏我""]","[""弱她"",""强她"",""强我"",""弱我""]","","","","","","","","no","","","","","","","","","SRET","EW_formal","","key","j","16.66176470588235","640","356","自己","淫乱","Negative","morality","","","","","","","","","","",""
"792","","f","psychophysics","50","161851","0.0-7.0-3.0-0.36","6","4","5","5","6","5","2","5","5","5","4","1","1","1","1","0","1","1","1","5","5","4","4","4","4","4","4","4","4","8","7","6","7","7","6","8","8","8","6","3","3","5","6","3","6","2","5","2","1","3","3","4","3","5","5","5","3","5","2","2","3","2","3","2","6","3","6","4","4","7","6","7","4","1","3","3","6","3","5","803250783939338242","顾","526","Female","[""坏她"",""好她"",""好我"",""坏我""]","[""弱她"",""强她"",""强我"",""弱我""]","","","","","","","","yes","","","","","","","","","SRET","EW_formal","","key","f","16.65794392523359","640","356","自己","刚正","Positive","morality","","","","","","","","","","",""
"892","","j","psychophysics","51","163744","0.0-7.0-3.0-0.37","6","4","5","5","6","5","2","5","5","5","4","1","1","1","1","0","1","1","1","5","5","4","4","4","4","4","4","4","4","8","7","6","7","7","6","8","8","8","6","3","3","5","6","3","6","2","5","2","1","3","3","4","3","5","5","5","3","5","2","2","3","2","3","2","6","3","6","4","4","7","6","7","4","1","3","3","6","3","5","803250783939338242","顾","526","Female","[""坏她"",""好她"",""好我"",""坏我""]","[""弱她"",""强她"",""强我"",""弱我""]","","","","","","","","no","","","","","","","","","SRET","EW_formal","","key","j","16.660176991150493","640","356","自己","废物","Negative","ability","","","","","","","","","","",""
"793","","j","psychophysics","52","165538","0.0-7.0-3.0-0.38","6","4","5","5","6","5","2","5","5","5","4","1","1","1","1","0","1","1","1","5","5","4","4","4","4","4","4","4","4","8","7","6","7","7","6","8","8","8","6","3","3","5","6","3","6","2","5","2","1","3","3","4","3","5","5","5","3","5","2","2","3","2","3","2","6","3","6","4","4","7","6","7","4","1","3","3","6","3","5","803250783939338242","顾","526","Female","[""坏她"",""好她"",""好我"",""坏我""]","[""弱她"",""强她"",""强我"",""弱我""]","","","","","","","","no","","","","","","","","","SRET","EW_formal","","key","j","16.6584905660379","640","356","自己","无耻","Negative","morality","","","","","","","","","","",""
"989","","j","psychophysics","53","167529","0.0-7.0-3.0-0.39","6","4","5","5","6","5","2","5","5","5","4","1","1","1","1","0","1","1","1","5","5","4","4","4","4","4","4","4","4","8","7","6","7","7","6","8","8","8","6","3","3","5","6","3","6","2","5","2","1","3","3","4","3","5","5","5","3","5","2","2","3","2","3","2","6","3","6","4","4","7","6","7","4","1","3","3","6","3","5","803250783939338242","顾","526","Female","[""坏她"",""好她"",""好我"",""坏我""]","[""弱她"",""强她"",""强我"",""弱我""]","","","","","","","","no","","","","","","","","","SRET","EW_formal","","key","j","16.652941176470687","640","356","朋友","背叛","Negative","morality","","","","","","","","","","",""
"731","","f","psychophysics","54","169262","0.0-7.0-3.0-0.40","6","4","5","5","6","5","2","5","5","5","4","1","1","1","1","0","1","1","1","5","5","4","4","4","4","4","4","4","4","8","7","6","7","7","6","8","8","8","6","3","3","5","6","3","6","2","5","2","1","3","3","4","3","5","5","5","3","5","2","2","3","2","3","2","6","3","6","4","4","7","6","7","4","1","3","3","6","3","5","803250783939338242","顾","526","Female","[""坏她"",""好她"",""好我"",""坏我""]","[""弱她"",""强她"",""强我"",""弱我""]","","","","","","","","yes","","","","","","","","","SRET","EW_formal","","key","f","16.66213592233021","640","356","自己","勤恳","Positive","morality","","","","","","","","","","",""
"713","","j","psychophysics","55","170977","0.0-7.0-3.0-0.41","6","4","5","5","6","5","2","5","5","5","4","1","1","1","1","0","1","1","1","5","5","4","4","4","4","4","4","4","4","8","7","6","7","7","6","8","8","8","6","3","3","5","6","3","6","2","5","2","1","3","3","4","3","5","5","5","3","5","2","2","3","2","3","2","6","3","6","4","4","7","6","7","4","1","3","3","6","3","5","803250783939338242","顾","526","Female","[""坏她"",""好她"",""好我"",""坏我""]","[""弱她"",""强她"",""强我"",""弱我""]","","","","","","","","no","","","","","","","","","SRET","EW_formal","","key","j","16.662745098039274","640","356","自己","不孝","Negative","morality","","","","","","","","","","",""
"827","","j","psychophysics","56","172805","0.0-7.0-3.0-0.42","6","4","5","5","6","5","2","5","5","5","4","1","1","1","1","0","1","1","1","5","5","4","4","4","4","4","4","4","4","8","7","6","7","7","6","8","8","8","6","3","3","5","6","3","6","2","5","2","1","3","3","4","3","5","5","5","3","5","2","2","3","2","3","2","6","3","6","4","4","7","6","7","4","1","3","3","6","3","5","803250783939338242","顾","526","Female","[""坏她"",""好她"",""好我"",""坏我""]","[""弱她"",""强她"",""强我"",""弱我""]","","","","","","","","no","","","","","","","","","SRET","EW_formal","","key","j","16.662962962962748","640","356","自己","腐败","Negative","morality","","","","","","","","","","",""
"722","","f","psychophysics","57","174530","0.0-7.0-3.0-0.43","6","4","5","5","6","5","2","5","5","5","4","1","1","1","1","0","1","1","1","5","5","4","4","4","4","4","4","4","4","8","7","6","7","7","6","8","8","8","6","3","3","5","6","3","6","2","5","2","1","3","3","4","3","5","5","5","3","5","2","2","3","2","3","2","6","3","6","4","4","7","6","7","4","1","3","3","6","3","5","803250783939338242","顾","526","Female","[""坏她"",""好她"",""好我"",""坏我""]","[""弱她"",""强她"",""强我"",""弱我""]","","","","","","","","yes","","","","","","","","","SRET","EW_formal","","key","f","16.660194174757283","640","356","自己","忠良","Positive","morality","","","","","","","","","","",""
"647","","j","psychophysics","58","176178","0.0-7.0-3.0-0.44","6","4","5","5","6","5","2","5","5","5","4","1","1","1","1","0","1","1","1","5","5","4","4","4","4","4","4","4","4","8","7","6","7","7","6","8","8","8","6","3","3","5","6","3","6","2","5","2","1","3","3","4","3","5","5","5","3","5","2","2","3","2","3","2","6","3","6","4","4","7","6","7","4","1","3","3","6","3","5","803250783939338242","顾","526","Female","[""坏她"",""好她"",""好我"",""坏我""]","[""弱她"",""强她"",""强我"",""弱我""]","","","","","","","","no","","","","","","","","","SRET","EW_formal","","key","j","16.567346938775568","640","356","朋友","迟钝","Negative","ability","","","","","","","","","","",""
"733","","j","psychophysics","59","177913","0.0-7.0-3.0-0.45","6","4","5","5","6","5","2","5","5","5","4","1","1","1","1","0","1","1","1","5","5","4","4","4","4","4","4","4","4","8","7","6","7","7","6","8","8","8","6","3","3","5","6","3","6","2","5","2","1","3","3","4","3","5","5","5","3","5","2","2","3","2","3","2","6","3","6","4","4","7","6","7","4","1","3","3","6","3","5","803250783939338242","顾","526","Female","[""坏她"",""好她"",""好我"",""坏我""]","[""弱她"",""强她"",""强我"",""弱我""]","","","","","","","","no","","","","","","","","","SRET","EW_formal","","key","j","16.655339805825243","640","356","朋友","无知","Negative","ability","","","","","","","","","","",""
"774","","j","psychophysics","60","179694","0.0-7.0-3.0-0.46","6","4","5","5","6","5","2","5","5","5","4","1","1","1","1","0","1","1","1","5","5","4","4","4","4","4","4","4","4","8","7","6","7","7","6","8","8","8","6","3","3","5","6","3","6","2","5","2","1","3","3","4","3","5","5","5","3","5","2","2","3","2","3","2","6","3","6","4","4","7","6","7","4","1","3","3","6","3","5","803250783939338242","顾","526","Female","[""坏她"",""好她"",""好我"",""坏我""]","[""弱她"",""强她"",""强我"",""弱我""]","","","","","","","","no","","","","","","","","","SRET","EW_formal","","key","j","16.6584905660379","640","356","朋友","高明","Positive","ability","","","","","","","","","","",""
"730","","j","psychophysics","61","181426","0.0-7.0-3.0-0.47","6","4","5","5","6","5","2","5","5","5","4","1","1","1","1","0","1","1","1","5","5","4","4","4","4","4","4","4","4","8","7","6","7","7","6","8","8","8","6","3","3","5","6","3","6","2","5","2","1","3","3","4","3","5","5","5","3","5","2","2","3","2","3","2","6","3","6","4","4","7","6","7","4","1","3","3","6","3","5","803250783939338242","顾","526","Female","[""坏她"",""好她"",""好我"",""坏我""]","[""弱她"",""强她"",""强我"",""弱我""]","","","","","","","","no","","","","","","","","","SRET","EW_formal","","key","j","16.658252427184355","640","356","朋友","昏庸","Negative","ability","","","","","","","","","","",""
"589","","j","psychophysics","62","183016","0.0-7.0-3.0-0.48","6","4","5","5","6","5","2","5","5","5","4","1","1","1","1","0","1","1","1","5","5","4","4","4","4","4","4","4","4","8","7","6","7","7","6","8","8","8","6","3","3","5","6","3","6","2","5","2","1","3","3","4","3","5","5","5","3","5","2","2","3","2","3","2","6","3","6","4","4","7","6","7","4","1","3","3","6","3","5","803250783939338242","顾","526","Female","[""坏她"",""好她"",""好我"",""坏我""]","[""弱她"",""强她"",""强我"",""弱我""]","","","","","","","","no","","","","","","","","","SRET","EW_formal","","key","j","16.659574468085108","640","356","朋友","无私","Positive","morality","","","","","","","","","","",""
"953","","f","psychophysics","63","184970","0.0-7.0-3.0-0.49","6","4","5","5","6","5","2","5","5","5","4","1","1","1","1","0","1","1","1","5","5","4","4","4","4","4","4","4","4","8","7","6","7","7","6","8","8","8","6","3","3","5","6","3","6","2","5","2","1","3","3","4","3","5","5","5","3","5","2","2","3","2","3","2","6","3","6","4","4","7","6","7","4","1","3","3","6","3","5","803250783939338242","顾","526","Female","[""坏她"",""好她"",""好我"",""坏我""]","[""弱她"",""强她"",""强我"",""弱我""]","","","","","","","","yes","","","","","","","","","SRET","EW_formal","","key","f","16.662393162393162","640","356","自己","文明","Positive","morality","","","","","","","","","","",""
"1008","","f","psychophysics","64","186980","0.0-7.0-3.0-0.50","6","4","5","5","6","5","2","5","5","5","4","1","1","1","1","0","1","1","1","5","5","4","4","4","4","4","4","4","4","8","7","6","7","7","6","8","8","8","6","3","3","5","6","3","6","2","5","2","1","3","3","4","3","5","5","5","3","5","2","2","3","2","3","2","6","3","6","4","4","7","6","7","4","1","3","3","6","3","5","803250783939338242","顾","526","Female","[""坏她"",""好她"",""好我"",""坏我""]","[""弱她"",""强她"",""强我"",""弱我""]","","","","","","","","yes","","","","","","","","","SRET","EW_formal","","key","f","16.661344537815225","640","356","自己","利己","Negative","morality","","","","","","","","","","",""
"702","","f","psychophysics","65","188684","0.0-7.0-3.0-0.51","6","4","5","5","6","5","2","5","5","5","4","1","1","1","1","0","1","1","1","5","5","4","4","4","4","4","4","4","4","8","7","6","7","7","6","8","8","8","6","3","3","5","6","3","6","2","5","2","1","3","3","4","3","5","5","5","3","5","2","2","3","2","3","2","6","3","6","4","4","7","6","7","4","1","3","3","6","3","5","803250783939338242","顾","526","Female","[""坏她"",""好她"",""好我"",""坏我""]","[""弱她"",""强她"",""强我"",""弱我""]","","","","","","","","yes","","","","","","","","","SRET","EW_formal","","key","f","16.65882352941188","640","356","朋友","善良","Positive","morality","","","","","","","","","","",""
"710","","f","psychophysics","66","190396","0.0-7.0-3.0-0.52","6","4","5","5","6","5","2","5","5","5","4","1","1","1","1","0","1","1","1","5","5","4","4","4","4","4","4","4","4","8","7","6","7","7","6","8","8","8","6","3","3","5","6","3","6","2","5","2","1","3","3","4","3","5","5","5","3","5","2","2","3","2","3","2","6","3","6","4","4","7","6","7","4","1","3","3","6","3","5","803250783939338242","顾","526","Female","[""坏她"",""好她"",""好我"",""坏我""]","[""弱她"",""强她"",""强我"",""弱我""]","","","","","","","","yes","","","","","","","","","SRET","EW_formal","","key","f","16.661386138614034","640","356","自己","逞能","Negative","ability","","","","","","","","","","",""
"726","","j","psychophysics","67","192124","0.0-7.0-3.0-0.53","6","4","5","5","6","5","2","5","5","5","4","1","1","1","1","0","1","1","1","5","5","4","4","4","4","4","4","4","4","8","7","6","7","7","6","8","8","8","6","3","3","5","6","3","6","2","5","2","1","3","3","4","3","5","5","5","3","5","2","2","3","2","3","2","6","3","6","4","4","7","6","7","4","1","3","3","6","3","5","803250783939338242","顾","526","Female","[""坏她"",""好她"",""好我"",""坏我""]","[""弱她"",""强她"",""强我"",""弱我""]","","","","","","","","no","","","","","","","","","SRET","EW_formal","","key","j","16.661165048543463","640","356","朋友","低劣","Negative","morality","","","","","","","","","","",""
"1202","","j","psychophysics","68","194327","0.0-7.0-3.0-0.54","6","4","5","5","6","5","2","5","5","5","4","1","1","1","1","0","1","1","1","5","5","4","4","4","4","4","4","4","4","8","7","6","7","7","6","8","8","8","6","3","3","5","6","3","6","2","5","2","1","3","3","4","3","5","5","5","3","5","2","2","3","2","3","2","6","3","6","4","4","7","6","7","4","1","3","3","6","3","5","803250783939338242","顾","526","Female","[""坏她"",""好她"",""好我"",""坏我""]","[""弱她"",""强她"",""强我"",""弱我""]","","","","","","","","no","","","","","","","","","SRET","EW_formal","","key","j","16.65648854961832","640","356","朋友","周到","Positive","ability","","","","","","","","","","",""
"664","","j","psychophysics","69","195992","0.0-7.0-3.0-0.55","6","4","5","5","6","5","2","5","5","5","4","1","1","1","1","0","1","1","1","5","5","4","4","4","4","4","4","4","4","8","7","6","7","7","6","8","8","8","6","3","3","5","6","3","6","2","5","2","1","3","3","4","3","5","5","5","3","5","2","2","3","2","3","2","6","3","6","4","4","7","6","7","4","1","3","3","6","3","5","803250783939338242","顾","526","Female","[""坏她"",""好她"",""好我"",""坏我""]","[""弱她"",""强她"",""强我"",""弱我""]","","","","","","","","no","","","","","","","","","SRET","EW_formal","","key","j","16.65959595959584","640","356","朋友","不良","Negative","morality","","","","","","","","","","",""
"645","","f","psychophysics","70","197639","0.0-7.0-3.0-0.56","6","4","5","5","6","5","2","5","5","5","4","1","1","1","1","0","1","1","1","5","5","4","4","4","4","4","4","4","4","8","7","6","7","7","6","8","8","8","6","3","3","5","6","3","6","2","5","2","1","3","3","4","3","5","5","5","3","5","2","2","3","2","3","2","6","3","6","4","4","7","6","7","4","1","3","3","6","3","5","803250783939338242","顾","526","Female","[""坏她"",""好她"",""好我"",""坏我""]","[""弱她"",""强她"",""强我"",""弱我""]","","","","","","","","yes","","","","","","","","","SRET","EW_formal","","key","f","16.659183673469446","640","356","自己","独立","Positive","ability","","","","","","","","","","",""
"null","","null","psychophysics","71","200642","0.0-7.0-3.0-0.57","6","4","5","5","6","5","2","5","5","5","4","1","1","1","1","0","1","1","1","5","5","4","4","4","4","4","4","4","4","8","7","6","7","7","6","8","8","8","6","3","3","5","6","3","6","2","5","2","1","3","3","4","3","5","5","5","3","5","2","2","3","2","3","2","6","3","6","4","4","7","6","7","4","1","3","3","6","3","5","803250783939338242","顾","526","Female","[""坏她"",""好她"",""好我"",""坏我""]","[""弱她"",""强她"",""强我"",""弱我""]","","","","","","","","","","","","","","","","","SRET","EW_formal","","key","null","16.66033519553079","640","356","朋友","毅力","Positive","ability","","","","","","","","","","",""
"null","","null","psychophysics","72","203646","0.0-7.0-3.0-0.58","6","4","5","5","6","5","2","5","5","5","4","1","1","1","1","0","1","1","1","5","5","4","4","4","4","4","4","4","4","8","7","6","7","7","6","8","8","8","6","3","3","5","6","3","6","2","5","2","1","3","3","4","3","5","5","5","3","5","2","2","3","2","3","2","6","3","6","4","4","7","6","7","4","1","3","3","6","3","5","803250783939338242","顾","526","Female","[""坏她"",""好她"",""好我"",""坏我""]","[""弱她"",""强她"",""强我"",""弱我""]","","","","","","","","","","","","","","","","","SRET","EW_formal","","key","null","16.65888888888892","640","356","自己","粗心","Negative","ability","","","","","","","","","","",""
"null","","null","psychophysics","73","206648","0.0-7.0-3.0-0.59","6","4","5","5","6","5","2","5","5","5","4","1","1","1","1","0","1","1","1","5","5","4","4","4","4","4","4","4","4","8","7","6","7","7","6","8","8","8","6","3","3","5","6","3","6","2","5","2","1","3","3","4","3","5","5","5","3","5","2","2","3","2","3","2","6","3","6","4","4","7","6","7","4","1","3","3","6","3","5","803250783939338242","顾","526","Female","[""坏她"",""好她"",""好我"",""坏我""]","[""弱她"",""强她"",""强我"",""弱我""]","","","","","","","","","","","","","","","","","SRET","EW_formal","","key","null","16.660893854748537","640","356","朋友","缺德","Negative","morality","","","","","","","","","","",""
"null","","null","psychophysics","74","209650","0.0-7.0-3.0-0.60","6","4","5","5","6","5","2","5","5","5","4","1","1","1","1","0","1","1","1","5","5","4","4","4","4","4","4","4","4","8","7","6","7","7","6","8","8","8","6","3","3","5","6","3","6","2","5","2","1","3","3","4","3","5","5","5","3","5","2","2","3","2","3","2","6","3","6","4","4","7","6","7","4","1","3","3","6","3","5","803250783939338242","顾","526","Female","[""坏她"",""好她"",""好我"",""坏我""]","[""弱她"",""强她"",""强我"",""弱我""]","","","","","","","","","","","","","","","","","SRET","EW_formal","","key","null","16.658659217877062","640","356","自己","博学","Positive","ability","","","","","","","","","","",""
"null","","null","psychophysics","75","212653","0.0-7.0-3.0-0.61","6","4","5","5","6","5","2","5","5","5","4","1","1","1","1","0","1","1","1","5","5","4","4","4","4","4","4","4","4","8","7","6","7","7","6","8","8","8","6","3","3","5","6","3","6","2","5","2","1","3","3","4","3","5","5","5","3","5","2","2","3","2","3","2","6","3","6","4","4","7","6","7","4","1","3","3","6","3","5","803250783939338242","顾","526","Female","[""坏她"",""好她"",""好我"",""坏我""]","[""弱她"",""强她"",""强我"",""弱我""]","","","","","","","","","","","","","","","","","SRET","EW_formal","","key","null","16.66033519553079","640","356","自己","谦逊","Positive","morality","","","","","","","","","","",""
"null","","null","psychophysics","76","215655","0.0-7.0-3.0-0.62","6","4","5","5","6","5","2","5","5","5","4","1","1","1","1","0","1","1","1","5","5","4","4","4","4","4","4","4","4","8","7","6","7","7","6","8","8","8","6","3","3","5","6","3","6","2","5","2","1","3","3","4","3","5","5","5","3","5","2","2","3","2","3","2","6","3","6","4","4","7","6","7","4","1","3","3","6","3","5","803250783939338242","顾","526","Female","[""坏她"",""好她"",""好我"",""坏我""]","[""弱她"",""强她"",""强我"",""弱我""]","","","","","","","","","","","","","","","","","SRET","EW_formal","","key","null","16.659999999999936","640","356","自己","偏私","Negative","morality","","","","","","","","","","",""
"null","","null","psychophysics","77","218660","0.0-7.0-3.0-0.63","6","4","5","5","6","5","2","5","5","5","4","1","1","1","1","0","1","1","1","5","5","4","4","4","4","4","4","4","4","8","7","6","7","7","6","8","8","8","6","3","3","5","6","3","6","2","5","2","1","3","3","4","3","5","5","5","3","5","2","2","3","2","3","2","6","3","6","4","4","7","6","7","4","1","3","3","6","3","5","803250783939338242","顾","526","Female","[""坏她"",""好她"",""好我"",""坏我""]","[""弱她"",""强她"",""强我"",""弱我""]","","","","","","","","","","","","","","","","","SRET","EW_formal","","key","null","16.659776536312883","640","356","朋友","仁厚","Positive","morality","","","","","","","","","","",""
"null","","null","psychophysics","78","221662","0.0-7.0-3.0-0.64","6","4","5","5","6","5","2","5","5","5","4","1","1","1","1","0","1","1","1","5","5","4","4","4","4","4","4","4","4","8","7","6","7","7","6","8","8","8","6","3","3","5","6","3","6","2","5","2","1","3","3","4","3","5","5","5","3","5","2","2","3","2","3","2","6","3","6","4","4","7","6","7","4","1","3","3","6","3","5","803250783939338242","顾","526","Female","[""坏她"",""好她"",""好我"",""坏我""]","[""弱她"",""强她"",""强我"",""弱我""]","","","","","","","","","","","","","","","","","SRET","EW_formal","","key","null","16.660335195530628","640","356","朋友","奸诈","Negative","morality","","","","","","","","","","",""
"null","","null","psychophysics","79","224665","0.0-7.0-3.0-0.65","6","4","5","5","6","5","2","5","5","5","4","1","1","1","1","0","1","1","1","5","5","4","4","4","4","4","4","4","4","8","7","6","7","7","6","8","8","8","6","3","3","5","6","3","6","2","5","2","1","3","3","4","3","5","5","5","3","5","2","2","3","2","3","2","6","3","6","4","4","7","6","7","4","1","3","3","6","3","5","803250783939338242","顾","526","Female","[""坏她"",""好她"",""好我"",""坏我""]","[""弱她"",""强她"",""强我"",""弱我""]","","","","","","","","","","","","","","","","","SRET","EW_formal","","key","null","16.65921787709497","640","356","朋友","拖延","Negative","ability","","","","","","","","","","",""
"null","","null","psychophysics","80","227668","0.0-7.0-3.0-0.66","6","4","5","5","6","5","2","5","5","5","4","1","1","1","1","0","1","1","1","5","5","4","4","4","4","4","4","4","4","8","7","6","7","7","6","8","8","8","6","3","3","5","6","3","6","2","5","2","1","3","3","4","3","5","5","5","3","5","2","2","3","2","3","2","6","3","6","4","4","7","6","7","4","1","3","3","6","3","5","803250783939338242","顾","526","Female","[""坏她"",""好她"",""好我"",""坏我""]","[""弱她"",""强她"",""强我"",""弱我""]","","","","","","","","","","","","","","","","","SRET","EW_formal","","key","null","16.65888888888892","640","356","朋友","扎实","Positive","ability","","","","","","","","","","",""
"null","","null","psychophysics","81","230670","0.0-7.0-3.0-0.67","6","4","5","5","6","5","2","5","5","5","4","1","1","1","1","0","1","1","1","5","5","4","4","4","4","4","4","4","4","8","7","6","7","7","6","8","8","8","6","3","3","5","6","3","6","2","5","2","1","3","3","4","3","5","5","5","3","5","2","2","3","2","3","2","6","3","6","4","4","7","6","7","4","1","3","3","6","3","5","803250783939338242","顾","526","Female","[""坏她"",""好她"",""好我"",""坏我""]","[""弱她"",""强她"",""强我"",""弱我""]","","","","","","","","","","","","","","","","","SRET","EW_formal","","key","null","16.659776536312883","640","356","朋友","义气","Positive","morality","","","","","","","","","","",""
"null","","null","psychophysics","82","233673","0.0-7.0-3.0-0.68","6","4","5","5","6","5","2","5","5","5","4","1","1","1","1","0","1","1","1","5","5","4","4","4","4","4","4","4","4","8","7","6","7","7","6","8","8","8","6","3","3","5","6","3","6","2","5","2","1","3","3","4","3","5","5","5","3","5","2","2","3","2","3","2","6","3","6","4","4","7","6","7","4","1","3","3","6","3","5","803250783939338242","顾","526","Female","[""坏她"",""好她"",""好我"",""坏我""]","[""弱她"",""强她"",""强我"",""弱我""]","","","","","","","","","","","","","","","","","SRET","EW_formal","","key","null","16.65921787709497","640","356","自己","狡狯","Negative","morality","","","","","","","","","","",""
"null","","null","psychophysics","83","236676","0.0-7.0-3.0-0.69","6","4","5","5","6","5","2","5","5","5","4","1","1","1","1","0","1","1","1","5","5","4","4","4","4","4","4","4","4","8","7","6","7","7","6","8","8","8","6","3","3","5","6","3","6","2","5","2","1","3","3","4","3","5","5","5","3","5","2","2","3","2","3","2","6","3","6","4","4","7","6","7","4","1","3","3","6","3","5","803250783939338242","顾","526","Female","[""坏她"",""好她"",""好我"",""坏我""]","[""弱她"",""强她"",""强我"",""弱我""]","","","","","","","","","","","","","","","","","SRET","EW_formal","","key","null","16.650837988826815","640","356","自己","热心","Positive","morality","","","","","","","","","","",""
"null","","null","psychophysics","84","239679","0.0-7.0-3.0-0.70","6","4","5","5","6","5","2","5","5","5","4","1","1","1","1","0","1","1","1","5","5","4","4","4","4","4","4","4","4","8","7","6","7","7","6","8","8","8","6","3","3","5","6","3","6","2","5","2","1","3","3","4","3","5","5","5","3","5","2","2","3","2","3","2","6","3","6","4","4","7","6","7","4","1","3","3","6","3","5","803250783939338242","顾","526","Female","[""坏她"",""好她"",""好我"",""坏我""]","[""弱她"",""强她"",""强我"",""弱我""]","","","","","","","","","","","","","","","","","SRET","EW_formal","","key","null","16.65888888888892","640","356","朋友","敬业","Positive","morality","","","","","","","","","","",""
"null","","null","psychophysics","85","242691","0.0-7.0-3.0-0.71","6","4","5","5","6","5","2","5","5","5","4","1","1","1","1","0","1","1","1","5","5","4","4","4","4","4","4","4","4","8","7","6","7","7","6","8","8","8","6","3","3","5","6","3","6","2","5","2","1","3","3","4","3","5","5","5","3","5","2","2","3","2","3","2","6","3","6","4","4","7","6","7","4","1","3","3","6","3","5","803250783939338242","顾","526","Female","[""坏她"",""好她"",""好我"",""坏我""]","[""弱她"",""强她"",""强我"",""弱我""]","","","","","","","","","","","","","","","","","SRET","EW_formal","","key","null","16.659776536312883","640","356","自己","爱国","Positive","morality","","","","","","","","","","",""
"null","","null","psychophysics","86","245693","0.0-7.0-3.0-0.72","6","4","5","5","6","5","2","5","5","5","4","1","1","1","1","0","1","1","1","5","5","4","4","4","4","4","4","4","4","8","7","6","7","7","6","8","8","8","6","3","3","5","6","3","6","2","5","2","1","3","3","4","3","5","5","5","3","5","2","2","3","2","3","2","6","3","6","4","4","7","6","7","4","1","3","3","6","3","5","803250783939338242","顾","526","Female","[""坏她"",""好她"",""好我"",""坏我""]","[""弱她"",""强她"",""强我"",""弱我""]","","","","","","","","","","","","","","","","","SRET","EW_formal","","key","null","16.658333333333335","640","356","自己","伪善","Negative","morality","","","","","","","","","","",""
"null","","null","psychophysics","87","248695","0.0-7.0-3.0-0.73","6","4","5","5","6","5","2","5","5","5","4","1","1","1","1","0","1","1","1","5","5","4","4","4","4","4","4","4","4","8","7","6","7","7","6","8","8","8","6","3","3","5","6","3","6","2","5","2","1","3","3","4","3","5","5","5","3","5","2","2","3","2","3","2","6","3","6","4","4","7","6","7","4","1","3","3","6","3","5","803250783939338242","顾","526","Female","[""坏她"",""好她"",""好我"",""坏我""]","[""弱她"",""强她"",""强我"",""弱我""]","","","","","","","","","","","","","","","","","SRET","EW_formal","","key","null","16.65921787709497","640","356","自己","马虎","Negative","ability","","","","","","","","","","",""
"null","","null","psychophysics","88","251697","0.0-7.0-3.0-0.74","6","4","5","5","6","5","2","5","5","5","4","1","1","1","1","0","1","1","1","5","5","4","4","4","4","4","4","4","4","8","7","6","7","7","6","8","8","8","6","3","3","5","6","3","6","2","5","2","1","3","3","4","3","5","5","5","3","5","2","2","3","2","3","2","6","3","6","4","4","7","6","7","4","1","3","3","6","3","5","803250783939338242","顾","526","Female","[""坏她"",""好她"",""好我"",""坏我""]","[""弱她"",""强她"",""强我"",""弱我""]","","","","","","","","","","","","","","","","","SRET","EW_formal","","key","null","16.65921787709497","640","356","自己","无能","Negative","ability","","","","","","","","","","",""
"null","","null","psychophysics","89","254700","0.0-7.0-3.0-0.75","6","4","5","5","6","5","2","5","5","5","4","1","1","1","1","0","1","1","1","5","5","4","4","4","4","4","4","4","4","8","7","6","7","7","6","8","8","8","6","3","3","5","6","3","6","2","5","2","1","3","3","4","3","5","5","5","3","5","2","2","3","2","3","2","6","3","6","4","4","7","6","7","4","1","3","3","6","3","5","803250783939338242","顾","526","Female","[""坏她"",""好她"",""好我"",""坏我""]","[""弱她"",""强她"",""强我"",""弱我""]","","","","","","","","","","","","","","","","","SRET","EW_formal","","key","null","16.637988826815707","640","356","自己","无敌","Positive","ability","","","","","","","","","","",""
"null","","null","psychophysics","90","257704","0.0-7.0-3.0-0.76","6","4","5","5","6","5","2","5","5","5","4","1","1","1","1","0","1","1","1","5","5","4","4","4","4","4","4","4","4","8","7","6","7","7","6","8","8","8","6","3","3","5","6","3","6","2","5","2","1","3","3","4","3","5","5","5","3","5","2","2","3","2","3","2","6","3","6","4","4","7","6","7","4","1","3","3","6","3","5","803250783939338242","顾","526","Female","[""坏她"",""好她"",""好我"",""坏我""]","[""弱她"",""强她"",""强我"",""弱我""]","","","","","","","","","","","","","","","","","SRET","EW_formal","","key","null","16.661666666666537","640","356","自己","狡诈","Negative","morality","","","","","","","","","","",""
"null","","null","psychophysics","91","260856","0.0-7.0-3.0-0.77","6","4","5","5","6","5","2","5","5","5","4","1","1","1","1","0","1","1","1","5","5","4","4","4","4","4","4","4","4","8","7","6","7","7","6","8","8","8","6","3","3","5","6","3","6","2","5","2","1","3","3","4","3","5","5","5","3","5","2","2","3","2","3","2","6","3","6","4","4","7","6","7","4","1","3","3","6","3","5","803250783939338242","顾","526","Female","[""坏她"",""好她"",""好我"",""坏我""]","[""弱她"",""强她"",""强我"",""弱我""]","","","","","","","","","","","","","","","","","SRET","EW_formal","","key","null","16.659459459459566","640","356","自己","有力","Positive","ability","","","","","","","","","","",""
"null","","null","psychophysics","92","263859","0.0-7.0-3.0-0.78","6","4","5","5","6","5","2","5","5","5","4","1","1","1","1","0","1","1","1","5","5","4","4","4","4","4","4","4","4","8","7","6","7","7","6","8","8","8","6","3","3","5","6","3","6","2","5","2","1","3","3","4","3","5","5","5","3","5","2","2","3","2","3","2","6","3","6","4","4","7","6","7","4","1","3","3","6","3","5","803250783939338242","顾","526","Female","[""坏她"",""好她"",""好我"",""坏我""]","[""弱她"",""强她"",""强我"",""弱我""]","","","","","","","","","","","","","","","","","SRET","EW_formal","","key","null","17.06024096385542","640","356","自己","屈才","Negative","ability","","","","","","","","","","",""
"null","","null","psychophysics","93","266862","0.0-7.0-3.0-0.79","6","4","5","5","6","5","2","5","5","5","4","1","1","1","1","0","1","1","1","5","5","4","4","4","4","4","4","4","4","8","7","6","7","7","6","8","8","8","6","3","3","5","6","3","6","2","5","2","1","3","3","4","3","5","5","5","3","5","2","2","3","2","3","2","6","3","6","4","4","7","6","7","4","1","3","3","6","3","5","803250783939338242","顾","526","Female","[""坏她"",""好她"",""好我"",""坏我""]","[""弱她"",""强她"",""强我"",""弱我""]","","","","","","","","","","","","","","","","","SRET","EW_formal","","key","null","16.65977653631272","640","356","朋友","不仁","Negative","morality","","","","","","","","","","",""
"null","","null","psychophysics","94","269864","0.0-7.0-3.0-0.80","6","4","5","5","6","5","2","5","5","5","4","1","1","1","1","0","1","1","1","5","5","4","4","4","4","4","4","4","4","8","7","6","7","7","6","8","8","8","6","3","3","5","6","3","6","2","5","2","1","3","3","4","3","5","5","5","3","5","2","2","3","2","3","2","6","3","6","4","4","7","6","7","4","1","3","3","6","3","5","803250783939338242","顾","526","Female","[""坏她"",""好她"",""好我"",""坏我""]","[""弱她"",""强她"",""强我"",""弱我""]","","","","","","","","","","","","","","","","","SRET","EW_formal","","key","null","16.66166666666686","640","356","朋友","自私","Negative","morality","","","","","","","","","","",""
"null","","null","psychophysics","95","272866","0.0-7.0-3.0-0.81","6","4","5","5","6","5","2","5","5","5","4","1","1","1","1","0","1","1","1","5","5","4","4","4","4","4","4","4","4","8","7","6","7","7","6","8","8","8","6","3","3","5","6","3","6","2","5","2","1","3","3","4","3","5","5","5","3","5","2","2","3","2","3","2","6","3","6","4","4","7","6","7","4","1","3","3","6","3","5","803250783939338242","顾","526","Female","[""坏她"",""好她"",""好我"",""坏我""]","[""弱她"",""强她"",""强我"",""弱我""]","","","","","","","","","","","","","","","","","SRET","EW_formal","","key","null","16.65921787709497","640","356","自己","廉明","Positive","morality","","","","","","","","","","",""
"null","","null","psychophysics","96","275869","0.0-7.0-3.0-0.82","6","4","5","5","6","5","2","5","5","5","4","1","1","1","1","0","1","1","1","5","5","4","4","4","4","4","4","4","4","8","7","6","7","7","6","8","8","8","6","3","3","5","6","3","6","2","5","2","1","3","3","4","3","5","5","5","3","5","2","2","3","2","3","2","6","3","6","4","4","7","6","7","4","1","3","3","6","3","5","803250783939338242","顾","526","Female","[""坏她"",""好她"",""好我"",""坏我""]","[""弱她"",""强她"",""强我"",""弱我""]","","","","","","","","","","","","","","","","","SRET","EW_formal","","key","null","16.65921787709497","640","356","朋友","沉着","Positive","ability","","","","","","","","","","",""
"null","","null","psychophysics","97","278872","0.0-7.0-3.0-0.83","6","4","5","5","6","5","2","5","5","5","4","1","1","1","1","0","1","1","1","5","5","4","4","4","4","4","4","4","4","8","7","6","7","7","6","8","8","8","6","3","3","5","6","3","6","2","5","2","1","3","3","4","3","5","5","5","3","5","2","2","3","2","3","2","6","3","6","4","4","7","6","7","4","1","3","3","6","3","5","803250783939338242","顾","526","Female","[""坏她"",""好她"",""好我"",""坏我""]","[""弱她"",""强她"",""强我"",""弱我""]","","","","","","","","","","","","","","","","","SRET","EW_formal","","key","null","16.65977653631272","640","356","朋友","才尽","Negative","ability","","","","","","","","","","",""
"null","","null","psychophysics","98","281879","0.0-7.0-3.0-0.84","6","4","5","5","6","5","2","5","5","5","4","1","1","1","1","0","1","1","1","5","5","4","4","4","4","4","4","4","4","8","7","6","7","7","6","8","8","8","6","3","3","5","6","3","6","2","5","2","1","3","3","4","3","5","5","5","3","5","2","2","3","2","3","2","6","3","6","4","4","7","6","7","4","1","3","3","6","3","5","803250783939338242","顾","526","Female","[""坏她"",""好她"",""好我"",""坏我""]","[""弱她"",""强她"",""强我"",""弱我""]","","","","","","","","","","","","","","","","","SRET","EW_formal","","key","null","16.660555555555362","640","356","朋友","低俗","Negative","morality","","","","","","","","","","",""
"null","","null","psychophysics","99","284880","0.0-7.0-3.0-0.85","6","4","5","5","6","5","2","5","5","5","4","1","1","1","1","0","1","1","1","5","5","4","4","4","4","4","4","4","4","8","7","6","7","7","6","8","8","8","6","3","3","5","6","3","6","2","5","2","1","3","3","4","3","5","5","5","3","5","2","2","3","2","3","2","6","3","6","4","4","7","6","7","4","1","3","3","6","3","5","803250783939338242","顾","526","Female","[""坏她"",""好她"",""好我"",""坏我""]","[""弱她"",""强她"",""强我"",""弱我""]","","","","","","","","","","","","","","","","","SRET","EW_formal","","key","null","16.660893854748537","640","356","朋友","素养","Positive","morality","","","","","","","","","","",""
"null","","null","psychophysics","100","287884","0.0-7.0-3.0-0.86","6","4","5","5","6","5","2","5","5","5","4","1","1","1","1","0","1","1","1","5","5","4","4","4","4","4","4","4","4","8","7","6","7","7","6","8","8","8","6","3","3","5","6","3","6","2","5","2","1","3","3","4","3","5","5","5","3","5","2","2","3","2","3","2","6","3","6","4","4","7","6","7","4","1","3","3","6","3","5","803250783939338242","顾","526","Female","[""坏她"",""好她"",""好我"",""坏我""]","[""弱她"",""强她"",""强我"",""弱我""]","","","","","","","","","","","","","","","","","SRET","EW_formal","","key","null","16.599999999999806","640","356","自己","缓慢","Negative","ability","","","","","","","","","","",""
"null","","null","psychophysics","101","290887","0.0-7.0-3.0-0.87","6","4","5","5","6","5","2","5","5","5","4","1","1","1","1","0","1","1","1","5","5","4","4","4","4","4","4","4","4","8","7","6","7","7","6","8","8","8","6","3","3","5","6","3","6","2","5","2","1","3","3","4","3","5","5","5","3","5","2","2","3","2","3","2","6","3","6","4","4","7","6","7","4","1","3","3","6","3","5","803250783939338242","顾","526","Female","[""坏她"",""好她"",""好我"",""坏我""]","[""弱她"",""强她"",""强我"",""弱我""]","","","","","","","","","","","","","","","","","SRET","EW_formal","","key","null","16.657777777777582","640","356","自己","主见","Positive","ability","","","","","","","","","","",""
"4666","
    <p><div style='color:white;font-size:35px; line-height:20px;'>计算任务</div></p><br>
    <p><div style='color:red;font-size:25px; line-height:20px;'>接下来，您将看到一些四则运算题，<b>请从键盘选择 0-9 进行反应。</b></div></p>
    <p><div style='color:red;font-size:25px; line-height:20px;'>请尽可能快地进行计算，计算的速度和正确率将影响报酬的发放。</div></p>
    <p><div class='footer' style='color:white;font-size:25px; line-height:20px;'>如果对本实验还有不清楚之处，请立即向实验员咨询。</p><p style='color:white;font-size:25px; line-height:20px;'>如果您明白了规则：</p><p style='color:white;font-size:22px; line-height:20px;'>请按 继续 进入练习</p>
    </div>
    ","0","html-button-response","102","295554","0.0-7.0-4.0","6","4","5","5","6","5","2","5","5","5","4","1","1","1","1","0","1","1","1","5","5","4","4","4","4","4","4","4","4","8","7","6","7","7","6","8","8","8","6","3","3","5","6","3","6","2","5","2","1","3","3","4","3","5","5","5","3","5","2","2","3","2","3","2","6","3","6","4","4","7","6","7","4","1","3","3","6","3","5","803250783939338242","顾","526","Female","[""坏她"",""好她"",""好我"",""坏我""]","[""弱她"",""强她"",""强我"",""弱我""]","","","","","","","","","","","","","","","","","SRET_math","math_instructions","Wed Jan 31 2024 18:38:46 GMT+0800 (中国标准时间)","","","","","","","","","","","","","","","","","","","",""
"2165","","3","psychophysics","103","297723","0.0-7.0-5.0-0.0","6","4","5","5","6","5","2","5","5","5","4","1","1","1","1","0","1","1","1","5","5","4","4","4","4","4","4","4","4","8","7","6","7","7","6","8","8","8","6","3","3","5","6","3","6","2","5","2","1","3","3","4","3","5","5","5","3","5","2","2","3","2","3","2","6","3","6","4","4","7","6","7","4","1","3","3","6","3","5","803250783939338242","顾","526","Female","[""坏她"",""好她"",""好我"",""坏我""]","[""弱她"",""强她"",""强我"",""弱我""]","","","","","","","","3","","","","","","","","","SRET","SRET_math_calculate","","key","3","16.653846153846153","640","356","","","","","21/7=  ?","3","1","","","","","","","",""
"1779","","2","psychophysics","104","299505","0.0-7.0-5.0-0.1","6","4","5","5","6","5","2","5","5","5","4","1","1","1","1","0","1","1","1","5","5","4","4","4","4","4","4","4","4","8","7","6","7","7","6","8","8","8","6","3","3","5","6","3","6","2","5","2","1","3","3","4","3","5","5","5","3","5","2","2","3","2","3","2","6","3","6","4","4","7","6","7","4","1","3","3","6","3","5","803250783939338242","顾","526","Female","[""坏她"",""好她"",""好我"",""坏我""]","[""弱她"",""强她"",""强我"",""弱我""]","","","","","","","","2","","","","","","","","","SRET","SRET_math_calculate","","key","2","16.661320754716762","640","356","","","","","5-3= ?","2","1","","","","","","","",""
"2005","","8","psychophysics","105","301513","0.0-7.0-5.0-0.2","6","4","5","5","6","5","2","5","5","5","4","1","1","1","1","0","1","1","1","5","5","4","4","4","4","4","4","4","4","8","7","6","7","7","6","8","8","8","6","3","3","5","6","3","6","2","5","2","1","3","3","4","3","5","5","5","3","5","2","2","3","2","3","2","6","3","6","4","4","7","6","7","4","1","3","3","6","3","5","803250783939338242","顾","526","Female","[""坏她"",""好她"",""好我"",""坏我""]","[""弱她"",""强她"",""强我"",""弱我""]","","","","","","","","8","","","","","","","","","SRET","SRET_math_calculate","","key","8","16.661344537815225","640","356","","","","","2+6= ?","8","1","","","","","","","",""
"1919","","5","psychophysics","106","303437","0.0-7.0-5.0-0.3","6","4","5","5","6","5","2","5","5","5","4","1","1","1","1","0","1","1","1","5","5","4","4","4","4","4","4","4","4","8","7","6","7","7","6","8","8","8","6","3","3","5","6","3","6","2","5","2","1","3","3","4","3","5","5","5","3","5","2","2","3","2","3","2","6","3","6","4","4","7","6","7","4","1","3","3","6","3","5","803250783939338242","顾","526","Female","[""坏她"",""好她"",""好我"",""坏我""]","[""弱她"",""强她"",""强我"",""弱我""]","","","","","","","","5","","","","","","","","","SRET","SRET_math_calculate","","key","5","16.657391304347623","640","356","","","","","17-12= ? ","5","1","","","","","","","",""
"2384","","4","psychophysics","107","305822","0.0-7.0-5.0-0.4","6","4","5","5","6","5","2","5","5","5","4","1","1","1","1","0","1","1","1","5","5","4","4","4","4","4","4","4","4","8","7","6","7","7","6","8","8","8","6","3","3","5","6","3","6","2","5","2","1","3","3","4","3","5","5","5","3","5","2","2","3","2","3","2","6","3","6","4","4","7","6","7","4","1","3","3","6","3","5","803250783939338242","顾","526","Female","[""坏她"",""好她"",""好我"",""坏我""]","[""弱她"",""强她"",""强我"",""弱我""]","","","","","","","","4","","","","","","","","","SRET","SRET_math_calculate","","key","4","16.662676056337865","640","356","","","","","13-9= ?","4","1","","","","","","","",""
"2080","","0","psychophysics","108","307907","0.0-7.0-5.0-0.5","6","4","5","5","6","5","2","5","5","5","4","1","1","1","1","0","1","1","1","5","5","4","4","4","4","4","4","4","4","8","7","6","7","7","6","8","8","8","6","3","3","5","6","3","6","2","5","2","1","3","3","4","3","5","5","5","3","5","2","2","3","2","3","2","6","3","6","4","4","7","6","7","4","1","3","3","6","3","5","803250783939338242","顾","526","Female","[""坏她"",""好她"",""好我"",""坏我""]","[""弱她"",""强她"",""强我"",""弱我""]","","","","","","","","0","","","","","","","","","SRET","SRET_math_calculate","","key","0","16.595161290322487","640","356","","","","","9-9= ?","0","1","","","","","","","",""
"1897","","3","psychophysics","109","309806","0.0-7.0-5.0-0.6","6","4","5","5","6","5","2","5","5","5","4","1","1","1","1","0","1","1","1","5","5","4","4","4","4","4","4","4","4","8","7","6","7","7","6","8","8","8","6","3","3","5","6","3","6","2","5","2","1","3","3","4","3","5","5","5","3","5","2","2","3","2","3","2","6","3","6","4","4","7","6","7","4","1","3","3","6","3","5","803250783939338242","顾","526","Female","[""坏她"",""好她"",""好我"",""坏我""]","[""弱她"",""强她"",""强我"",""弱我""]","","","","","","","","3","","","","","","","","","SRET","SRET_math_calculate","","key","3","16.604424778760958","640","356","","","","","6/2= ?","3","1","","","","","","","",""
"1912","","0","psychophysics","110","311719","0.0-7.0-5.0-0.7","6","4","5","5","6","5","2","5","5","5","4","1","1","1","1","0","1","1","1","5","5","4","4","4","4","4","4","4","4","8","7","6","7","7","6","8","8","8","6","3","3","5","6","3","6","2","5","2","1","3","3","4","3","5","5","5","3","5","2","2","3","2","3","2","6","3","6","4","4","7","6","7","4","1","3","3","6","3","5","803250783939338242","顾","526","Female","[""坏她"",""好她"",""好我"",""坏我""]","[""弱她"",""强她"",""强我"",""弱我""]","","","","","","","","0","","","","","","","","","SRET","SRET_math_calculate","","key","0","16.662280701754387","640","356","","","","","22-22= ?","0","1","","","","","","","",""
"1929","","9","psychophysics","111","313652","0.0-7.0-5.0-0.8","6","4","5","5","6","5","2","5","5","5","4","1","1","1","1","0","1","1","1","5","5","4","4","4","4","4","4","4","4","8","7","6","7","7","6","8","8","8","6","3","3","5","6","3","6","2","5","2","1","3","3","4","3","5","5","5","3","5","2","2","3","2","3","2","6","3","6","4","4","7","6","7","4","1","3","3","6","3","5","803250783939338242","顾","526","Female","[""坏她"",""好她"",""好我"",""坏我""]","[""弱她"",""强她"",""强我"",""弱我""]","","","","","","","","9","","","","","","","","","SRET","SRET_math_calculate","","key","9","16.658260869565318","640","356","","","","","8+1= ?","9","1","","","","","","","",""
"1951","","8","psychophysics","112","315605","0.0-7.0-5.0-0.9","6","4","5","5","6","5","2","5","5","5","4","1","1","1","1","0","1","1","1","5","5","4","4","4","4","4","4","4","4","8","7","6","7","7","6","8","8","8","6","3","3","5","6","3","6","2","5","2","1","3","3","4","3","5","5","5","3","5","2","2","3","2","3","2","6","3","6","4","4","7","6","7","4","1","3","3","6","3","5","803250783939338242","顾","526","Female","[""坏她"",""好她"",""好我"",""坏我""]","[""弱她"",""强她"",""强我"",""弱我""]","","","","","","","","8","","","","","","","","","SRET","SRET_math_calculate","","key","8","16.658620689655372","640","356","","","","","9-1= ?","8","1","","","","","","","",""
"1698","","8","psychophysics","113","317306","0.0-7.0-5.0-0.10","6","4","5","5","6","5","2","5","5","5","4","1","1","1","1","0","1","1","1","5","5","4","4","4","4","4","4","4","4","8","7","6","7","7","6","8","8","8","6","3","3","5","6","3","6","2","5","2","1","3","3","4","3","5","5","5","3","5","2","2","3","2","3","2","6","3","6","4","4","7","6","7","4","1","3","3","6","3","5","803250783939338242","顾","526","Female","[""坏她"",""好她"",""好我"",""坏我""]","[""弱她"",""强她"",""强我"",""弱我""]","","","","","","","","8","","","","","","","","","SRET","SRET_math_calculate","","key","8","16.660396039604077","640","356","","","","","7+1= ?","8","1","","","","","","","",""
"1921","","7","psychophysics","114","319233","0.0-7.0-5.0-0.11","6","4","5","5","6","5","2","5","5","5","4","1","1","1","1","0","1","1","1","5","5","4","4","4","4","4","4","4","4","8","7","6","7","7","6","8","8","8","6","3","3","5","6","3","6","2","5","2","1","3","3","4","3","5","5","5","3","5","2","2","3","2","3","2","6","3","6","4","4","7","6","7","4","1","3","3","6","3","5","803250783939338242","顾","526","Female","[""坏她"",""好她"",""好我"",""坏我""]","[""弱她"",""强她"",""强我"",""弱我""]","","","","","","","","7","","","","","","","","","SRET","SRET_math_calculate","","key","7","16.65739130434813","640","356","","","","","9-2= ?","7","1","","","","","","","",""
"1895","","9","psychophysics","115","321130","0.0-7.0-5.0-0.12","6","4","5","5","6","5","2","5","5","5","4","1","1","1","1","0","1","1","1","5","5","4","4","4","4","4","4","4","4","8","7","6","7","7","6","8","8","8","6","3","3","5","6","3","6","2","5","2","1","3","3","4","3","5","5","5","3","5","2","2","3","2","3","2","6","3","6","4","4","7","6","7","4","1","3","3","6","3","5","803250783939338242","顾","526","Female","[""坏她"",""好她"",""好我"",""坏我""]","[""弱她"",""强她"",""强我"",""弱我""]","","","","","","","","9","","","","","","","","","SRET","SRET_math_calculate","","key","9","16.630088495575325","640","356","","","","","2+7= ?","9","1","","","","","","","",""
"1895","","7","psychophysics","116","323026","0.0-7.0-5.0-0.13","6","4","5","5","6","5","2","5","5","5","4","1","1","1","1","0","1","1","1","5","5","4","4","4","4","4","4","4","4","8","7","6","7","7","6","8","8","8","6","3","3","5","6","3","6","2","5","2","1","3","3","4","3","5","5","5","3","5","2","2","3","2","3","2","6","3","6","4","4","7","6","7","4","1","3","3","6","3","5","803250783939338242","顾","526","Female","[""坏她"",""好她"",""好我"",""坏我""]","[""弱她"",""强她"",""强我"",""弱我""]","","","","","","","","7","","","","","","","","","SRET","SRET_math_calculate","","key","7","16.65840707964571","640","356","","","","","5+2= ?","7","1","","","","","","","",""
"2325","","9","psychophysics","117","325352","0.0-7.0-5.0-0.14","6","4","5","5","6","5","2","5","5","5","4","1","1","1","1","0","1","1","1","5","5","4","4","4","4","4","4","4","4","8","7","6","7","7","6","8","8","8","6","3","3","5","6","3","6","2","5","2","1","3","3","4","3","5","5","5","3","5","2","2","3","2","3","2","6","3","6","4","4","7","6","7","4","1","3","3","6","3","5","803250783939338242","顾","526","Female","[""坏她"",""好她"",""好我"",""坏我""]","[""弱她"",""强她"",""强我"",""弱我""]","","","","","","","","9","","","","","","","","","SRET","SRET_math_calculate","","key","9","16.659420289855074","640","356","","","","","43-34= ?","9","1","","","","","","","",""
"1630","","9","psychophysics","118","326985","0.0-7.0-5.0-0.15","6","4","5","5","6","5","2","5","5","5","4","1","1","1","1","0","1","1","1","5","5","4","4","4","4","4","4","4","4","8","7","6","7","7","6","8","8","8","6","3","3","5","6","3","6","2","5","2","1","3","3","4","3","5","5","5","3","5","2","2","3","2","3","2","6","3","6","4","4","7","6","7","4","1","3","3","6","3","5","803250783939338242","顾","526","Female","[""坏她"",""好她"",""好我"",""坏我""]","[""弱她"",""强她"",""强我"",""弱我""]","","","","","","","","9","","","","","","","","","SRET","SRET_math_calculate","","key","9","16.664948453608247","640","356","","","","","5+4= ?","9","1","","","","","","","",""
"2019","","7","psychophysics","119","329010","0.0-7.0-5.0-0.16","6","4","5","5","6","5","2","5","5","5","4","1","1","1","1","0","1","1","1","5","5","4","4","4","4","4","4","4","4","8","7","6","7","7","6","8","8","8","6","3","3","5","6","3","6","2","5","2","1","3","3","4","3","5","5","5","3","5","2","2","3","2","3","2","6","3","6","4","4","7","6","7","4","1","3","3","6","3","5","803250783939338242","顾","526","Female","[""坏她"",""好她"",""好我"",""坏我""]","[""弱她"",""强她"",""强我"",""弱我""]","","","","","","","","7","","","","","","","","","SRET","SRET_math_calculate","","key","7","16.66033057851211","640","356","","","","","49/7 = ?","7","1","","","","","","","",""
"2010","","8","psychophysics","120","331024","0.0-7.0-5.0-0.17","6","4","5","5","6","5","2","5","5","5","4","1","1","1","1","0","1","1","1","5","5","4","4","4","4","4","4","4","4","8","7","6","7","7","6","8","8","8","6","3","3","5","6","3","6","2","5","2","1","3","3","4","3","5","5","5","3","5","2","2","3","2","3","2","6","3","6","4","4","7","6","7","4","1","3","3","6","3","5","803250783939338242","顾","526","Female","[""坏她"",""好她"",""好我"",""坏我""]","[""弱她"",""强她"",""强我"",""弱我""]","","","","","","","","8","","","","","","","","","SRET","SRET_math_calculate","","key","8","16.652499999999904","640","356","","","","","13-5= ?","8","1","","","","","","","",""
"2032","","7","psychophysics","121","333060","0.0-7.0-5.0-0.18","6","4","5","5","6","5","2","5","5","5","4","1","1","1","1","0","1","1","1","5","5","4","4","4","4","4","4","4","4","8","7","6","7","7","6","8","8","8","6","3","3","5","6","3","6","2","5","2","1","3","3","4","3","5","5","5","3","5","2","2","3","2","3","2","6","3","6","4","4","7","6","7","4","1","3","3","6","3","5","803250783939338242","顾","526","Female","[""坏她"",""好她"",""好我"",""坏我""]","[""弱她"",""强她"",""强我"",""弱我""]","","","","","","","","7","","","","","","","","","SRET","SRET_math_calculate","","key","7","16.583471074379972","640","356","","","","","7*1=  ?","7","1","","","","","","","",""
"2064","","3","psychophysics","122","335126","0.0-7.0-5.0-0.19","6","4","5","5","6","5","2","5","5","5","4","1","1","1","1","0","1","1","1","5","5","4","4","4","4","4","4","4","4","8","7","6","7","7","6","8","8","8","6","3","3","5","6","3","6","2","5","2","1","3","3","4","3","5","5","5","3","5","2","2","3","2","3","2","6","3","6","4","4","7","6","7","4","1","3","3","6","3","5","803250783939338242","顾","526","Female","[""坏她"",""好她"",""好我"",""坏我""]","[""弱她"",""强她"",""强我"",""弱我""]","","","","","","","","3","","","","","","","","","SRET","SRET_math_calculate","","key","3","16.647154471544525","640","356","","","","","9-6= ?","3","1","","","","","","","",""
"2078","","6","psychophysics","123","337207","0.0-7.0-5.0-0.20","6","4","5","5","6","5","2","5","5","5","4","1","1","1","1","0","1","1","1","5","5","4","4","4","4","4","4","4","4","8","7","6","7","7","6","8","8","8","6","3","3","5","6","3","6","2","5","2","1","3","3","4","3","5","5","5","3","5","2","2","3","2","3","2","6","3","6","4","4","7","6","7","4","1","3","3","6","3","5","803250783939338242","顾","526","Female","[""坏她"",""好她"",""好我"",""坏我""]","[""弱她"",""强她"",""强我"",""弱我""]","","","","","","","","6","","","","","","","","","SRET","SRET_math_calculate","","key","6","16.661290322580644","640","356","","","","","3+3= ?","6","1","","","","","","","",""
"1845","","7","psychophysics","124","339054","0.0-7.0-5.0-0.21","6","4","5","5","6","5","2","5","5","5","4","1","1","1","1","0","1","1","1","5","5","4","4","4","4","4","4","4","4","8","7","6","7","7","6","8","8","8","6","3","3","5","6","3","6","2","5","2","1","3","3","4","3","5","5","5","3","5","2","2","3","2","3","2","6","3","6","4","4","7","6","7","4","1","3","3","6","3","5","803250783939338242","顾","526","Female","[""坏她"",""好她"",""好我"",""坏我""]","[""弱她"",""强她"",""强我"",""弱我""]","","","","","","","","7","","","","","","","","","SRET","SRET_math_calculate","","key","7","16.659999999999787","640","356","","","","","21/3= ? ","7","1","","","","","","","",""
"1940","","6","psychophysics","125","340995","0.0-7.0-5.0-0.22","6","4","5","5","6","5","2","5","5","5","4","1","1","1","1","0","1","1","1","5","5","4","4","4","4","4","4","4","4","8","7","6","7","7","6","8","8","8","6","3","3","5","6","3","6","2","5","2","1","3","3","4","3","5","5","5","3","5","2","2","3","2","3","2","6","3","6","4","4","7","6","7","4","1","3","3","6","3","5","803250783939338242","顾","526","Female","[""坏她"",""好她"",""好我"",""坏我""]","[""弱她"",""强她"",""强我"",""弱我""]","","","","","","","","6","","","","","","","","","SRET","SRET_math_calculate","","key","6","16.658260869565318","640","356","","","","","4+2= ?","6","1","","","","","","","",""
"2134","","6","psychophysics","126","343132","0.0-7.0-5.0-0.23","6","4","5","5","6","5","2","5","5","5","4","1","1","1","1","0","1","1","1","5","5","4","4","4","4","4","4","4","4","8","7","6","7","7","6","8","8","8","6","3","3","5","6","3","6","2","5","2","1","3","3","4","3","5","5","5","3","5","2","2","3","2","3","2","6","3","6","4","4","7","6","7","4","1","3","3","6","3","5","803250783939338242","顾","526","Female","[""坏她"",""好她"",""好我"",""坏我""]","[""弱她"",""强她"",""强我"",""弱我""]","","","","","","","","6","","","","","","","","","SRET","SRET_math_calculate","","key","6","16.659375000000182","640","356","","","","","9-3= ?","6","1","","","","","","","",""
"2128","","6","psychophysics","127","345261","0.0-7.0-5.0-0.24","6","4","5","5","6","5","2","5","5","5","4","1","1","1","1","0","1","1","1","5","5","4","4","4","4","4","4","4","4","8","7","6","7","7","6","8","8","8","6","3","3","5","6","3","6","2","5","2","1","3","3","4","3","5","5","5","3","5","2","2","3","2","3","2","6","3","6","4","4","7","6","7","4","1","3","3","6","3","5","803250783939338242","顾","526","Female","[""坏她"",""好她"",""好我"",""坏我""]","[""弱她"",""强她"",""强我"",""弱我""]","","","","","","","","6","","","","","","","","","SRET","SRET_math_calculate","","key","6","16.661904761904484","640","356","","","","","8-2= ?","6","1","","","","","","","",""
"2269","","8","psychophysics","128","347533","0.0-7.0-5.0-0.25","6","4","5","5","6","5","2","5","5","5","4","1","1","1","1","0","1","1","1","5","5","4","4","4","4","4","4","4","4","8","7","6","7","7","6","8","8","8","6","3","3","5","6","3","6","2","5","2","1","3","3","4","3","5","5","5","3","5","2","2","3","2","3","2","6","3","6","4","4","7","6","7","4","1","3","3","6","3","5","803250783939338242","顾","526","Female","[""坏她"",""好她"",""好我"",""坏我""]","[""弱她"",""强她"",""强我"",""弱我""]","","","","","","","","8","","","","","","","","","SRET","SRET_math_calculate","","key","8","16.65882352941202","640","356","","","","","11-3= ?","8","1","","","","","","","",""
"1600","","8","psychophysics","129","349136","0.0-7.0-5.0-0.26","6","4","5","5","6","5","2","5","5","5","4","1","1","1","1","0","1","1","1","5","5","4","4","4","4","4","4","4","4","8","7","6","7","7","6","8","8","8","6","3","3","5","6","3","6","2","5","2","1","3","3","4","3","5","5","5","3","5","2","2","3","2","3","2","6","3","6","4","4","7","6","7","4","1","3","3","6","3","5","803250783939338242","顾","526","Female","[""坏她"",""好她"",""好我"",""坏我""]","[""弱她"",""强她"",""强我"",""弱我""]","","","","","","","","8","","","","","","","","","SRET","SRET_math_calculate","","key","8","16.535789473683842","640","356","","","","","4+4= ?","8","1","","","","","","","",""
"2224","","6","psychophysics","130","351363","0.0-7.0-5.0-0.27","6","4","5","5","6","5","2","5","5","5","4","1","1","1","1","0","1","1","1","5","5","4","4","4","4","4","4","4","4","8","7","6","7","7","6","8","8","8","6","3","3","5","6","3","6","2","5","2","1","3","3","4","3","5","5","5","3","5","2","2","3","2","3","2","6","3","6","4","4","7","6","7","4","1","3","3","6","3","5","803250783939338242","顾","526","Female","[""坏她"",""好她"",""好我"",""坏我""]","[""弱她"",""强她"",""强我"",""弱我""]","","","","","","","","6","","","","","","","","","SRET","SRET_math_calculate","","key","6","16.657894736842106","640","356","","","","","2*3= ?","6","1","","","","","","","",""
"2150","","9","psychophysics","131","353518","0.0-7.0-5.0-0.28","6","4","5","5","6","5","2","5","5","5","4","1","1","1","1","0","1","1","1","5","5","4","4","4","4","4","4","4","4","8","7","6","7","7","6","8","8","8","6","3","3","5","6","3","6","2","5","2","1","3","3","4","3","5","5","5","3","5","2","2","3","2","3","2","6","3","6","4","4","7","6","7","4","1","3","3","6","3","5","803250783939338242","顾","526","Female","[""坏她"",""好她"",""好我"",""坏我""]","[""弱她"",""强她"",""强我"",""弱我""]","","","","","","","","9","","","","","","","","","SRET","SRET_math_calculate","","key","9","16.660937500000273","640","356","","","","","32-23= ?","9","1","","","","","","","",""
"1608","","9","psychophysics","132","355131","0.0-7.0-5.0-0.29","6","4","5","5","6","5","2","5","5","5","4","1","1","1","1","0","1","1","1","5","5","4","4","4","4","4","4","4","4","8","7","6","7","7","6","8","8","8","6","3","3","5","6","3","6","2","5","2","1","3","3","4","3","5","5","5","3","5","2","2","3","2","3","2","6","3","6","4","4","7","6","7","4","1","3","3","6","3","5","803250783939338242","顾","526","Female","[""坏她"",""好她"",""好我"",""坏我""]","[""弱她"",""强她"",""强我"",""弱我""]","","","","","","","","9","","","","","","","","","SRET","SRET_math_calculate","","key","9","16.655208333333576","640","356","","","","","7+2= ?","9","1","","","","","","","",""
"1877","","7","psychophysics","133","357012","0.0-7.0-5.0-0.30","6","4","5","5","6","5","2","5","5","5","4","1","1","1","1","0","1","1","1","5","5","4","4","4","4","4","4","4","4","8","7","6","7","7","6","8","8","8","6","3","3","5","6","3","6","2","5","2","1","3","3","4","3","5","5","5","3","5","2","2","3","2","3","2","6","3","6","4","4","7","6","7","4","1","3","3","6","3","5","803250783939338242","顾","526","Female","[""坏她"",""好她"",""好我"",""坏我""]","[""弱她"",""强她"",""强我"",""弱我""]","","","","","","","","7","","","","","","","","","SRET","SRET_math_calculate","","key","7","16.65892857142847","640","356","","","","","12-5= ?","7","1","","","","","","","",""
"1838","","7","psychophysics","134","358853","0.0-7.0-5.0-0.31","6","4","5","5","6","5","2","5","5","5","4","1","1","1","1","0","1","1","1","5","5","4","4","4","4","4","4","4","4","8","7","6","7","7","6","8","8","8","6","3","3","5","6","3","6","2","5","2","1","3","3","4","3","5","5","5","3","5","2","2","3","2","3","2","6","3","6","4","4","7","6","7","4","1","3","3","6","3","5","803250783939338242","顾","526","Female","[""坏她"",""好她"",""好我"",""坏我""]","[""弱她"",""强她"",""强我"",""弱我""]","","","","","","","","7","","","","","","","","","SRET","SRET_math_calculate","","key","7","16.660550458715598","640","356","","","","","8-1= ?","7","1","","","","","","","",""
"1743","","7","psychophysics","135","360603","0.0-7.0-5.0-0.32","6","4","5","5","6","5","2","5","5","5","4","1","1","1","1","0","1","1","1","5","5","4","4","4","4","4","4","4","4","8","7","6","7","7","6","8","8","8","6","3","3","5","6","3","6","2","5","2","1","3","3","4","3","5","5","5","3","5","2","2","3","2","3","2","6","3","6","4","4","7","6","7","4","1","3","3","6","3","5","803250783939338242","顾","526","Female","[""坏她"",""好她"",""好我"",""坏我""]","[""弱她"",""强她"",""强我"",""弱我""]","","","","","","","","7","","","","","","","","","SRET","SRET_math_calculate","","key","7","16.658653846153847","640","356","","","","","11-4= ?","7","1","","","","","","","",""
"2219","","5","psychophysics","136","362827","0.0-7.0-5.0-0.33","6","4","5","5","6","5","2","5","5","5","4","1","1","1","1","0","1","1","1","5","5","4","4","4","4","4","4","4","4","8","7","6","7","7","6","8","8","8","6","3","3","5","6","3","6","2","5","2","1","3","3","4","3","5","5","5","3","5","2","2","3","2","3","2","6","3","6","4","4","7","6","7","4","1","3","3","6","3","5","803250783939338242","顾","526","Female","[""坏她"",""好她"",""好我"",""坏我""]","[""弱她"",""强她"",""强我"",""弱我""]","","","","","","","","5","","","","","","","","","SRET","SRET_math_calculate","","key","5","16.662406015037856","640","356","","","","","9-4= ?","5","1","","","","","","","",""
"1928","","5","psychophysics","137","364760","0.0-7.0-5.0-0.34","6","4","5","5","6","5","2","5","5","5","4","1","1","1","1","0","1","1","1","5","5","4","4","4","4","4","4","4","4","8","7","6","7","7","6","8","8","8","6","3","3","5","6","3","6","2","5","2","1","3","3","4","3","5","5","5","3","5","2","2","3","2","3","2","6","3","6","4","4","7","6","7","4","1","3","3","6","3","5","803250783939338242","顾","526","Female","[""坏她"",""好她"",""好我"",""坏我""]","[""弱她"",""强她"",""强我"",""弱我""]","","","","","","","","5","","","","","","","","","SRET","SRET_math_calculate","","key","5","16.64521739130445","640","356","","","","","16-11= ?","5","1","","","","","","","",""
"1525","","5","psychophysics","138","366289","0.0-7.0-5.0-0.35","6","4","5","5","6","5","2","5","5","5","4","1","1","1","1","0","1","1","1","5","5","4","4","4","4","4","4","4","4","8","7","6","7","7","6","8","8","8","6","3","3","5","6","3","6","2","5","2","1","3","3","4","3","5","5","5","3","5","2","2","3","2","3","2","6","3","6","4","4","7","6","7","4","1","3","3","6","3","5","803250783939338242","顾","526","Female","[""坏她"",""好她"",""好我"",""坏我""]","[""弱她"",""强她"",""强我"",""弱我""]","","","","","","","","5","","","","","","","","","SRET","SRET_math_calculate","","key","5","16.65714285714273","640","356","","","","","4+1= ?","5","1","","","","","","","",""
"2288","","2","psychophysics","139","368578","0.0-7.0-5.0-0.36","6","4","5","5","6","5","2","5","5","5","4","1","1","1","1","0","1","1","1","5","5","4","4","4","4","4","4","4","4","8","7","6","7","7","6","8","8","8","6","3","3","5","6","3","6","2","5","2","1","3","3","4","3","5","5","5","3","5","2","2","3","2","3","2","6","3","6","4","4","7","6","7","4","1","3","3","6","3","5","803250783939338242","顾","526","Female","[""坏她"",""好她"",""好我"",""坏我""]","[""弱她"",""强她"",""强我"",""弱我""]","","","","","","","","2","","","","","","","","","SRET","SRET_math_calculate","","key","2","16.658088235294116","640","356","","","","","19-17= ?","2","1","","","","","","","",""
"1989","","2","psychophysics","140","370570","0.0-7.0-5.0-0.37","6","4","5","5","6","5","2","5","5","5","4","1","1","1","1","0","1","1","1","5","5","4","4","4","4","4","4","4","4","8","7","6","7","7","6","8","8","8","6","3","3","5","6","3","6","2","5","2","1","3","3","4","3","5","5","5","3","5","2","2","3","2","3","2","6","3","6","4","4","7","6","7","4","1","3","3","6","3","5","803250783939338242","顾","526","Female","[""坏她"",""好她"",""好我"",""坏我""]","[""弱她"",""强她"",""强我"",""弱我""]","","","","","","","","2","","","","","","","","","SRET","SRET_math_calculate","","key","2","16.65882352941196","640","356","","","","","29-27= ?","2","1","","","","","","","",""
"1962","","4","psychophysics","141","372533","0.0-7.0-5.0-0.38","6","4","5","5","6","5","2","5","5","5","4","1","1","1","1","0","1","1","1","5","5","4","4","4","4","4","4","4","4","8","7","6","7","7","6","8","8","8","6","3","3","5","6","3","6","2","5","2","1","3","3","4","3","5","5","5","3","5","2","2","3","2","3","2","6","3","6","4","4","7","6","7","4","1","3","3","6","3","5","803250783939338242","顾","526","Female","[""坏她"",""好她"",""好我"",""坏我""]","[""弱她"",""强她"",""强我"",""弱我""]","","","","","","","","4","","","","","","","","","SRET","SRET_math_calculate","","key","4","16.656410256410158","640","356","","","","","9-5= ?","4","1","","","","","","","",""
"1806","","7","psychophysics","142","374343","0.0-7.0-5.0-0.39","6","4","5","5","6","5","2","5","5","5","4","1","1","1","1","0","1","1","1","5","5","4","4","4","4","4","4","4","4","8","7","6","7","7","6","8","8","8","6","3","3","5","6","3","6","2","5","2","1","3","3","4","3","5","5","5","3","5","2","2","3","2","3","2","6","3","6","4","4","7","6","7","4","1","3","3","6","3","5","803250783939338242","顾","526","Female","[""坏她"",""好她"",""好我"",""坏我""]","[""弱她"",""强她"",""强我"",""弱我""]","","","","","","","","7","","","","","","","","","SRET","SRET_math_calculate","","key","7","16.657943925233862","640","356","","","","","3+4= ?","7","1","","","","","","","",""
