"rt","stimulus","response","trial_type","trial_index","time_elapsed","internal_node_id","swb_1","swb_2","swb_3","swb_4","swb_5","LOT_1","LOT_2","LOT_3","LOT_4","LOT_5","LOT_6","IPC_1","IPC_2","IPC_3","IPC_4","IPC_5","IPC_6","IPC_7","IPC_8","MorIden_1","MorIden_2","MorIden_3","MorIden_4","MorIden_5","MorIden_6","MorIden_7","MorIden_8","MorIden_9","MorIden_10","moralSeImag_1","moralSeImag_2","moralSeImag_3","moralSeImag_4","moralSeImag_5","moralSeImag_6","moralSeImag_7","moralSeImag_8","moralSeImag_9","sde_1","sde_2","sde_3","sde_4","sde_5","sde_6","sde_7","sde_8","sde_9","sde_10","trap2","sde_11","sde_12","sde_13","sde_14","sde_15","sde_16","sde_17","sde_18","sde_19","sde_20","IM_1","IM_2","IM_3","IM_4","IM_5","IM_6","IM_7","IM_8","IM_9","IM_10","IM_11","IM_12","IM_13","IM_14","IM_15","IM_16","IM_17","IM_18","IM_19","IM_20","subj_idx","friend_name","ParticipantID","Sex","Word","Word2","value","success","timeout","failed_images","failed_audio","failed_video","user_agent","responses","item_order","radio_event_ids","radio_event_times","key_event_times","mouse_event_times","straightlining","zigzagging","honeypot","task_id","screen_id","time_stamp","response_type","key_press","avg_frame_time","center_x","center_y","person","word","valence","domain","math","correct_response","correct","status","view_history","identity","duration","Image","condition","question_order","trap2_item"
"9342","
   <p><div style='color:white; font-size: 25px'>您好，欢迎参加本次实验。</div></p>
   <p><div style='color:white; font-size: 25px'>为充分保障您的权利，请确保您已经知晓并同意《参与实验同意书》以及《数据公开知情同意书》。</div></p>
   <p><div style='color:white; font-size: 25px'>如果您未见过上述内容，请咨询实验员。</div></p>
   <p style='color:white; font-size: 25px'>如果您选择继续实验，则表示您已经清楚两份知情同意书的内容并同意。</p>
   <p><div style = ""color: pink;font-size:30px;"">请确保您记得day0的实验编号，您将在本次实验输入该编号，若您忘记，请咨询实验员后作答。</div></p>
   <p><div style = ""color:lightblue;font-size:25px;"">请您尽可能认真地作答，我们将依据您在各问卷和按键任务中的作答质量发放报酬。</div></p>
   <p> <div style = ""color: green""><按空格键至下页></div> </p>
   "," ","html-keyboard-response","0","9344","0.0-0.0","6","5","6","5","5","4","3","5","4","4","5","1","-2","0","0","-1","1","1","1","5","4","5","2","4","4","5","4","5","4","6","8","5","7","4","7","6","6","7","5","5","4","3","6","2","4","3","6","6","1","3","3","5","2","3","5","5","5","4","6","1","5","2","3","3","6","3","6","3","7","3","3","3","5","2","3","3","3","3","4","773271155669995521","陈","176","Male","[""坏我"",""好他"",""好我"",""坏他""]","[""弱我"",""强他"",""强我"",""弱他""]","","","","","","","","","","","","","","","","","","","","","","","","","","","","","","","","","","","","","","",""
"","","","call-function","1","9346","0.0-1.0-0.0","6","5","6","5","5","4","3","5","4","4","5","1","-2","0","0","-1","1","1","1","5","4","5","2","4","4","5","4","5","4","6","8","5","7","4","7","6","6","7","5","5","4","3","6","2","4","3","6","6","1","3","3","5","2","3","5","5","5","4","6","1","5","2","3","3","6","3","6","3","7","3","3","3","5","2","3","3","3","3","4","773271155669995521","陈","176","Male","[""坏我"",""好他"",""好我"",""坏他""]","[""弱我"",""强他"",""强我"",""弱他""]","","","","","","","","","","","","","","","","","","","","","","","","","","","","","","","","","","","","","","",""
"25969","","[{""name"":""Sex"",""value"":""0""},{""name"":""friend_name"",""value"":""陈""},{""name"":""ParticipantID"",""value"":""176""}]","survey-html-form","2","35316","0.0-1.0-1.0","6","5","6","5","5","4","3","5","4","4","5","1","-2","0","0","-1","1","1","1","5","4","5","2","4","4","5","4","5","4","6","8","5","7","4","7","6","6","7","5","5","4","3","6","2","4","3","6","6","1","3","3","5","2","3","5","5","5","4","6","1","5","2","3","3","6","3","6","3","7","3","3","3","5","2","3","3","3","3","4","773271155669995521","陈","176","Male","[""坏我"",""好他"",""好我"",""坏他""]","[""弱我"",""强他"",""强我"",""弱他""]","","","","","","","","","","","","","","","","","","","","","","","","","","","","","","","","","","","","","","",""
"","","","preload","3","35667","0.0-2.0","6","5","6","5","5","4","3","5","4","4","5","1","-2","0","0","-1","1","1","1","5","4","5","2","4","4","5","4","5","4","6","8","5","7","4","7","6","6","7","5","5","4","3","6","2","4","3","6","6","1","3","3","5","2","3","5","5","5","4","6","1","5","2","3","3","6","3","6","3","7","3","3","3","5","2","3","3","3","3","4","773271155669995521","陈","176","Male","[""坏我"",""好他"",""好我"",""坏他""]","[""弱我"",""强他"",""强我"",""弱他""]","","true","false","[]","[]","[]","","","","","","","","","","","","","","","","","","","","","","","","","","","","","","","","",""
"","","","fullscreen","4","43636","0.0-3.0","6","5","6","5","5","4","3","5","4","4","5","1","-2","0","0","-1","1","1","1","5","4","5","2","4","4","5","4","5","4","6","8","5","7","4","7","6","6","7","5","5","4","3","6","2","4","3","6","6","1","3","3","5","2","3","5","5","5","4","6","1","5","2","3","3","6","3","6","3","7","3","3","3","5","2","3","3","3","3","4","773271155669995521","陈","176","Male","[""坏我"",""好他"",""好我"",""坏他""]","[""弱我"",""强他"",""强我"",""弱他""]","","true","","","","","{}","","","","","","","","","","","","","","","","","","","","","","","","","","","","","","","",""
"12733","","{""Q01"":""6"",""Q02"":""5"",""Q03"":""6"",""Q04"":""5"",""Q05"":""5""}","survey-template","5","56372","0.0-4.0","6","5","6","5","5","4","3","5","4","4","5","1","-2","0","0","-1","1","1","1","5","4","5","2","4","4","5","4","5","4","6","8","5","7","4","7","6","6","7","5","5","4","3","6","2","4","3","6","6","1","3","3","5","2","3","5","5","5","4","6","1","5","2","3","3","6","3","6","3","7","3","3","3","5","2","3","3","3","3","4","773271155669995521","陈","176","Male","[""坏我"",""好他"",""好我"",""坏他""]","[""弱我"",""强他"",""强我"",""弱他""]","","","","","","","","{""Q01"":""6"",""Q02"":""5"",""Q03"":""6"",""Q04"":""5"",""Q05"":""5""}","[0,1,2,3,4]","[""Q01"",""Q02"",""Q03"",""Q04"",""Q05""]","[3145.2999999523163,4625,6328.799999952316,7829,10319]","[]","[3145.2999999523163,4625,6328.799999952316,7829,10319,12731.099999904633]","0.6","0.75","0","","","","","","","","","","","","","","","","","","","","","","",""
"24125.800000190735","","{""Q01"":""4"",""Q02"":""3"",""Q03"":""5"",""Q04"":""4"",""Q05"":""4"",""Q06"":""5""}","survey-template","6","80505","0.0-5.0","6","5","6","5","5","4","3","5","4","4","5","1","-2","0","0","-1","1","1","1","5","4","5","2","4","4","5","4","5","4","6","8","5","7","4","7","6","6","7","5","5","4","3","6","2","4","3","6","6","1","3","3","5","2","3","5","5","5","4","6","1","5","2","3","3","6","3","6","3","7","3","3","3","5","2","3","3","3","3","4","773271155669995521","陈","176","Male","[""坏我"",""好他"",""好我"",""坏他""]","[""弱我"",""强他"",""强我"",""弱他""]","","","","","","","","{""Q01"":""4"",""Q02"":""3"",""Q03"":""5"",""Q04"":""4"",""Q05"":""4"",""Q06"":""5""}","[0,1,2,3,4,5]","[""Q01"",""Q02"",""Q03"",""Q04"",""Q05"",""Q06"",""Q06""]","[2827.100000143051,10356.5,12426.5,14643,17950.400000095367,20193.400000095367,22276.400000095367]","[]","[2827.100000143051,10356.5,12426.5,14643,17950.400000095367,20193.400000095367,22276.400000095367,24124.5]","0.3333333333333333","0.2","0","","","","","","","","","","","","","","","","","","","","","","",""
"32268.89999985695","","{""Q01"":""1"",""Q02"":""-2"",""Q03"":""0"",""Q04"":""0"",""Q05"":""-1"",""Q06"":""1"",""Q07"":""1"",""Q08"":""1""}","survey-template","7","112780","0.0-6.0","6","5","6","5","5","4","3","5","4","4","5","1","-2","0","0","-1","1","1","1","5","4","5","2","4","4","5","4","5","4","6","8","5","7","4","7","6","6","7","5","5","4","3","6","2","4","3","6","6","1","3","3","5","2","3","5","5","5","4","6","1","5","2","3","3","6","3","6","3","7","3","3","3","5","2","3","3","3","3","4","773271155669995521","陈","176","Male","[""坏我"",""好他"",""好我"",""坏他""]","[""弱我"",""强他"",""强我"",""弱他""]","","","","","","","","{""Q01"":""1"",""Q02"":""-2"",""Q03"":""0"",""Q04"":""0"",""Q05"":""-1"",""Q06"":""1"",""Q07"":""1"",""Q08"":""1""}","[0,1,2,3,4,5,6,7]","[""Q01"",""Q02"",""Q03"",""Q04"",""Q05"",""Q06"",""Q07"",""Q07"",""Q08"",""Q08""]","[4998.599999904633,6462.699999809265,10436.699999809265,14064.799999952316,17590.5,20078.699999809265,24832.699999809265,26320.599999904633,28909.099999904633,30176.699999809265]","[]","[4998.599999904633,6462.699999809265,10436.699999809265,14064.799999952316,17590.5,20078.699999809265,24832.699999809265,26320.599999904633,28909.099999904633,30176.699999809265,32266.799999952316]","0.5","0.14285714285714285","0","","","","","","","","","","","","","","","","","","","","","","",""
"13130","
    <p><div style='color:white;font-size:35px; line-height:20px;'>词汇评估任务</div></p><br>
    <p><div style='color:white;font-size:25px; line-height:20px;'>请再次回忆该亲密的朋友，你们至少2年前就认识了，并且最近2年经常见面。</div></p>
    <p><div style='color:white;font-size:25px; line-height:20px;'>在本实验中，您将会看到一些形容词。</div></p>
    <p><div style='color:yellow;font-size:25px; line-height:20px;'>您的任务是判断这些形容词是否符合对您自己或您的朋友的描述。</div></p><p style='font-size:35px'>符合按<span style=""color:lightgreen""> f 键</span>，不符合按<span style=""color:red""> j 键</span></p>","0","html-button-response","8","125917","0.0-7.0-0.0","6","5","6","5","5","4","3","5","4","4","5","1","-2","0","0","-1","1","1","1","5","4","5","2","4","4","5","4","5","4","6","8","5","7","4","7","6","6","7","5","5","4","3","6","2","4","3","6","6","1","3","3","5","2","3","5","5","5","4","6","1","5","2","3","3","6","3","6","3","7","3","3","3","5","2","3","3","3","3","4","773271155669995521","陈","176","Male","[""坏我"",""好他"",""好我"",""坏他""]","[""弱我"",""强他"",""强我"",""弱他""]","","","","","","","","","","","","","","","","","SRET_EW","EW_instructions","Tue Dec 26 2023 19:10:58 GMT+0800 (中国标准时间)","","","","","","","","","","","","","","","","","","","",""
"912","","j","psychophysics","9","127840","0.0-7.0-1.0-0.0","6","5","6","5","5","4","3","5","4","4","5","1","-2","0","0","-1","1","1","1","5","4","5","2","4","4","5","4","5","4","6","8","5","7","4","7","6","6","7","5","5","4","3","6","2","4","3","6","6","1","3","3","5","2","3","5","5","5","4","6","1","5","2","3","3","6","3","6","3","7","3","3","3","5","2","3","3","3","3","4","773271155669995521","陈","176","Male","[""坏我"",""好他"",""好我"",""坏他""]","[""弱我"",""强他"",""强我"",""弱他""]","","","","","","","","no","","","","","","","","","SRET_EW","EW_practice","","key","j","16.509565217391227","768","428","自己","严谨","Positive","ability","","","","","","","","","","",""
"636","","f","psychophysics","10","129479","0.0-7.0-1.0-0.1","6","5","6","5","5","4","3","5","4","4","5","1","-2","0","0","-1","1","1","1","5","4","5","2","4","4","5","4","5","4","6","8","5","7","4","7","6","6","7","5","5","4","3","6","2","4","3","6","6","1","3","3","5","2","3","5","5","5","4","6","1","5","2","3","3","6","3","6","3","7","3","3","3","5","2","3","3","3","3","4","773271155669995521","陈","176","Male","[""坏我"",""好他"",""好我"",""坏他""]","[""弱我"",""强他"",""强我"",""弱他""]","","","","","","","","yes","","","","","","","","","SRET_EW","EW_practice","","key","f","16.643298969072255","768","428","朋友","忠实","Positive","morality","","","","","","","","","","",""
"741","","j","psychophysics","11","131222","0.0-7.0-1.0-0.2","6","5","6","5","5","4","3","5","4","4","5","1","-2","0","0","-1","1","1","1","5","4","5","2","4","4","5","4","5","4","6","8","5","7","4","7","6","6","7","5","5","4","3","6","2","4","3","6","6","1","3","3","5","2","3","5","5","5","4","6","1","5","2","3","3","6","3","6","3","7","3","3","3","5","2","3","3","3","3","4","773271155669995521","陈","176","Male","[""坏我"",""好他"",""好我"",""坏他""]","[""弱我"",""强他"",""强我"",""弱他""]","","","","","","","","no","","","","","","","","","SRET_EW","EW_practice","","key","j","16.66346153846154","768","428","朋友","徇私","Negative","morality","","","","","","","","","","",""
"718","","j","psychophysics","12","132944","0.0-7.0-1.0-0.3","6","5","6","5","5","4","3","5","4","4","5","1","-2","0","0","-1","1","1","1","5","4","5","2","4","4","5","4","5","4","6","8","5","7","4","7","6","6","7","5","5","4","3","6","2","4","3","6","6","1","3","3","5","2","3","5","5","5","4","6","1","5","2","3","3","6","3","6","3","7","3","3","3","5","2","3","3","3","3","4","773271155669995521","陈","176","Male","[""坏我"",""好他"",""好我"",""坏他""]","[""弱我"",""强他"",""强我"",""弱他""]","","","","","","","","no","","","","","","","","","SRET_EW","EW_practice","","key","j","16.64803921568633","768","428","自己","刻板","Negative","ability","","","","","","","","","","",""
"13172","
    <p><div style='color:white;font-size:35px; line-height:20px;'>请您再次阅读实验要求</div></p><br>
    <p><div style='color:white;font-size:25px; line-height:20px;'>请回忆某一个亲密的朋友，你们至少2年前就认识了，并且最近2年经常见面。</div></p>
    <p><div style='color:white;font-size:25px; line-height:20px;'>在本实验中，您将会看到一些形容词。</div></p>
    <p><div style='color:yellow;font-size:25px; line-height:20px;'>您的任务是判断这些形容词是否符合对您自己或您的朋友的描述。</div></p>
    <p><div class='footer' style='font-size:25px; line-height:20px;'>如果对本实验还有不清楚之处，请立即向实验员咨询。</p><p style='font-size:25px; line-height:20px;'>如果您明白了规则：</p><p style='font-size:22px; line-height:20px;'>请按 继续 进入正式实验</p>
    </div>
    <p style='font-size:35px'>符合按<span style=""color:lightgreen""> f 键</span>，不符合按<span style=""color:red""> j 键</span></p>","0","html-button-response","13","146121","0.0-7.0-2.0","6","5","6","5","5","4","3","5","4","4","5","1","-2","0","0","-1","1","1","1","5","4","5","2","4","4","5","4","5","4","6","8","5","7","4","7","6","6","7","5","5","4","3","6","2","4","3","6","6","1","3","3","5","2","3","5","5","5","4","6","1","5","2","3","3","6","3","6","3","7","3","3","3","5","2","3","3","3","3","4","773271155669995521","陈","176","Male","[""坏我"",""好他"",""好我"",""坏他""]","[""弱我"",""强他"",""强我"",""弱他""]","","","","","","","","","","","","","","","","","SRET_EW","prac_instructions","Tue Dec 26 2023 19:10:58 GMT+0800 (中国标准时间)","","","","","","","","","","","","","","","","","","","",""
"627","","f","psychophysics","14","147752","0.0-7.0-3.0-0.0","6","5","6","5","5","4","3","5","4","4","5","1","-2","0","0","-1","1","1","1","5","4","5","2","4","4","5","4","5","4","6","8","5","7","4","7","6","6","7","5","5","4","3","6","2","4","3","6","6","1","3","3","5","2","3","5","5","5","4","6","1","5","2","3","3","6","3","6","3","7","3","3","3","5","2","3","3","3","3","4","773271155669995521","陈","176","Male","[""坏我"",""好他"",""好我"",""坏他""]","[""弱我"",""强他"",""强我"",""弱他""]","","","","","","","","yes","","","","","","","","","SRET","EW_formal","","key","f","16.6608247422681","768","428","朋友","务实","Positive","ability","","","","","","","","","","",""
"1018","","f","psychophysics","15","149773","0.0-7.0-3.0-0.1","6","5","6","5","5","4","3","5","4","4","5","1","-2","0","0","-1","1","1","1","5","4","5","2","4","4","5","4","5","4","6","8","5","7","4","7","6","6","7","5","5","4","3","6","2","4","3","6","6","1","3","3","5","2","3","5","5","5","4","6","1","5","2","3","3","6","3","6","3","7","3","3","3","5","2","3","3","3","3","4","773271155669995521","陈","176","Male","[""坏我"",""好他"",""好我"",""坏他""]","[""弱我"",""强他"",""强我"",""弱他""]","","","","","","","","yes","","","","","","","","","SRET","EW_formal","","key","f","16.658677685950508","768","428","朋友","迷糊","Negative","ability","","","","","","","","","","",""
"773","","f","psychophysics","16","151548","0.0-7.0-3.0-0.2","6","5","6","5","5","4","3","5","4","4","5","1","-2","0","0","-1","1","1","1","5","4","5","2","4","4","5","4","5","4","6","8","5","7","4","7","6","6","7","5","5","4","3","6","2","4","3","6","6","1","3","3","5","2","3","5","5","5","4","6","1","5","2","3","3","6","3","6","3","7","3","3","3","5","2","3","3","3","3","4","773271155669995521","陈","176","Male","[""坏我"",""好他"",""好我"",""坏他""]","[""弱我"",""强他"",""强我"",""弱他""]","","","","","","","","yes","","","","","","","","","SRET","EW_formal","","key","f","16.660000000000167","768","428","自己","坚贞","Positive","morality","","","","","","","","","","",""
"1398","","j","psychophysics","17","153947","0.0-7.0-3.0-0.3","6","5","6","5","5","4","3","5","4","4","5","1","-2","0","0","-1","1","1","1","5","4","5","2","4","4","5","4","5","4","6","8","5","7","4","7","6","6","7","5","5","4","3","6","2","4","3","6","6","1","3","3","5","2","3","5","5","5","4","6","1","5","2","3","3","6","3","6","3","7","3","3","3","5","2","3","3","3","3","4","773271155669995521","陈","176","Male","[""坏我"",""好他"",""好我"",""坏他""]","[""弱我"",""强他"",""强我"",""弱他""]","","","","","","","","no","","","","","","","","","SRET","EW_formal","","key","j","16.662937062936983","768","428","自己","说谎","Negative","morality","","","","","","","","","","",""
"null","","null","psychophysics","18","156956","0.0-7.0-3.0-0.4","6","5","6","5","5","4","3","5","4","4","5","1","-2","0","0","-1","1","1","1","5","4","5","2","4","4","5","4","5","4","6","8","5","7","4","7","6","6","7","5","5","4","3","6","2","4","3","6","6","1","3","3","5","2","3","5","5","5","4","6","1","5","2","3","3","6","3","6","3","7","3","3","3","5","2","3","3","3","3","4","773271155669995521","陈","176","Male","[""坏我"",""好他"",""好我"",""坏他""]","[""弱我"",""强他"",""强我"",""弱他""]","","","","","","","","","","","","","","","","","SRET","EW_formal","","key","null","16.660555555555522","768","428","朋友","奸险","Negative","morality","","","","","","","","","","",""
"650","","f","psychophysics","19","158608","0.0-7.0-3.0-0.5","6","5","6","5","5","4","3","5","4","4","5","1","-2","0","0","-1","1","1","1","5","4","5","2","4","4","5","4","5","4","6","8","5","7","4","7","6","6","7","5","5","4","3","6","2","4","3","6","6","1","3","3","5","2","3","5","5","5","4","6","1","5","2","3","3","6","3","6","3","7","3","3","3","5","2","3","3","3","3","4","773271155669995521","陈","176","Male","[""坏我"",""好他"",""好我"",""坏他""]","[""弱我"",""强他"",""强我"",""弱他""]","","","","","","","","yes","","","","","","","","","SRET","EW_formal","","key","f","16.65612244897977","768","428","朋友","干练","Positive","ability","","","","","","","","","","",""
"638","","f","psychophysics","20","160248","0.0-7.0-3.0-0.6","6","5","6","5","5","4","3","5","4","4","5","1","-2","0","0","-1","1","1","1","5","4","5","2","4","4","5","4","5","4","6","8","5","7","4","7","6","6","7","5","5","4","3","6","2","4","3","6","6","1","3","3","5","2","3","5","5","5","4","6","1","5","2","3","3","6","3","6","3","7","3","3","3","5","2","3","3","3","3","4","773271155669995521","陈","176","Male","[""坏我"",""好他"",""好我"",""坏他""]","[""弱我"",""强他"",""强我"",""弱他""]","","","","","","","","yes","","","","","","","","","SRET","EW_formal","","key","f","16.65979381443299","768","428","朋友","坚持","Positive","ability","","","","","","","","","","",""
"825","","f","psychophysics","21","162076","0.0-7.0-3.0-0.7","6","5","6","5","5","4","3","5","4","4","5","1","-2","0","0","-1","1","1","1","5","4","5","2","4","4","5","4","5","4","6","8","5","7","4","7","6","6","7","5","5","4","3","6","2","4","3","6","6","1","3","3","5","2","3","5","5","5","4","6","1","5","2","3","3","6","3","6","3","7","3","3","3","5","2","3","3","3","3","4","773271155669995521","陈","176","Male","[""坏我"",""好他"",""好我"",""坏他""]","[""弱我"",""强他"",""强我"",""弱他""]","","","","","","","","yes","","","","","","","","","SRET","EW_formal","","key","f","16.660550458715598","768","428","朋友","外行","Negative","ability","","","","","","","","","","",""
"700","","j","psychophysics","22","163779","0.0-7.0-3.0-0.8","6","5","6","5","5","4","3","5","4","4","5","1","-2","0","0","-1","1","1","1","5","4","5","2","4","4","5","4","5","4","6","8","5","7","4","7","6","6","7","5","5","4","3","6","2","4","3","6","6","1","3","3","5","2","3","5","5","5","4","6","1","5","2","3","3","6","3","6","3","7","3","3","3","5","2","3","3","3","3","4","773271155669995521","陈","176","Male","[""坏我"",""好他"",""好我"",""坏他""]","[""弱我"",""强他"",""强我"",""弱他""]","","","","","","","","no","","","","","","","","","SRET","EW_formal","","key","j","16.641999999999825","768","428","自己","自私","Negative","morality","","","","","","","","","","",""
"959","","f","psychophysics","23","165741","0.0-7.0-3.0-0.9","6","5","6","5","5","4","3","5","4","4","5","1","-2","0","0","-1","1","1","1","5","4","5","2","4","4","5","4","5","4","6","8","5","7","4","7","6","6","7","5","5","4","3","6","2","4","3","6","6","1","3","3","5","2","3","5","5","5","4","6","1","5","2","3","3","6","3","6","3","7","3","3","3","5","2","3","3","3","3","4","773271155669995521","陈","176","Male","[""坏我"",""好他"",""好我"",""坏他""]","[""弱我"",""强他"",""强我"",""弱他""]","","","","","","","","yes","","","","","","","","","SRET","EW_formal","","key","f","16.658974358974408","768","428","朋友","努力","Positive","ability","","","","","","","","","","",""
"806","","f","psychophysics","24","167551","0.0-7.0-3.0-0.10","6","5","6","5","5","4","3","5","4","4","5","1","-2","0","0","-1","1","1","1","5","4","5","2","4","4","5","4","5","4","6","8","5","7","4","7","6","6","7","5","5","4","3","6","2","4","3","6","6","1","3","3","5","2","3","5","5","5","4","6","1","5","2","3","3","6","3","6","3","7","3","3","3","5","2","3","3","3","3","4","773271155669995521","陈","176","Male","[""坏我"",""好他"",""好我"",""坏他""]","[""弱我"",""强他"",""强我"",""弱他""]","","","","","","","","yes","","","","","","","","","SRET","EW_formal","","key","f","16.660185185185078","768","428","朋友","廉正","Positive","morality","","","","","","","","","","",""
"788","","j","psychophysics","25","169342","0.0-7.0-3.0-0.11","6","5","6","5","5","4","3","5","4","4","5","1","-2","0","0","-1","1","1","1","5","4","5","2","4","4","5","4","5","4","6","8","5","7","4","7","6","6","7","5","5","4","3","6","2","4","3","6","6","1","3","3","5","2","3","5","5","5","4","6","1","5","2","3","3","6","3","6","3","7","3","3","3","5","2","3","3","3","3","4","773271155669995521","陈","176","Male","[""坏我"",""好他"",""好我"",""坏他""]","[""弱我"",""强他"",""强我"",""弱他""]","","","","","","","","no","","","","","","","","","SRET","EW_formal","","key","j","16.6632075471697","768","428","自己","扎实","Positive","ability","","","","","","","","","","",""
"null","","null","psychophysics","26","172350","0.0-7.0-3.0-0.12","6","5","6","5","5","4","3","5","4","4","5","1","-2","0","0","-1","1","1","1","5","4","5","2","4","4","5","4","5","4","6","8","5","7","4","7","6","6","7","5","5","4","3","6","2","4","3","6","6","1","3","3","5","2","3","5","5","5","4","6","1","5","2","3","3","6","3","6","3","7","3","3","3","5","2","3","3","3","3","4","773271155669995521","陈","176","Male","[""坏我"",""好他"",""好我"",""坏他""]","[""弱我"",""强他"",""强我"",""弱他""]","","","","","","","","","","","","","","","","","SRET","EW_formal","","key","null","16.661666666666697","768","428","朋友","善良","Positive","morality","","","","","","","","","","",""
"643","","f","psychophysics","27","173996","0.0-7.0-3.0-0.13","6","5","6","5","5","4","3","5","4","4","5","1","-2","0","0","-1","1","1","1","5","4","5","2","4","4","5","4","5","4","6","8","5","7","4","7","6","6","7","5","5","4","3","6","2","4","3","6","6","1","3","3","5","2","3","5","5","5","4","6","1","5","2","3","3","6","3","6","3","7","3","3","3","5","2","3","3","3","3","4","773271155669995521","陈","176","Male","[""坏我"",""好他"",""好我"",""坏他""]","[""弱我"",""强他"",""强我"",""弱他""]","","","","","","","","yes","","","","","","","","","SRET","EW_formal","","key","f","16.6612244897958","768","428","朋友","好心","Positive","morality","","","","","","","","","","",""
"622","","f","psychophysics","28","175622","0.0-7.0-3.0-0.14","6","5","6","5","5","4","3","5","4","4","5","1","-2","0","0","-1","1","1","1","5","4","5","2","4","4","5","4","5","4","6","8","5","7","4","7","6","6","7","5","5","4","3","6","2","4","3","6","6","1","3","3","5","2","3","5","5","5","4","6","1","5","2","3","3","6","3","6","3","7","3","3","3","5","2","3","3","3","3","4","773271155669995521","陈","176","Male","[""坏我"",""好他"",""好我"",""坏他""]","[""弱我"",""强他"",""强我"",""弱他""]","","","","","","","","yes","","","","","","","","","SRET","EW_formal","","key","f","16.662500000000062","768","428","朋友","慈悲","Positive","morality","","","","","","","","","","",""
"1110","","j","psychophysics","29","177735","0.0-7.0-3.0-0.15","6","5","6","5","5","4","3","5","4","4","5","1","-2","0","0","-1","1","1","1","5","4","5","2","4","4","5","4","5","4","6","8","5","7","4","7","6","6","7","5","5","4","3","6","2","4","3","6","6","1","3","3","5","2","3","5","5","5","4","6","1","5","2","3","3","6","3","6","3","7","3","3","3","5","2","3","3","3","3","4","773271155669995521","陈","176","Male","[""坏我"",""好他"",""好我"",""坏他""]","[""弱我"",""强他"",""强我"",""弱他""]","","","","","","","","no","","","","","","","","","SRET","EW_formal","","key","j","16.661904761904715","768","428","朋友","犹豫","Negative","ability","","","","","","","","","","",""
"763","","j","psychophysics","30","179501","0.0-7.0-3.0-0.16","6","5","6","5","5","4","3","5","4","4","5","1","-2","0","0","-1","1","1","1","5","4","5","2","4","4","5","4","5","4","6","8","5","7","4","7","6","6","7","5","5","4","3","6","2","4","3","6","6","1","3","3","5","2","3","5","5","5","4","6","1","5","2","3","3","6","3","6","3","7","3","3","3","5","2","3","3","3","3","4","773271155669995521","陈","176","Male","[""坏我"",""好他"",""好我"",""坏他""]","[""弱我"",""强他"",""强我"",""弱他""]","","","","","","","","no","","","","","","","","","SRET","EW_formal","","key","j","16.660952380952324","768","428","朋友","草率","Negative","ability","","","","","","","","","","",""
"1260","","j","psychophysics","31","181763","0.0-7.0-3.0-0.17","6","5","6","5","5","4","3","5","4","4","5","1","-2","0","0","-1","1","1","1","5","4","5","2","4","4","5","4","5","4","6","8","5","7","4","7","6","6","7","5","5","4","3","6","2","4","3","6","6","1","3","3","5","2","3","5","5","5","4","6","1","5","2","3","3","6","3","6","3","7","3","3","3","5","2","3","3","3","3","4","773271155669995521","陈","176","Male","[""坏我"",""好他"",""好我"",""坏他""]","[""弱我"",""强他"",""强我"",""弱他""]","","","","","","","","no","","","","","","","","","SRET","EW_formal","","key","j","16.660000000000043","768","428","自己","无为","Negative","ability","","","","","","","","","","",""
"977","","f","psychophysics","32","183743","0.0-7.0-3.0-0.18","6","5","6","5","5","4","3","5","4","4","5","1","-2","0","0","-1","1","1","1","5","4","5","2","4","4","5","4","5","4","6","8","5","7","4","7","6","6","7","5","5","4","3","6","2","4","3","6","6","1","3","3","5","2","3","5","5","5","4","6","1","5","2","3","3","6","3","6","3","7","3","3","3","5","2","3","3","3","3","4","773271155669995521","陈","176","Male","[""坏我"",""好他"",""好我"",""坏他""]","[""弱我"",""强他"",""强我"",""弱他""]","","","","","","","","yes","","","","","","","","","SRET","EW_formal","","key","f","16.659322033898206","768","428","朋友","沉着","Positive","ability","","","","","","","","","","",""
"1248","","j","psychophysics","33","185992","0.0-7.0-3.0-0.19","6","5","6","5","5","4","3","5","4","4","5","1","-2","0","0","-1","1","1","1","5","4","5","2","4","4","5","4","5","4","6","8","5","7","4","7","6","6","7","5","5","4","3","6","2","4","3","6","6","1","3","3","5","2","3","5","5","5","4","6","1","5","2","3","3","6","3","6","3","7","3","3","3","5","2","3","3","3","3","4","773271155669995521","陈","176","Male","[""坏我"",""好他"",""好我"",""坏他""]","[""弱我"",""强他"",""强我"",""弱他""]","","","","","","","","no","","","","","","","","","SRET","EW_formal","","key","j","16.66044776119403","768","428","朋友","窝囊","Negative","ability","","","","","","","","","","",""
"1261","","f","psychophysics","34","188257","0.0-7.0-3.0-0.20","6","5","6","5","5","4","3","5","4","4","5","1","-2","0","0","-1","1","1","1","5","4","5","2","4","4","5","4","5","4","6","8","5","7","4","7","6","6","7","5","5","4","3","6","2","4","3","6","6","1","3","3","5","2","3","5","5","5","4","6","1","5","2","3","3","6","3","6","3","7","3","3","3","5","2","3","3","3","3","4","773271155669995521","陈","176","Male","[""坏我"",""好他"",""好我"",""坏他""]","[""弱我"",""强他"",""强我"",""弱他""]","","","","","","","","yes","","","","","","","","","SRET","EW_formal","","key","f","16.660000000000043","768","428","自己","学霸","Positive","ability","","","","","","","","","","",""
"1347","","f","psychophysics","35","190605","0.0-7.0-3.0-0.21","6","5","6","5","5","4","3","5","4","4","5","1","-2","0","0","-1","1","1","1","5","4","5","2","4","4","5","4","5","4","6","8","5","7","4","7","6","6","7","5","5","4","3","6","2","4","3","6","6","1","3","3","5","2","3","5","5","5","4","6","1","5","2","3","3","6","3","6","3","7","3","3","3","5","2","3","3","3","3","4","773271155669995521","陈","176","Male","[""坏我"",""好他"",""好我"",""坏他""]","[""弱我"",""强他"",""强我"",""弱他""]","","","","","","","","yes","","","","","","","","","SRET","EW_formal","","key","f","16.659999999999958","768","428","朋友","屈才","Negative","ability","","","","","","","","","","",""
"753","","f","psychophysics","36","192362","0.0-7.0-3.0-0.22","6","5","6","5","5","4","3","5","4","4","5","1","-2","0","0","-1","1","1","1","5","4","5","2","4","4","5","4","5","4","6","8","5","7","4","7","6","6","7","5","5","4","3","6","2","4","3","6","6","1","3","3","5","2","3","5","5","5","4","6","1","5","2","3","3","6","3","6","3","7","3","3","3","5","2","3","3","3","3","4","773271155669995521","陈","176","Male","[""坏我"",""好他"",""好我"",""坏他""]","[""弱我"",""强他"",""强我"",""弱他""]","","","","","","","","yes","","","","","","","","","SRET","EW_formal","","key","f","16.66153846153863","768","428","自己","肯干","Positive","ability","","","","","","","","","","",""
"895","","f","psychophysics","37","194261","0.0-7.0-3.0-0.23","6","5","6","5","5","4","3","5","4","4","5","1","-2","0","0","-1","1","1","1","5","4","5","2","4","4","5","4","5","4","6","8","5","7","4","7","6","6","7","5","5","4","3","6","2","4","3","6","6","1","3","3","5","2","3","5","5","5","4","6","1","5","2","3","3","6","3","6","3","7","3","3","3","5","2","3","3","3","3","4","773271155669995521","陈","176","Male","[""坏我"",""好他"",""好我"",""坏他""]","[""弱我"",""强他"",""强我"",""弱他""]","","","","","","","","yes","","","","","","","","","SRET","EW_formal","","key","f","16.660176991150493","768","428","自己","无敌","Positive","ability","","","","","","","","","","",""
"583","","f","psychophysics","38","195847","0.0-7.0-3.0-0.24","6","5","6","5","5","4","3","5","4","4","5","1","-2","0","0","-1","1","1","1","5","4","5","2","4","4","5","4","5","4","6","8","5","7","4","7","6","6","7","5","5","4","3","6","2","4","3","6","6","1","3","3","5","2","3","5","5","5","4","6","1","5","2","3","3","6","3","6","3","7","3","3","3","5","2","3","3","3","3","4","773271155669995521","陈","176","Male","[""坏我"",""好他"",""好我"",""坏他""]","[""弱我"",""强他"",""强我"",""弱他""]","","","","","","","","yes","","","","","","","","","SRET","EW_formal","","key","f","16.661702127659698","768","428","自己","勤奋","Positive","ability","","","","","","","","","","",""
"575","","f","psychophysics","39","197425","0.0-7.0-3.0-0.25","6","5","6","5","5","4","3","5","4","4","5","1","-2","0","0","-1","1","1","1","5","4","5","2","4","4","5","4","5","4","6","8","5","7","4","7","6","6","7","5","5","4","3","6","2","4","3","6","6","1","3","3","5","2","3","5","5","5","4","6","1","5","2","3","3","6","3","6","3","7","3","3","3","5","2","3","3","3","3","4","773271155669995521","陈","176","Male","[""坏我"",""好他"",""好我"",""坏他""]","[""弱我"",""强他"",""强我"",""弱他""]","","","","","","","","yes","","","","","","","","","SRET","EW_formal","","key","f","16.661702127659698","768","428","自己","守法","Positive","morality","","","","","","","","","","",""
"515","","f","psychophysics","40","198943","0.0-7.0-3.0-0.26","6","5","6","5","5","4","3","5","4","4","5","1","-2","0","0","-1","1","1","1","5","4","5","2","4","4","5","4","5","4","6","8","5","7","4","7","6","6","7","5","5","4","3","6","2","4","3","6","6","1","3","3","5","2","3","5","5","5","4","6","1","5","2","3","3","6","3","6","3","7","3","3","3","5","2","3","3","3","3","4","773271155669995521","陈","176","Male","[""坏我"",""好他"",""好我"",""坏他""]","[""弱我"",""强他"",""强我"",""弱他""]","","","","","","","","yes","","","","","","","","","SRET","EW_formal","","key","f","16.662222222222287","768","428","自己","独断","Negative","ability","","","","","","","","","","",""
"687","","f","psychophysics","41","200634","0.0-7.0-3.0-0.27","6","5","6","5","5","4","3","5","4","4","5","1","-2","0","0","-1","1","1","1","5","4","5","2","4","4","5","4","5","4","6","8","5","7","4","7","6","6","7","5","5","4","3","6","2","4","3","6","6","1","3","3","5","2","3","5","5","5","4","6","1","5","2","3","3","6","3","6","3","7","3","3","3","5","2","3","3","3","3","4","773271155669995521","陈","176","Male","[""坏我"",""好他"",""好我"",""坏他""]","[""弱我"",""强他"",""强我"",""弱他""]","","","","","","","","yes","","","","","","","","","SRET","EW_formal","","key","f","16.659405940594116","768","428","自己","才尽","Negative","ability","","","","","","","","","","",""
"1184","","j","psychophysics","42","202821","0.0-7.0-3.0-0.28","6","5","6","5","5","4","3","5","4","4","5","1","-2","0","0","-1","1","1","1","5","4","5","2","4","4","5","4","5","4","6","8","5","7","4","7","6","6","7","5","5","4","3","6","2","4","3","6","6","1","3","3","5","2","3","5","5","5","4","6","1","5","2","3","3","6","3","6","3","7","3","3","3","5","2","3","3","3","3","4","773271155669995521","陈","176","Male","[""坏我"",""好他"",""好我"",""坏他""]","[""弱我"",""强他"",""强我"",""弱他""]","","","","","","","","no","","","","","","","","","SRET","EW_formal","","key","j","16.659230769230636","768","428","朋友","马虎","Negative","ability","","","","","","","","","","",""
"728","","j","psychophysics","43","204552","0.0-7.0-3.0-0.29","6","5","6","5","5","4","3","5","4","4","5","1","-2","0","0","-1","1","1","1","5","4","5","2","4","4","5","4","5","4","6","8","5","7","4","7","6","6","7","5","5","4","3","6","2","4","3","6","6","1","3","3","5","2","3","5","5","5","4","6","1","5","2","3","3","6","3","6","3","7","3","3","3","5","2","3","3","3","3","4","773271155669995521","陈","176","Male","[""坏我"",""好他"",""好我"",""坏他""]","[""弱我"",""强他"",""强我"",""弱他""]","","","","","","","","no","","","","","","","","","SRET","EW_formal","","key","j","16.660194174757283","768","428","朋友","卑鄙","Negative","morality","","","","","","","","","","",""
"662","","f","psychophysics","44","206216","0.0-7.0-3.0-0.30","6","5","6","5","5","4","3","5","4","4","5","1","-2","0","0","-1","1","1","1","5","4","5","2","4","4","5","4","5","4","6","8","5","7","4","7","6","6","7","5","5","4","3","6","2","4","3","6","6","1","3","3","5","2","3","5","5","5","4","6","1","5","2","3","3","6","3","6","3","7","3","3","3","5","2","3","3","3","3","4","773271155669995521","陈","176","Male","[""坏我"",""好他"",""好我"",""坏他""]","[""弱我"",""强他"",""强我"",""弱他""]","","","","","","","","yes","","","","","","","","","SRET","EW_formal","","key","f","16.660606060606003","768","428","朋友","文明","Positive","morality","","","","","","","","","","",""
"692","","j","psychophysics","45","207913","0.0-7.0-3.0-0.31","6","5","6","5","5","4","3","5","4","4","5","1","-2","0","0","-1","1","1","1","5","4","5","2","4","4","5","4","5","4","6","8","5","7","4","7","6","6","7","5","5","4","3","6","2","4","3","6","6","1","3","3","5","2","3","5","5","5","4","6","1","5","2","3","3","6","3","6","3","7","3","3","3","5","2","3","3","3","3","4","773271155669995521","陈","176","Male","[""坏我"",""好他"",""好我"",""坏他""]","[""弱我"",""强他"",""强我"",""弱他""]","","","","","","","","no","","","","","","","","","SRET","EW_formal","","key","j","16.659405940594116","768","428","朋友","愚痴","Negative","ability","","","","","","","","","","",""
"682","","j","psychophysics","46","209598","0.0-7.0-3.0-0.32","6","5","6","5","5","4","3","5","4","4","5","1","-2","0","0","-1","1","1","1","5","4","5","2","4","4","5","4","5","4","6","8","5","7","4","7","6","6","7","5","5","4","3","6","2","4","3","6","6","1","3","3","5","2","3","5","5","5","4","6","1","5","2","3","3","6","3","6","3","7","3","3","3","5","2","3","3","3","3","4","773271155669995521","陈","176","Male","[""坏我"",""好他"",""好我"",""坏他""]","[""弱我"",""强他"",""强我"",""弱他""]","","","","","","","","no","","","","","","","","","SRET","EW_formal","","key","j","16.660999999999767","768","428","朋友","昏庸","Negative","ability","","","","","","","","","","",""
"970","","j","psychophysics","47","211570","0.0-7.0-3.0-0.33","6","5","6","5","5","4","3","5","4","4","5","1","-2","0","0","-1","1","1","1","5","4","5","2","4","4","5","4","5","4","6","8","5","7","4","7","6","6","7","5","5","4","3","6","2","4","3","6","6","1","3","3","5","2","3","5","5","5","4","6","1","5","2","3","3","6","3","6","3","7","3","3","3","5","2","3","3","3","3","4","773271155669995521","陈","176","Male","[""坏我"",""好他"",""好我"",""坏他""]","[""弱我"",""强他"",""强我"",""弱他""]","","","","","","","","no","","","","","","","","","SRET","EW_formal","","key","j","16.662393162393162","768","428","自己","失信","Negative","morality","","","","","","","","","","",""
"611","","j","psychophysics","48","213183","0.0-7.0-3.0-0.34","6","5","6","5","5","4","3","5","4","4","5","1","-2","0","0","-1","1","1","1","5","4","5","2","4","4","5","4","5","4","6","8","5","7","4","7","6","6","7","5","5","4","3","6","2","4","3","6","6","1","3","3","5","2","3","5","5","5","4","6","1","5","2","3","3","6","3","6","3","7","3","3","3","5","2","3","3","3","3","4","773271155669995521","陈","176","Male","[""坏我"",""好他"",""好我"",""坏他""]","[""弱我"",""强他"",""强我"",""弱他""]","","","","","","","","no","","","","","","","","","SRET","EW_formal","","key","j","16.661458333333332","768","428","朋友","诡诈","Negative","morality","","","","","","","","","","",""
"602","","f","psychophysics","49","214788","0.0-7.0-3.0-0.35","6","5","6","5","5","4","3","5","4","4","5","1","-2","0","0","-1","1","1","1","5","4","5","2","4","4","5","4","5","4","6","8","5","7","4","7","6","6","7","5","5","4","3","6","2","4","3","6","6","1","3","3","5","2","3","5","5","5","4","6","1","5","2","3","3","6","3","6","3","7","3","3","3","5","2","3","3","3","3","4","773271155669995521","陈","176","Male","[""坏我"",""好他"",""好我"",""坏他""]","[""弱我"",""强他"",""强我"",""弱他""]","","","","","","","","yes","","","","","","","","","SRET","EW_formal","","key","f","16.66315789473684","768","428","朋友","守信","Positive","morality","","","","","","","","","","",""
"657","","j","psychophysics","50","216448","0.0-7.0-3.0-0.36","6","5","6","5","5","4","3","5","4","4","5","1","-2","0","0","-1","1","1","1","5","4","5","2","4","4","5","4","5","4","6","8","5","7","4","7","6","6","7","5","5","4","3","6","2","4","3","6","6","1","3","3","5","2","3","5","5","5","4","6","1","5","2","3","3","6","3","6","3","7","3","3","3","5","2","3","3","3","3","4","773271155669995521","陈","176","Male","[""坏我"",""好他"",""好我"",""坏他""]","[""弱我"",""强他"",""强我"",""弱他""]","","","","","","","","no","","","","","","","","","SRET","EW_formal","","key","j","16.65959595959584","768","428","自己","弱智","Negative","ability","","","","","","","","","","",""
"684","","f","psychophysics","51","218133","0.0-7.0-3.0-0.37","6","5","6","5","5","4","3","5","4","4","5","1","-2","0","0","-1","1","1","1","5","4","5","2","4","4","5","4","5","4","6","8","5","7","4","7","6","6","7","5","5","4","3","6","2","4","3","6","6","1","3","3","5","2","3","5","5","5","4","6","1","5","2","3","3","6","3","6","3","7","3","3","3","5","2","3","3","3","3","4","773271155669995521","陈","176","Male","[""坏我"",""好他"",""好我"",""坏他""]","[""弱我"",""强他"",""强我"",""弱他""]","","","","","","","","yes","","","","","","","","","SRET","EW_formal","","key","f","16.66399999999994","768","428","自己","果断","Positive","ability","","","","","","","","","","",""
"673","","j","psychophysics","52","219810","0.0-7.0-3.0-0.38","6","5","6","5","5","4","3","5","4","4","5","1","-2","0","0","-1","1","1","1","5","4","5","2","4","4","5","4","5","4","6","8","5","7","4","7","6","6","7","5","5","4","3","6","2","4","3","6","6","1","3","3","5","2","3","5","5","5","4","6","1","5","2","3","3","6","3","6","3","7","3","3","3","5","2","3","3","3","3","4","773271155669995521","陈","176","Male","[""坏我"",""好他"",""好我"",""坏他""]","[""弱我"",""强他"",""强我"",""弱他""]","","","","","","","","no","","","","","","","","","SRET","EW_formal","","key","j","16.62323232323215","768","428","自己","虚伪","Negative","morality","","","","","","","","","","",""
"730","","f","psychophysics","53","221544","0.0-7.0-3.0-0.39","6","5","6","5","5","4","3","5","4","4","5","1","-2","0","0","-1","1","1","1","5","4","5","2","4","4","5","4","5","4","6","8","5","7","4","7","6","6","7","5","5","4","3","6","2","4","3","6","6","1","3","3","5","2","3","5","5","5","4","6","1","5","2","3","3","6","3","6","3","7","3","3","3","5","2","3","3","3","3","4","773271155669995521","陈","176","Male","[""坏我"",""好他"",""好我"",""坏他""]","[""弱我"",""强他"",""强我"",""弱他""]","","","","","","","","yes","","","","","","","","","SRET","EW_formal","","key","f","16.65922330097082","768","428","自己","刚正","Positive","morality","","","","","","","","","","",""
"785","","j","psychophysics","54","223334","0.0-7.0-3.0-0.40","6","5","6","5","5","4","3","5","4","4","5","1","-2","0","0","-1","1","1","1","5","4","5","2","4","4","5","4","5","4","6","8","5","7","4","7","6","6","7","5","5","4","3","6","2","4","3","6","6","1","3","3","5","2","3","5","5","5","4","6","1","5","2","3","3","6","3","6","3","7","3","3","3","5","2","3","3","3","3","4","773271155669995521","陈","176","Male","[""坏我"",""好他"",""好我"",""坏他""]","[""弱我"",""强他"",""强我"",""弱他""]","","","","","","","","no","","","","","","","","","SRET","EW_formal","","key","j","16.66226415094323","768","428","朋友","迟钝","Negative","ability","","","","","","","","","","",""
"590","","f","psychophysics","55","224926","0.0-7.0-3.0-0.41","6","5","6","5","5","4","3","5","4","4","5","1","-2","0","0","-1","1","1","1","5","4","5","2","4","4","5","4","5","4","6","8","5","7","4","7","6","6","7","5","5","4","3","6","2","4","3","6","6","1","3","3","5","2","3","5","5","5","4","6","1","5","2","3","3","6","3","6","3","7","3","3","3","5","2","3","3","3","3","4","773271155669995521","陈","176","Male","[""坏我"",""好他"",""好我"",""坏他""]","[""弱我"",""强他"",""强我"",""弱他""]","","","","","","","","yes","","","","","","","","","SRET","EW_formal","","key","f","16.658947368420808","768","428","自己","有力","Positive","ability","","","","","","","","","","",""
"616","","j","psychophysics","56","226546","0.0-7.0-3.0-0.42","6","5","6","5","5","4","3","5","4","4","5","1","-2","0","0","-1","1","1","1","5","4","5","2","4","4","5","4","5","4","6","8","5","7","4","7","6","6","7","5","5","4","3","6","2","4","3","6","6","1","3","3","5","2","3","5","5","5","4","6","1","5","2","3","3","6","3","6","3","7","3","3","3","5","2","3","3","3","3","4","773271155669995521","陈","176","Male","[""坏我"",""好他"",""好我"",""坏他""]","[""弱我"",""强他"",""强我"",""弱他""]","","","","","","","","no","","","","","","","","","SRET","EW_formal","","key","j","16.663541666666788","768","428","自己","无能","Negative","ability","","","","","","","","","","",""
"564","","j","psychophysics","57","228111","0.0-7.0-3.0-0.43","6","5","6","5","5","4","3","5","4","4","5","1","-2","0","0","-1","1","1","1","5","4","5","2","4","4","5","4","5","4","6","8","5","7","4","7","6","6","7","5","5","4","3","6","2","4","3","6","6","1","3","3","5","2","3","5","5","5","4","6","1","5","2","3","3","6","3","6","3","7","3","3","3","5","2","3","3","3","3","4","773271155669995521","陈","176","Male","[""坏我"",""好他"",""好我"",""坏他""]","[""弱我"",""强他"",""强我"",""弱他""]","","","","","","","","no","","","","","","","","","SRET","EW_formal","","key","j","16.661290322580644","768","428","自己","阴毒","Negative","morality","","","","","","","","","","",""
"616","","f","psychophysics","58","229729","0.0-7.0-3.0-0.44","6","5","6","5","5","4","3","5","4","4","5","1","-2","0","0","-1","1","1","1","5","4","5","2","4","4","5","4","5","4","6","8","5","7","4","7","6","6","7","5","5","4","3","6","2","4","3","6","6","1","3","3","5","2","3","5","5","5","4","6","1","5","2","3","3","6","3","6","3","7","3","3","3","5","2","3","3","3","3","4","773271155669995521","陈","176","Male","[""坏我"",""好他"",""好我"",""坏他""]","[""弱我"",""强他"",""强我"",""弱他""]","","","","","","","","yes","","","","","","","","","SRET","EW_formal","","key","f","16.663541666666788","768","428","自己","高洁","Positive","morality","","","","","","","","","","",""
"687","","j","psychophysics","59","231420","0.0-7.0-3.0-0.45","6","5","6","5","5","4","3","5","4","4","5","1","-2","0","0","-1","1","1","1","5","4","5","2","4","4","5","4","5","4","6","8","5","7","4","7","6","6","7","5","5","4","3","6","2","4","3","6","6","1","3","3","5","2","3","5","5","5","4","6","1","5","2","3","3","6","3","6","3","7","3","3","3","5","2","3","3","3","3","4","773271155669995521","陈","176","Male","[""坏我"",""好他"",""好我"",""坏他""]","[""弱我"",""强他"",""强我"",""弱他""]","","","","","","","","no","","","","","","","","","SRET","EW_formal","","key","j","16.661386138614034","768","428","自己","不孝","Negative","morality","","","","","","","","","","",""
"496","","f","psychophysics","60","232918","0.0-7.0-3.0-0.46","6","5","6","5","5","4","3","5","4","4","5","1","-2","0","0","-1","1","1","1","5","4","5","2","4","4","5","4","5","4","6","8","5","7","4","7","6","6","7","5","5","4","3","6","2","4","3","6","6","1","3","3","5","2","3","5","5","5","4","6","1","5","2","3","3","6","3","6","3","7","3","3","3","5","2","3","3","3","3","4","773271155669995521","陈","176","Male","[""坏我"",""好他"",""好我"",""坏他""]","[""弱我"",""强他"",""强我"",""弱他""]","","","","","","","","yes","","","","","","","","","SRET","EW_formal","","key","f","16.66067415730324","768","428","朋友","诚信","Positive","morality","","","","","","","","","","",""
"687","","j","psychophysics","61","234607","0.0-7.0-3.0-0.47","6","5","6","5","5","4","3","5","4","4","5","1","-2","0","0","-1","1","1","1","5","4","5","2","4","4","5","4","5","4","6","8","5","7","4","7","6","6","7","5","5","4","3","6","2","4","3","6","6","1","3","3","5","2","3","5","5","5","4","6","1","5","2","3","3","6","3","6","3","7","3","3","3","5","2","3","3","3","3","4","773271155669995521","陈","176","Male","[""坏我"",""好他"",""好我"",""坏他""]","[""弱我"",""强他"",""强我"",""弱他""]","","","","","","","","no","","","","","","","","","SRET","EW_formal","","key","j","16.661999999999825","768","428","自己","不仁","Negative","morality","","","","","","","","","","",""
"615","","j","psychophysics","62","236225","0.0-7.0-3.0-0.48","6","5","6","5","5","4","3","5","4","4","5","1","-2","0","0","-1","1","1","1","5","4","5","2","4","4","5","4","5","4","6","8","5","7","4","7","6","6","7","5","5","4","3","6","2","4","3","6","6","1","3","3","5","2","3","5","5","5","4","6","1","5","2","3","3","6","3","6","3","7","3","3","3","5","2","3","3","3","3","4","773271155669995521","陈","176","Male","[""坏我"",""好他"",""好我"",""坏他""]","[""弱我"",""强他"",""强我"",""弱他""]","","","","","","","","no","","","","","","","","","SRET","EW_formal","","key","j","16.664583333333514","768","428","朋友","不端","Negative","morality","","","","","","","","","","",""
"559","","f","psychophysics","63","237787","0.0-7.0-3.0-0.49","6","5","6","5","5","4","3","5","4","4","5","1","-2","0","0","-1","1","1","1","5","4","5","2","4","4","5","4","5","4","6","8","5","7","4","7","6","6","7","5","5","4","3","6","2","4","3","6","6","1","3","3","5","2","3","5","5","5","4","6","1","5","2","3","3","6","3","6","3","7","3","3","3","5","2","3","3","3","3","4","773271155669995521","陈","176","Male","[""坏我"",""好他"",""好我"",""坏他""]","[""弱我"",""强他"",""强我"",""弱他""]","","","","","","","","yes","","","","","","","","","SRET","EW_formal","","key","f","16.659139784946426","768","428","自己","独立","Positive","ability","","","","","","","","","","",""
"834","","f","psychophysics","64","239623","0.0-7.0-3.0-0.50","6","5","6","5","5","4","3","5","4","4","5","1","-2","0","0","-1","1","1","1","5","4","5","2","4","4","5","4","5","4","6","8","5","7","4","7","6","6","7","5","5","4","3","6","2","4","3","6","6","1","3","3","5","2","3","5","5","5","4","6","1","5","2","3","3","6","3","6","3","7","3","3","3","5","2","3","3","3","3","4","773271155669995521","陈","176","Male","[""坏我"",""好他"",""好我"",""坏他""]","[""弱我"",""强他"",""强我"",""弱他""]","","","","","","","","yes","","","","","","","","","SRET","EW_formal","","key","f","16.66330275229374","768","428","自己","粗心","Negative","ability","","","","","","","","","","",""
"633","","j","psychophysics","65","241257","0.0-7.0-3.0-0.51","6","5","6","5","5","4","3","5","4","4","5","1","-2","0","0","-1","1","1","1","5","4","5","2","4","4","5","4","5","4","6","8","5","7","4","7","6","6","7","5","5","4","3","6","2","4","3","6","6","1","3","3","5","2","3","5","5","5","4","6","1","5","2","3","3","6","3","6","3","7","3","3","3","5","2","3","3","3","3","4","773271155669995521","陈","176","Male","[""坏我"",""好他"",""好我"",""坏他""]","[""弱我"",""强他"",""强我"",""弱他""]","","","","","","","","no","","","","","","","","","SRET","EW_formal","","key","j","16.66185567010321","768","428","自己","邪恶","Negative","morality","","","","","","","","","","",""
"780","","f","psychophysics","66","243040","0.0-7.0-3.0-0.52","6","5","6","5","5","4","3","5","4","4","5","1","-2","0","0","-1","1","1","1","5","4","5","2","4","4","5","4","5","4","6","8","5","7","4","7","6","6","7","5","5","4","3","6","2","4","3","6","6","1","3","3","5","2","3","5","5","5","4","6","1","5","2","3","3","6","3","6","3","7","3","3","3","5","2","3","3","3","3","4","773271155669995521","陈","176","Male","[""坏我"",""好他"",""好我"",""坏他""]","[""弱我"",""强他"",""强我"",""弱他""]","","","","","","","","yes","","","","","","","","","SRET","EW_formal","","key","f","16.660377358490567","768","428","朋友","细心","Positive","ability","","","","","","","","","","",""
"561","","f","psychophysics","67","244604","0.0-7.0-3.0-0.53","6","5","6","5","5","4","3","5","4","4","5","1","-2","0","0","-1","1","1","1","5","4","5","2","4","4","5","4","5","4","6","8","5","7","4","7","6","6","7","5","5","4","3","6","2","4","3","6","6","1","3","3","5","2","3","5","5","5","4","6","1","5","2","3","3","6","3","6","3","7","3","3","3","5","2","3","3","3","3","4","773271155669995521","陈","176","Male","[""坏我"",""好他"",""好我"",""坏他""]","[""弱我"",""强他"",""强我"",""弱他""]","","","","","","","","yes","","","","","","","","","SRET","EW_formal","","key","f","16.623655913978496","768","428","自己","谦逊","Positive","morality","","","","","","","","","","",""
"591","","j","psychophysics","68","246203","0.0-7.0-3.0-0.54","6","5","6","5","5","4","3","5","4","4","5","1","-2","0","0","-1","1","1","1","5","4","5","2","4","4","5","4","5","4","6","8","5","7","4","7","6","6","7","5","5","4","3","6","2","4","3","6","6","1","3","3","5","2","3","5","5","5","4","6","1","5","2","3","3","6","3","6","3","7","3","3","3","5","2","3","3","3","3","4","773271155669995521","陈","176","Male","[""坏我"",""好他"",""好我"",""坏他""]","[""弱我"",""强他"",""强我"",""弱他""]","","","","","","","","no","","","","","","","","","SRET","EW_formal","","key","j","16.664210526315852","768","428","朋友","无耻","Negative","morality","","","","","","","","","","",""
"966","","f","psychophysics","69","248171","0.0-7.0-3.0-0.55","6","5","6","5","5","4","3","5","4","4","5","1","-2","0","0","-1","1","1","1","5","4","5","2","4","4","5","4","5","4","6","8","5","7","4","7","6","6","7","5","5","4","3","6","2","4","3","6","6","1","3","3","5","2","3","5","5","5","4","6","1","5","2","3","3","6","3","6","3","7","3","3","3","5","2","3","3","3","3","4","773271155669995521","陈","176","Male","[""坏我"",""好他"",""好我"",""坏他""]","[""弱我"",""强他"",""强我"",""弱他""]","","","","","","","","yes","","","","","","","","","SRET","EW_formal","","key","f","16.661538461538413","768","428","朋友","利己","Negative","morality","","","","","","","","","","",""
"743","","j","psychophysics","70","249918","0.0-7.0-3.0-0.56","6","5","6","5","5","4","3","5","4","4","5","1","-2","0","0","-1","1","1","1","5","4","5","2","4","4","5","4","5","4","6","8","5","7","4","7","6","6","7","5","5","4","3","6","2","4","3","6","6","1","3","3","5","2","3","5","5","5","4","6","1","5","2","3","3","6","3","6","3","7","3","3","3","5","2","3","3","3","3","4","773271155669995521","陈","176","Male","[""坏我"",""好他"",""好我"",""坏他""]","[""弱我"",""强他"",""强我"",""弱他""]","","","","","","","","no","","","","","","","","","SRET","EW_formal","","key","j","16.66153846153835","768","428","朋友","狡狯","Negative","morality","","","","","","","","","","",""
"637","","f","psychophysics","71","251558","0.0-7.0-3.0-0.57","6","5","6","5","5","4","3","5","4","4","5","1","-2","0","0","-1","1","1","1","5","4","5","2","4","4","5","4","5","4","6","8","5","7","4","7","6","6","7","5","5","4","3","6","2","4","3","6","6","1","3","3","5","2","3","5","5","5","4","6","1","5","2","3","3","6","3","6","3","7","3","3","3","5","2","3","3","3","3","4","773271155669995521","陈","176","Male","[""坏我"",""好他"",""好我"",""坏他""]","[""弱我"",""强他"",""强我"",""弱他""]","","","","","","","","yes","","","","","","","","","SRET","EW_formal","","key","f","16.65979381443299","768","428","自己","精干","Positive","ability","","","","","","","","","","",""
"506","","f","psychophysics","72","253068","0.0-7.0-3.0-0.58","6","5","6","5","5","4","3","5","4","4","5","1","-2","0","0","-1","1","1","1","5","4","5","2","4","4","5","4","5","4","6","8","5","7","4","7","6","6","7","5","5","4","3","6","2","4","3","6","6","1","3","3","5","2","3","5","5","5","4","6","1","5","2","3","3","6","3","6","3","7","3","3","3","5","2","3","3","3","3","4","773271155669995521","陈","176","Male","[""坏我"",""好他"",""好我"",""坏他""]","[""弱我"",""强他"",""强我"",""弱他""]","","","","","","","","yes","","","","","","","","","SRET","EW_formal","","key","f","16.66111111111111","768","428","自己","善心","Positive","morality","","","","","","","","","","",""
"784","","j","psychophysics","73","254854","0.0-7.0-3.0-0.59","6","5","6","5","5","4","3","5","4","4","5","1","-2","0","0","-1","1","1","1","5","4","5","2","4","4","5","4","5","4","6","8","5","7","4","7","6","6","7","5","5","4","3","6","2","4","3","6","6","1","3","3","5","2","3","5","5","5","4","6","1","5","2","3","3","6","3","6","3","7","3","3","3","5","2","3","3","3","3","4","773271155669995521","陈","176","Male","[""坏我"",""好他"",""好我"",""坏他""]","[""弱我"",""强他"",""强我"",""弱他""]","","","","","","","","no","","","","","","","","","SRET","EW_formal","","key","j","16.661320754717035","768","428","自己","短视","Negative","ability","","","","","","","","","","",""
"650","","f","psychophysics","74","256507","0.0-7.0-3.0-0.60","6","5","6","5","5","4","3","5","4","4","5","1","-2","0","0","-1","1","1","1","5","4","5","2","4","4","5","4","5","4","6","8","5","7","4","7","6","6","7","5","5","4","3","6","2","4","3","6","6","1","3","3","5","2","3","5","5","5","4","6","1","5","2","3","3","6","3","6","3","7","3","3","3","5","2","3","3","3","3","4","773271155669995521","陈","176","Male","[""坏我"",""好他"",""好我"",""坏他""]","[""弱我"",""强他"",""强我"",""弱他""]","","","","","","","","yes","","","","","","","","","SRET","EW_formal","","key","f","16.663265306122447","768","428","朋友","厚道","Positive","morality","","","","","","","","","","",""
"484","","f","psychophysics","75","257995","0.0-7.0-3.0-0.61","6","5","6","5","5","4","3","5","4","4","5","1","-2","0","0","-1","1","1","1","5","4","5","2","4","4","5","4","5","4","6","8","5","7","4","7","6","6","7","5","5","4","3","6","2","4","3","6","6","1","3","3","5","2","3","5","5","5","4","6","1","5","2","3","3","6","3","6","3","7","3","3","3","5","2","3","3","3","3","4","773271155669995521","陈","176","Male","[""坏我"",""好他"",""好我"",""坏他""]","[""弱我"",""强他"",""强我"",""弱他""]","","","","","","","","yes","","","","","","","","","SRET","EW_formal","","key","f","16.659550561797882","768","428","自己","热心","Positive","morality","","","","","","","","","","",""
"762","","f","psychophysics","76","259760","0.0-7.0-3.0-0.62","6","5","6","5","5","4","3","5","4","4","5","1","-2","0","0","-1","1","1","1","5","4","5","2","4","4","5","4","5","4","6","8","5","7","4","7","6","6","7","5","5","4","3","6","2","4","3","6","6","1","3","3","5","2","3","5","5","5","4","6","1","5","2","3","3","6","3","6","3","7","3","3","3","5","2","3","3","3","3","4","773271155669995521","陈","176","Male","[""坏我"",""好他"",""好我"",""坏他""]","[""弱我"",""强他"",""强我"",""弱他""]","","","","","","","","yes","","","","","","","","","SRET","EW_formal","","key","f","16.65999999999989","768","428","朋友","变通","Positive","ability","","","","","","","","","","",""
"551","","f","psychophysics","77","261316","0.0-7.0-3.0-0.63","6","5","6","5","5","4","3","5","4","4","5","1","-2","0","0","-1","1","1","1","5","4","5","2","4","4","5","4","5","4","6","8","5","7","4","7","6","6","7","5","5","4","3","6","2","4","3","6","6","1","3","3","5","2","3","5","5","5","4","6","1","5","2","3","3","6","3","6","3","7","3","3","3","5","2","3","3","3","3","4","773271155669995521","陈","176","Male","[""坏我"",""好他"",""好我"",""坏他""]","[""弱我"",""强他"",""强我"",""弱他""]","","","","","","","","yes","","","","","","","","","SRET","EW_formal","","key","f","16.526086956521993","768","428","朋友","奉献","Positive","morality","","","","","","","","","","",""
"709","","j","psychophysics","78","263028","0.0-7.0-3.0-0.64","6","5","6","5","5","4","3","5","4","4","5","1","-2","0","0","-1","1","1","1","5","4","5","2","4","4","5","4","5","4","6","8","5","7","4","7","6","6","7","5","5","4","3","6","2","4","3","6","6","1","3","3","5","2","3","5","5","5","4","6","1","5","2","3","3","6","3","6","3","7","3","3","3","5","2","3","3","3","3","4","773271155669995521","陈","176","Male","[""坏我"",""好他"",""好我"",""坏他""]","[""弱我"",""强他"",""强我"",""弱他""]","","","","","","","","no","","","","","","","","","SRET","EW_formal","","key","j","16.630693069307046","768","428","自己","虚假","Negative","morality","","","","","","","","","","",""
"509","","f","psychophysics","79","264541","0.0-7.0-3.0-0.65","6","5","6","5","5","4","3","5","4","4","5","1","-2","0","0","-1","1","1","1","5","4","5","2","4","4","5","4","5","4","6","8","5","7","4","7","6","6","7","5","5","4","3","6","2","4","3","6","6","1","3","3","5","2","3","5","5","5","4","6","1","5","2","3","3","6","3","6","3","7","3","3","3","5","2","3","3","3","3","4","773271155669995521","陈","176","Male","[""坏我"",""好他"",""好我"",""坏他""]","[""弱我"",""强他"",""强我"",""弱他""]","","","","","","","","yes","","","","","","","","","SRET","EW_formal","","key","f","16.659999999999613","768","428","朋友","懂行","Positive","ability","","","","","","","","","","",""
"751","","f","psychophysics","80","266296","0.0-7.0-3.0-0.66","6","5","6","5","5","4","3","5","4","4","5","1","-2","0","0","-1","1","1","1","5","4","5","2","4","4","5","4","5","4","6","8","5","7","4","7","6","6","7","5","5","4","3","6","2","4","3","6","6","1","3","3","5","2","3","5","5","5","4","6","1","5","2","3","3","6","3","6","3","7","3","3","3","5","2","3","3","3","3","4","773271155669995521","陈","176","Male","[""坏我"",""好他"",""好我"",""坏他""]","[""弱我"",""强他"",""强我"",""弱他""]","","","","","","","","yes","","","","","","","","","SRET","EW_formal","","key","f","16.662500000000225","768","428","朋友","中用","Positive","ability","","","","","","","","","","",""
"633","","f","psychophysics","81","267932","0.0-7.0-3.0-0.67","6","5","6","5","5","4","3","5","4","4","5","1","-2","0","0","-1","1","1","1","5","4","5","2","4","4","5","4","5","4","6","8","5","7","4","7","6","6","7","5","5","4","3","6","2","4","3","6","6","1","3","3","5","2","3","5","5","5","4","6","1","5","2","3","3","6","3","6","3","7","3","3","3","5","2","3","3","3","3","4","773271155669995521","陈","176","Male","[""坏我"",""好他"",""好我"",""坏他""]","[""弱我"",""强他"",""强我"",""弱他""]","","","","","","","","yes","","","","","","","","","SRET","EW_formal","","key","f","16.662886597938623","768","428","朋友","忠义","Positive","morality","","","","","","","","","","",""
"710","","f","psychophysics","82","269644","0.0-7.0-3.0-0.68","6","5","6","5","5","4","3","5","4","4","5","1","-2","0","0","-1","1","1","1","5","4","5","2","4","4","5","4","5","4","6","8","5","7","4","7","6","6","7","5","5","4","3","6","2","4","3","6","6","1","3","3","5","2","3","5","5","5","4","6","1","5","2","3","3","6","3","6","3","7","3","3","3","5","2","3","3","3","3","4","773271155669995521","陈","176","Male","[""坏我"",""好他"",""好我"",""坏他""]","[""弱我"",""强他"",""强我"",""弱他""]","","","","","","","","yes","","","","","","","","","SRET","EW_formal","","key","f","16.660784313725717","768","428","自己","爱国","Positive","morality","","","","","","","","","","",""
"493","","f","psychophysics","83","271139","0.0-7.0-3.0-0.69","6","5","6","5","5","4","3","5","4","4","5","1","-2","0","0","-1","1","1","1","5","4","5","2","4","4","5","4","5","4","6","8","5","7","4","7","6","6","7","5","5","4","3","6","2","4","3","6","6","1","3","3","5","2","3","5","5","5","4","6","1","5","2","3","3","6","3","6","3","7","3","3","3","5","2","3","3","3","3","4","773271155669995521","陈","176","Male","[""坏我"",""好他"",""好我"",""坏他""]","[""弱我"",""强他"",""强我"",""弱他""]","","","","","","","","yes","","","","","","","","","SRET","EW_formal","","key","f","16.662921348314608","768","428","自己","廉明","Positive","morality","","","","","","","","","","",""
"465","","f","psychophysics","84","272607","0.0-7.0-3.0-0.70","6","5","6","5","5","4","3","5","4","4","5","1","-2","0","0","-1","1","1","1","5","4","5","2","4","4","5","4","5","4","6","8","5","7","4","7","6","6","7","5","5","4","3","6","2","4","3","6","6","1","3","3","5","2","3","5","5","5","4","6","1","5","2","3","3","6","3","6","3","7","3","3","3","5","2","3","3","3","3","4","773271155669995521","陈","176","Male","[""坏我"",""好他"",""好我"",""坏他""]","[""弱我"",""强他"",""强我"",""弱他""]","","","","","","","","yes","","","","","","","","","SRET","EW_formal","","key","f","16.660919540229884","768","428","朋友","智慧","Positive","ability","","","","","","","","","","",""
"685","","j","psychophysics","85","274296","0.0-7.0-3.0-0.71","6","5","6","5","5","4","3","5","4","4","5","1","-2","0","0","-1","1","1","1","5","4","5","2","4","4","5","4","5","4","6","8","5","7","4","7","6","6","7","5","5","4","3","6","2","4","3","6","6","1","3","3","5","2","3","5","5","5","4","6","1","5","2","3","3","6","3","6","3","7","3","3","3","5","2","3","3","3","3","4","773271155669995521","陈","176","Male","[""坏我"",""好他"",""好我"",""坏他""]","[""弱我"",""强他"",""强我"",""弱他""]","","","","","","","","no","","","","","","","","","SRET","EW_formal","","key","j","16.660999999999767","768","428","自己","淫乱","Negative","morality","","","","","","","","","","",""
"680","","f","psychophysics","86","275980","0.0-7.0-3.0-0.72","6","5","6","5","5","4","3","5","4","4","5","1","-2","0","0","-1","1","1","1","5","4","5","2","4","4","5","4","5","4","6","8","5","7","4","7","6","6","7","5","5","4","3","6","2","4","3","6","6","1","3","3","5","2","3","5","5","5","4","6","1","5","2","3","3","6","3","6","3","7","3","3","3","5","2","3","3","3","3","4","773271155669995521","陈","176","Male","[""坏我"",""好他"",""好我"",""坏他""]","[""弱我"",""强他"",""强我"",""弱他""]","","","","","","","","yes","","","","","","","","","SRET","EW_formal","","key","f","16.662000000000116","768","428","朋友","逞强","Negative","ability","","","","","","","","","","",""
"560","","j","psychophysics","87","277543","0.0-7.0-3.0-0.73","6","5","6","5","5","4","3","5","4","4","5","1","-2","0","0","-1","1","1","1","5","4","5","2","4","4","5","4","5","4","6","8","5","7","4","7","6","6","7","5","5","4","3","6","2","4","3","6","6","1","3","3","5","2","3","5","5","5","4","6","1","5","2","3","3","6","3","6","3","7","3","3","3","5","2","3","3","3","3","4","773271155669995521","陈","176","Male","[""坏我"",""好他"",""好我"",""坏他""]","[""弱我"",""强他"",""强我"",""弱他""]","","","","","","","","no","","","","","","","","","SRET","EW_formal","","key","j","16.66344086021518","768","428","朋友","贪污","Negative","morality","","","","","","","","","","",""
"554","","j","psychophysics","88","279100","0.0-7.0-3.0-0.74","6","5","6","5","5","4","3","5","4","4","5","1","-2","0","0","-1","1","1","1","5","4","5","2","4","4","5","4","5","4","6","8","5","7","4","7","6","6","7","5","5","4","3","6","2","4","3","6","6","1","3","3","5","2","3","5","5","5","4","6","1","5","2","3","3","6","3","6","3","7","3","3","3","5","2","3","3","3","3","4","773271155669995521","陈","176","Male","[""坏我"",""好他"",""好我"",""坏他""]","[""弱我"",""强他"",""强我"",""弱他""]","","","","","","","","no","","","","","","","","","SRET","EW_formal","","key","j","16.660215053763064","768","428","自己","贪腐","Negative","morality","","","","","","","","","","",""
"880","","f","psychophysics","89","280983","0.0-7.0-3.0-0.75","6","5","6","5","5","4","3","5","4","4","5","1","-2","0","0","-1","1","1","1","5","4","5","2","4","4","5","4","5","4","6","8","5","7","4","7","6","6","7","5","5","4","3","6","2","4","3","6","6","1","3","3","5","2","3","5","5","5","4","6","1","5","2","3","3","6","3","6","3","7","3","3","3","5","2","3","3","3","3","4","773271155669995521","陈","176","Male","[""坏我"",""好他"",""好我"",""坏他""]","[""弱我"",""强他"",""强我"",""弱他""]","","","","","","","","yes","","","","","","","","","SRET","EW_formal","","key","f","16.575892857142858","768","428","自己","无私","Positive","morality","","","","","","","","","","",""
"635","","j","psychophysics","90","282622","0.0-7.0-3.0-0.76","6","5","6","5","5","4","3","5","4","4","5","1","-2","0","0","-1","1","1","1","5","4","5","2","4","4","5","4","5","4","6","8","5","7","4","7","6","6","7","5","5","4","3","6","2","4","3","6","6","1","3","3","5","2","3","5","5","5","4","6","1","5","2","3","3","6","3","6","3","7","3","3","3","5","2","3","3","3","3","4","773271155669995521","陈","176","Male","[""坏我"",""好他"",""好我"",""坏他""]","[""弱我"",""强他"",""强我"",""弱他""]","","","","","","","","no","","","","","","","","","SRET","EW_formal","","key","j","16.662886597938023","768","428","朋友","缺德","Negative","morality","","","","","","","","","","",""
"543","","f","psychophysics","91","284169","0.0-7.0-3.0-0.77","6","5","6","5","5","4","3","5","4","4","5","1","-2","0","0","-1","1","1","1","5","4","5","2","4","4","5","4","5","4","6","8","5","7","4","7","6","6","7","5","5","4","3","6","2","4","3","6","6","1","3","3","5","2","3","5","5","5","4","6","1","5","2","3","3","6","3","6","3","7","3","3","3","5","2","3","3","3","3","4","773271155669995521","陈","176","Male","[""坏我"",""好他"",""好我"",""坏他""]","[""弱我"",""强他"",""强我"",""弱他""]","","","","","","","","yes","","","","","","","","","SRET","EW_formal","","key","f","16.661956521739384","768","428","自己","仁爱","Positive","morality","","","","","","","","","","",""
"533","","f","psychophysics","92","285704","0.0-7.0-3.0-0.78","6","5","6","5","5","4","3","5","4","4","5","1","-2","0","0","-1","1","1","1","5","4","5","2","4","4","5","4","5","4","6","8","5","7","4","7","6","6","7","5","5","4","3","6","2","4","3","6","6","1","3","3","5","2","3","5","5","5","4","6","1","5","2","3","3","6","3","6","3","7","3","3","3","5","2","3","3","3","3","4","773271155669995521","陈","176","Male","[""坏我"",""好他"",""好我"",""坏他""]","[""弱我"",""强他"",""强我"",""弱他""]","","","","","","","","yes","","","","","","","","","SRET","EW_formal","","key","f","16.66373626373588","768","428","自己","依靠","Negative","ability","","","","","","","","","","",""
"897","","j","psychophysics","93","287603","0.0-7.0-3.0-0.79","6","5","6","5","5","4","3","5","4","4","5","1","-2","0","0","-1","1","1","1","5","4","5","2","4","4","5","4","5","4","6","8","5","7","4","7","6","6","7","5","5","4","3","6","2","4","3","6","6","1","3","3","5","2","3","5","5","5","4","6","1","5","2","3","3","6","3","6","3","7","3","3","3","5","2","3","3","3","3","4","773271155669995521","陈","176","Male","[""坏我"",""好他"",""好我"",""坏他""]","[""弱我"",""强他"",""强我"",""弱他""]","","","","","","","","no","","","","","","","","","SRET","EW_formal","","key","j","16.650442477876105","768","428","自己","畏难","Negative","ability","","","","","","","","","","",""
"599","","f","psychophysics","94","289204","0.0-7.0-3.0-0.80","6","5","6","5","5","4","3","5","4","4","5","1","-2","0","0","-1","1","1","1","5","4","5","2","4","4","5","4","5","4","6","8","5","7","4","7","6","6","7","5","5","4","3","6","2","4","3","6","6","1","3","3","5","2","3","5","5","5","4","6","1","5","2","3","3","6","3","6","3","7","3","3","3","5","2","3","3","3","3","4","773271155669995521","陈","176","Male","[""坏我"",""好他"",""好我"",""坏他""]","[""弱我"",""强他"",""强我"",""弱他""]","","","","","","","","yes","","","","","","","","","SRET","EW_formal","","key","f","16.66210526315814","768","428","朋友","敏捷","Positive","ability","","","","","","","","","","",""
"595","","f","psychophysics","95","290802","0.0-7.0-3.0-0.81","6","5","6","5","5","4","3","5","4","4","5","1","-2","0","0","-1","1","1","1","5","4","5","2","4","4","5","4","5","4","6","8","5","7","4","7","6","6","7","5","5","4","3","6","2","4","3","6","6","1","3","3","5","2","3","5","5","5","4","6","1","5","2","3","3","6","3","6","3","7","3","3","3","5","2","3","3","3","3","4","773271155669995521","陈","176","Male","[""坏我"",""好他"",""好我"",""坏他""]","[""弱我"",""强他"",""强我"",""弱他""]","","","","","","","","yes","","","","","","","","","SRET","EW_formal","","key","f","16.65894736842142","768","428","自己","刻苦","Positive","ability","","","","","","","","","","",""
"630","","j","psychophysics","96","292434","0.0-7.0-3.0-0.82","6","5","6","5","5","4","3","5","4","4","5","1","-2","0","0","-1","1","1","1","5","4","5","2","4","4","5","4","5","4","6","8","5","7","4","7","6","6","7","5","5","4","3","6","2","4","3","6","6","1","3","3","5","2","3","5","5","5","4","6","1","5","2","3","3","6","3","6","3","7","3","3","3","5","2","3","3","3","3","4","773271155669995521","陈","176","Male","[""坏我"",""好他"",""好我"",""坏他""]","[""弱我"",""强他"",""强我"",""弱他""]","","","","","","","","no","","","","","","","","","SRET","EW_formal","","key","j","16.65979381443299","768","428","自己","笨蛋","Negative","ability","","","","","","","","","","",""
"658","","j","psychophysics","97","294094","0.0-7.0-3.0-0.83","6","5","6","5","5","4","3","5","4","4","5","1","-2","0","0","-1","1","1","1","5","4","5","2","4","4","5","4","5","4","6","8","5","7","4","7","6","6","7","5","5","4","3","6","2","4","3","6","6","1","3","3","5","2","3","5","5","5","4","6","1","5","2","3","3","6","3","6","3","7","3","3","3","5","2","3","3","3","3","4","773271155669995521","陈","176","Male","[""坏我"",""好他"",""好我"",""坏他""]","[""弱我"",""强他"",""强我"",""弱他""]","","","","","","","","no","","","","","","","","","SRET","EW_formal","","key","j","16.660606060606295","768","428","朋友","混账","Negative","morality","","","","","","","","","","",""
"708","","j","psychophysics","98","295805","0.0-7.0-3.0-0.84","6","5","6","5","5","4","3","5","4","4","5","1","-2","0","0","-1","1","1","1","5","4","5","2","4","4","5","4","5","4","6","8","5","7","4","7","6","6","7","5","5","4","3","6","2","4","3","6","6","1","3","3","5","2","3","5","5","5","4","6","1","5","2","3","3","6","3","6","3","7","3","3","3","5","2","3","3","3","3","4","773271155669995521","陈","176","Male","[""坏我"",""好他"",""好我"",""坏他""]","[""弱我"",""强他"",""强我"",""弱他""]","","","","","","","","no","","","","","","","","","SRET","EW_formal","","key","j","16.661386138613747","768","428","朋友","低俗","Negative","morality","","","","","","","","","","",""
"686","","f","psychophysics","99","297494","0.0-7.0-3.0-0.85","6","5","6","5","5","4","3","5","4","4","5","1","-2","0","0","-1","1","1","1","5","4","5","2","4","4","5","4","5","4","6","8","5","7","4","7","6","6","7","5","5","4","3","6","2","4","3","6","6","1","3","3","5","2","3","5","5","5","4","6","1","5","2","3","3","6","3","6","3","7","3","3","3","5","2","3","3","3","3","4","773271155669995521","陈","176","Male","[""坏我"",""好他"",""好我"",""坏他""]","[""弱我"",""强他"",""强我"",""弱他""]","","","","","","","","yes","","","","","","","","","SRET","EW_formal","","key","f","16.659405940594404","768","428","自己","主见","Positive","ability","","","","","","","","","","",""
"605","","f","psychophysics","100","299102","0.0-7.0-3.0-0.86","6","5","6","5","5","4","3","5","4","4","5","1","-2","0","0","-1","1","1","1","5","4","5","2","4","4","5","4","5","4","6","8","5","7","4","7","6","6","7","5","5","4","3","6","2","4","3","6","6","1","3","3","5","2","3","5","5","5","4","6","1","5","2","3","3","6","3","6","3","7","3","3","3","5","2","3","3","3","3","4","773271155669995521","陈","176","Male","[""坏我"",""好他"",""好我"",""坏他""]","[""弱我"",""强他"",""强我"",""弱他""]","","","","","","","","yes","","","","","","","","","SRET","EW_formal","","key","f","16.66526315789486","768","428","朋友","素养","Positive","morality","","","","","","","","","","",""
"876","","j","psychophysics","101","300982","0.0-7.0-3.0-0.87","6","5","6","5","5","4","3","5","4","4","5","1","-2","0","0","-1","1","1","1","5","4","5","2","4","4","5","4","5","4","6","8","5","7","4","7","6","6","7","5","5","4","3","6","2","4","3","6","6","1","3","3","5","2","3","5","5","5","4","6","1","5","2","3","3","6","3","6","3","7","3","3","3","5","2","3","3","3","3","4","773271155669995521","陈","176","Male","[""坏我"",""好他"",""好我"",""坏他""]","[""弱我"",""强他"",""强我"",""弱他""]","","","","","","","","no","","","","","","","","","SRET","EW_formal","","key","j","16.662500000000104","768","428","自己","缓慢","Negative","ability","","","","","","","","","","",""
"10978","
    <p><div style='color:white;font-size:35px; line-height:20px;'>计算任务</div></p><br>
    <p><div style='color:red;font-size:25px; line-height:20px;'>接下来，您将看到一些四则运算题，<b>请从键盘选择 0-9 进行反应。</b></div></p>
    <p><div style='color:red;font-size:25px; line-height:20px;'>请尽可能快地进行计算，计算的速度和正确率将影响报酬的发放。</div></p>
    <p><div class='footer' style='color:white;font-size:25px; line-height:20px;'>如果对本实验还有不清楚之处，请立即向实验员咨询。</p><p style='color:white;font-size:25px; line-height:20px;'>如果您明白了规则：</p><p style='color:white;font-size:22px; line-height:20px;'>请按 继续 进入练习</p>
    </div>
    ","0","html-button-response","102","311963","0.0-7.0-4.0","6","5","6","5","5","4","3","5","4","4","5","1","-2","0","0","-1","1","1","1","5","4","5","2","4","4","5","4","5","4","6","8","5","7","4","7","6","6","7","5","5","4","3","6","2","4","3","6","6","1","3","3","5","2","3","5","5","5","4","6","1","5","2","3","3","6","3","6","3","7","3","3","3","5","2","3","3","3","3","4","773271155669995521","陈","176","Male","[""坏我"",""好他"",""好我"",""坏他""]","[""弱我"",""强他"",""强我"",""弱他""]","","","","","","","","","","","","","","","","","SRET_math","math_instructions","Tue Dec 26 2023 19:10:58 GMT+0800 (中国标准时间)","","","","","","","","","","","","","","","","","","","",""
"2420","","9","psychophysics","103","314389","0.0-7.0-5.0-0.0","6","5","6","5","5","4","3","5","4","4","5","1","-2","0","0","-1","1","1","1","5","4","5","2","4","4","5","4","5","4","6","8","5","7","4","7","6","6","7","5","5","4","3","6","2","4","3","6","6","1","3","3","5","2","3","5","5","5","4","6","1","5","2","3","3","6","3","6","3","7","3","3","3","5","2","3","3","3","3","4","773271155669995521","陈","176","Male","[""坏我"",""好他"",""好我"",""坏他""]","[""弱我"",""强他"",""强我"",""弱他""]","","","","","","","","9","","","","","","","","","SRET","SRET_math_calculate","","key","9","16.657241379310264","768","428","","","","","7+2= ?","9","1","","","","","","","",""
"3837","","5","psychophysics","104","318228","0.0-7.0-5.0-0.1","6","5","6","5","5","4","3","5","4","4","5","1","-2","0","0","-1","1","1","1","5","4","5","2","4","4","5","4","5","4","6","8","5","7","4","7","6","6","7","5","5","4","3","6","2","4","3","6","6","1","3","3","5","2","3","5","5","5","4","6","1","5","2","3","3","6","3","6","3","7","3","3","3","5","2","3","3","3","3","4","773271155669995521","陈","176","Male","[""坏我"",""好他"",""好我"",""坏他""]","[""弱我"",""强他"",""强我"",""弱他""]","","","","","","","","5","","","","","","","","","SRET","SRET_math_calculate","","key","5","16.66069868995628","768","428","","","","","11-8= ?","3","0","","","","","","","",""
"2333","","6","psychophysics","105","320568","0.0-7.0-5.0-0.2","6","5","6","5","5","4","3","5","4","4","5","1","-2","0","0","-1","1","1","1","5","4","5","2","4","4","5","4","5","4","6","8","5","7","4","7","6","6","7","5","5","4","3","6","2","4","3","6","6","1","3","3","5","2","3","5","5","5","4","6","1","5","2","3","3","6","3","6","3","7","3","3","3","5","2","3","3","3","3","4","773271155669995521","陈","176","Male","[""坏我"",""好他"",""好我"",""坏他""]","[""弱我"",""强他"",""强我"",""弱他""]","","","","","","","","6","","","","","","","","","SRET","SRET_math_calculate","","key","6","16.65928571428563","768","428","","","","","9-3= ?","6","1","","","","","","","",""
"2103","","8","psychophysics","106","322673","0.0-7.0-5.0-0.3","6","5","6","5","5","4","3","5","4","4","5","1","-2","0","0","-1","1","1","1","5","4","5","2","4","4","5","4","5","4","6","8","5","7","4","7","6","6","7","5","5","4","3","6","2","4","3","6","6","1","3","3","5","2","3","5","5","5","4","6","1","5","2","3","3","6","3","6","3","7","3","3","3","5","2","3","3","3","3","4","773271155669995521","陈","176","Male","[""坏我"",""好他"",""好我"",""坏他""]","[""弱我"",""强他"",""强我"",""弱他""]","","","","","","","","8","","","","","","","","","SRET","SRET_math_calculate","","key","8","16.66","768","428","","","","","9-1= ?","8","1","","","","","","","",""
"1878","","8","psychophysics","107","324556","0.0-7.0-5.0-0.4","6","5","6","5","5","4","3","5","4","4","5","1","-2","0","0","-1","1","1","1","5","4","5","2","4","4","5","4","5","4","6","8","5","7","4","7","6","6","7","5","5","4","3","6","2","4","3","6","6","1","3","3","5","2","3","5","5","5","4","6","1","5","2","3","3","6","3","6","3","7","3","3","3","5","2","3","3","3","3","4","773271155669995521","陈","176","Male","[""坏我"",""好他"",""好我"",""坏他""]","[""弱我"",""强他"",""强我"",""弱他""]","","","","","","","","8","","","","","","","","","SRET","SRET_math_calculate","","key","8","16.66486486486476","768","428","","","","","5+3= ?","8","1","","","","","","","",""
"2483","","3","psychophysics","108","327040","0.0-7.0-5.0-0.5","6","5","6","5","5","4","3","5","4","4","5","1","-2","0","0","-1","1","1","1","5","4","5","2","4","4","5","4","5","4","6","8","5","7","4","7","6","6","7","5","5","4","3","6","2","4","3","6","6","1","3","3","5","2","3","5","5","5","4","6","1","5","2","3","3","6","3","6","3","7","3","3","3","5","2","3","3","3","3","4","773271155669995521","陈","176","Male","[""坏我"",""好他"",""好我"",""坏他""]","[""弱我"",""强他"",""强我"",""弱他""]","","","","","","","","3","","","","","","","","","SRET","SRET_math_calculate","","key","3","16.6337837837841","768","428","","","","","3*1= ?","3","1","","","","","","","",""
"2482","","4","psychophysics","109","329532","0.0-7.0-5.0-0.6","6","5","6","5","5","4","3","5","4","4","5","1","-2","0","0","-1","1","1","1","5","4","5","2","4","4","5","4","5","4","6","8","5","7","4","7","6","6","7","5","5","4","3","6","2","4","3","6","6","1","3","3","5","2","3","5","5","5","4","6","1","5","2","3","3","6","3","6","3","7","3","3","3","5","2","3","3","3","3","4","773271155669995521","陈","176","Male","[""坏我"",""好他"",""好我"",""坏他""]","[""弱我"",""强他"",""强我"",""弱他""]","","","","","","","","4","","","","","","","","","SRET","SRET_math_calculate","","key","4","16.65906040268425","768","428","","","","","20/5= ?","4","1","","","","","","","",""
"2484","","9","psychophysics","110","332018","0.0-7.0-5.0-0.7","6","5","6","5","5","4","3","5","4","4","5","1","-2","0","0","-1","1","1","1","5","4","5","2","4","4","5","4","5","4","6","8","5","7","4","7","6","6","7","5","5","4","3","6","2","4","3","6","6","1","3","3","5","2","3","5","5","5","4","6","1","5","2","3","3","6","3","6","3","7","3","3","3","5","2","3","3","3","3","4","773271155669995521","陈","176","Male","[""坏我"",""好他"",""好我"",""坏他""]","[""弱我"",""强他"",""强我"",""弱他""]","","","","","","","","9","","","","","","","","","SRET","SRET_math_calculate","","key","9","16.66216216216216","768","428","","","","","81/9= ?","9","1","","","","","","","",""
"2006","","2","psychophysics","111","334029","0.0-7.0-5.0-0.8","6","5","6","5","5","4","3","5","4","4","5","1","-2","0","0","-1","1","1","1","5","4","5","2","4","4","5","4","5","4","6","8","5","7","4","7","6","6","7","5","5","4","3","6","2","4","3","6","6","1","3","3","5","2","3","5","5","5","4","6","1","5","2","3","3","6","3","6","3","7","3","3","3","5","2","3","3","3","3","4","773271155669995521","陈","176","Male","[""坏我"",""好他"",""好我"",""坏他""]","[""弱我"",""强他"",""强我"",""弱他""]","","","","","","","","2","","","","","","","","","SRET","SRET_math_calculate","","key","2","16.658333333333335","768","428","","","","","9-8= ?","1","0","","","","","","","",""
"2113","","2","psychophysics","112","336146","0.0-7.0-5.0-0.9","6","5","6","5","5","4","3","5","4","4","5","1","-2","0","0","-1","1","1","1","5","4","5","2","4","4","5","4","5","4","6","8","5","7","4","7","6","6","7","5","5","4","3","6","2","4","3","6","6","1","3","3","5","2","3","5","5","5","4","6","1","5","2","3","3","6","3","6","3","7","3","3","3","5","2","3","3","3","3","4","773271155669995521","陈","176","Male","[""坏我"",""好他"",""好我"",""坏他""]","[""弱我"",""强他"",""强我"",""弱他""]","","","","","","","","2","","","","","","","","","SRET","SRET_math_calculate","","key","2","16.661904761904484","768","428","","","","","29-27= ?","2","1","","","","","","","",""
"2450","","3","psychophysics","113","338597","0.0-7.0-5.0-0.10","6","5","6","5","5","4","3","5","4","4","5","1","-2","0","0","-1","1","1","1","5","4","5","2","4","4","5","4","5","4","6","8","5","7","4","7","6","6","7","5","5","4","3","6","2","4","3","6","6","1","3","3","5","2","3","5","5","5","4","6","1","5","2","3","3","6","3","6","3","7","3","3","3","5","2","3","3","3","3","4","773271155669995521","陈","176","Male","[""坏我"",""好他"",""好我"",""坏他""]","[""弱我"",""强他"",""强我"",""弱他""]","","","","","","","","3","","","","","","","","","SRET","SRET_math_calculate","","key","3","16.660958904109588","768","428","","","","","8-5= ?","3","1","","","","","","","",""
"2619","","8","psychophysics","114","341218","0.0-7.0-5.0-0.11","6","5","6","5","5","4","3","5","4","4","5","1","-2","0","0","-1","1","1","1","5","4","5","2","4","4","5","4","5","4","6","8","5","7","4","7","6","6","7","5","5","4","3","6","2","4","3","6","6","1","3","3","5","2","3","5","5","5","4","6","1","5","2","3","3","6","3","6","3","7","3","3","3","5","2","3","3","3","3","4","773271155669995521","陈","176","Male","[""坏我"",""好他"",""好我"",""坏他""]","[""弱我"",""强他"",""强我"",""弱他""]","","","","","","","","8","","","","","","","","","SRET","SRET_math_calculate","","key","8","16.661538461538537","768","428","","","","","4*2= ?","8","1","","","","","","","",""
"2255","","4","psychophysics","115","343484","0.0-7.0-5.0-0.12","6","5","6","5","5","4","3","5","4","4","5","1","-2","0","0","-1","1","1","1","5","4","5","2","4","4","5","4","5","4","6","8","5","7","4","7","6","6","7","5","5","4","3","6","2","4","3","6","6","1","3","3","5","2","3","5","5","5","4","6","1","5","2","3","3","6","3","6","3","7","3","3","3","5","2","3","3","3","3","4","773271155669995521","陈","176","Male","[""坏我"",""好他"",""好我"",""坏他""]","[""弱我"",""强他"",""强我"",""弱他""]","","","","","","","","4","","","","","","","","","SRET","SRET_math_calculate","","key","4","16.659999999999826","768","428","","","","","9-5= ?","4","1","","","","","","","",""
"2183","","3","psychophysics","116","345677","0.0-7.0-5.0-0.13","6","5","6","5","5","4","3","5","4","4","5","1","-2","0","0","-1","1","1","1","5","4","5","2","4","4","5","4","5","4","6","8","5","7","4","7","6","6","7","5","5","4","3","6","2","4","3","6","6","1","3","3","5","2","3","5","5","5","4","6","1","5","2","3","3","6","3","6","3","7","3","3","3","5","2","3","3","3","3","4","773271155669995521","陈","176","Male","[""坏我"",""好他"",""好我"",""坏他""]","[""弱我"",""强他"",""强我"",""弱他""]","","","","","","","","3","","","","","","","","","SRET","SRET_math_calculate","","key","3","16.66183206106879","768","428","","","","","12/4= ?","3","1","","","","","","","",""
"2316","","7","psychophysics","117","347994","0.0-7.0-5.0-0.14","6","5","6","5","5","4","3","5","4","4","5","1","-2","0","0","-1","1","1","1","5","4","5","2","4","4","5","4","5","4","6","8","5","7","4","7","6","6","7","5","5","4","3","6","2","4","3","6","6","1","3","3","5","2","3","5","5","5","4","6","1","5","2","3","3","6","3","6","3","7","3","3","3","5","2","3","3","3","3","4","773271155669995521","陈","176","Male","[""坏我"",""好他"",""好我"",""坏他""]","[""弱我"",""强他"",""强我"",""弱他""]","","","","","","","","7","","","","","","","","","SRET","SRET_math_calculate","","key","7","16.657971014493093","768","428","","","","","9-2= ?","7","1","","","","","","","",""
"2379","","3","psychophysics","118","350375","0.0-7.0-5.0-0.15","6","5","6","5","5","4","3","5","4","4","5","1","-2","0","0","-1","1","1","1","5","4","5","2","4","4","5","4","5","4","6","8","5","7","4","7","6","6","7","5","5","4","3","6","2","4","3","6","6","1","3","3","5","2","3","5","5","5","4","6","1","5","2","3","3","6","3","6","3","7","3","3","3","5","2","3","3","3","3","4","773271155669995521","陈","176","Male","[""坏我"",""好他"",""好我"",""坏他""]","[""弱我"",""强他"",""强我"",""弱他""]","","","","","","","","3","","","","","","","","","SRET","SRET_math_calculate","","key","3","16.662676056337865","768","428","","","","","21/7=  ?","3","1","","","","","","","",""
"2666","","8","psychophysics","119","353043","0.0-7.0-5.0-0.16","6","5","6","5","5","4","3","5","4","4","5","1","-2","0","0","-1","1","1","1","5","4","5","2","4","4","5","4","5","4","6","8","5","7","4","7","6","6","7","5","5","4","3","6","2","4","3","6","6","1","3","3","5","2","3","5","5","5","4","6","1","5","2","3","3","6","3","6","3","7","3","3","3","5","2","3","3","3","3","4","773271155669995521","陈","176","Male","[""坏我"",""好他"",""好我"",""坏他""]","[""弱我"",""强他"",""强我"",""弱他""]","","","","","","","","8","","","","","","","","","SRET","SRET_math_calculate","","key","8","16.654088050314467","768","428","","","","","50-42= ?","8","1","","","","","","","",""
"3182","","8","psychophysics","120","356235","0.0-7.0-5.0-0.17","6","5","6","5","5","4","3","5","4","4","5","1","-2","0","0","-1","1","1","1","5","4","5","2","4","4","5","4","5","4","6","8","5","7","4","7","6","6","7","5","5","4","3","6","2","4","3","6","6","1","3","3","5","2","3","5","5","5","4","6","1","5","2","3","3","6","3","6","3","7","3","3","3","5","2","3","3","3","3","4","773271155669995521","陈","176","Male","[""坏我"",""好他"",""好我"",""坏他""]","[""弱我"",""强他"",""强我"",""弱他""]","","","","","","","","8","","","","","","","","","SRET","SRET_math_calculate","","key","8","16.659685863874344","768","428","","","","","11-3= ?","8","1","","","","","","","",""
"1968","","7","psychophysics","121","358204","0.0-7.0-5.0-0.18","6","5","6","5","5","4","3","5","4","4","5","1","-2","0","0","-1","1","1","1","5","4","5","2","4","4","5","4","5","4","6","8","5","7","4","7","6","6","7","5","5","4","3","6","2","4","3","6","6","1","3","3","5","2","3","5","5","5","4","6","1","5","2","3","3","6","3","6","3","7","3","3","3","5","2","3","3","3","3","4","773271155669995521","陈","176","Male","[""坏我"",""好他"",""好我"",""坏他""]","[""弱我"",""强他"",""强我"",""弱他""]","","","","","","","","7","","","","","","","","","SRET","SRET_math_calculate","","key","7","16.66153846153866","768","428","","","","","5+2= ?","7","1","","","","","","","",""
"2243","","7","psychophysics","122","360449","0.0-7.0-5.0-0.19","6","5","6","5","5","4","3","5","4","4","5","1","-2","0","0","-1","1","1","1","5","4","5","2","4","4","5","4","5","4","6","8","5","7","4","7","6","6","7","5","5","4","3","6","2","4","3","6","6","1","3","3","5","2","3","5","5","5","4","6","1","5","2","3","3","6","3","6","3","7","3","3","3","5","2","3","3","3","3","4","773271155669995521","陈","176","Male","[""坏我"",""好他"",""好我"",""坏他""]","[""弱我"",""强他"",""强我"",""弱他""]","","","","","","","","7","","","","","","","","","SRET","SRET_math_calculate","","key","7","16.66044776119403","768","428","","","","","49/7 = ?","7","1","","","","","","","",""
"1895","","7","psychophysics","123","362346","0.0-7.0-5.0-0.20","6","5","6","5","5","4","3","5","4","4","5","1","-2","0","0","-1","1","1","1","5","4","5","2","4","4","5","4","5","4","6","8","5","7","4","7","6","6","7","5","5","4","3","6","2","4","3","6","6","1","3","3","5","2","3","5","5","5","4","6","1","5","2","3","3","6","3","6","3","7","3","3","3","5","2","3","3","3","3","4","773271155669995521","陈","176","Male","[""坏我"",""好他"",""好我"",""坏他""]","[""弱我"",""强他"",""强我"",""弱他""]","","","","","","","","7","","","","","","","","","SRET","SRET_math_calculate","","key","7","16.65929203539823","768","428","","","","","3+4= ?","7","1","","","","","","","",""
"2006","","3","psychophysics","124","364353","0.0-7.0-5.0-0.21","6","5","6","5","5","4","3","5","4","4","5","1","-2","0","0","-1","1","1","1","5","4","5","2","4","4","5","4","5","4","6","8","5","7","4","7","6","6","7","5","5","4","3","6","2","4","3","6","6","1","3","3","5","2","3","5","5","5","4","6","1","5","2","3","3","6","3","6","3","7","3","3","3","5","2","3","3","3","3","4","773271155669995521","陈","176","Male","[""坏我"",""好他"",""好我"",""坏他""]","[""弱我"",""强他"",""强我"",""弱他""]","","","","","","","","3","","","","","","","","","SRET","SRET_math_calculate","","key","3","16.6579831932777","768","428","","","","","1+2= ?","3","1","","","","","","","",""
"2278","","9","psychophysics","125","366633","0.0-7.0-5.0-0.22","6","5","6","5","5","4","3","5","4","4","5","1","-2","0","0","-1","1","1","1","5","4","5","2","4","4","5","4","5","4","6","8","5","7","4","7","6","6","7","5","5","4","3","6","2","4","3","6","6","1","3","3","5","2","3","5","5","5","4","6","1","5","2","3","3","6","3","6","3","7","3","3","3","5","2","3","3","3","3","4","773271155669995521","陈","176","Male","[""坏我"",""好他"",""好我"",""坏他""]","[""弱我"",""强他"",""强我"",""弱他""]","","","","","","","","9","","","","","","","","","SRET","SRET_math_calculate","","key","9","16.659558823529498","768","428","","","","","18/2= ?","9","1","","","","","","","",""
"2324","","0","psychophysics","126","368958","0.0-7.0-5.0-0.23","6","5","6","5","5","4","3","5","4","4","5","1","-2","0","0","-1","1","1","1","5","4","5","2","4","4","5","4","5","4","6","8","5","7","4","7","6","6","7","5","5","4","3","6","2","4","3","6","6","1","3","3","5","2","3","5","5","5","4","6","1","5","2","3","3","6","3","6","3","7","3","3","3","5","2","3","3","3","3","4","773271155669995521","陈","176","Male","[""坏我"",""好他"",""好我"",""坏他""]","[""弱我"",""强他"",""强我"",""弱他""]","","","","","","","","0","","","","","","","","","SRET","SRET_math_calculate","","key","0","16.659712230215913","768","428","","","","","22-22= ?","0","1","","","","","","","",""
"2053","","4","psychophysics","127","371013","0.0-7.0-5.0-0.24","6","5","6","5","5","4","3","5","4","4","5","1","-2","0","0","-1","1","1","1","5","4","5","2","4","4","5","4","5","4","6","8","5","7","4","7","6","6","7","5","5","4","3","6","2","4","3","6","6","1","3","3","5","2","3","5","5","5","4","6","1","5","2","3","3","6","3","6","3","7","3","3","3","5","2","3","3","3","3","4","773271155669995521","陈","176","Male","[""坏我"",""好他"",""好我"",""坏他""]","[""弱我"",""强他"",""强我"",""弱他""]","","","","","","","","4","","","","","","","","","SRET","SRET_math_calculate","","key","4","16.66147540983616","768","428","","","","","4*1= ?","4","1","","","","","","","",""
"2066","","8","psychophysics","128","373081","0.0-7.0-5.0-0.25","6","5","6","5","5","4","3","5","4","4","5","1","-2","0","0","-1","1","1","1","5","4","5","2","4","4","5","4","5","4","6","8","5","7","4","7","6","6","7","5","5","4","3","6","2","4","3","6","6","1","3","3","5","2","3","5","5","5","4","6","1","5","2","3","3","6","3","6","3","7","3","3","3","5","2","3","3","3","3","4","773271155669995521","陈","176","Male","[""坏我"",""好他"",""好我"",""坏他""]","[""弱我"",""强他"",""强我"",""弱他""]","","","","","","","","8","","","","","","","","","SRET","SRET_math_calculate","","key","8","16.658536585365855","768","428","","","","","6+2= ?","8","1","","","","","","","",""
"2031","","9","psychophysics","129","375113","0.0-7.0-5.0-0.26","6","5","6","5","5","4","3","5","4","4","5","1","-2","0","0","-1","1","1","1","5","4","5","2","4","4","5","4","5","4","6","8","5","7","4","7","6","6","7","5","5","4","3","6","2","4","3","6","6","1","3","3","5","2","3","5","5","5","4","6","1","5","2","3","3","6","3","6","3","7","3","3","3","5","2","3","3","3","3","4","773271155669995521","陈","176","Male","[""坏我"",""好他"",""好我"",""坏他""]","[""弱我"",""强他"",""强我"",""弱他""]","","","","","","","","9","","","","","","","","","SRET","SRET_math_calculate","","key","9","16.65950413223131","768","428","","","","","1*9= ?","9","1","","","","","","","",""
"2941","","2","psychophysics","130","378055","0.0-7.0-5.0-0.27","6","5","6","5","5","4","3","5","4","4","5","1","-2","0","0","-1","1","1","1","5","4","5","2","4","4","5","4","5","4","6","8","5","7","4","7","6","6","7","5","5","4","3","6","2","4","3","6","6","1","3","3","5","2","3","5","5","5","4","6","1","5","2","3","3","6","3","6","3","7","3","3","3","5","2","3","3","3","3","4","773271155669995521","陈","176","Male","[""坏我"",""好他"",""好我"",""坏他""]","[""弱我"",""强他"",""强我"",""弱他""]","","","","","","","","2","","","","","","","","","SRET","SRET_math_calculate","","key","2","16.65909090909091","768","428","","","","","90/45= ?","2","1","","","","","","","",""
"2227","","9","psychophysics","131","380283","0.0-7.0-5.0-0.28","6","5","6","5","5","4","3","5","4","4","5","1","-2","0","0","-1","1","1","1","5","4","5","2","4","4","5","4","5","4","6","8","5","7","4","7","6","6","7","5","5","4","3","6","2","4","3","6","6","1","3","3","5","2","3","5","5","5","4","6","1","5","2","3","3","6","3","6","3","7","3","3","3","5","2","3","3","3","3","4","773271155669995521","陈","176","Male","[""坏我"",""好他"",""好我"",""坏他""]","[""弱我"",""强他"",""强我"",""弱他""]","","","","","","","","9","","","","","","","","","SRET","SRET_math_calculate","","key","9","16.65909090909091","768","428","","","","","4+5= ?","9","1","","","","","","","",""
"2152","","6","psychophysics","132","382439","0.0-7.0-5.0-0.29","6","5","6","5","5","4","3","5","4","4","5","1","-2","0","0","-1","1","1","1","5","4","5","2","4","4","5","4","5","4","6","8","5","7","4","7","6","6","7","5","5","4","3","6","2","4","3","6","6","1","3","3","5","2","3","5","5","5","4","6","1","5","2","3","3","6","3","6","3","7","3","3","3","5","2","3","3","3","3","4","773271155669995521","陈","176","Male","[""坏我"",""好他"",""好我"",""坏他""]","[""弱我"",""强他"",""强我"",""弱他""]","","","","","","","","6","","","","","","","","","SRET","SRET_math_calculate","","key","6","16.65968992248089","768","428","","","","","4+2= ?","6","1","","","","","","","",""
"2094","","3","psychophysics","133","384534","0.0-7.0-5.0-0.30","6","5","6","5","5","4","3","5","4","4","5","1","-2","0","0","-1","1","1","1","5","4","5","2","4","4","5","4","5","4","6","8","5","7","4","7","6","6","7","5","5","4","3","6","2","4","3","6","6","1","3","3","5","2","3","5","5","5","4","6","1","5","2","3","3","6","3","6","3","7","3","3","3","5","2","3","3","3","3","4","773271155669995521","陈","176","Male","[""坏我"",""好他"",""好我"",""坏他""]","[""弱我"",""强他"",""强我"",""弱他""]","","","","","","","","3","","","","","","","","","SRET","SRET_math_calculate","","key","3","16.659200000000187","768","428","","","","","3+0= ?","3","1","","","","","","","",""
"2358","","6","psychophysics","134","386893","0.0-7.0-5.0-0.31","6","5","6","5","5","4","3","5","4","4","5","1","-2","0","0","-1","1","1","1","5","4","5","2","4","4","5","4","5","4","6","8","5","7","4","7","6","6","7","5","5","4","3","6","2","4","3","6","6","1","3","3","5","2","3","5","5","5","4","6","1","5","2","3","3","6","3","6","3","7","3","3","3","5","2","3","3","3","3","4","773271155669995521","陈","176","Male","[""坏我"",""好他"",""好我"",""坏他""]","[""弱我"",""强他"",""强我"",""弱他""]","","","","","","","","6","","","","","","","","","SRET","SRET_math_calculate","","key","6","16.658571428571513","768","428","","","","","11-5= ?","6","1","","","","","","","",""
"1785","","6","psychophysics","135","388679","0.0-7.0-5.0-0.32","6","5","6","5","5","4","3","5","4","4","5","1","-2","0","0","-1","1","1","1","5","4","5","2","4","4","5","4","5","4","6","8","5","7","4","7","6","6","7","5","5","4","3","6","2","4","3","6","6","1","3","3","5","2","3","5","5","5","4","6","1","5","2","3","3","6","3","6","3","7","3","3","3","5","2","3","3","3","3","4","773271155669995521","陈","176","Male","[""坏我"",""好他"",""好我"",""坏他""]","[""弱我"",""强他"",""强我"",""弱他""]","","","","","","","","6","","","","","","","","","SRET","SRET_math_calculate","","key","6","16.656603773585235","768","428","","","","","2+4= ?","6","1","","","","","","","",""
"1920","","4","psychophysics","136","390599","0.0-7.0-5.0-0.33","6","5","6","5","5","4","3","5","4","4","5","1","-2","0","0","-1","1","1","1","5","4","5","2","4","4","5","4","5","4","6","8","5","7","4","7","6","6","7","5","5","4","3","6","2","4","3","6","6","1","3","3","5","2","3","5","5","5","4","6","1","5","2","3","3","6","3","6","3","7","3","3","3","5","2","3","3","3","3","4","773271155669995521","陈","176","Male","[""坏我"",""好他"",""好我"",""坏他""]","[""弱我"",""强他"",""强我"",""弱他""]","","","","","","","","4","","","","","","","","","SRET","SRET_math_calculate","","key","4","16.610434782608795","768","428","","","","","2+2= ?","4","1","","","","","","","",""
"1949","","7","psychophysics","137","392550","0.0-7.0-5.0-0.34","6","5","6","5","5","4","3","5","4","4","5","1","-2","0","0","-1","1","1","1","5","4","5","2","4","4","5","4","5","4","6","8","5","7","4","7","6","6","7","5","5","4","3","6","2","4","3","6","6","1","3","3","5","2","3","5","5","5","4","6","1","5","2","3","3","6","3","6","3","7","3","3","3","5","2","3","3","3","3","4","773271155669995521","陈","176","Male","[""坏我"",""好他"",""好我"",""坏他""]","[""弱我"",""强他"",""强我"",""弱他""]","","","","","","","","7","","","","","","","","","SRET","SRET_math_calculate","","key","7","16.65948275862069","768","428","","","","","2+5= ?","7","1","","","","","","","",""
"2034","","8","psychophysics","138","394586","0.0-7.0-5.0-0.35","6","5","6","5","5","4","3","5","4","4","5","1","-2","0","0","-1","1","1","1","5","4","5","2","4","4","5","4","5","4","6","8","5","7","4","7","6","6","7","5","5","4","3","6","2","4","3","6","6","1","3","3","5","2","3","5","5","5","4","6","1","5","2","3","3","6","3","6","3","7","3","3","3","5","2","3","3","3","3","4","773271155669995521","陈","176","Male","[""坏我"",""好他"",""好我"",""坏他""]","[""弱我"",""强他"",""强我"",""弱他""]","","","","","","","","8","","","","","","","","","SRET","SRET_math_calculate","","key","8","16.66033057851259","768","428","","","","","8*1= ?","8","1","","","","","","","",""
"2752","","3","psychophysics","139","397341","0.0-7.0-5.0-0.36","6","5","6","5","5","4","3","5","4","4","5","1","-2","0","0","-1","1","1","1","5","4","5","2","4","4","5","4","5","4","6","8","5","7","4","7","6","6","7","5","5","4","3","6","2","4","3","6","6","1","3","3","5","2","3","5","5","5","4","6","1","5","2","3","3","6","3","6","3","7","3","3","3","5","2","3","3","3","3","4","773271155669995521","陈","176","Male","[""坏我"",""好他"",""好我"",""坏他""]","[""弱我"",""强他"",""强我"",""弱他""]","","","","","","","","3","","","","","","","","","SRET","SRET_math_calculate","","key","3","16.658536585365855","768","428","","","","","19-17= ?","2","0","","","","","","","",""
"1780","","3","psychophysics","140","399122","0.0-7.0-5.0-0.37","6","5","6","5","5","4","3","5","4","4","5","1","-2","0","0","-1","1","1","1","5","4","5","2","4","4","5","4","5","4","6","8","5","7","4","7","6","6","7","5","5","4","3","6","2","4","3","6","6","1","3","3","5","2","3","5","5","5","4","6","1","5","2","3","3","6","3","6","3","7","3","3","3","5","2","3","3","3","3","4","773271155669995521","陈","176","Male","[""坏我"",""好他"",""好我"",""坏他""]","[""弱我"",""强他"",""强我"",""弱他""]","","","","","","","","3","","","","","","","","","SRET","SRET_math_calculate","","key","3","16.658490566037624","768","428","","","","","2+1= ?","3","1","","","","","","","",""
"2490","","2","psychophysics","141","401613","0.0-7.0-5.0-0.38","6","5","6","5","5","4","3","5","4","4","5","1","-2","0","0","-1","1","1","1","5","4","5","2","4","4","5","4","5","4","6","8","5","7","4","7","6","6","7","5","5","4","3","6","2","4","3","6","6","1","3","3","5","2","3","5","5","5","4","6","1","5","2","3","3","6","3","6","3","7","3","3","3","5","2","3","3","3","3","4","773271155669995521","陈","176","Male","[""坏我"",""好他"",""好我"",""坏他""]","[""弱我"",""强他"",""强我"",""弱他""]","","","","","","","","2","","","","","","","","","SRET","SRET_math_calculate","","key","2","16.638255033557282","768","428","","","","","22/11= ?","2","1","","","","","","","",""
"2900","","0","psychophysics","142","404516","0.0-7.0-5.0-0.39","6","5","6","5","5","4","3","5","4","4","5","1","-2","0","0","-1","1","1","1","5","4","5","2","4","4","5","4","5","4","6","8","5","7","4","7","6","6","7","5","5","4","3","6","2","4","3","6","6","1","3","3","5","2","3","5","5","5","4","6","1","5","2","3","3","6","3","6","3","7","3","3","3","5","2","3","3","3","3","4","773271155669995521","陈","176","Male","[""坏我"",""好他"",""好我"",""坏他""]","[""弱我"",""强他"",""强我"",""弱他""]","","","","","","","","0","","","","","","","","","SRET","SRET_math_calculate","","key","0","16.66069364161843","768","428","","","","","5*0= ?","0","1","","","","","","","",""
