"rt","stimulus","response","trial_type","trial_index","time_elapsed","internal_node_id","swb_1","swb_2","swb_3","swb_4","swb_5","LOT_1","LOT_2","LOT_3","LOT_4","LOT_5","LOT_6","IPC_1","IPC_2","IPC_3","IPC_4","IPC_5","IPC_6","IPC_7","IPC_8","MorIden_1","MorIden_2","MorIden_3","MorIden_4","MorIden_5","MorIden_6","MorIden_7","MorIden_8","MorIden_9","MorIden_10","moralSeImag_1","moralSeImag_2","moralSeImag_3","moralSeImag_4","moralSeImag_5","moralSeImag_6","moralSeImag_7","moralSeImag_8","moralSeImag_9","sde_1","sde_2","sde_3","sde_4","sde_5","sde_6","sde_7","sde_8","sde_9","sde_10","trap2","sde_11","sde_12","sde_13","sde_14","sde_15","sde_16","sde_17","sde_18","sde_19","sde_20","IM_1","IM_2","IM_3","IM_4","IM_5","IM_6","IM_7","IM_8","IM_9","IM_10","IM_11","IM_12","IM_13","IM_14","IM_15","IM_16","IM_17","IM_18","IM_19","IM_20","subj_idx","friend_name","ParticipantID","Sex","Word","Word2","value","success","timeout","failed_images","failed_audio","failed_video","user_agent","responses","item_order","radio_event_ids","radio_event_times","key_event_times","mouse_event_times","straightlining","zigzagging","honeypot","task_id","screen_id","time_stamp","response_type","key_press","avg_frame_time","center_x","center_y","person","word","valence","domain","math","correct_response","correct","status","identity","view_history","duration","Image","condition","question_order","trap2_item"
"5643","
   <p><div style='color:white; font-size: 25px'>您好，欢迎参加本次实验。</div></p>
   <p><div style='color:white; font-size: 25px'>为充分保障您的权利，请确保您已经知晓并同意《参与实验同意书》以及《数据公开知情同意书》。</div></p>
   <p><div style='color:white; font-size: 25px'>如果您未见过上述内容，请咨询实验员。</div></p>
   <p style='color:white; font-size: 25px'>如果您选择继续实验，则表示您已经清楚两份知情同意书的内容并同意。</p>
   <p><div style = ""color: pink;font-size:30px;"">请确保您记得day0的实验编号，您将在本次实验输入该编号，若您忘记，请咨询实验员后作答。</div></p>
   <p><div style = ""color:lightblue;font-size:25px;"">请您尽可能认真地作答，我们将依据您在各问卷和按键任务中的作答质量发放报酬。</div></p>
   <p> <div style = ""color: green""><按空格键至下页></div> </p>
   "," ","html-keyboard-response","0","5645","0.0-0.0","7","7","7","6","7","5","4","5","5","5","5","2","1","2","2","2","2","1","2","5","5","5","5","4","4","5","4","5","5","6","6","6","8","7","6","6","7","7","6","7","6","7","7","7","6","1","7","6","1","6","7","7","7","6","6","7","7","6","7","6","7","7","7","6","7","7","7","7","7","7","6","7","7","7","7","7","7","5","7","656564688670162944","朱","106","Male","[""坏我"",""坏他"",""好我"",""好他""]","[""弱我"",""弱他"",""强我"",""强他""]","","","","","","","","","","","","","","","","","","","","","","","","","","","","","","","","","","","","","","",""
"","","","call-function","1","5647","0.0-1.0-0.0","7","7","7","6","7","5","4","5","5","5","5","2","1","2","2","2","2","1","2","5","5","5","5","4","4","5","4","5","5","6","6","6","8","7","6","6","7","7","6","7","6","7","7","7","6","1","7","6","1","6","7","7","7","6","6","7","7","6","7","6","7","7","7","6","7","7","7","7","7","7","6","7","7","7","7","7","7","5","7","656564688670162944","朱","106","Male","[""坏我"",""坏他"",""好我"",""好他""]","[""弱我"",""弱他"",""强我"",""强他""]","","","","","","","","","","","","","","","","","","","","","","","","","","","","","","","","","","","","","","",""
"39109","","[{""name"":""Sex"",""value"":""0""},{""name"":""friend_name"",""value"":""朱""},{""name"":""ParticipantID"",""value"":""106""}]","survey-html-form","2","44757","0.0-1.0-1.0","7","7","7","6","7","5","4","5","5","5","5","2","1","2","2","2","2","1","2","5","5","5","5","4","4","5","4","5","5","6","6","6","8","7","6","6","7","7","6","7","6","7","7","7","6","1","7","6","1","6","7","7","7","6","6","7","7","6","7","6","7","7","7","6","7","7","7","7","7","7","6","7","7","7","7","7","7","5","7","656564688670162944","朱","106","Male","[""坏我"",""坏他"",""好我"",""好他""]","[""弱我"",""弱他"",""强我"",""强他""]","","","","","","","","","","","","","","","","","","","","","","","","","","","","","","","","","","","","","","",""
"","","","preload","3","45065","0.0-2.0","7","7","7","6","7","5","4","5","5","5","5","2","1","2","2","2","2","1","2","5","5","5","5","4","4","5","4","5","5","6","6","6","8","7","6","6","7","7","6","7","6","7","7","7","6","1","7","6","1","6","7","7","7","6","6","7","7","6","7","6","7","7","7","6","7","7","7","7","7","7","6","7","7","7","7","7","7","5","7","656564688670162944","朱","106","Male","[""坏我"",""坏他"",""好我"",""好他""]","[""弱我"",""弱他"",""强我"",""强他""]","","true","false","[]","[]","[]","","","","","","","","","","","","","","","","","","","","","","","","","","","","","","","","",""
"","","","fullscreen","4","48538","0.0-3.0","7","7","7","6","7","5","4","5","5","5","5","2","1","2","2","2","2","1","2","5","5","5","5","4","4","5","4","5","5","6","6","6","8","7","6","6","7","7","6","7","6","7","7","7","6","1","7","6","1","6","7","7","7","6","6","7","7","6","7","6","7","7","7","6","7","7","7","7","7","7","6","7","7","7","7","7","7","5","7","656564688670162944","朱","106","Male","[""坏我"",""坏他"",""好我"",""好他""]","[""弱我"",""弱他"",""强我"",""强他""]","","true","","","","","{}","","","","","","","","","","","","","","","","","","","","","","","","","","","","","","","",""
"17090.300000071526","","{""Q01"":""7"",""Q02"":""7"",""Q03"":""7"",""Q04"":""6"",""Q05"":""7""}","survey-template","5","65630","0.0-4.0","7","7","7","6","7","5","4","5","5","5","5","2","1","2","2","2","2","1","2","5","5","5","5","4","4","5","4","5","5","6","6","6","8","7","6","6","7","7","6","7","6","7","7","7","6","1","7","6","1","6","7","7","7","6","6","7","7","6","7","6","7","7","7","6","7","7","7","7","7","7","6","7","7","7","7","7","7","5","7","656564688670162944","朱","106","Male","[""坏我"",""坏他"",""好我"",""好他""]","[""弱我"",""弱他"",""强我"",""强他""]","","","","","","","","{""Q01"":""7"",""Q02"":""7"",""Q03"":""7"",""Q04"":""6"",""Q05"":""7""}","[0,1,2,3,4]","[""Q01"",""Q02"",""Q03"",""Q04"",""Q05"",""Q05""]","[2745.600000023842,9273.200000047684,10145.200000047684,11953.300000071526,13209.300000071526,15833.200000047684]","[]","[2745.600000023842,9273.200000047684,10145.200000047684,10793.200000047684,11953.300000071526,13209.300000071526,14465.200000047684,15833.200000047684,17089.200000047684]","0.8","0.5","0","","","","","","","","","","","","","","","","","","","","","","",""
"43556.300000071526","","{""Q01"":""5"",""Q02"":""4"",""Q03"":""5"",""Q04"":""5"",""Q05"":""5"",""Q06"":""5""}","survey-template","6","109189","0.0-5.0","7","7","7","6","7","5","4","5","5","5","5","2","1","2","2","2","2","1","2","5","5","5","5","4","4","5","4","5","5","6","6","6","8","7","6","6","7","7","6","7","6","7","7","7","6","1","7","6","1","6","7","7","7","6","6","7","7","6","7","6","7","7","7","6","7","7","7","7","7","7","6","7","7","7","7","7","7","5","7","656564688670162944","朱","106","Male","[""坏我"",""坏他"",""好我"",""好他""]","[""弱我"",""弱他"",""强我"",""强他""]","","","","","","","","{""Q01"":""5"",""Q02"":""4"",""Q03"":""5"",""Q04"":""5"",""Q05"":""5"",""Q06"":""5""}","[0,1,2,3,4,5]","[""Q03"",""Q05"",""Q04"",""Q06"",""Q01"",""Q02"",""Q02"",""Q02""]","[2283.399999976158,5107.800000071526,5787.5,7003.300000071526,10259.200000047684,11131.300000071526,16555.899999976158,17915.300000071526]","[]","[2283.399999976158,5107.800000071526,5787.5,7003.300000071526,10259.200000047684,11131.300000071526,16555.899999976158,17915.300000071526,43555.200000047684]","0.5","0.4","0","","","","","","","","","","","","","","","","","","","","","","",""
"51453.700000047684","","{""Q01"":""2"",""Q02"":""1"",""Q03"":""2"",""Q04"":""2"",""Q05"":""2"",""Q06"":""2"",""Q07"":""1"",""Q08"":""2""}","survey-template","7","160646","0.0-6.0","7","7","7","6","7","5","4","5","5","5","5","2","1","2","2","2","2","1","2","5","5","5","5","4","4","5","4","5","5","6","6","6","8","7","6","6","7","7","6","7","6","7","7","7","6","1","7","6","1","6","7","7","7","6","6","7","7","6","7","6","7","7","7","6","7","7","7","7","7","7","6","7","7","7","7","7","7","5","7","656564688670162944","朱","106","Male","[""坏我"",""坏他"",""好我"",""好他""]","[""弱我"",""弱他"",""强我"",""强他""]","","","","","","","","{""Q01"":""2"",""Q02"":""1"",""Q03"":""2"",""Q04"":""2"",""Q05"":""2"",""Q06"":""2"",""Q07"":""1"",""Q08"":""2""}","[0,1,2,3,4,5,6,7]","[""Q06"",""Q08"",""Q07"",""Q04"",""Q05"",""Q03"",""Q02"",""Q02"",""Q01""]","[4251.800000071526,5867.900000095367,7587.800000071526,9995.800000071526,11707.900000095367,12852.900000095367,13301.100000023842,14340.100000023842,15204]","[]","[3756.8000000715256,4251.800000071526,5867.900000095367,7587.800000071526,9995.800000071526,11707.900000095367,12852.900000095367,13301.100000023842,14340.100000023842,15204,51452]","0.75","0.5714285714285714","0","","","","","","","","","","","","","","","","","","","","","","",""
"2563","
    <p><div style='color:white;font-size:35px; line-height:20px;'>词汇评估任务</div></p><br>
    <p><div style='color:white;font-size:25px; line-height:20px;'>请再次回忆该亲密的朋友，你们至少2年前就认识了，并且最近2年经常见面。</div></p>
    <p><div style='color:white;font-size:25px; line-height:20px;'>在本实验中，您将会看到一些形容词。</div></p>
    <p><div style='color:yellow;font-size:25px; line-height:20px;'>您的任务是判断这些形容词是否符合对您自己或您的朋友的描述。</div></p><p style='font-size:35px'>符合按<span style=""color:lightgreen""> f 键</span>，不符合按<span style=""color:red""> j 键</span></p>","0","html-button-response","8","163212","0.0-7.0-0.0","7","7","7","6","7","5","4","5","5","5","5","2","1","2","2","2","2","1","2","5","5","5","5","4","4","5","4","5","5","6","6","6","8","7","6","6","7","7","6","7","6","7","7","7","6","1","7","6","1","6","7","7","7","6","6","7","7","6","7","6","7","7","7","6","7","7","7","7","7","7","6","7","7","7","7","7","7","5","7","656564688670162944","朱","106","Male","[""坏我"",""坏他"",""好我"",""好他""]","[""弱我"",""弱他"",""强我"",""强他""]","","","","","","","","","","","","","","","","","SRET_EW","EW_instructions","Mon Dec 25 2023 17:30:28 GMT+0800 (中国标准时间)","","","","","","","","","","","","","","","","","","","",""
"1404","","j","psychophysics","9","165621","0.0-7.0-1.0-0.0","7","7","7","6","7","5","4","5","5","5","5","2","1","2","2","2","2","1","2","5","5","5","5","4","4","5","4","5","5","6","6","6","8","7","6","6","7","7","6","7","6","7","7","7","6","1","7","6","1","6","7","7","7","6","6","7","7","6","7","6","7","7","7","6","7","7","7","7","7","7","6","7","7","7","7","7","7","5","7","656564688670162944","朱","106","Male","[""坏我"",""坏他"",""好我"",""好他""]","[""弱我"",""弱他"",""强我"",""强他""]","","","","","","","","no","","","","","","","","","SRET_EW","EW_practice","","key","j","16.665041379310225","768","428","朋友","徇私","Negative","morality","","","","","","","","","","",""
"814","","f","psychophysics","10","167437","0.0-7.0-1.0-0.1","7","7","7","6","7","5","4","5","5","5","5","2","1","2","2","2","2","1","2","5","5","5","5","4","4","5","4","5","5","6","6","6","8","7","6","6","7","7","6","7","6","7","7","7","6","1","7","6","1","6","7","7","7","6","6","7","7","6","7","6","7","7","7","6","7","7","7","7","7","7","6","7","7","7","7","7","7","5","7","656564688670162944","朱","106","Male","[""坏我"",""坏他"",""好我"",""好他""]","[""弱我"",""弱他"",""强我"",""强他""]","","","","","","","","yes","","","","","","","","","SRET_EW","EW_practice","","key","f","16.665046296296136","768","428","朋友","忠实","Positive","morality","","","","","","","","","","",""
"781","","j","psychophysics","11","169220","0.0-7.0-1.0-0.2","7","7","7","6","7","5","4","5","5","5","5","2","1","2","2","2","2","1","2","5","5","5","5","4","4","5","4","5","5","6","6","6","8","7","6","6","7","7","6","7","6","7","7","7","6","1","7","6","1","6","7","7","7","6","6","7","7","6","7","6","7","7","7","6","7","7","7","7","7","7","6","7","7","7","7","7","7","5","7","656564688670162944","朱","106","Male","[""坏我"",""坏他"",""好我"",""好他""]","[""弱我"",""弱他"",""强我"",""强他""]","","","","","","","","no","","","","","","","","","SRET_EW","EW_practice","","key","j","16.664886792452858","768","428","自己","刻板","Negative","ability","","","","","","","","","","",""
"775","","f","psychophysics","12","170996","0.0-7.0-1.0-0.3","7","7","7","6","7","5","4","5","5","5","5","2","1","2","2","2","2","1","2","5","5","5","5","4","4","5","4","5","5","6","6","6","8","7","6","6","7","7","6","7","6","7","7","7","6","1","7","6","1","6","7","7","7","6","6","7","7","6","7","6","7","7","7","6","7","7","7","7","7","7","6","7","7","7","7","7","7","5","7","656564688670162944","朱","106","Male","[""坏我"",""坏他"",""好我"",""好他""]","[""弱我"",""弱他"",""强我"",""强他""]","","","","","","","","yes","","","","","","","","","SRET_EW","EW_practice","","key","f","16.665009523809534","768","428","自己","严谨","Positive","ability","","","","","","","","","","",""
"57351","
    <p><div style='color:white;font-size:35px; line-height:20px;'>请您再次阅读实验要求</div></p><br>
    <p><div style='color:white;font-size:25px; line-height:20px;'>请回忆某一个亲密的朋友，你们至少2年前就认识了，并且最近2年经常见面。</div></p>
    <p><div style='color:white;font-size:25px; line-height:20px;'>在本实验中，您将会看到一些形容词。</div></p>
    <p><div style='color:yellow;font-size:25px; line-height:20px;'>您的任务是判断这些形容词是否符合对您自己或您的朋友的描述。</div></p>
    <p><div class='footer' style='font-size:25px; line-height:20px;'>如果对本实验还有不清楚之处，请立即向实验员咨询。</p><p style='font-size:25px; line-height:20px;'>如果您明白了规则：</p><p style='font-size:22px; line-height:20px;'>请按 继续 进入正式实验</p>
    </div>
    <p style='font-size:35px'>符合按<span style=""color:lightgreen""> f 键</span>，不符合按<span style=""color:red""> j 键</span></p>","0","html-button-response","13","228349","0.0-7.0-2.0","7","7","7","6","7","5","4","5","5","5","5","2","1","2","2","2","2","1","2","5","5","5","5","4","4","5","4","5","5","6","6","6","8","7","6","6","7","7","6","7","6","7","7","7","6","1","7","6","1","6","7","7","7","6","6","7","7","6","7","6","7","7","7","6","7","7","7","7","7","7","6","7","7","7","7","7","7","5","7","656564688670162944","朱","106","Male","[""坏我"",""坏他"",""好我"",""好他""]","[""弱我"",""弱他"",""强我"",""强他""]","","","","","","","","","","","","","","","","","SRET_EW","prac_instructions","Mon Dec 25 2023 17:30:28 GMT+0800 (中国标准时间)","","","","","","","","","","","","","","","","","","","",""
"742","","f","psychophysics","14","230093","0.0-7.0-3.0-0.0","7","7","7","6","7","5","4","5","5","5","5","2","1","2","2","2","2","1","2","5","5","5","5","4","4","5","4","5","5","6","6","6","8","7","6","6","7","7","6","7","6","7","7","7","6","1","7","6","1","6","7","7","7","6","6","7","7","6","7","6","7","7","7","6","7","7","7","7","7","7","6","7","7","7","7","7","7","5","7","656564688670162944","朱","106","Male","[""坏我"",""坏他"",""好我"",""好他""]","[""弱我"",""弱他"",""强我"",""强他""]","","","","","","","","yes","","","","","","","","","SRET","EW_formal","","key","f","16.66445192307695","768","428","自己","坚贞","Positive","morality","","","","","","","","","","",""
"710","","j","psychophysics","15","231805","0.0-7.0-3.0-0.1","7","7","7","6","7","5","4","5","5","5","5","2","1","2","2","2","2","1","2","5","5","5","5","4","4","5","4","5","5","6","6","6","8","7","6","6","7","7","6","7","6","7","7","7","6","1","7","6","1","6","7","7","7","6","6","7","7","6","7","6","7","7","7","6","7","7","7","7","7","7","6","7","7","7","7","7","7","5","7","656564688670162944","朱","106","Male","[""坏我"",""坏他"",""好我"",""好他""]","[""弱我"",""弱他"",""强我"",""强他""]","","","","","","","","no","","","","","","","","","SRET","EW_formal","","key","j","16.66449999999981","768","428","朋友","迷糊","Negative","ability","","","","","","","","","","",""
"840","","j","psychophysics","16","233646","0.0-7.0-3.0-0.2","7","7","7","6","7","5","4","5","5","5","5","2","1","2","2","2","2","1","2","5","5","5","5","4","4","5","4","5","5","6","6","6","8","7","6","6","7","7","6","7","6","7","7","7","6","1","7","6","1","6","7","7","7","6","6","7","7","6","7","6","7","7","7","6","7","7","7","7","7","7","6","7","7","7","7","7","7","5","7","656564688670162944","朱","106","Male","[""坏我"",""坏他"",""好我"",""好他""]","[""弱我"",""弱他"",""强我"",""强他""]","","","","","","","","no","","","","","","","","","SRET","EW_formal","","key","j","16.664688073394505","768","428","自己","说谎","Negative","morality","","","","","","","","","","",""
"766","","f","psychophysics","17","235413","0.0-7.0-3.0-0.3","7","7","7","6","7","5","4","5","5","5","5","2","1","2","2","2","2","1","2","5","5","5","5","4","4","5","4","5","5","6","6","6","8","7","6","6","7","7","6","7","6","7","7","7","6","1","7","6","1","6","7","7","7","6","6","7","7","6","7","6","7","7","7","6","7","7","7","7","7","7","6","7","7","7","7","7","7","5","7","656564688670162944","朱","106","Male","[""坏我"",""坏他"",""好我"",""好他""]","[""弱我"",""弱他"",""强我"",""强他""]","","","","","","","","yes","","","","","","","","","SRET","EW_formal","","key","f","16.66433018867919","768","428","朋友","务实","Positive","ability","","","","","","","","","","",""
"751","","f","psychophysics","18","237165","0.0-7.0-3.0-0.4","7","7","7","6","7","5","4","5","5","5","5","2","1","2","2","2","2","1","2","5","5","5","5","4","4","5","4","5","5","6","6","6","8","7","6","6","7","7","6","7","6","7","7","7","6","1","7","6","1","6","7","7","7","6","6","7","7","6","7","6","7","7","7","6","7","7","7","7","7","7","6","7","7","7","7","7","7","5","7","656564688670162944","朱","106","Male","[""坏我"",""坏他"",""好我"",""好他""]","[""弱我"",""弱他"",""强我"",""强他""]","","","","","","","","yes","","","","","","","","","SRET","EW_formal","","key","f","16.664548076923193","768","428","朋友","侠义","Positive","morality","","","","","","","","","","",""
"717","","f","psychophysics","19","238885","0.0-7.0-3.0-0.5","7","7","7","6","7","5","4","5","5","5","5","2","1","2","2","2","2","1","2","5","5","5","5","4","4","5","4","5","5","6","6","6","8","7","6","6","7","7","6","7","6","7","7","7","6","1","7","6","1","6","7","7","7","6","6","7","7","6","7","6","7","7","7","6","7","7","7","7","7","7","6","7","7","7","7","7","7","5","7","656564688670162944","朱","106","Male","[""坏我"",""坏他"",""好我"",""好他""]","[""弱我"",""弱他"",""强我"",""强他""]","","","","","","","","yes","","","","","","","","","SRET","EW_formal","","key","f","16.664715686274576","768","428","朋友","中用","Positive","ability","","","","","","","","","","",""
"935","","f","psychophysics","20","240820","0.0-7.0-3.0-0.6","7","7","7","6","7","5","4","5","5","5","5","2","1","2","2","2","2","1","2","5","5","5","5","4","4","5","4","5","5","6","6","6","8","7","6","6","7","7","6","7","6","7","7","7","6","1","7","6","1","6","7","7","7","6","6","7","7","6","7","6","7","7","7","6","7","7","7","7","7","7","6","7","7","7","7","7","7","5","7","656564688670162944","朱","106","Male","[""坏我"",""坏他"",""好我"",""好他""]","[""弱我"",""弱他"",""强我"",""强他""]","","","","","","","","yes","","","","","","","","","SRET","EW_formal","","key","f","16.664626086956527","768","428","自己","依靠","Negative","ability","","","","","","","","","","",""
"710","","j","psychophysics","21","242533","0.0-7.0-3.0-0.7","7","7","7","6","7","5","4","5","5","5","5","2","1","2","2","2","2","1","2","5","5","5","5","4","4","5","4","5","5","6","6","6","8","7","6","6","7","7","6","7","6","7","7","7","6","1","7","6","1","6","7","7","7","6","6","7","7","6","7","6","7","7","7","6","7","7","7","7","7","7","6","7","7","7","7","7","7","5","7","656564688670162944","朱","106","Male","[""坏我"",""坏他"",""好我"",""好他""]","[""弱我"",""弱他"",""强我"",""强他""]","","","","","","","","no","","","","","","","","","SRET","EW_formal","","key","j","16.663470588235285","768","428","朋友","草率","Negative","ability","","","","","","","","","","",""
"662","","j","psychophysics","22","244197","0.0-7.0-3.0-0.8","7","7","7","6","7","5","4","5","5","5","5","2","1","2","2","2","2","1","2","5","5","5","5","4","4","5","4","5","5","6","6","6","8","7","6","6","7","7","6","7","6","7","7","7","6","1","7","6","1","6","7","7","7","6","6","7","7","6","7","6","7","7","7","6","7","7","7","7","7","7","6","7","7","7","7","7","7","5","7","656564688670162944","朱","106","Male","[""坏我"",""坏他"",""好我"",""好他""]","[""弱我"",""弱他"",""强我"",""强他""]","","","","","","","","no","","","","","","","","","SRET","EW_formal","","key","j","16.664878787878827","768","428","自己","伪善","Negative","morality","","","","","","","","","","",""
"622","","j","psychophysics","23","245820","0.0-7.0-3.0-0.9","7","7","7","6","7","5","4","5","5","5","5","2","1","2","2","2","2","1","2","5","5","5","5","4","4","5","4","5","5","6","6","6","8","7","6","6","7","7","6","7","6","7","7","7","6","1","7","6","1","6","7","7","7","6","6","7","7","6","7","6","7","7","7","6","7","7","7","7","7","7","6","7","7","7","7","7","7","5","7","656564688670162944","朱","106","Male","[""坏我"",""坏他"",""好我"",""好他""]","[""弱我"",""弱他"",""强我"",""强他""]","","","","","","","","no","","","","","","","","","SRET","EW_formal","","key","j","16.664531250000135","768","428","朋友","驽钝","Negative","ability","","","","","","","","","","",""
"567","","f","psychophysics","24","247388","0.0-7.0-3.0-0.10","7","7","7","6","7","5","4","5","5","5","5","2","1","2","2","2","2","1","2","5","5","5","5","4","4","5","4","5","5","6","6","6","8","7","6","6","7","7","6","7","6","7","7","7","6","1","7","6","1","6","7","7","7","6","6","7","7","6","7","6","7","7","7","6","7","7","7","7","7","7","6","7","7","7","7","7","7","5","7","656564688670162944","朱","106","Male","[""坏我"",""坏他"",""好我"",""好他""]","[""弱我"",""弱他"",""强我"",""强他""]","","","","","","","","yes","","","","","","","","","SRET","EW_formal","","key","f","16.664752688171887","768","428","自己","仁厚","Positive","morality","","","","","","","","","","",""
"870","","f","psychophysics","25","249261","0.0-7.0-3.0-0.11","7","7","7","6","7","5","4","5","5","5","5","2","1","2","2","2","2","1","2","5","5","5","5","4","4","5","4","5","5","6","6","6","8","7","6","6","7","7","6","7","6","7","7","7","6","1","7","6","1","6","7","7","7","6","6","7","7","6","7","6","7","7","7","6","7","7","7","7","7","7","6","7","7","7","7","7","7","5","7","656564688670162944","朱","106","Male","[""坏我"",""坏他"",""好我"",""好他""]","[""弱我"",""弱他"",""强我"",""强他""]","","","","","","","","yes","","","","","","","","","SRET","EW_formal","","key","f","16.664720720720588","768","428","朋友","勤奋","Positive","ability","","","","","","","","","","",""
"743","","f","psychophysics","26","251005","0.0-7.0-3.0-0.12","7","7","7","6","7","5","4","5","5","5","5","2","1","2","2","2","2","1","2","5","5","5","5","4","4","5","4","5","5","6","6","6","8","7","6","6","7","7","6","7","6","7","7","7","6","1","7","6","1","6","7","7","7","6","6","7","7","6","7","6","7","7","7","6","7","7","7","7","7","7","6","7","7","7","7","7","7","5","7","656564688670162944","朱","106","Male","[""坏我"",""坏他"",""好我"",""好他""]","[""弱我"",""弱他"",""强我"",""强他""]","","","","","","","","yes","","","","","","","","","SRET","EW_formal","","key","f","16.664596153846034","768","428","自己","周到","Positive","ability","","","","","","","","","","",""
"830","","j","psychophysics","27","252836","0.0-7.0-3.0-0.13","7","7","7","6","7","5","4","5","5","5","5","2","1","2","2","2","2","1","2","5","5","5","5","4","4","5","4","5","5","6","6","6","8","7","6","6","7","7","6","7","6","7","7","7","6","1","7","6","1","6","7","7","7","6","6","7","7","6","7","6","7","7","7","6","7","7","7","7","7","7","6","7","7","7","7","7","7","5","7","656564688670162944","朱","106","Male","[""坏我"",""坏他"",""好我"",""好他""]","[""弱我"",""弱他"",""强我"",""强他""]","","","","","","","","no","","","","","","","","","SRET","EW_formal","","key","j","16.664091743119254","768","428","朋友","邪恶","Negative","morality","","","","","","","","","","",""
"942","","f","psychophysics","28","254781","0.0-7.0-3.0-0.14","7","7","7","6","7","5","4","5","5","5","5","2","1","2","2","2","2","1","2","5","5","5","5","4","4","5","4","5","5","6","6","6","8","7","6","6","7","7","6","7","6","7","7","7","6","1","7","6","1","6","7","7","7","6","6","7","7","6","7","6","7","7","7","6","7","7","7","7","7","7","6","7","7","7","7","7","7","5","7","656564688670162944","朱","106","Male","[""坏我"",""坏他"",""好我"",""好他""]","[""弱我"",""弱他"",""强我"",""强他""]","","","","","","","","yes","","","","","","","","","SRET","EW_formal","","key","f","16.664715517241536","768","428","朋友","善良","Positive","morality","","","","","","","","","","",""
"1086","","j","psychophysics","29","256868","0.0-7.0-3.0-0.15","7","7","7","6","7","5","4","5","5","5","5","2","1","2","2","2","2","1","2","5","5","5","5","4","4","5","4","5","5","6","6","6","8","7","6","6","7","7","6","7","6","7","7","7","6","1","7","6","1","6","7","7","7","6","6","7","7","6","7","6","7","7","7","6","7","7","7","7","7","7","6","7","7","7","7","7","7","5","7","656564688670162944","朱","106","Male","[""坏我"",""坏他"",""好我"",""好他""]","[""弱我"",""弱他"",""强我"",""强他""]","","","","","","","","no","","","","","","","","","SRET","EW_formal","","key","j","16.664959677419485","768","428","自己","无赖","Negative","morality","","","","","","","","","","",""
"1239","","f","psychophysics","30","259108","0.0-7.0-3.0-0.16","7","7","7","6","7","5","4","5","5","5","5","2","1","2","2","2","2","1","2","5","5","5","5","4","4","5","4","5","5","6","6","6","8","7","6","6","7","7","6","7","6","7","7","7","6","1","7","6","1","6","7","7","7","6","6","7","7","6","7","6","7","7","7","6","7","7","7","7","7","7","6","7","7","7","7","7","7","5","7","656564688670162944","朱","106","Male","[""坏我"",""坏他"",""好我"",""好他""]","[""弱我"",""弱他"",""强我"",""强他""]","","","","","","","","yes","","","","","","","","","SRET","EW_formal","","key","f","16.6645864661653","768","428","朋友","有力","Positive","ability","","","","","","","","","","",""
"991","","f","psychophysics","31","261100","0.0-7.0-3.0-0.17","7","7","7","6","7","5","4","5","5","5","5","2","1","2","2","2","2","1","2","5","5","5","5","4","4","5","4","5","5","6","6","6","8","7","6","6","7","7","6","7","6","7","7","7","6","1","7","6","1","6","7","7","7","6","6","7","7","6","7","6","7","7","7","6","7","7","7","7","7","7","6","7","7","7","7","7","7","5","7","656564688670162944","朱","106","Male","[""坏我"",""坏他"",""好我"",""好他""]","[""弱我"",""弱他"",""强我"",""强他""]","","","","","","","","yes","","","","","","","","","SRET","EW_formal","","key","f","16.664731092437","768","428","朋友","勤恳","Positive","morality","","","","","","","","","","",""
"1095","","j","psychophysics","32","263196","0.0-7.0-3.0-0.18","7","7","7","6","7","5","4","5","5","5","5","2","1","2","2","2","2","1","2","5","5","5","5","4","4","5","4","5","5","6","6","6","8","7","6","6","7","7","6","7","6","7","7","7","6","1","7","6","1","6","7","7","7","6","6","7","7","6","7","6","7","7","7","6","7","7","7","7","7","7","6","7","7","7","7","7","7","5","7","656564688670162944","朱","106","Male","[""坏我"",""坏他"",""好我"",""好他""]","[""弱我"",""弱他"",""强我"",""强他""]","","","","","","","","no","","","","","","","","","SRET","EW_formal","","key","j","16.66493600000022","768","428","朋友","短视","Negative","ability","","","","","","","","","","",""
"695","","j","psychophysics","33","264893","0.0-7.0-3.0-0.19","7","7","7","6","7","5","4","5","5","5","5","2","1","2","2","2","2","1","2","5","5","5","5","4","4","5","4","5","5","6","6","6","8","7","6","6","7","7","6","7","6","7","7","7","6","1","7","6","1","6","7","7","7","6","6","7","7","6","7","6","7","7","7","6","7","7","7","7","7","7","6","7","7","7","7","7","7","5","7","656564688670162944","朱","106","Male","[""坏我"",""坏他"",""好我"",""好他""]","[""弱我"",""弱他"",""强我"",""强他""]","","","","","","","","no","","","","","","","","","SRET","EW_formal","","key","j","16.66442574257386","768","428","朋友","不良","Negative","morality","","","","","","","","","","",""
"1359","","j","psychophysics","34","267253","0.0-7.0-3.0-0.20","7","7","7","6","7","5","4","5","5","5","5","2","1","2","2","2","2","1","2","5","5","5","5","4","4","5","4","5","5","6","6","6","8","7","6","6","7","7","6","7","6","7","7","7","6","1","7","6","1","6","7","7","7","6","6","7","7","6","7","6","7","7","7","6","7","7","7","7","7","7","6","7","7","7","7","7","7","5","7","656564688670162944","朱","106","Male","[""坏我"",""坏他"",""好我"",""好他""]","[""弱我"",""弱他"",""强我"",""强他""]","","","","","","","","no","","","","","","","","","SRET","EW_formal","","key","j","16.664585714285828","768","428","自己","无助","Negative","ability","","","","","","","","","","",""
"638","","f","psychophysics","35","268893","0.0-7.0-3.0-0.21","7","7","7","6","7","5","4","5","5","5","5","2","1","2","2","2","2","1","2","5","5","5","5","4","4","5","4","5","5","6","6","6","8","7","6","6","7","7","6","7","6","7","7","7","6","1","7","6","1","6","7","7","7","6","6","7","7","6","7","6","7","7","7","6","7","7","7","7","7","7","6","7","7","7","7","7","7","5","7","656564688670162944","朱","106","Male","[""坏我"",""坏他"",""好我"",""好他""]","[""弱我"",""弱他"",""强我"",""强他""]","","","","","","","","yes","","","","","","","","","SRET","EW_formal","","key","f","16.665142857142943","768","428","自己","肯干","Positive","ability","","","","","","","","","","",""
"943","","j","psychophysics","36","270837","0.0-7.0-3.0-0.22","7","7","7","6","7","5","4","5","5","5","5","2","1","2","2","2","2","1","2","5","5","5","5","4","4","5","4","5","5","6","6","6","8","7","6","6","7","7","6","7","6","7","7","7","6","1","7","6","1","6","7","7","7","6","6","7","7","6","7","6","7","7","7","6","7","7","7","7","7","7","6","7","7","7","7","7","7","5","7","656564688670162944","朱","106","Male","[""坏我"",""坏他"",""好我"",""好他""]","[""弱我"",""弱他"",""强我"",""强他""]","","","","","","","","no","","","","","","","","","SRET","EW_formal","","key","j","16.663304347825825","768","428","自己","缺德","Negative","morality","","","","","","","","","","",""
"886","","j","psychophysics","37","272725","0.0-7.0-3.0-0.23","7","7","7","6","7","5","4","5","5","5","5","2","1","2","2","2","2","1","2","5","5","5","5","4","4","5","4","5","5","6","6","6","8","7","6","6","7","7","6","7","6","7","7","7","6","1","7","6","1","6","7","7","7","6","6","7","7","6","7","6","7","7","7","6","7","7","7","7","7","7","6","7","7","7","7","7","7","5","7","656564688670162944","朱","106","Male","[""坏我"",""坏他"",""好我"",""好他""]","[""弱我"",""弱他"",""强我"",""强他""]","","","","","","","","no","","","","","","","","","SRET","EW_formal","","key","j","16.66501769911502","768","428","朋友","恶劣","Negative","morality","","","","","","","","","","",""
"798","","j","psychophysics","38","274524","0.0-7.0-3.0-0.24","7","7","7","6","7","5","4","5","5","5","5","2","1","2","2","2","2","1","2","5","5","5","5","4","4","5","4","5","5","6","6","6","8","7","6","6","7","7","6","7","6","7","7","7","6","1","7","6","1","6","7","7","7","6","6","7","7","6","7","6","7","7","7","6","7","7","7","7","7","7","6","7","7","7","7","7","7","5","7","656564688670162944","朱","106","Male","[""坏我"",""坏他"",""好我"",""好他""]","[""弱我"",""弱他"",""强我"",""强他""]","","","","","","","","no","","","","","","","","","SRET","EW_formal","","key","j","16.664660377358747","768","428","朋友","沉着","Positive","ability","","","","","","","","","","",""
"814","","j","psychophysics","39","276340","0.0-7.0-3.0-0.25","7","7","7","6","7","5","4","5","5","5","5","2","1","2","2","2","2","1","2","5","5","5","5","4","4","5","4","5","5","6","6","6","8","7","6","6","7","7","6","7","6","7","7","7","6","1","7","6","1","6","7","7","7","6","6","7","7","6","7","6","7","7","7","6","7","7","7","7","7","7","6","7","7","7","7","7","7","5","7","656564688670162944","朱","106","Male","[""坏我"",""坏他"",""好我"",""好他""]","[""弱我"",""弱他"",""强我"",""强他""]","","","","","","","","no","","","","","","","","","SRET","EW_formal","","key","j","16.66449074074087","768","428","朋友","不仁","Negative","morality","","","","","","","","","","",""
"725","","f","psychophysics","40","278069","0.0-7.0-3.0-0.26","7","7","7","6","7","5","4","5","5","5","5","2","1","2","2","2","2","1","2","5","5","5","5","4","4","5","4","5","5","6","6","6","8","7","6","6","7","7","6","7","6","7","7","7","6","1","7","6","1","6","7","7","7","6","6","7","7","6","7","6","7","7","7","6","7","7","7","7","7","7","6","7","7","7","7","7","7","5","7","656564688670162944","朱","106","Male","[""坏我"",""坏他"",""好我"",""好他""]","[""弱我"",""弱他"",""强我"",""强他""]","","","","","","","","yes","","","","","","","","","SRET","EW_formal","","key","f","16.66455339805847","768","428","自己","扎实","Positive","ability","","","","","","","","","","",""
"870","","f","psychophysics","41","279941","0.0-7.0-3.0-0.27","7","7","7","6","7","5","4","5","5","5","5","2","1","2","2","2","2","1","2","5","5","5","5","4","4","5","4","5","5","6","6","6","8","7","6","6","7","7","6","7","6","7","7","7","6","1","7","6","1","6","7","7","7","6","6","7","7","6","7","6","7","7","7","6","7","7","7","7","7","7","6","7","7","7","7","7","7","5","7","656564688670162944","朱","106","Male","[""坏我"",""坏他"",""好我"",""好他""]","[""弱我"",""弱他"",""强我"",""强他""]","","","","","","","","yes","","","","","","","","","SRET","EW_formal","","key","f","16.664607142857026","768","428","朋友","敬业","Positive","morality","","","","","","","","","","",""
"1102","","f","psychophysics","42","282045","0.0-7.0-3.0-0.28","7","7","7","6","7","5","4","5","5","5","5","2","1","2","2","2","2","1","2","5","5","5","5","4","4","5","4","5","5","6","6","6","8","7","6","6","7","7","6","7","6","7","7","7","6","1","7","6","1","6","7","7","7","6","6","7","7","6","7","6","7","7","7","6","7","7","7","7","7","7","6","7","7","7","7","7","7","5","7","656564688670162944","朱","106","Male","[""坏我"",""坏他"",""好我"",""好他""]","[""弱我"",""弱他"",""强我"",""强他""]","","","","","","","","yes","","","","","","","","","SRET","EW_formal","","key","f","16.66443200000003","768","428","自己","正气","Positive","morality","","","","","","","","","","",""
"822","","j","psychophysics","43","283868","0.0-7.0-3.0-0.29","7","7","7","6","7","5","4","5","5","5","5","2","1","2","2","2","2","1","2","5","5","5","5","4","4","5","4","5","5","6","6","6","8","7","6","6","7","7","6","7","6","7","7","7","6","1","7","6","1","6","7","7","7","6","6","7","7","6","7","6","7","7","7","6","7","7","7","7","7","7","6","7","7","7","7","7","7","5","7","656564688670162944","朱","106","Male","[""坏我"",""坏他"",""好我"",""好他""]","[""弱我"",""弱他"",""强我"",""强他""]","","","","","","","","no","","","","","","","","","SRET","EW_formal","","key","j","16.665027777777546","768","428","自己","歹毒","Negative","morality","","","","","","","","","","",""
"702","","j","psychophysics","44","285572","0.0-7.0-3.0-0.30","7","7","7","6","7","5","4","5","5","5","5","2","1","2","2","2","2","1","2","5","5","5","5","4","4","5","4","5","5","6","6","6","8","7","6","6","7","7","6","7","6","7","7","7","6","1","7","6","1","6","7","7","7","6","6","7","7","6","7","6","7","7","7","6","7","7","7","7","7","7","6","7","7","7","7","7","7","5","7","656564688670162944","朱","106","Male","[""坏我"",""坏他"",""好我"",""好他""]","[""弱我"",""弱他"",""强我"",""强他""]","","","","","","","","no","","","","","","","","","SRET","EW_formal","","key","j","16.664534653465513","768","428","自己","低劣","Negative","morality","","","","","","","","","","",""
"608","","f","psychophysics","45","287181","0.0-7.0-3.0-0.31","7","7","7","6","7","5","4","5","5","5","5","2","1","2","2","2","2","1","2","5","5","5","5","4","4","5","4","5","5","6","6","6","8","7","6","6","7","7","6","7","6","7","7","7","6","1","7","6","1","6","7","7","7","6","6","7","7","6","7","6","7","7","7","6","7","7","7","7","7","7","6","7","7","7","7","7","7","5","7","656564688670162944","朱","106","Male","[""坏我"",""坏他"",""好我"",""好他""]","[""弱我"",""弱他"",""强我"",""强他""]","","","","","","","","yes","","","","","","","","","SRET","EW_formal","","key","f","16.664968749999996","768","428","朋友","娴熟","Positive","ability","","","","","","","","","","",""
"702","","f","psychophysics","46","288884","0.0-7.0-3.0-0.32","7","7","7","6","7","5","4","5","5","5","5","2","1","2","2","2","2","1","2","5","5","5","5","4","4","5","4","5","5","6","6","6","8","7","6","6","7","7","6","7","6","7","7","7","6","1","7","6","1","6","7","7","7","6","6","7","7","6","7","6","7","7","7","6","7","7","7","7","7","7","6","7","7","7","7","7","7","5","7","656564688670162944","朱","106","Male","[""坏我"",""坏他"",""好我"",""好他""]","[""弱我"",""弱他"",""强我"",""强他""]","","","","","","","","yes","","","","","","","","","SRET","EW_formal","","key","f","16.664792079208212","768","428","朋友","清廉","Positive","morality","","","","","","","","","","",""
"638","","f","psychophysics","47","290524","0.0-7.0-3.0-0.33","7","7","7","6","7","5","4","5","5","5","5","2","1","2","2","2","2","1","2","5","5","5","5","4","4","5","4","5","5","6","6","6","8","7","6","6","7","7","6","7","6","7","7","7","6","1","7","6","1","6","7","7","7","6","6","7","7","6","7","6","7","7","7","6","7","7","7","7","7","7","6","7","7","7","7","7","7","5","7","656564688670162944","朱","106","Male","[""坏我"",""坏他"",""好我"",""好他""]","[""弱我"",""弱他"",""强我"",""强他""]","","","","","","","","yes","","","","","","","","","SRET","EW_formal","","key","f","16.66428571428607","768","428","自己","高明","Positive","ability","","","","","","","","","","",""
"798","","j","psychophysics","48","292324","0.0-7.0-3.0-0.34","7","7","7","6","7","5","4","5","5","5","5","2","1","2","2","2","2","1","2","5","5","5","5","4","4","5","4","5","5","6","6","6","8","7","6","6","7","7","6","7","6","7","7","7","6","1","7","6","1","6","7","7","7","6","6","7","7","6","7","6","7","7","7","6","7","7","7","7","7","7","6","7","7","7","7","7","7","5","7","656564688670162944","朱","106","Male","[""坏我"",""坏他"",""好我"",""好他""]","[""弱我"",""弱他"",""强我"",""强他""]","","","","","","","","no","","","","","","","","","SRET","EW_formal","","key","j","16.664757009345937","768","428","自己","刻薄","Negative","morality","","","","","","","","","","",""
"630","","f","psychophysics","49","293956","0.0-7.0-3.0-0.35","7","7","7","6","7","5","4","5","5","5","5","2","1","2","2","2","2","1","2","5","5","5","5","4","4","5","4","5","5","6","6","6","8","7","6","6","7","7","6","7","6","7","7","7","6","1","7","6","1","6","7","7","7","6","6","7","7","6","7","6","7","7","7","6","7","7","7","7","7","7","6","7","7","7","7","7","7","5","7","656564688670162944","朱","106","Male","[""坏我"",""坏他"",""好我"",""好他""]","[""弱我"",""弱他"",""强我"",""强他""]","","","","","","","","yes","","","","","","","","","SRET","EW_formal","","key","f","16.664659793814526","768","428","朋友","敏捷","Positive","ability","","","","","","","","","","",""
"823","","j","psychophysics","50","295780","0.0-7.0-3.0-0.36","7","7","7","6","7","5","4","5","5","5","5","2","1","2","2","2","2","1","2","5","5","5","5","4","4","5","4","5","5","6","6","6","8","7","6","6","7","7","6","7","6","7","7","7","6","1","7","6","1","6","7","7","7","6","6","7","7","6","7","6","7","7","7","6","7","7","7","7","7","7","6","7","7","7","7","7","7","5","7","656564688670162944","朱","106","Male","[""坏我"",""坏他"",""好我"",""好他""]","[""弱我"",""弱他"",""强我"",""强他""]","","","","","","","","no","","","","","","","","","SRET","EW_formal","","key","j","16.664175925925655","768","428","自己","黑心","Negative","morality","","","","","","","","","","",""
"782","","f","psychophysics","51","297564","0.0-7.0-3.0-0.37","7","7","7","6","7","5","4","5","5","5","5","2","1","2","2","2","2","1","2","5","5","5","5","4","4","5","4","5","5","6","6","6","8","7","6","6","7","7","6","7","6","7","7","7","6","1","7","6","1","6","7","7","7","6","6","7","7","6","7","6","7","7","7","6","7","7","7","7","7","7","6","7","7","7","7","7","7","5","7","656564688670162944","朱","106","Male","[""坏我"",""坏他"",""好我"",""好他""]","[""弱我"",""弱他"",""强我"",""强他""]","","","","","","","","yes","","","","","","","","","SRET","EW_formal","","key","f","16.664698113207397","768","428","朋友","文明","Positive","morality","","","","","","","","","","",""
"718","","j","psychophysics","52","299284","0.0-7.0-3.0-0.38","7","7","7","6","7","5","4","5","5","5","5","2","1","2","2","2","2","1","2","5","5","5","5","4","4","5","4","5","5","6","6","6","8","7","6","6","7","7","6","7","6","7","7","7","6","1","7","6","1","6","7","7","7","6","6","7","7","6","7","6","7","7","7","6","7","7","7","7","7","7","6","7","7","7","7","7","7","5","7","656564688670162944","朱","106","Male","[""坏我"",""坏他"",""好我"",""好他""]","[""弱我"",""弱他"",""强我"",""强他""]","","","","","","","","no","","","","","","","","","SRET","EW_formal","","key","j","16.664490196078916","768","428","自己","虚假","Negative","morality","","","","","","","","","","",""
"894","","j","psychophysics","53","301180","0.0-7.0-3.0-0.39","7","7","7","6","7","5","4","5","5","5","5","2","1","2","2","2","2","1","2","5","5","5","5","4","4","5","4","5","5","6","6","6","8","7","6","6","7","7","6","7","6","7","7","7","6","1","7","6","1","6","7","7","7","6","6","7","7","6","7","6","7","7","7","6","7","7","7","7","7","7","6","7","7","7","7","7","7","5","7","656564688670162944","朱","106","Male","[""坏我"",""坏他"",""好我"",""好他""]","[""弱我"",""弱他"",""强我"",""强他""]","","","","","","","","no","","","","","","","","","SRET","EW_formal","","key","j","16.664690265486602","768","428","自己","拙笨","Negative","ability","","","","","","","","","","",""
"1055","","j","psychophysics","54","303236","0.0-7.0-3.0-0.40","7","7","7","6","7","5","4","5","5","5","5","2","1","2","2","2","2","1","2","5","5","5","5","4","4","5","4","5","5","6","6","6","8","7","6","6","7","7","6","7","6","7","7","7","6","1","7","6","1","6","7","7","7","6","6","7","7","6","7","6","7","7","7","6","7","7","7","7","7","7","6","7","7","7","7","7","7","5","7","656564688670162944","朱","106","Male","[""坏我"",""坏他"",""好我"",""好他""]","[""弱我"",""弱他"",""强我"",""强他""]","","","","","","","","no","","","","","","","","","SRET","EW_formal","","key","j","16.66463934426238","768","428","自己","淫乱","Negative","morality","","","","","","","","","","",""
"735","","f","psychophysics","55","304972","0.0-7.0-3.0-0.41","7","7","7","6","7","5","4","5","5","5","5","2","1","2","2","2","2","1","2","5","5","5","5","4","4","5","4","5","5","6","6","6","8","7","6","6","7","7","6","7","6","7","7","7","6","1","7","6","1","6","7","7","7","6","6","7","7","6","7","6","7","7","7","6","7","7","7","7","7","7","6","7","7","7","7","7","7","5","7","656564688670162944","朱","106","Male","[""坏我"",""坏他"",""好我"",""好他""]","[""弱我"",""弱他"",""强我"",""强他""]","","","","","","","","yes","","","","","","","","","SRET","EW_formal","","key","f","16.664634615384365","768","428","自己","奉献","Positive","morality","","","","","","","","","","",""
"966","","j","psychophysics","56","306940","0.0-7.0-3.0-0.42","7","7","7","6","7","5","4","5","5","5","5","2","1","2","2","2","2","1","2","5","5","5","5","4","4","5","4","5","5","6","6","6","8","7","6","6","7","7","6","7","6","7","7","7","6","1","7","6","1","6","7","7","7","6","6","7","7","6","7","6","7","7","7","6","7","7","7","7","7","7","6","7","7","7","7","7","7","5","7","656564688670162944","朱","106","Male","[""坏我"",""坏他"",""好我"",""好他""]","[""弱我"",""弱他"",""强我"",""强他""]","","","","","","","","no","","","","","","","","","SRET","EW_formal","","key","j","16.664854700854704","768","428","朋友","不端","Negative","morality","","","","","","","","","","",""
"1255","","f","psychophysics","57","309196","0.0-7.0-3.0-0.43","7","7","7","6","7","5","4","5","5","5","5","2","1","2","2","2","2","1","2","5","5","5","5","4","4","5","4","5","5","6","6","6","8","7","6","6","7","7","6","7","6","7","7","7","6","1","7","6","1","6","7","7","7","6","6","7","7","6","7","6","7","7","7","6","7","7","7","7","7","7","6","7","7","7","7","7","7","5","7","656564688670162944","朱","106","Male","[""坏我"",""坏他"",""好我"",""好他""]","[""弱我"",""弱他"",""强我"",""强他""]","","","","","","","","yes","","","","","","","","","SRET","EW_formal","","key","f","16.664604477612162","768","428","自己","仗义","Positive","morality","","","","","","","","","","",""
"847","","j","psychophysics","58","311044","0.0-7.0-3.0-0.44","7","7","7","6","7","5","4","5","5","5","5","2","1","2","2","2","2","1","2","5","5","5","5","4","4","5","4","5","5","6","6","6","8","7","6","6","7","7","6","7","6","7","7","7","6","1","7","6","1","6","7","7","7","6","6","7","7","6","7","6","7","7","7","6","7","7","7","7","7","7","6","7","7","7","7","7","7","5","7","656564688670162944","朱","106","Male","[""坏我"",""坏他"",""好我"",""好他""]","[""弱我"",""弱他"",""强我"",""强他""]","","","","","","","","no","","","","","","","","","SRET","EW_formal","","key","j","16.66479999999971","768","428","朋友","狡诈","Negative","morality","","","","","","","","","","",""
"1198","","j","psychophysics","59","313244","0.0-7.0-3.0-0.45","7","7","7","6","7","5","4","5","5","5","5","2","1","2","2","2","2","1","2","5","5","5","5","4","4","5","4","5","5","6","6","6","8","7","6","6","7","7","6","7","6","7","7","7","6","1","7","6","1","6","7","7","7","6","6","7","7","6","7","6","7","7","7","6","7","7","7","7","7","7","6","7","7","7","7","7","7","5","7","656564688670162944","朱","106","Male","[""坏我"",""坏他"",""好我"",""好他""]","[""弱我"",""弱他"",""强我"",""强他""]","","","","","","","","no","","","","","","","","","SRET","EW_formal","","key","j","16.66445038167943","768","428","朋友","畏难","Negative","ability","","","","","","","","","","",""
"655","","f","psychophysics","60","314901","0.0-7.0-3.0-0.46","7","7","7","6","7","5","4","5","5","5","5","2","1","2","2","2","2","1","2","5","5","5","5","4","4","5","4","5","5","6","6","6","8","7","6","6","7","7","6","7","6","7","7","7","6","1","7","6","1","6","7","7","7","6","6","7","7","6","7","6","7","7","7","6","7","7","7","7","7","7","6","7","7","7","7","7","7","5","7","656564688670162944","朱","106","Male","[""坏我"",""坏他"",""好我"",""好他""]","[""弱我"",""弱他"",""强我"",""强他""]","","","","","","","","yes","","","","","","","","","SRET","EW_formal","","key","f","16.664959183673147","768","428","自己","高洁","Positive","morality","","","","","","","","","","",""
"1125","","f","psychophysics","61","317028","0.0-7.0-3.0-0.47","7","7","7","6","7","5","4","5","5","5","5","2","1","2","2","2","2","1","2","5","5","5","5","4","4","5","4","5","5","6","6","6","8","7","6","6","7","7","6","7","6","7","7","7","6","1","7","6","1","6","7","7","7","6","6","7","7","6","7","6","7","7","7","6","7","7","7","7","7","7","6","7","7","7","7","7","7","5","7","656564688670162944","朱","106","Male","[""坏我"",""坏他"",""好我"",""好他""]","[""弱我"",""弱他"",""强我"",""强他""]","","","","","","","","yes","","","","","","","","","SRET","EW_formal","","key","f","16.664779527559254","768","428","自己","全才","Positive","ability","","","","","","","","","","",""
"1174","","j","psychophysics","62","319204","0.0-7.0-3.0-0.48","7","7","7","6","7","5","4","5","5","5","5","2","1","2","2","2","2","1","2","5","5","5","5","4","4","5","4","5","5","6","6","6","8","7","6","6","7","7","6","7","6","7","7","7","6","1","7","6","1","6","7","7","7","6","6","7","7","6","7","6","7","7","7","6","7","7","7","7","7","7","6","7","7","7","7","7","7","5","7","656564688670162944","朱","106","Male","[""坏我"",""坏他"",""好我"",""好他""]","[""弱我"",""弱他"",""强我"",""强他""]","","","","","","","","no","","","","","","","","","SRET","EW_formal","","key","j","16.663600000000308","768","428","自己","迂拙","Negative","ability","","","","","","","","","","",""
"1311","","j","psychophysics","63","321516","0.0-7.0-3.0-0.49","7","7","7","6","7","5","4","5","5","5","5","2","1","2","2","2","2","1","2","5","5","5","5","4","4","5","4","5","5","6","6","6","8","7","6","6","7","7","6","7","6","7","7","7","6","1","7","6","1","6","7","7","7","6","6","7","7","6","7","6","7","7","7","6","7","7","7","7","7","7","6","7","7","7","7","7","7","5","7","656564688670162944","朱","106","Male","[""坏我"",""坏他"",""好我"",""好他""]","[""弱我"",""弱他"",""强我"",""强他""]","","","","","","","","no","","","","","","","","","SRET","EW_formal","","key","j","16.664729927007507","768","428","自己","逞能","Negative","ability","","","","","","","","","","",""
"614","","f","psychophysics","64","323132","0.0-7.0-3.0-0.50","7","7","7","6","7","5","4","5","5","5","5","2","1","2","2","2","2","1","2","5","5","5","5","4","4","5","4","5","5","6","6","6","8","7","6","6","7","7","6","7","6","7","7","7","6","1","7","6","1","6","7","7","7","6","6","7","7","6","7","6","7","7","7","6","7","7","7","7","7","7","6","7","7","7","7","7","7","5","7","656564688670162944","朱","106","Male","[""坏我"",""坏他"",""好我"",""好他""]","[""弱我"",""弱他"",""强我"",""强他""]","","","","","","","","yes","","","","","","","","","SRET","EW_formal","","key","f","16.666489583333412","768","428","自己","诚信","Positive","morality","","","","","","","","","","",""
"606","","f","psychophysics","65","324740","0.0-7.0-3.0-0.51","7","7","7","6","7","5","4","5","5","5","5","2","1","2","2","2","2","1","2","5","5","5","5","4","4","5","4","5","5","6","6","6","8","7","6","6","7","7","6","7","6","7","7","7","6","1","7","6","1","6","7","7","7","6","6","7","7","6","7","6","7","7","7","6","7","7","7","7","7","7","6","7","7","7","7","7","7","5","7","656564688670162944","朱","106","Male","[""坏我"",""坏他"",""好我"",""好他""]","[""弱我"",""弱他"",""强我"",""强他""]","","","","","","","","yes","","","","","","","","","SRET","EW_formal","","key","f","16.664802083333296","768","428","自己","自律","Positive","ability","","","","","","","","","","",""
"983","","f","psychophysics","66","326724","0.0-7.0-3.0-0.52","7","7","7","6","7","5","4","5","5","5","5","2","1","2","2","2","2","1","2","5","5","5","5","4","4","5","4","5","5","6","6","6","8","7","6","6","7","7","6","7","6","7","7","7","6","1","7","6","1","6","7","7","7","6","6","7","7","6","7","6","7","7","7","6","7","7","7","7","7","7","6","7","7","7","7","7","7","5","7","656564688670162944","朱","106","Male","[""坏我"",""坏他"",""好我"",""好他""]","[""弱我"",""弱他"",""强我"",""强他""]","","","","","","","","yes","","","","","","","","","SRET","EW_formal","","key","f","16.664338983050783","768","428","自己","守时","Positive","morality","","","","","","","","","","",""
"767","","j","psychophysics","67","328492","0.0-7.0-3.0-0.53","7","7","7","6","7","5","4","5","5","5","5","2","1","2","2","2","2","1","2","5","5","5","5","4","4","5","4","5","5","6","6","6","8","7","6","6","7","7","6","7","6","7","7","7","6","1","7","6","1","6","7","7","7","6","6","7","7","6","7","6","7","7","7","6","7","7","7","7","7","7","6","7","7","7","7","7","7","5","7","656564688670162944","朱","106","Male","[""坏我"",""坏他"",""好我"",""好他""]","[""弱我"",""弱他"",""强我"",""强他""]","","","","","","","","no","","","","","","","","","SRET","EW_formal","","key","j","16.66470476190471","768","428","朋友","卑鄙","Negative","morality","","","","","","","","","","",""
"758","","f","psychophysics","68","330252","0.0-7.0-3.0-0.54","7","7","7","6","7","5","4","5","5","5","5","2","1","2","2","2","2","1","2","5","5","5","5","4","4","5","4","5","5","6","6","6","8","7","6","6","7","7","6","7","6","7","7","7","6","1","7","6","1","6","7","7","7","6","6","7","7","6","7","6","7","7","7","6","7","7","7","7","7","7","6","7","7","7","7","7","7","5","7","656564688670162944","朱","106","Male","[""坏我"",""坏他"",""好我"",""好他""]","[""弱我"",""弱他"",""强我"",""强他""]","","","","","","","","yes","","","","","","","","","SRET","EW_formal","","key","f","16.664619047618803","768","428","自己","果断","Positive","ability","","","","","","","","","","",""
"952","","f","psychophysics","69","332205","0.0-7.0-3.0-0.55","7","7","7","6","7","5","4","5","5","5","5","2","1","2","2","2","2","1","2","5","5","5","5","4","4","5","4","5","5","6","6","6","8","7","6","6","7","7","6","7","6","7","7","7","6","1","7","6","1","6","7","7","7","6","6","7","7","6","7","6","7","7","7","6","7","7","7","7","7","7","6","7","7","7","7","7","7","5","7","656564688670162944","朱","106","Male","[""坏我"",""坏他"",""好我"",""好他""]","[""弱我"",""弱他"",""强我"",""强他""]","","","","","","","","yes","","","","","","","","","SRET","EW_formal","","key","f","16.664689655172346","768","428","自己","学霸","Positive","ability","","","","","","","","","","",""
"734","","f","psychophysics","70","333940","0.0-7.0-3.0-0.56","7","7","7","6","7","5","4","5","5","5","5","2","1","2","2","2","2","1","2","5","5","5","5","4","4","5","4","5","5","6","6","6","8","7","6","6","7","7","6","7","6","7","7","7","6","1","7","6","1","6","7","7","7","6","6","7","7","6","7","6","7","7","7","6","7","7","7","7","7","7","6","7","7","7","7","7","7","5","7","656564688670162944","朱","106","Male","[""坏我"",""坏他"",""好我"",""好他""]","[""弱我"",""弱他"",""强我"",""强他""]","","","","","","","","yes","","","","","","","","","SRET","EW_formal","","key","f","16.664252427184515","768","428","自己","忠诚","Positive","morality","","","","","","","","","","",""
"686","","j","psychophysics","71","335628","0.0-7.0-3.0-0.57","7","7","7","6","7","5","4","5","5","5","5","2","1","2","2","2","2","1","2","5","5","5","5","4","4","5","4","5","5","6","6","6","8","7","6","6","7","7","6","7","6","7","7","7","6","1","7","6","1","6","7","7","7","6","6","7","7","6","7","6","7","7","7","6","7","7","7","7","7","7","6","7","7","7","7","7","7","5","7","656564688670162944","朱","106","Male","[""坏我"",""坏他"",""好我"",""好他""]","[""弱我"",""弱他"",""强我"",""强他""]","","","","","","","","no","","","","","","","","","SRET","EW_formal","","key","j","16.664850000000442","768","428","朋友","窝囊","Negative","ability","","","","","","","","","","",""
"751","","j","psychophysics","72","337380","0.0-7.0-3.0-0.58","7","7","7","6","7","5","4","5","5","5","5","2","1","2","2","2","2","1","2","5","5","5","5","4","4","5","4","5","5","6","6","6","8","7","6","6","7","7","6","7","6","7","7","7","6","1","7","6","1","6","7","7","7","6","6","7","7","6","7","6","7","7","7","6","7","7","7","7","7","7","6","7","7","7","7","7","7","5","7","656564688670162944","朱","106","Male","[""坏我"",""坏他"",""好我"",""好他""]","[""弱我"",""弱他"",""强我"",""强他""]","","","","","","","","no","","","","","","","","","SRET","EW_formal","","key","j","16.664596153846315","768","428","朋友","下流","Negative","morality","","","","","","","","","","",""
"1118","","f","psychophysics","73","339501","0.0-7.0-3.0-0.59","7","7","7","6","7","5","4","5","5","5","5","2","1","2","2","2","2","1","2","5","5","5","5","4","4","5","4","5","5","6","6","6","8","7","6","6","7","7","6","7","6","7","7","7","6","1","7","6","1","6","7","7","7","6","6","7","7","6","7","6","7","7","7","6","7","7","7","7","7","7","6","7","7","7","7","7","7","5","7","656564688670162944","朱","106","Male","[""坏我"",""坏他"",""好我"",""好他""]","[""弱我"",""弱他"",""强我"",""强他""]","","","","","","","","yes","","","","","","","","","SRET","EW_formal","","key","f","16.664708661417365","768","428","自己","远见","Positive","ability","","","","","","","","","","",""
"798","","j","psychophysics","74","341300","0.0-7.0-3.0-0.60","7","7","7","6","7","5","4","5","5","5","5","2","1","2","2","2","2","1","2","5","5","5","5","4","4","5","4","5","5","6","6","6","8","7","6","6","7","7","6","7","6","7","7","7","6","1","7","6","1","6","7","7","7","6","6","7","7","6","7","6","7","7","7","6","7","7","7","7","7","7","6","7","7","7","7","7","7","5","7","656564688670162944","朱","106","Male","[""坏我"",""坏他"",""好我"",""好他""]","[""弱我"",""弱他"",""强我"",""强他""]","","","","","","","","no","","","","","","","","","SRET","EW_formal","","key","j","16.664607476635627","768","428","自己","无能","Negative","ability","","","","","","","","","","",""
"622","","f","psychophysics","75","342924","0.0-7.0-3.0-0.61","7","7","7","6","7","5","4","5","5","5","5","2","1","2","2","2","2","1","2","5","5","5","5","4","4","5","4","5","5","6","6","6","8","7","6","6","7","7","6","7","6","7","7","7","6","1","7","6","1","6","7","7","7","6","6","7","7","6","7","6","7","7","7","6","7","7","7","7","7","7","6","7","7","7","7","7","7","5","7","656564688670162944","朱","106","Male","[""坏我"",""坏他"",""好我"",""好他""]","[""弱我"",""弱他"",""强我"",""强他""]","","","","","","","","yes","","","","","","","","","SRET","EW_formal","","key","f","16.664812500000455","768","428","自己","稳健","Positive","ability","","","","","","","","","","",""
"1071","","f","psychophysics","76","344997","0.0-7.0-3.0-0.62","7","7","7","6","7","5","4","5","5","5","5","2","1","2","2","2","2","1","2","5","5","5","5","4","4","5","4","5","5","6","6","6","8","7","6","6","7","7","6","7","6","7","7","7","6","1","7","6","1","6","7","7","7","6","6","7","7","6","7","6","7","7","7","6","7","7","7","7","7","7","6","7","7","7","7","7","7","5","7","656564688670162944","朱","106","Male","[""坏我"",""坏他"",""好我"",""好他""]","[""弱我"",""弱他"",""强我"",""强他""]","","","","","","","","yes","","","","","","","","","SRET","EW_formal","","key","f","16.664406504065113","768","428","朋友","思辨","Positive","ability","","","","","","","","","","",""
"886","","j","psychophysics","77","346884","0.0-7.0-3.0-0.63","7","7","7","6","7","5","4","5","5","5","5","2","1","2","2","2","2","1","2","5","5","5","5","4","4","5","4","5","5","6","6","6","8","7","6","6","7","7","6","7","6","7","7","7","6","1","7","6","1","6","7","7","7","6","6","7","7","6","7","6","7","7","7","6","7","7","7","7","7","7","6","7","7","7","7","7","7","5","7","656564688670162944","朱","106","Male","[""坏我"",""坏他"",""好我"",""好他""]","[""弱我"",""弱他"",""强我"",""强他""]","","","","","","","","no","","","","","","","","","SRET","EW_formal","","key","j","16.66453982300879","768","428","自己","昏庸","Negative","ability","","","","","","","","","","",""
"535","","j","psychophysics","78","348420","0.0-7.0-3.0-0.64","7","7","7","6","7","5","4","5","5","5","5","2","1","2","2","2","2","1","2","5","5","5","5","4","4","5","4","5","5","6","6","6","8","7","6","6","7","7","6","7","6","7","7","7","6","1","7","6","1","6","7","7","7","6","6","7","7","6","7","6","7","7","7","6","7","7","7","7","7","7","6","7","7","7","7","7","7","5","7","656564688670162944","朱","106","Male","[""坏我"",""坏他"",""好我"",""好他""]","[""弱我"",""弱他"",""强我"",""强他""]","","","","","","","","no","","","","","","","","","SRET","EW_formal","","key","j","16.664560439560823","768","428","自己","不孝","Negative","morality","","","","","","","","","","",""
"1086","","j","psychophysics","79","350508","0.0-7.0-3.0-0.65","7","7","7","6","7","5","4","5","5","5","5","2","1","2","2","2","2","1","2","5","5","5","5","4","4","5","4","5","5","6","6","6","8","7","6","6","7","7","6","7","6","7","7","7","6","1","7","6","1","6","7","7","7","6","6","7","7","6","7","6","7","7","7","6","7","7","7","7","7","7","6","7","7","7","7","7","7","5","7","656564688670162944","朱","106","Male","[""坏我"",""坏他"",""好我"",""好他""]","[""弱我"",""弱他"",""强我"",""强他""]","","","","","","","","no","","","","","","","","","SRET","EW_formal","","key","j","16.664596774193342","768","428","朋友","腐败","Negative","morality","","","","","","","","","","",""
"869","","f","psychophysics","80","352380","0.0-7.0-3.0-0.66","7","7","7","6","7","5","4","5","5","5","5","2","1","2","2","2","2","1","2","5","5","5","5","4","4","5","4","5","5","6","6","6","8","7","6","6","7","7","6","7","6","7","7","7","6","1","7","6","1","6","7","7","7","6","6","7","7","6","7","6","7","7","7","6","7","7","7","7","7","7","6","7","7","7","7","7","7","5","7","656564688670162944","朱","106","Male","[""坏我"",""坏他"",""好我"",""好他""]","[""弱我"",""弱他"",""强我"",""强他""]","","","","","","","","yes","","","","","","","","","SRET","EW_formal","","key","f","16.664441441441152","768","428","朋友","厚道","Positive","morality","","","","","","","","","","",""
"655","","f","psychophysics","81","354036","0.0-7.0-3.0-0.67","7","7","7","6","7","5","4","5","5","5","5","2","1","2","2","2","2","1","2","5","5","5","5","4","4","5","4","5","5","6","6","6","8","7","6","6","7","7","6","7","6","7","7","7","6","1","7","6","1","6","7","7","7","6","6","7","7","6","7","6","7","7","7","6","7","7","7","7","7","7","6","7","7","7","7","7","7","5","7","656564688670162944","朱","106","Male","[""坏我"",""坏他"",""好我"",""好他""]","[""弱我"",""弱他"",""强我"",""强他""]","","","","","","","","yes","","","","","","","","","SRET","EW_formal","","key","f","16.664656565656927","768","428","朋友","毅力","Positive","ability","","","","","","","","","","",""
"1039","","f","psychophysics","82","356076","0.0-7.0-3.0-0.68","7","7","7","6","7","5","4","5","5","5","5","2","1","2","2","2","2","1","2","5","5","5","5","4","4","5","4","5","5","6","6","6","8","7","6","6","7","7","6","7","6","7","7","7","6","1","7","6","1","6","7","7","7","6","6","7","7","6","7","6","7","7","7","6","7","7","7","7","7","7","6","7","7","7","7","7","7","5","7","656564688670162944","朱","106","Male","[""坏我"",""坏他"",""好我"",""好他""]","[""弱我"",""弱他"",""强我"",""强他""]","","","","","","","","yes","","","","","","","","","SRET","EW_formal","","key","f","16.664685950413432","768","428","朋友","谦逊","Positive","morality","","","","","","","","","","",""
"814","","j","psychophysics","83","357892","0.0-7.0-3.0-0.69","7","7","7","6","7","5","4","5","5","5","5","2","1","2","2","2","2","1","2","5","5","5","5","4","4","5","4","5","5","6","6","6","8","7","6","6","7","7","6","7","6","7","7","7","6","1","7","6","1","6","7","7","7","6","6","7","7","6","7","6","7","7","7","6","7","7","7","7","7","7","6","7","7","7","7","7","7","5","7","656564688670162944","朱","106","Male","[""坏我"",""坏他"",""好我"",""好他""]","[""弱我"",""弱他"",""强我"",""强他""]","","","","","","","","no","","","","","","","","","SRET","EW_formal","","key","j","16.664592592592708","768","428","朋友","屈才","Negative","ability","","","","","","","","","","",""
"1070","","j","psychophysics","84","359964","0.0-7.0-3.0-0.70","7","7","7","6","7","5","4","5","5","5","5","2","1","2","2","2","2","1","2","5","5","5","5","4","4","5","4","5","5","6","6","6","8","7","6","6","7","7","6","7","6","7","7","7","6","1","7","6","1","6","7","7","7","6","6","7","7","6","7","6","7","7","7","6","7","7","7","7","7","7","6","7","7","7","7","7","7","5","7","656564688670162944","朱","106","Male","[""坏我"",""坏他"",""好我"",""好他""]","[""弱我"",""弱他"",""强我"",""强他""]","","","","","","","","no","","","","","","","","","SRET","EW_formal","","key","j","16.664829268292486","768","428","自己","逞强","Negative","ability","","","","","","","","","","",""
"926","","j","psychophysics","85","361892","0.0-7.0-3.0-0.71","7","7","7","6","7","5","4","5","5","5","5","2","1","2","2","2","2","1","2","5","5","5","5","4","4","5","4","5","5","6","6","6","8","7","6","6","7","7","6","7","6","7","7","7","6","1","7","6","1","6","7","7","7","6","6","7","7","6","7","6","7","7","7","6","7","7","7","7","7","7","6","7","7","7","7","7","7","5","7","656564688670162944","朱","106","Male","[""坏我"",""坏他"",""好我"",""好他""]","[""弱我"",""弱他"",""强我"",""强他""]","","","","","","","","no","","","","","","","","","SRET","EW_formal","","key","j","16.666243478261016","768","428","自己","拖拉","Negative","ability","","","","","","","","","","",""
"654","","j","psychophysics","86","363548","0.0-7.0-3.0-0.72","7","7","7","6","7","5","4","5","5","5","5","2","1","2","2","2","2","1","2","5","5","5","5","4","4","5","4","5","5","6","6","6","8","7","6","6","7","7","6","7","6","7","7","7","6","1","7","6","1","6","7","7","7","6","6","7","7","6","7","6","7","7","7","6","7","7","7","7","7","7","6","7","7","7","7","7","7","5","7","656564688670162944","朱","106","Male","[""坏我"",""坏他"",""好我"",""好他""]","[""弱我"",""弱他"",""强我"",""强他""]","","","","","","","","no","","","","","","","","","SRET","EW_formal","","key","j","16.665101010100727","768","428","朋友","愚钝","Negative","ability","","","","","","","","","","",""
"487","","f","psychophysics","87","365036","0.0-7.0-3.0-0.73","7","7","7","6","7","5","4","5","5","5","5","2","1","2","2","2","2","1","2","5","5","5","5","4","4","5","4","5","5","6","6","6","8","7","6","6","7","7","6","7","6","7","7","7","6","1","7","6","1","6","7","7","7","6","6","7","7","6","7","6","7","7","7","6","7","7","7","7","7","7","6","7","7","7","7","7","7","5","7","656564688670162944","朱","106","Male","[""坏我"",""坏他"",""好我"",""好他""]","[""弱我"",""弱他"",""强我"",""强他""]","","","","","","","","yes","","","","","","","","","SRET","EW_formal","","key","f","16.664659090908984","768","428","自己","热心","Positive","morality","","","","","","","","","","",""
"758","","j","psychophysics","88","366796","0.0-7.0-3.0-0.74","7","7","7","6","7","5","4","5","5","5","5","2","1","2","2","2","2","1","2","5","5","5","5","4","4","5","4","5","5","6","6","6","8","7","6","6","7","7","6","7","6","7","7","7","6","1","7","6","1","6","7","7","7","6","6","7","7","6","7","6","7","7","7","6","7","7","7","7","7","7","6","7","7","7","7","7","7","5","7","656564688670162944","朱","106","Male","[""坏我"",""坏他"",""好我"",""好他""]","[""弱我"",""弱他"",""强我"",""强他""]","","","","","","","","no","","","","","","","","","SRET","EW_formal","","key","j","16.664836538461365","768","428","朋友","废物","Negative","ability","","","","","","","","","","",""
"1095","","j","psychophysics","89","368892","0.0-7.0-3.0-0.75","7","7","7","6","7","5","4","5","5","5","5","2","1","2","2","2","2","1","2","5","5","5","5","4","4","5","4","5","5","6","6","6","8","7","6","6","7","7","6","7","6","7","7","7","6","1","7","6","1","6","7","7","7","6","6","7","7","6","7","6","7","7","7","6","7","7","7","7","7","7","6","7","7","7","7","7","7","5","7","656564688670162944","朱","106","Male","[""坏我"",""坏他"",""好我"",""好他""]","[""弱我"",""弱他"",""强我"",""强他""]","","","","","","","","no","","","","","","","","","SRET","EW_formal","","key","j","16.66467200000025","768","428","朋友","拖延","Negative","ability","","","","","","","","","","",""
"727","","f","psychophysics","90","370620","0.0-7.0-3.0-0.76","7","7","7","6","7","5","4","5","5","5","5","2","1","2","2","2","2","1","2","5","5","5","5","4","4","5","4","5","5","6","6","6","8","7","6","6","7","7","6","7","6","7","7","7","6","1","7","6","1","6","7","7","7","6","6","7","7","6","7","6","7","7","7","6","7","7","7","7","7","7","6","7","7","7","7","7","7","5","7","656564688670162944","朱","106","Male","[""坏我"",""坏他"",""好我"",""好他""]","[""弱我"",""弱他"",""强我"",""强他""]","","","","","","","","yes","","","","","","","","","SRET","EW_formal","","key","f","16.664611650485597","768","428","自己","义气","Positive","morality","","","","","","","","","","",""
"759","","f","psychophysics","91","372381","0.0-7.0-3.0-0.77","7","7","7","6","7","5","4","5","5","5","5","2","1","2","2","2","2","1","2","5","5","5","5","4","4","5","4","5","5","6","6","6","8","7","6","6","7","7","6","7","6","7","7","7","6","1","7","6","1","6","7","7","7","6","6","7","7","6","7","6","7","7","7","6","7","7","7","7","7","7","6","7","7","7","7","7","7","5","7","656564688670162944","朱","106","Male","[""坏我"",""坏他"",""好我"",""好他""]","[""弱我"",""弱他"",""强我"",""强他""]","","","","","","","","yes","","","","","","","","","SRET","EW_formal","","key","f","16.66605714285757","768","428","朋友","顶事","Positive","ability","","","","","","","","","","",""
"694","","j","psychophysics","92","374076","0.0-7.0-3.0-0.78","7","7","7","6","7","5","4","5","5","5","5","2","1","2","2","2","2","1","2","5","5","5","5","4","4","5","4","5","5","6","6","6","8","7","6","6","7","7","6","7","6","7","7","7","6","1","7","6","1","6","7","7","7","6","6","7","7","6","7","6","7","7","7","6","7","7","7","7","7","7","6","7","7","7","7","7","7","5","7","656564688670162944","朱","106","Male","[""坏我"",""坏他"",""好我"",""好他""]","[""弱我"",""弱他"",""强我"",""强他""]","","","","","","","","no","","","","","","","","","SRET","EW_formal","","key","j","16.664649999999675","768","428","朋友","狡狯","Negative","morality","","","","","","","","","","",""
"1254","","f","psychophysics","93","376332","0.0-7.0-3.0-0.79","7","7","7","6","7","5","4","5","5","5","5","2","1","2","2","2","2","1","2","5","5","5","5","4","4","5","4","5","5","6","6","6","8","7","6","6","7","7","6","7","6","7","7","7","6","1","7","6","1","6","7","7","7","6","6","7","7","6","7","6","7","7","7","6","7","7","7","7","7","7","6","7","7","7","7","7","7","5","7","656564688670162944","朱","106","Male","[""坏我"",""坏他"",""好我"",""好他""]","[""弱我"",""弱他"",""强我"",""强他""]","","","","","","","","yes","","","","","","","","","SRET","EW_formal","","key","f","16.66480000000016","768","428","自己","粗心","Negative","ability","","","","","","","","","","",""
"751","","f","psychophysics","94","378084","0.0-7.0-3.0-0.80","7","7","7","6","7","5","4","5","5","5","5","2","1","2","2","2","2","1","2","5","5","5","5","4","4","5","4","5","5","6","6","6","8","7","6","6","7","7","6","7","6","7","7","7","6","1","7","6","1","6","7","7","7","6","6","7","7","6","7","6","7","7","7","6","7","7","7","7","7","7","6","7","7","7","7","7","7","5","7","656564688670162944","朱","106","Male","[""坏我"",""坏他"",""好我"",""好他""]","[""弱我"",""弱他"",""强我"",""强他""]","","","","","","","","yes","","","","","","","","","SRET","EW_formal","","key","f","16.66429807692307","768","428","朋友","独立","Positive","ability","","","","","","","","","","",""
"1390","","j","psychophysics","95","380476","0.0-7.0-3.0-0.81","7","7","7","6","7","5","4","5","5","5","5","2","1","2","2","2","2","1","2","5","5","5","5","4","4","5","4","5","5","6","6","6","8","7","6","6","7","7","6","7","6","7","7","7","6","1","7","6","1","6","7","7","7","6","6","7","7","6","7","6","7","7","7","6","7","7","7","7","7","7","6","7","7","7","7","7","7","5","7","656564688670162944","朱","106","Male","[""坏我"",""坏他"",""好我"",""好他""]","[""弱我"",""弱他"",""强我"",""强他""]","","","","","","","","no","","","","","","","","","SRET","EW_formal","","key","j","16.664781690140675","768","428","朋友","庸碌","Negative","ability","","","","","","","","","","",""
"614","","f","psychophysics","96","382092","0.0-7.0-3.0-0.82","7","7","7","6","7","5","4","5","5","5","5","2","1","2","2","2","2","1","2","5","5","5","5","4","4","5","4","5","5","6","6","6","8","7","6","6","7","7","6","7","6","7","7","7","6","1","7","6","1","6","7","7","7","6","6","7","7","6","7","6","7","7","7","6","7","7","7","7","7","7","6","7","7","7","7","7","7","5","7","656564688670162944","朱","106","Male","[""坏我"",""坏他"",""好我"",""好他""]","[""弱我"",""弱他"",""强我"",""强他""]","","","","","","","","yes","","","","","","","","","SRET","EW_formal","","key","f","16.66449999999956","768","428","朋友","孝顺","Positive","morality","","","","","","","","","","",""
"894","","f","psychophysics","97","383988","0.0-7.0-3.0-0.83","7","7","7","6","7","5","4","5","5","5","5","2","1","2","2","2","2","1","2","5","5","5","5","4","4","5","4","5","5","6","6","6","8","7","6","6","7","7","6","7","6","7","7","7","6","1","7","6","1","6","7","7","7","6","6","7","7","6","7","6","7","7","7","6","7","7","7","7","7","7","6","7","7","7","7","7","7","5","7","656564688670162944","朱","106","Male","[""坏我"",""坏他"",""好我"",""好他""]","[""弱我"",""弱他"",""强我"",""强他""]","","","","","","","","yes","","","","","","","","","SRET","EW_formal","","key","f","16.664592920353872","768","428","朋友","礼貌","Positive","morality","","","","","","","","","","",""
"647","","f","psychophysics","98","385636","0.0-7.0-3.0-0.84","7","7","7","6","7","5","4","5","5","5","5","2","1","2","2","2","2","1","2","5","5","5","5","4","4","5","4","5","5","6","6","6","8","7","6","6","7","7","6","7","6","7","7","7","6","1","7","6","1","6","7","7","7","6","6","7","7","6","7","6","7","7","7","6","7","7","7","7","7","7","6","7","7","7","7","7","7","5","7","656564688670162944","朱","106","Male","[""坏我"",""坏他"",""好我"",""好他""]","[""弱我"",""弱他"",""强我"",""强他""]","","","","","","","","yes","","","","","","","","","SRET","EW_formal","","key","f","16.66479591836699","768","428","朋友","素养","Positive","morality","","","","","","","","","","",""
"710","","f","psychophysics","99","387348","0.0-7.0-3.0-0.85","7","7","7","6","7","5","4","5","5","5","5","2","1","2","2","2","2","1","2","5","5","5","5","4","4","5","4","5","5","6","6","6","8","7","6","6","7","7","6","7","6","7","7","7","6","1","7","6","1","6","7","7","7","6","6","7","7","6","7","6","7","7","7","6","7","7","7","7","7","7","6","7","7","7","7","7","7","5","7","656564688670162944","朱","106","Male","[""坏我"",""坏他"",""好我"",""好他""]","[""弱我"",""弱他"",""强我"",""强他""]","","","","","","","","yes","","","","","","","","","SRET","EW_formal","","key","f","16.664931372549344","768","428","自己","主见","Positive","ability","","","","","","","","","","",""
"927","","j","psychophysics","100","389276","0.0-7.0-3.0-0.86","7","7","7","6","7","5","4","5","5","5","5","2","1","2","2","2","2","1","2","5","5","5","5","4","4","5","4","5","5","6","6","6","8","7","6","6","7","7","6","7","6","7","7","7","6","1","7","6","1","6","7","7","7","6","6","7","7","6","7","6","7","7","7","6","7","7","7","7","7","7","6","7","7","7","7","7","7","5","7","656564688670162944","朱","106","Male","[""坏我"",""坏他"",""好我"",""好他""]","[""弱我"",""弱他"",""强我"",""强他""]","","","","","","","","no","","","","","","","","","SRET","EW_formal","","key","j","16.664464912280796","768","428","自己","缓慢","Negative","ability","","","","","","","","","","",""
"591","","j","psychophysics","101","390868","0.0-7.0-3.0-0.87","7","7","7","6","7","5","4","5","5","5","5","2","1","2","2","2","2","1","2","5","5","5","5","4","4","5","4","5","5","6","6","6","8","7","6","6","7","7","6","7","6","7","7","7","6","1","7","6","1","6","7","7","7","6","6","7","7","6","7","6","7","7","7","6","7","7","7","7","7","7","6","7","7","7","7","7","7","5","7","656564688670162944","朱","106","Male","[""坏我"",""坏他"",""好我"",""好他""]","[""弱我"",""弱他"",""强我"",""强他""]","","","","","","","","no","","","","","","","","","SRET","EW_formal","","key","j","16.664821052631535","768","428","朋友","低俗","Negative","morality","","","","","","","","","","",""
"61272","
    <p><div style='color:white;font-size:35px; line-height:20px;'>计算任务</div></p><br>
    <p><div style='color:red;font-size:25px; line-height:20px;'>接下来，您将看到一些四则运算题，<b>请从键盘选择 0-9 进行反应。</b></div></p>
    <p><div style='color:red;font-size:25px; line-height:20px;'>请尽可能快地进行计算，计算的速度和正确率将影响报酬的发放。</div></p>
    <p><div class='footer' style='color:white;font-size:25px; line-height:20px;'>如果对本实验还有不清楚之处，请立即向实验员咨询。</p><p style='color:white;font-size:25px; line-height:20px;'>如果您明白了规则：</p><p style='color:white;font-size:22px; line-height:20px;'>请按 继续 进入练习</p>
    </div>
    ","0","html-button-response","102","452141","0.0-7.0-4.0","7","7","7","6","7","5","4","5","5","5","5","2","1","2","2","2","2","1","2","5","5","5","5","4","4","5","4","5","5","6","6","6","8","7","6","6","7","7","6","7","6","7","7","7","6","1","7","6","1","6","7","7","7","6","6","7","7","6","7","6","7","7","7","6","7","7","7","7","7","7","6","7","7","7","7","7","7","5","7","656564688670162944","朱","106","Male","[""坏我"",""坏他"",""好我"",""好他""]","[""弱我"",""弱他"",""强我"",""强他""]","","","","","","","","","","","","","","","","","SRET_math","math_instructions","Mon Dec 25 2023 17:30:28 GMT+0800 (中国标准时间)","","","","","","","","","","","","","","","","","","","",""
"1838","","8","psychophysics","103","453980","0.0-7.0-5.0-0.0","7","7","7","6","7","5","4","5","5","5","5","2","1","2","2","2","2","1","2","5","5","5","5","4","4","5","4","5","5","6","6","6","8","7","6","6","7","7","6","7","6","7","7","7","6","1","7","6","1","6","7","7","7","6","6","7","7","6","7","6","7","7","7","6","7","7","7","7","7","7","6","7","7","7","7","7","7","5","7","656564688670162944","朱","106","Male","[""坏我"",""坏他"",""好我"",""好他""]","[""弱我"",""弱他"",""强我"",""强他""]","","","","","","","","8","","","","","","","","","SRET","SRET_math_calculate","","key","8","16.664754545454212","768","428","","","","","6+2= ?","8","1","","","","","","","",""
"1935","","8","psychophysics","104","455916","0.0-7.0-5.0-0.1","7","7","7","6","7","5","4","5","5","5","5","2","1","2","2","2","2","1","2","5","5","5","5","4","4","5","4","5","5","6","6","6","8","7","6","6","7","7","6","7","6","7","7","7","6","1","7","6","1","6","7","7","7","6","6","7","7","6","7","6","7","7","7","6","7","7","7","7","7","7","6","7","7","7","7","7","7","5","7","656564688670162944","朱","106","Male","[""坏我"",""坏他"",""好我"",""好他""]","[""弱我"",""弱他"",""强我"",""强他""]","","","","","","","","8","","","","","","","","","SRET","SRET_math_calculate","","key","8","16.66476521739159","768","428","","","","","50-42= ?","8","1","","","","","","","",""
"3007","","8","psychophysics","105","458924","0.0-7.0-5.0-0.2","7","7","7","6","7","5","4","5","5","5","5","2","1","2","2","2","2","1","2","5","5","5","5","4","4","5","4","5","5","6","6","6","8","7","6","6","7","7","6","7","6","7","7","7","6","1","7","6","1","6","7","7","7","6","6","7","7","6","7","6","7","7","7","6","7","7","7","7","7","7","6","7","7","7","7","7","7","5","7","656564688670162944","朱","106","Male","[""坏我"",""坏他"",""好我"",""好他""]","[""弱我"",""弱他"",""强我"",""强他""]","","","","","","","","8","","","","","","","","","SRET","SRET_math_calculate","","key","8","16.664755555555328","768","428","","","","","56/7= ?","8","1","","","","","","","",""
"1774","","7","psychophysics","106","460700","0.0-7.0-5.0-0.3","7","7","7","6","7","5","4","5","5","5","5","2","1","2","2","2","2","1","2","5","5","5","5","4","4","5","4","5","5","6","6","6","8","7","6","6","7","7","6","7","6","7","7","7","6","1","7","6","1","6","7","7","7","6","6","7","7","6","7","6","7","7","7","6","7","7","7","7","7","7","6","7","7","7","7","7","7","5","7","656564688670162944","朱","106","Male","[""坏我"",""坏他"",""好我"",""好他""]","[""弱我"",""弱他"",""强我"",""强他""]","","","","","","","","7","","","","","","","","","SRET","SRET_math_calculate","","key","7","16.664628571428224","768","428","","","","","8-1= ?","7","1","","","","","","","",""
"2111","","2","psychophysics","107","462812","0.0-7.0-5.0-0.4","7","7","7","6","7","5","4","5","5","5","5","2","1","2","2","2","2","1","2","5","5","5","5","4","4","5","4","5","5","6","6","6","8","7","6","6","7","7","6","7","6","7","7","7","6","1","7","6","1","6","7","7","7","6","6","7","7","6","7","6","7","7","7","6","7","7","7","7","7","7","6","7","7","7","7","7","7","5","7","656564688670162944","朱","106","Male","[""坏我"",""坏他"",""好我"",""好他""]","[""弱我"",""弱他"",""强我"",""强他""]","","","","","","","","2","","","","","","","","","SRET","SRET_math_calculate","","key","2","16.664714285713945","768","428","","","","","9-7= ?","2","1","","","","","","","",""
"1910","","2","psychophysics","108","464724","0.0-7.0-5.0-0.5","7","7","7","6","7","5","4","5","5","5","5","2","1","2","2","2","2","1","2","5","5","5","5","4","4","5","4","5","5","6","6","6","8","7","6","6","7","7","6","7","6","7","7","7","6","1","7","6","1","6","7","7","7","6","6","7","7","6","7","6","7","7","7","6","7","7","7","7","7","7","6","7","7","7","7","7","7","5","7","656564688670162944","朱","106","Male","[""坏我"",""坏他"",""好我"",""好他""]","[""弱我"",""弱他"",""强我"",""强他""]","","","","","","","","2","","","","","","","","","SRET","SRET_math_calculate","","key","2","16.665061403508606","768","428","","","","","8/4= ?","2","1","","","","","","","",""
"1816","","7","psychophysics","109","466541","0.0-7.0-5.0-0.6","7","7","7","6","7","5","4","5","5","5","5","2","1","2","2","2","2","1","2","5","5","5","5","4","4","5","4","5","5","6","6","6","8","7","6","6","7","7","6","7","6","7","7","7","6","1","7","6","1","6","7","7","7","6","6","7","7","6","7","6","7","7","7","6","7","7","7","7","7","7","6","7","7","7","7","7","7","5","7","656564688670162944","朱","106","Male","[""坏我"",""坏他"",""好我"",""好他""]","[""弱我"",""弱他"",""强我"",""强他""]","","","","","","","","7","","","","","","","","","SRET","SRET_math_calculate","","key","7","16.664935185184866","768","428","","","","","6+1= ?","7","1","","","","","","","",""
"1958","","3","psychophysics","110","468500","0.0-7.0-5.0-0.7","7","7","7","6","7","5","4","5","5","5","5","2","1","2","2","2","2","1","2","5","5","5","5","4","4","5","4","5","5","6","6","6","8","7","6","6","7","7","6","7","6","7","7","7","6","1","7","6","1","6","7","7","7","6","6","7","7","6","7","6","7","7","7","6","7","7","7","7","7","7","6","7","7","7","7","7","7","5","7","656564688670162944","朱","106","Male","[""坏我"",""坏他"",""好我"",""好他""]","[""弱我"",""弱他"",""强我"",""强他""]","","","","","","","","3","","","","","","","","","SRET","SRET_math_calculate","","key","3","16.66448275862083","768","428","","","","","21/7=  ?","3","1","","","","","","","",""
"1887","","9","psychophysics","111","470404","0.0-7.0-5.0-0.8","7","7","7","6","7","5","4","5","5","5","5","2","1","2","2","2","2","1","2","5","5","5","5","4","4","5","4","5","5","6","6","6","8","7","6","6","7","7","6","7","6","7","7","7","6","1","7","6","1","6","7","7","7","6","6","7","7","6","7","6","7","7","7","6","7","7","7","7","7","7","6","7","7","7","7","7","7","5","7","656564688670162944","朱","106","Male","[""坏我"",""坏他"",""好我"",""好他""]","[""弱我"",""弱他"",""强我"",""强他""]","","","","","","","","9","","","","","","","","","SRET","SRET_math_calculate","","key","9","16.664657894736912","768","428","","","","","18/2= ?","9","1","","","","","","","",""
"1846","","5","psychophysics","112","472252","0.0-7.0-5.0-0.9","7","7","7","6","7","5","4","5","5","5","5","2","1","2","2","2","2","1","2","5","5","5","5","4","4","5","4","5","5","6","6","6","8","7","6","6","7","7","6","7","6","7","7","7","6","1","7","6","1","6","7","7","7","6","6","7","7","6","7","6","7","7","7","6","7","7","7","7","7","7","6","7","7","7","7","7","7","5","7","656564688670162944","朱","106","Male","[""坏我"",""坏他"",""好我"",""好他""]","[""弱我"",""弱他"",""强我"",""强他""]","","","","","","","","5","","","","","","","","","SRET","SRET_math_calculate","","key","5","16.664736363636223","768","428","","","","","5/1= ?","5","1","","","","","","","",""
"1630","","5","psychophysics","113","473884","0.0-7.0-5.0-0.10","7","7","7","6","7","5","4","5","5","5","5","2","1","2","2","2","2","1","2","5","5","5","5","4","4","5","4","5","5","6","6","6","8","7","6","6","7","7","6","7","6","7","7","7","6","1","7","6","1","6","7","7","7","6","6","7","7","6","7","6","7","7","7","6","7","7","7","7","7","7","6","7","7","7","7","7","7","5","7","656564688670162944","朱","106","Male","[""坏我"",""坏他"",""好我"",""好他""]","[""弱我"",""弱他"",""强我"",""强他""]","","","","","","","","5","","","","","","","","","SRET","SRET_math_calculate","","key","5","16.664593750000375","768","428","","","","","2+3= ?","5","1","","","","","","","",""
"1991","","2","psychophysics","114","475877","0.0-7.0-5.0-0.11","7","7","7","6","7","5","4","5","5","5","5","2","1","2","2","2","2","1","2","5","5","5","5","4","4","5","4","5","5","6","6","6","8","7","6","6","7","7","6","7","6","7","7","7","6","1","7","6","1","6","7","7","7","6","6","7","7","6","7","6","7","7","7","6","7","7","7","7","7","7","6","7","7","7","7","7","7","5","7","656564688670162944","朱","106","Male","[""坏我"",""坏他"",""好我"",""好他""]","[""弱我"",""弱他"",""强我"",""强他""]","","","","","","","","2","","","","","","","","","SRET","SRET_math_calculate","","key","2","16.664689075630235","768","428","","","","","4*2= ?","8","0","","","","","","","",""
"2095","","5","psychophysics","115","477972","0.0-7.0-5.0-0.12","7","7","7","6","7","5","4","5","5","5","5","2","1","2","2","2","2","1","2","5","5","5","5","4","4","5","4","5","5","6","6","6","8","7","6","6","7","7","6","7","6","7","7","7","6","1","7","6","1","6","7","7","7","6","6","7","7","6","7","6","7","7","7","6","7","7","7","7","7","7","6","7","7","7","7","7","7","5","7","656564688670162944","朱","106","Male","[""坏我"",""坏他"",""好我"",""好他""]","[""弱我"",""弱他"",""强我"",""强他""]","","","","","","","","5","","","","","","","","","SRET","SRET_math_calculate","","key","5","16.665055999999865","768","428","","","","","12-7= ?","5","1","","","","","","","",""
"1719","","5","psychophysics","116","479692","0.0-7.0-5.0-0.13","7","7","7","6","7","5","4","5","5","5","5","2","1","2","2","2","2","1","2","5","5","5","5","4","4","5","4","5","5","6","6","6","8","7","6","6","7","7","6","7","6","7","7","7","6","1","7","6","1","6","7","7","7","6","6","7","7","6","7","6","7","7","7","6","7","7","7","7","7","7","6","7","7","7","7","7","7","5","7","656564688670162944","朱","106","Male","[""坏我"",""坏他"",""好我"",""好他""]","[""弱我"",""弱他"",""强我"",""强他""]","","","","","","","","5","","","","","","","","","SRET","SRET_math_calculate","","key","5","16.665343137254812","768","428","","","","","8-3= ? ","5","1","","","","","","","",""
"1663","","4","psychophysics","117","481356","0.0-7.0-5.0-0.14","7","7","7","6","7","5","4","5","5","5","5","2","1","2","2","2","2","1","2","5","5","5","5","4","4","5","4","5","5","6","6","6","8","7","6","6","7","7","6","7","6","7","7","7","6","1","7","6","1","6","7","7","7","6","6","7","7","6","7","6","7","7","7","6","7","7","7","7","7","7","6","7","7","7","7","7","7","5","7","656564688670162944","朱","106","Male","[""坏我"",""坏他"",""好我"",""好他""]","[""弱我"",""弱他"",""强我"",""强他""]","","","","","","","","4","","","","","","","","","SRET","SRET_math_calculate","","key","4","16.665010101010203","768","428","","","","","2+2= ?","4","1","","","","","","","",""
"1758","","2","psychophysics","118","483132","0.0-7.0-5.0-0.15","7","7","7","6","7","5","4","5","5","5","5","2","1","2","2","2","2","1","2","5","5","5","5","4","4","5","4","5","5","6","6","6","8","7","6","6","7","7","6","7","6","7","7","7","6","1","7","6","1","6","7","7","7","6","6","7","7","6","7","6","7","7","7","6","7","7","7","7","7","7","6","7","7","7","7","7","7","5","7","656564688670162944","朱","106","Male","[""坏我"",""坏他"",""好我"",""好他""]","[""弱我"",""弱他"",""强我"",""强他""]","","","","","","","","2","","","","","","","","","SRET","SRET_math_calculate","","key","2","16.66470476190471","768","428","","","","","29-27= ?","2","1","","","","","","","",""
"1682","","2","psychophysics","119","484816","0.0-7.0-5.0-0.16","7","7","7","6","7","5","4","5","5","5","5","2","1","2","2","2","2","1","2","5","5","5","5","4","4","5","4","5","5","6","6","6","8","7","6","6","7","7","6","7","6","7","7","7","6","1","7","6","1","6","7","7","7","6","6","7","7","6","7","6","7","7","7","6","7","7","7","7","7","7","6","7","7","7","7","7","7","5","7","656564688670162944","朱","106","Male","[""坏我"",""坏他"",""好我"",""好他""]","[""弱我"",""弱他"",""强我"",""强他""]","","","","","","","","2","","","","","","","","","SRET","SRET_math_calculate","","key","2","16.66469000000041","768","428","","","","","19-17= ?","2","1","","","","","","","",""
"1658","","5","psychophysics","120","486477","0.0-7.0-5.0-0.17","7","7","7","6","7","5","4","5","5","5","5","2","1","2","2","2","2","1","2","5","5","5","5","4","4","5","4","5","5","6","6","6","8","7","6","6","7","7","6","7","6","7","7","7","6","1","7","6","1","6","7","7","7","6","6","7","7","6","7","6","7","7","7","6","7","7","7","7","7","7","6","7","7","7","7","7","7","5","7","656564688670162944","朱","106","Male","[""坏我"",""坏他"",""好我"",""好他""]","[""弱我"",""弱他"",""强我"",""强他""]","","","","","","","","5","","","","","","","","","SRET","SRET_math_calculate","","key","5","16.66473737373746","768","428","","","","","3+2= ?","5","1","","","","","","","",""
"1782","","8","psychophysics","121","488260","0.0-7.0-5.0-0.18","7","7","7","6","7","5","4","5","5","5","5","2","1","2","2","2","2","1","2","5","5","5","5","4","4","5","4","5","5","6","6","6","8","7","6","6","7","7","6","7","6","7","7","7","6","1","7","6","1","6","7","7","7","6","6","7","7","6","7","6","7","7","7","6","7","7","7","7","7","7","6","7","7","7","7","7","7","5","7","656564688670162944","朱","106","Male","[""坏我"",""坏他"",""好我"",""好他""]","[""弱我"",""弱他"",""强我"",""强他""]","","","","","","","","8","","","","","","","","","SRET","SRET_math_calculate","","key","8","16.66458490566034","768","428","","","","","1*8= ?","8","1","","","","","","","",""
"1799","","3","psychophysics","122","490060","0.0-7.0-5.0-0.19","7","7","7","6","7","5","4","5","5","5","5","2","1","2","2","2","2","1","2","5","5","5","5","4","4","5","4","5","5","6","6","6","8","7","6","6","7","7","6","7","6","7","7","7","6","1","7","6","1","6","7","7","7","6","6","7","7","6","7","6","7","7","7","6","7","7","7","7","7","7","6","7","7","7","7","7","7","5","7","656564688670162944","朱","106","Male","[""坏我"",""坏他"",""好我"",""好他""]","[""弱我"",""弱他"",""强我"",""强他""]","","","","","","","","3","","","","","","","","","SRET","SRET_math_calculate","","key","3","16.66488785046712","768","428","","","","","6/2= ?","3","1","","","","","","","",""
"1759","","9","psychophysics","123","491836","0.0-7.0-5.0-0.20","7","7","7","6","7","5","4","5","5","5","5","2","1","2","2","2","2","1","2","5","5","5","5","4","4","5","4","5","5","6","6","6","8","7","6","6","7","7","6","7","6","7","7","7","6","1","7","6","1","6","7","7","7","6","6","7","7","6","7","6","7","7","7","6","7","7","7","7","7","7","6","7","7","7","7","7","7","5","7","656564688670162944","朱","106","Male","[""坏我"",""坏他"",""好我"",""好他""]","[""弱我"",""弱他"",""强我"",""强他""]","","","","","","","","9","","","","","","","","","SRET","SRET_math_calculate","","key","9","16.664490566037614","768","428","","","","","7+2= ?","9","1","","","","","","","",""
"1743","","9","psychophysics","124","493580","0.0-7.0-5.0-0.21","7","7","7","6","7","5","4","5","5","5","5","2","1","2","2","2","2","1","2","5","5","5","5","4","4","5","4","5","5","6","6","6","8","7","6","6","7","7","6","7","6","7","7","7","6","1","7","6","1","6","7","7","7","6","6","7","7","6","7","6","7","7","7","6","7","7","7","7","7","7","6","7","7","7","7","7","7","5","7","656564688670162944","朱","106","Male","[""坏我"",""坏他"",""好我"",""好他""]","[""弱我"",""弱他"",""强我"",""强他""]","","","","","","","","9","","","","","","","","","SRET","SRET_math_calculate","","key","9","16.66476699029145","768","428","","","","","1+8= ?","9","1","","","","","","","",""
"1888","","2","psychophysics","125","495486","0.0-7.0-5.0-0.22","7","7","7","6","7","5","4","5","5","5","5","2","1","2","2","2","2","1","2","5","5","5","5","4","4","5","4","5","5","6","6","6","8","7","6","6","7","7","6","7","6","7","7","7","6","1","7","6","1","6","7","7","7","6","6","7","7","6","7","6","7","7","7","6","7","7","7","7","7","7","6","7","7","7","7","7","7","5","7","656564688670162944","朱","106","Male","[""坏我"",""坏他"",""好我"",""好他""]","[""弱我"",""弱他"",""强我"",""强他""]","","","","","","","","2","","","","","","","","","SRET","SRET_math_calculate","","key","2","16.664921052631893","768","428","","","","","22/11= ?","2","1","","","","","","","",""
"1741","","9","psychophysics","126","497228","0.0-7.0-5.0-0.23","7","7","7","6","7","5","4","5","5","5","5","2","1","2","2","2","2","1","2","5","5","5","5","4","4","5","4","5","5","6","6","6","8","7","6","6","7","7","6","7","6","7","7","7","6","1","7","6","1","6","7","7","7","6","6","7","7","6","7","6","7","7","7","6","7","7","7","7","7","7","6","7","7","7","7","7","7","5","7","656564688670162944","朱","106","Male","[""坏我"",""坏他"",""好我"",""好他""]","[""弱我"",""弱他"",""强我"",""强他""]","","","","","","","","9","","","","","","","","","SRET","SRET_math_calculate","","key","9","16.664893203883462","768","428","","","","","1+8= ?","9","1","","","","","","","",""
"1711","","6","psychophysics","127","498940","0.0-7.0-5.0-0.24","7","7","7","6","7","5","4","5","5","5","5","2","1","2","2","2","2","1","2","5","5","5","5","4","4","5","4","5","5","6","6","6","8","7","6","6","7","7","6","7","6","7","7","7","6","1","7","6","1","6","7","7","7","6","6","7","7","6","7","6","7","7","7","6","7","7","7","7","7","7","6","7","7","7","7","7","7","5","7","656564688670162944","朱","106","Male","[""坏我"",""坏他"",""好我"",""好他""]","[""弱我"",""弱他"",""强我"",""强他""]","","","","","","","","6","","","","","","","","","SRET","SRET_math_calculate","","key","6","16.66437254901964","768","428","","","","","11-5= ?","6","1","","","","","","","",""
"1807","","2","psychophysics","128","500749","0.0-7.0-5.0-0.25","7","7","7","6","7","5","4","5","5","5","5","2","1","2","2","2","2","1","2","5","5","5","5","4","4","5","4","5","5","6","6","6","8","7","6","6","7","7","6","7","6","7","7","7","6","1","7","6","1","6","7","7","7","6","6","7","7","6","7","6","7","7","7","6","7","7","7","7","7","7","6","7","7","7","7","7","7","5","7","656564688670162944","朱","106","Male","[""坏我"",""坏他"",""好我"",""好他""]","[""弱我"",""弱他"",""强我"",""强他""]","","","","","","","","2","","","","","","","","","SRET","SRET_math_calculate","","key","2","16.664638888888508","768","428","","","","","8-6= ?","2","1","","","","","","","",""
"1702","","7","psychophysics","129","502452","0.0-7.0-5.0-0.26","7","7","7","6","7","5","4","5","5","5","5","2","1","2","2","2","2","1","2","5","5","5","5","4","4","5","4","5","5","6","6","6","8","7","6","6","7","7","6","7","6","7","7","7","6","1","7","6","1","6","7","7","7","6","6","7","7","6","7","6","7","7","7","6","7","7","7","7","7","7","6","7","7","7","7","7","7","5","7","656564688670162944","朱","106","Male","[""坏我"",""坏他"",""好我"",""好他""]","[""弱我"",""弱他"",""强我"",""强他""]","","","","","","","","7","","","","","","","","","SRET","SRET_math_calculate","","key","7","16.66426732673282","768","428","","","","","5+2= ?","7","1","","","","","","","",""
"1783","","3","psychophysics","130","504236","0.0-7.0-5.0-0.27","7","7","7","6","7","5","4","5","5","5","5","2","1","2","2","2","2","1","2","5","5","5","5","4","4","5","4","5","5","6","6","6","8","7","6","6","7","7","6","7","6","7","7","7","6","1","7","6","1","6","7","7","7","6","6","7","7","6","7","6","7","7","7","6","7","7","7","7","7","7","6","7","7","7","7","7","7","5","7","656564688670162944","朱","106","Male","[""坏我"",""坏他"",""好我"",""好他""]","[""弱我"",""弱他"",""强我"",""强他""]","","","","","","","","3","","","","","","","","","SRET","SRET_math_calculate","","key","3","16.664632075471708","768","428","","","","","1+2= ?","3","1","","","","","","","",""
"1871","","9","psychophysics","131","506109","0.0-7.0-5.0-0.28","7","7","7","6","7","5","4","5","5","5","5","2","1","2","2","2","2","1","2","5","5","5","5","4","4","5","4","5","5","6","6","6","8","7","6","6","7","7","6","7","6","7","7","7","6","1","7","6","1","6","7","7","7","6","6","7","7","6","7","6","7","7","7","6","7","7","7","7","7","7","6","7","7","7","7","7","7","5","7","656564688670162944","朱","106","Male","[""坏我"",""坏他"",""好我"",""好他""]","[""弱我"",""弱他"",""强我"",""强他""]","","","","","","","","9","","","","","","","","","SRET","SRET_math_calculate","","key","9","16.665234234233843","768","428","","","","","4+5= ?","9","1","","","","","","","",""
"1886","","0","psychophysics","132","507996","0.0-7.0-5.0-0.29","7","7","7","6","7","5","4","5","5","5","5","2","1","2","2","2","2","1","2","5","5","5","5","4","4","5","4","5","5","6","6","6","8","7","6","6","7","7","6","7","6","7","7","7","6","1","7","6","1","6","7","7","7","6","6","7","7","6","7","6","7","7","7","6","7","7","7","7","7","7","6","7","7","7","7","7","7","5","7","656564688670162944","朱","106","Male","[""坏我"",""坏他"",""好我"",""好他""]","[""弱我"",""弱他"",""强我"",""强他""]","","","","","","","","0","","","","","","","","","SRET","SRET_math_calculate","","key","0","16.664455357142806","768","428","","","","","6*0= ?","0","1","","","","","","","",""
"1894","","2","psychophysics","133","509893","0.0-7.0-5.0-0.30","7","7","7","6","7","5","4","5","5","5","5","2","1","2","2","2","2","1","2","5","5","5","5","4","4","5","4","5","5","6","6","6","8","7","6","6","7","7","6","7","6","7","7","7","6","1","7","6","1","6","7","7","7","6","6","7","7","6","7","6","7","7","7","6","7","7","7","7","7","7","6","7","7","7","7","7","7","5","7","656564688670162944","朱","106","Male","[""坏我"",""坏他"",""好我"",""好他""]","[""弱我"",""弱他"",""强我"",""强他""]","","","","","","","","2","","","","","","","","","SRET","SRET_math_calculate","","key","2","16.664628318584096","768","428","","","","","18/9= ?","2","1","","","","","","","",""
"1758","","3","psychophysics","134","511652","0.0-7.0-5.0-0.31","7","7","7","6","7","5","4","5","5","5","5","2","1","2","2","2","2","1","2","5","5","5","5","4","4","5","4","5","5","6","6","6","8","7","6","6","7","7","6","7","6","7","7","7","6","1","7","6","1","6","7","7","7","6","6","7","7","6","7","6","7","7","7","6","7","7","7","7","7","7","6","7","7","7","7","7","7","5","7","656564688670162944","朱","106","Male","[""坏我"",""坏他"",""好我"",""好他""]","[""弱我"",""弱他"",""强我"",""强他""]","","","","","","","","3","","","","","","","","","SRET","SRET_math_calculate","","key","3","16.66477142857177","768","428","","","","","8-5= ?","3","1","","","","","","","",""
"1775","","8","psychophysics","135","513428","0.0-7.0-5.0-0.32","7","7","7","6","7","5","4","5","5","5","5","2","1","2","2","2","2","1","2","5","5","5","5","4","4","5","4","5","5","6","6","6","8","7","6","6","7","7","6","7","6","7","7","7","6","1","7","6","1","6","7","7","7","6","6","7","7","6","7","6","7","7","7","6","7","7","7","7","7","7","6","7","7","7","7","7","7","5","7","656564688670162944","朱","106","Male","[""坏我"",""坏他"",""好我"",""好他""]","[""弱我"",""弱他"",""强我"",""强他""]","","","","","","","","8","","","","","","","","","SRET","SRET_math_calculate","","key","8","16.664295238095136","768","428","","","","","3+5= ?","8","1","","","","","","","",""
"1655","","6","psychophysics","136","515085","0.0-7.0-5.0-0.33","7","7","7","6","7","5","4","5","5","5","5","2","1","2","2","2","2","1","2","5","5","5","5","4","4","5","4","5","5","6","6","6","8","7","6","6","7","7","6","7","6","7","7","7","6","1","7","6","1","6","7","7","7","6","6","7","7","6","7","6","7","7","7","6","7","7","7","7","7","7","6","7","7","7","7","7","7","5","7","656564688670162944","朱","106","Male","[""坏我"",""坏他"",""好我"",""好他""]","[""弱我"",""弱他"",""强我"",""强他""]","","","","","","","","6","","","","","","","","","SRET","SRET_math_calculate","","key","6","16.664545454545244","768","428","","","","","5+1= ?","6","1","","","","","","","",""
"1895","","1","psychophysics","137","516981","0.0-7.0-5.0-0.34","7","7","7","6","7","5","4","5","5","5","5","2","1","2","2","2","2","1","2","5","5","5","5","4","4","5","4","5","5","6","6","6","8","7","6","6","7","7","6","7","6","7","7","7","6","1","7","6","1","6","7","7","7","6","6","7","7","6","7","6","7","7","7","6","7","7","7","7","7","7","6","7","7","7","7","7","7","5","7","656564688670162944","朱","106","Male","[""坏我"",""坏他"",""好我"",""好他""]","[""弱我"",""弱他"",""强我"",""强他""]","","","","","","","","1","","","","","","","","","SRET","SRET_math_calculate","","key","1","16.664654867256377","768","428","","","","","10-9= ?","1","1","","","","","","","",""
"1918","","7","psychophysics","138","518900","0.0-7.0-5.0-0.35","7","7","7","6","7","5","4","5","5","5","5","2","1","2","2","2","2","1","2","5","5","5","5","4","4","5","4","5","5","6","6","6","8","7","6","6","7","7","6","7","6","7","7","7","6","1","7","6","1","6","7","7","7","6","6","7","7","6","7","6","7","7","7","6","7","7","7","7","7","7","6","7","7","7","7","7","7","5","7","656564688670162944","朱","106","Male","[""坏我"",""坏他"",""好我"",""好他""]","[""弱我"",""弱他"",""强我"",""强他""]","","","","","","","","7","","","","","","","","","SRET","SRET_math_calculate","","key","7","16.664929824561113","768","428","","","","","7*1=  ?","7","1","","","","","","","",""
"1783","","8","psychophysics","139","520684","0.0-7.0-5.0-0.36","7","7","7","6","7","5","4","5","5","5","5","2","1","2","2","2","2","1","2","5","5","5","5","4","4","5","4","5","5","6","6","6","8","7","6","6","7","7","6","7","6","7","7","7","6","1","7","6","1","6","7","7","7","6","6","7","7","6","7","6","7","7","7","6","7","7","7","7","7","7","6","7","7","7","7","7","7","5","7","656564688670162944","朱","106","Male","[""坏我"",""坏他"",""好我"",""好他""]","[""弱我"",""弱他"",""强我"",""强他""]","","","","","","","","8","","","","","","","","","SRET","SRET_math_calculate","","key","8","16.665066037735603","768","428","","","","","2+6= ?","8","1","","","","","","","",""
"1679","","9","psychophysics","140","522365","0.0-7.0-5.0-0.37","7","7","7","6","7","5","4","5","5","5","5","2","1","2","2","2","2","1","2","5","5","5","5","4","4","5","4","5","5","6","6","6","8","7","6","6","7","7","6","7","6","7","7","7","6","1","7","6","1","6","7","7","7","6","6","7","7","6","7","6","7","7","7","6","7","7","7","7","7","7","6","7","7","7","7","7","7","5","7","656564688670162944","朱","106","Male","[""坏我"",""坏他"",""好我"",""好他""]","[""弱我"",""弱他"",""强我"",""强他""]","","","","","","","","9","","","","","","","","","SRET","SRET_math_calculate","","key","9","16.664839999999966","768","428","","","","","6+3= ?","9","1","","","","","","","",""
"1726","","5","psychophysics","141","524092","0.0-7.0-5.0-0.38","7","7","7","6","7","5","4","5","5","5","5","2","1","2","2","2","2","1","2","5","5","5","5","4","4","5","4","5","5","6","6","6","8","7","6","6","7","7","6","7","6","7","7","7","6","1","7","6","1","6","7","7","7","6","6","7","7","6","7","6","7","7","7","6","7","7","7","7","7","7","6","7","7","7","7","7","7","5","7","656564688670162944","朱","106","Male","[""坏我"",""坏他"",""好我"",""好他""]","[""弱我"",""弱他"",""强我"",""强他""]","","","","","","","","5","","","","","","","","","SRET","SRET_math_calculate","","key","5","16.664588235294122","768","428","","","","","10-5= ?","5","1","","","","","","","",""
"1751","","8","psychophysics","142","525844","0.0-7.0-5.0-0.39","7","7","7","6","7","5","4","5","5","5","5","2","1","2","2","2","2","1","2","5","5","5","5","4","4","5","4","5","5","6","6","6","8","7","6","6","7","7","6","7","6","7","7","7","6","1","7","6","1","6","7","7","7","6","6","7","7","6","7","6","7","7","7","6","7","7","7","7","7","7","6","7","7","7","7","7","7","5","7","656564688670162944","朱","106","Male","[""坏我"",""坏他"",""好我"",""好他""]","[""弱我"",""弱他"",""强我"",""强他""]","","","","","","","","8","","","","","","","","","SRET","SRET_math_calculate","","key","8","16.664605769230267","768","428","","","","","13-5= ?","8","1","","","","","","","",""
