"rt","stimulus","response","trial_type","trial_index","time_elapsed","internal_node_id","swb_1","swb_2","swb_3","swb_4","swb_5","LOT_1","LOT_2","LOT_3","LOT_4","LOT_5","LOT_6","IPC_1","IPC_2","IPC_3","IPC_4","IPC_5","IPC_6","IPC_7","IPC_8","MorIden_1","MorIden_2","MorIden_3","MorIden_4","MorIden_5","MorIden_6","MorIden_7","MorIden_8","MorIden_9","MorIden_10","moralSeImag_1","moralSeImag_2","moralSeImag_3","moralSeImag_4","moralSeImag_5","moralSeImag_6","moralSeImag_7","moralSeImag_8","moralSeImag_9","sde_1","sde_2","sde_3","sde_4","sde_5","sde_6","sde_7","sde_8","sde_9","sde_10","trap2","sde_11","sde_12","sde_13","sde_14","sde_15","sde_16","sde_17","sde_18","sde_19","sde_20","IM_1","IM_2","IM_3","IM_4","IM_5","IM_6","IM_7","IM_8","IM_9","IM_10","IM_11","IM_12","IM_13","IM_14","IM_15","IM_16","IM_17","IM_18","IM_19","IM_20","subj_idx","friend_name","ParticipantID","Sex","Word","Word2","value","success","timeout","failed_images","failed_audio","failed_video","user_agent","responses","item_order","radio_event_ids","radio_event_times","key_event_times","mouse_event_times","straightlining","zigzagging","honeypot","task_id","screen_id","time_stamp","response_type","key_press","avg_frame_time","center_x","center_y","person","word","valence","domain","math","correct_response","correct","status","identity","view_history","duration","Image","condition","question_order","trap2_item"
"3348","
   <p><div style='color:white; font-size: 25px'>您好，欢迎参加本次实验。</div></p>
   <p><div style='color:white; font-size: 25px'>为充分保障您的权利，请确保您已经知晓并同意《参与实验同意书》以及《数据公开知情同意书》。</div></p>
   <p><div style='color:white; font-size: 25px'>如果您未见过上述内容，请咨询实验员。</div></p>
   <p style='color:white; font-size: 25px'>如果您选择继续实验，则表示您已经清楚两份知情同意书的内容并同意。</p>
   <p><div style = ""color: pink;font-size:30px;"">请确保您记得day0的实验编号，您将在本次实验输入该编号，若您忘记，请咨询实验员后作答。</div></p>
   <p><div style = ""color:lightblue;font-size:25px;"">请您尽可能认真地作答，我们将依据您在各问卷和按键任务中的作答质量发放报酬。</div></p>
   <p> <div style = ""color: green""><按空格键至下页></div> </p>
   "," ","html-keyboard-response","0","3351","0.0-0.0","7","7","7","7","7","5","5","5","5","5","5","2","0","2","1","2","2","2","2","5","5","5","5","4","5","5","5","4","4","7","7","6","6","5","5","6","8","7","6","6","7","7","7","7","6","1","6","7","1","7","6","7","7","6","6","7","7","7","7","6","7","7","6","6","7","7","7","7","7","7","6","7","7","7","7","7","7","6","5","598892418162491392","何","590","Female","[""好她"",""坏我"",""好我"",""坏她""]","[""强她"",""弱我"",""强我"",""弱她""]","","","","","","","","","","","","","","","","","","","","","","","","","","","","","","","","","","","","","","",""
"","","","call-function","1","3353","0.0-1.0-0.0","7","7","7","7","7","5","5","5","5","5","5","2","0","2","1","2","2","2","2","5","5","5","5","4","5","5","5","4","4","7","7","6","6","5","5","6","8","7","6","6","7","7","7","7","6","1","6","7","1","7","6","7","7","6","6","7","7","7","7","6","7","7","6","6","7","7","7","7","7","7","6","7","7","7","7","7","7","6","5","598892418162491392","何","590","Female","[""好她"",""坏我"",""好我"",""坏她""]","[""强她"",""弱我"",""强我"",""弱她""]","","","","","","","","","","","","","","","","","","","","","","","","","","","","","","","","","","","","","","",""
"20730","","[{""name"":""Sex"",""value"":""1""},{""name"":""friend_name"",""value"":""何""},{""name"":""ParticipantID"",""value"":""590""}]","survey-html-form","2","24083","0.0-1.0-1.0","7","7","7","7","7","5","5","5","5","5","5","2","0","2","1","2","2","2","2","5","5","5","5","4","5","5","5","4","4","7","7","6","6","5","5","6","8","7","6","6","7","7","7","7","6","1","6","7","1","7","6","7","7","6","6","7","7","7","7","6","7","7","6","6","7","7","7","7","7","7","6","7","7","7","7","7","7","6","5","598892418162491392","何","590","Female","[""好她"",""坏我"",""好我"",""坏她""]","[""强她"",""弱我"",""强我"",""弱她""]","","","","","","","","","","","","","","","","","","","","","","","","","","","","","","","","","","","","","","",""
"","","","preload","3","24332","0.0-2.0","7","7","7","7","7","5","5","5","5","5","5","2","0","2","1","2","2","2","2","5","5","5","5","4","5","5","5","4","4","7","7","6","6","5","5","6","8","7","6","6","7","7","7","7","6","1","6","7","1","7","6","7","7","6","6","7","7","7","7","6","7","7","6","6","7","7","7","7","7","7","6","7","7","7","7","7","7","6","5","598892418162491392","何","590","Female","[""好她"",""坏我"",""好我"",""坏她""]","[""强她"",""弱我"",""强我"",""弱她""]","","true","false","[]","[]","[]","","","","","","","","","","","","","","","","","","","","","","","","","","","","","","","","",""
"","","","fullscreen","4","25487","0.0-3.0","7","7","7","7","7","5","5","5","5","5","5","2","0","2","1","2","2","2","2","5","5","5","5","4","5","5","5","4","4","7","7","6","6","5","5","6","8","7","6","6","7","7","7","7","6","1","6","7","1","7","6","7","7","6","6","7","7","7","7","6","7","7","6","6","7","7","7","7","7","7","6","7","7","7","7","7","7","6","5","598892418162491392","何","590","Female","[""好她"",""坏我"",""好我"",""坏她""]","[""强她"",""弱我"",""强我"",""弱她""]","","true","","","","","{}","","","","","","","","","","","","","","","","","","","","","","","","","","","","","","","",""
"13562.5","","{""Q01"":""7"",""Q02"":""7"",""Q03"":""7"",""Q04"":""7"",""Q05"":""7""}","survey-template","5","39051","0.0-4.0","7","7","7","7","7","5","5","5","5","5","5","2","0","2","1","2","2","2","2","5","5","5","5","4","5","5","5","4","4","7","7","6","6","5","5","6","8","7","6","6","7","7","7","7","6","1","6","7","1","7","6","7","7","6","6","7","7","7","7","6","7","7","6","6","7","7","7","7","7","7","6","7","7","7","7","7","7","6","5","598892418162491392","何","590","Female","[""好她"",""坏我"",""好我"",""坏她""]","[""强她"",""弱我"",""强我"",""弱她""]","","","","","","","","{""Q01"":""7"",""Q02"":""7"",""Q03"":""7"",""Q04"":""7"",""Q05"":""7""}","[0,1,2,3,4]","[""Q01"",""Q02"",""Q03"",""Q04"",""Q05"",""Q04""]","[1570.5,2137.7000007629395,3449.6000003814697,5051,6939.5,8634.10000038147]","[]","[1570.5,2137.7000007629395,3449.6000003814697,4714.10000038147,5051,6939.5,8634.10000038147,13561.70000076294]","1","0","0","","","","","","","","","","","","","","","","","","","","","","",""
"48197","","{""Q01"":""5"",""Q02"":""5"",""Q03"":""5"",""Q04"":""5"",""Q05"":""5"",""Q06"":""5""}","survey-template","6","87252","0.0-5.0","7","7","7","7","7","5","5","5","5","5","5","2","0","2","1","2","2","2","2","5","5","5","5","4","5","5","5","4","4","7","7","6","6","5","5","6","8","7","6","6","7","7","7","7","6","1","6","7","1","7","6","7","7","6","6","7","7","7","7","6","7","7","6","6","7","7","7","7","7","7","6","7","7","7","7","7","7","6","5","598892418162491392","何","590","Female","[""好她"",""坏我"",""好我"",""坏她""]","[""强她"",""弱我"",""强我"",""弱她""]","","","","","","","","{""Q01"":""5"",""Q02"":""5"",""Q03"":""5"",""Q04"":""5"",""Q05"":""5"",""Q06"":""5""}","[0,1,2,3,4,5]","[""Q03"",""Q05"",""Q04"",""Q06"",""Q01"",""Q02""]","[1771.8999996185303,3827.699998855591,4564.10000038147,6067.699998855591,7395.89999961853,9739.79999923706]","[]","[1771.8999996185303,2868.8999996185303,3251.7999992370605,3827.699998855591,4564.10000038147,6067.699998855591,7395.89999961853,7796.39999961853,9323.69999885559,9739.79999923706,48196.29999923706]","0.5","0.8","0","","","","","","","","","","","","","","","","","","","","","","",""
"12260","","{""Q01"":""2"",""Q02"":""0"",""Q03"":""2"",""Q04"":""1"",""Q05"":""2"",""Q06"":""2"",""Q07"":""2"",""Q08"":""2""}","survey-template","7","99516","0.0-6.0","7","7","7","7","7","5","5","5","5","5","5","2","0","2","1","2","2","2","2","5","5","5","5","4","5","5","5","4","4","7","7","6","6","5","5","6","8","7","6","6","7","7","7","7","6","1","6","7","1","7","6","7","7","6","6","7","7","7","7","6","7","7","6","6","7","7","7","7","7","7","6","7","7","7","7","7","7","6","5","598892418162491392","何","590","Female","[""好她"",""坏我"",""好我"",""坏她""]","[""强她"",""弱我"",""强我"",""弱她""]","","","","","","","","{""Q01"":""2"",""Q02"":""0"",""Q03"":""2"",""Q04"":""1"",""Q05"":""2"",""Q06"":""2"",""Q07"":""2"",""Q08"":""2""}","[0,1,2,3,4,5,6,7]","[""Q01"",""Q02"",""Q02"",""Q03"",""Q04"",""Q05"",""Q06"",""Q06"",""Q07"",""Q08""]","[1571,2259,3803.1000003814697,4699.5,6155.200000762939,6947.10000038147,8378.89999961853,8579.29999923706,9155,10418.89999961853]","[]","[1571,2259,3803.1000003814697,4699.5,5139.700000762939,6155.200000762939,6947.10000038147,7427,7843.299999237061,8099.200000762939,8378.89999961853,8579.29999923706,9155,10418.89999961853,12259]","0.75","0.2857142857142857","0","","","","","","","","","","","","","","","","","","","","","","",""
"9757","
    <p><div style='color:white;font-size:35px; line-height:20px;'>词汇评估任务</div></p><br>
    <p><div style='color:white;font-size:25px; line-height:20px;'>请再次回忆该亲密的朋友，你们至少2年前就认识了，并且最近2年经常见面。</div></p>
    <p><div style='color:white;font-size:25px; line-height:20px;'>在本实验中，您将会看到一些形容词。</div></p>
    <p><div style='color:yellow;font-size:25px; line-height:20px;'>您的任务是判断这些形容词是否符合对您自己或您的朋友的描述。</div></p><p style='font-size:35px'>符合按<span style=""color:lightgreen""> f 键</span>，不符合按<span style=""color:red""> j 键</span></p>","0","html-button-response","8","109275","0.0-7.0-0.0","7","7","7","7","7","5","5","5","5","5","5","2","0","2","1","2","2","2","2","5","5","5","5","4","5","5","5","4","4","7","7","6","6","5","5","6","8","7","6","6","7","7","7","7","6","1","6","7","1","7","6","7","7","6","6","7","7","7","7","6","7","7","6","6","7","7","7","7","7","7","6","7","7","7","7","7","7","6","5","598892418162491392","何","590","Female","[""好她"",""坏我"",""好我"",""坏她""]","[""强她"",""弱我"",""强我"",""弱她""]","","","","","","","","","","","","","","","","","SRET_EW","EW_instructions","Mon Dec 25 2023 20:29:39 GMT+0800 (中国标准时间)","","","","","","","","","","","","","","","","","","","",""
"806","","f","psychophysics","9","111083","0.0-7.0-1.0-0.0","7","7","7","7","7","5","5","5","5","5","5","2","0","2","1","2","2","2","2","5","5","5","5","4","5","5","5","4","4","7","7","6","6","5","5","6","8","7","6","6","7","7","7","7","6","1","6","7","1","7","6","7","7","6","6","7","7","7","7","6","7","7","6","6","7","7","7","7","7","7","6","7","7","7","7","7","7","6","5","598892418162491392","何","590","Female","[""好她"",""坏我"",""好我"",""坏她""]","[""强她"",""弱我"",""强我"",""弱她""]","","","","","","","","yes","","","","","","","","","SRET_EW","EW_practice","","key","f","16.654587155963355","731.4285714285714","407.23809523809524","朋友","忠实","Positive","morality","","","","","","","","","","",""
"886","","j","psychophysics","10","112971","0.0-7.0-1.0-0.1","7","7","7","7","7","5","5","5","5","5","5","2","0","2","1","2","2","2","2","5","5","5","5","4","5","5","5","4","4","7","7","6","6","5","5","6","8","7","6","6","7","7","7","7","6","1","6","7","1","7","6","7","7","6","6","7","7","7","7","6","7","7","6","6","7","7","7","7","7","7","6","7","7","7","7","7","7","6","5","598892418162491392","何","590","Female","[""好她"",""坏我"",""好我"",""坏她""]","[""强她"",""弱我"",""强我"",""弱她""]","","","","","","","","no","","","","","","","","","SRET_EW","EW_practice","","key","j","16.653401785714387","731.4285714285714","407.23809523809524","自己","刻板","Negative","ability","","","","","","","","","","",""
"663","","j","psychophysics","11","114636","0.0-7.0-1.0-0.2","7","7","7","7","7","5","5","5","5","5","5","2","0","2","1","2","2","2","2","5","5","5","5","4","5","5","5","4","4","7","7","6","6","5","5","6","8","7","6","6","7","7","7","7","6","1","6","7","1","7","6","7","7","6","6","7","7","7","7","6","7","7","6","6","7","7","7","7","7","7","6","7","7","7","7","7","7","6","5","598892418162491392","何","590","Female","[""好她"",""坏我"",""好我"",""坏她""]","[""强她"",""弱我"",""强我"",""弱她""]","","","","","","","","no","","","","","","","","","SRET_EW","EW_practice","","key","j","16.653080808080798","731.4285714285714","407.23809523809524","朋友","徇私","Negative","morality","","","","","","","","","","",""
"669","","f","psychophysics","12","116307","0.0-7.0-1.0-0.3","7","7","7","7","7","5","5","5","5","5","5","2","0","2","1","2","2","2","2","5","5","5","5","4","5","5","5","4","4","7","7","6","6","5","5","6","8","7","6","6","7","7","7","7","6","1","6","7","1","7","6","7","7","6","6","7","7","7","7","6","7","7","6","6","7","7","7","7","7","7","6","7","7","7","7","7","7","6","5","598892418162491392","何","590","Female","[""好她"",""坏我"",""好我"",""坏她""]","[""强她"",""弱我"",""强我"",""弱她""]","","","","","","","","yes","","","","","","","","","SRET_EW","EW_practice","","key","f","16.654740000000018","731.4285714285714","407.23809523809524","自己","严谨","Positive","ability","","","","","","","","","","",""
"2632","
    <p><div style='color:white;font-size:35px; line-height:20px;'>请您再次阅读实验要求</div></p><br>
    <p><div style='color:white;font-size:25px; line-height:20px;'>请回忆某一个亲密的朋友，你们至少2年前就认识了，并且最近2年经常见面。</div></p>
    <p><div style='color:white;font-size:25px; line-height:20px;'>在本实验中，您将会看到一些形容词。</div></p>
    <p><div style='color:yellow;font-size:25px; line-height:20px;'>您的任务是判断这些形容词是否符合对您自己或您的朋友的描述。</div></p>
    <p><div class='footer' style='font-size:25px; line-height:20px;'>如果对本实验还有不清楚之处，请立即向实验员咨询。</p><p style='font-size:25px; line-height:20px;'>如果您明白了规则：</p><p style='font-size:22px; line-height:20px;'>请按 继续 进入正式实验</p>
    </div>
    <p style='font-size:35px'>符合按<span style=""color:lightgreen""> f 键</span>，不符合按<span style=""color:red""> j 键</span></p>","0","html-button-response","13","118939","0.0-7.0-2.0","7","7","7","7","7","5","5","5","5","5","5","2","0","2","1","2","2","2","2","5","5","5","5","4","5","5","5","4","4","7","7","6","6","5","5","6","8","7","6","6","7","7","7","7","6","1","6","7","1","7","6","7","7","6","6","7","7","7","7","6","7","7","6","6","7","7","7","7","7","7","6","7","7","7","7","7","7","6","5","598892418162491392","何","590","Female","[""好她"",""坏我"",""好我"",""坏她""]","[""强她"",""弱我"",""强我"",""弱她""]","","","","","","","","","","","","","","","","","SRET_EW","prac_instructions","Mon Dec 25 2023 20:29:39 GMT+0800 (中国标准时间)","","","","","","","","","","","","","","","","","","","",""
"822","","f","psychophysics","14","120763","0.0-7.0-3.0-0.0","7","7","7","7","7","5","5","5","5","5","5","2","0","2","1","2","2","2","2","5","5","5","5","4","5","5","5","4","4","7","7","6","6","5","5","6","8","7","6","6","7","7","7","7","6","1","6","7","1","7","6","7","7","6","6","7","7","7","7","6","7","7","6","6","7","7","7","7","7","7","6","7","7","7","7","7","7","6","5","598892418162491392","何","590","Female","[""好她"",""坏我"",""好我"",""坏她""]","[""强她"",""弱我"",""强我"",""弱她""]","","","","","","","","yes","","","","","","","","","SRET","EW_formal","","key","f","16.650715596330276","731.4285714285714","407.23809523809524","朋友","务实","Positive","ability","","","","","","","","","","",""
"655","","j","psychophysics","15","122419","0.0-7.0-3.0-0.1","7","7","7","7","7","5","5","5","5","5","5","2","0","2","1","2","2","2","2","5","5","5","5","4","5","5","5","4","4","7","7","6","6","5","5","6","8","7","6","6","7","7","7","7","6","1","6","7","1","7","6","7","7","6","6","7","7","7","7","6","7","7","6","6","7","7","7","7","7","7","6","7","7","7","7","7","7","6","5","598892418162491392","何","590","Female","[""好她"",""坏我"",""好我"",""坏她""]","[""强她"",""弱我"",""强我"",""弱她""]","","","","","","","","no","","","","","","","","","SRET","EW_formal","","key","j","16.65180808080803","731.4285714285714","407.23809523809524","自己","说谎","Negative","morality","","","","","","","","","","",""
"654","","j","psychophysics","16","124075","0.0-7.0-3.0-0.2","7","7","7","7","7","5","5","5","5","5","5","2","0","2","1","2","2","2","2","5","5","5","5","4","5","5","5","4","4","7","7","6","6","5","5","6","8","7","6","6","7","7","7","7","6","1","6","7","1","7","6","7","7","6","6","7","7","7","7","6","7","7","6","6","7","7","7","7","7","7","6","7","7","7","7","7","7","6","5","598892418162491392","何","590","Female","[""好她"",""坏我"",""好我"",""坏她""]","[""强她"",""弱我"",""强我"",""弱她""]","","","","","","","","no","","","","","","","","","SRET","EW_formal","","key","j","16.64796938775514","731.4285714285714","407.23809523809524","朋友","迷糊","Negative","ability","","","","","","","","","","",""
"602","","f","psychophysics","17","125677","0.0-7.0-3.0-0.3","7","7","7","7","7","5","5","5","5","5","5","2","0","2","1","2","2","2","2","5","5","5","5","4","5","5","5","4","4","7","7","6","6","5","5","6","8","7","6","6","7","7","7","7","6","1","6","7","1","7","6","7","7","6","6","7","7","7","7","6","7","7","6","6","7","7","7","7","7","7","6","7","7","7","7","7","7","6","5","598892418162491392","何","590","Female","[""好她"",""坏我"",""好我"",""坏她""]","[""强她"",""弱我"",""强我"",""弱她""]","","","","","","","","yes","","","","","","","","","SRET","EW_formal","","key","f","16.649589473684166","731.4285714285714","407.23809523809524","自己","坚贞","Positive","morality","","","","","","","","","","",""
"740","","f","psychophysics","18","127419","0.0-7.0-3.0-0.4","7","7","7","7","7","5","5","5","5","5","5","2","0","2","1","2","2","2","2","5","5","5","5","4","5","5","5","4","4","7","7","6","6","5","5","6","8","7","6","6","7","7","7","7","6","1","6","7","1","7","6","7","7","6","6","7","7","7","7","6","7","7","6","6","7","7","7","7","7","7","6","7","7","7","7","7","7","6","5","598892418162491392","何","590","Female","[""好她"",""坏我"",""好我"",""坏她""]","[""强她"",""弱我"",""强我"",""弱她""]","","","","","","","","yes","","","","","","","","","SRET","EW_formal","","key","f","16.655663461538445","731.4285714285714","407.23809523809524","朋友","守法","Positive","morality","","","","","","","","","","",""
"777","","f","psychophysics","19","129197","0.0-7.0-3.0-0.5","7","7","7","7","7","5","5","5","5","5","5","2","0","2","1","2","2","2","2","5","5","5","5","4","5","5","5","4","4","7","7","6","6","5","5","6","8","7","6","6","7","7","7","7","6","1","6","7","1","7","6","7","7","6","6","7","7","7","7","6","7","7","6","6","7","7","7","7","7","7","6","7","7","7","7","7","7","6","5","598892418162491392","何","590","Female","[""好她"",""坏我"",""好我"",""坏她""]","[""强她"",""弱我"",""强我"",""弱她""]","","","","","","","","yes","","","","","","","","","SRET","EW_formal","","key","f","16.6521792452831","731.4285714285714","407.23809523809524","朋友","中用","Positive","ability","","","","","","","","","","",""
"795","","f","psychophysics","20","130996","0.0-7.0-3.0-0.6","7","7","7","7","7","5","5","5","5","5","5","2","0","2","1","2","2","2","2","5","5","5","5","4","5","5","5","4","4","7","7","6","6","5","5","6","8","7","6","6","7","7","7","7","6","1","6","7","1","7","6","7","7","6","6","7","7","7","7","6","7","7","6","6","7","7","7","7","7","7","6","7","7","7","7","7","7","6","5","598892418162491392","何","590","Female","[""好她"",""坏我"",""好我"",""坏她""]","[""强她"",""弱我"",""强我"",""弱她""]","","","","","","","","yes","","","","","","","","","SRET","EW_formal","","key","f","16.651140186915807","731.4285714285714","407.23809523809524","自己","刚正","Positive","morality","","","","","","","","","","",""
"732","","j","psychophysics","21","132730","0.0-7.0-3.0-0.7","7","7","7","7","7","5","5","5","5","5","5","2","0","2","1","2","2","2","2","5","5","5","5","4","5","5","5","4","4","7","7","6","6","5","5","6","8","7","6","6","7","7","7","7","6","1","6","7","1","7","6","7","7","6","6","7","7","7","7","6","7","7","6","6","7","7","7","7","7","7","6","7","7","7","7","7","7","6","5","598892418162491392","何","590","Female","[""好她"",""坏我"",""好我"",""坏她""]","[""强她"",""弱我"",""强我"",""弱她""]","","","","","","","","no","","","","","","","","","SRET","EW_formal","","key","j","16.65615533980585","731.4285714285714","407.23809523809524","朋友","邪恶","Negative","morality","","","","","","","","","","",""
"879","","j","psychophysics","22","134612","0.0-7.0-3.0-0.8","7","7","7","7","7","5","5","5","5","5","5","2","0","2","1","2","2","2","2","5","5","5","5","4","5","5","5","4","4","7","7","6","6","5","5","6","8","7","6","6","7","7","7","7","6","1","6","7","1","7","6","7","7","6","6","7","7","7","7","6","7","7","6","6","7","7","7","7","7","7","6","7","7","7","7","7","7","6","5","598892418162491392","何","590","Female","[""好她"",""坏我"",""好我"",""坏她""]","[""强她"",""弱我"",""强我"",""弱她""]","","","","","","","","no","","","","","","","","","SRET","EW_formal","","key","j","16.653401785714387","731.4285714285714","407.23809523809524","朋友","草率","Negative","ability","","","","","","","","","","",""
"1037","","j","psychophysics","23","136651","0.0-7.0-3.0-0.9","7","7","7","7","7","5","5","5","5","5","5","2","0","2","1","2","2","2","2","5","5","5","5","4","5","5","5","4","4","7","7","6","6","5","5","6","8","7","6","6","7","7","7","7","6","1","6","7","1","7","6","7","7","6","6","7","7","7","7","6","7","7","6","6","7","7","7","7","7","7","6","7","7","7","7","7","7","6","5","598892418162491392","何","590","Female","[""好她"",""坏我"",""好我"",""坏她""]","[""强她"",""弱我"",""强我"",""弱她""]","","","","","","","","no","","","","","","","","","SRET","EW_formal","","key","j","16.65152892561977","731.4285714285714","407.23809523809524","自己","势利","Negative","morality","","","","","","","","","","",""
"583","","j","psychophysics","24","138235","0.0-7.0-3.0-0.10","7","7","7","7","7","5","5","5","5","5","5","2","0","2","1","2","2","2","2","5","5","5","5","4","5","5","5","4","4","7","7","6","6","5","5","6","8","7","6","6","7","7","7","7","6","1","6","7","1","7","6","7","7","6","6","7","7","7","7","6","7","7","6","6","7","7","7","7","7","7","6","7","7","7","7","7","7","6","5","598892418162491392","何","590","Female","[""好她"",""坏我"",""好我"",""坏她""]","[""强她"",""弱我"",""强我"",""弱她""]","","","","","","","","no","","","","","","","","","SRET","EW_formal","","key","j","16.652925531914892","731.4285714285714","407.23809523809524","自己","淫乱","Negative","morality","","","","","","","","","","",""
"877","","j","psychophysics","25","140114","0.0-7.0-3.0-0.11","7","7","7","7","7","5","5","5","5","5","5","2","0","2","1","2","2","2","2","5","5","5","5","4","5","5","5","4","4","7","7","6","6","5","5","6","8","7","6","6","7","7","7","7","6","1","6","7","1","7","6","7","7","6","6","7","7","7","7","6","7","7","6","6","7","7","7","7","7","7","6","7","7","7","7","7","7","6","5","598892418162491392","何","590","Female","[""好她"",""坏我"",""好我"",""坏她""]","[""强她"",""弱我"",""强我"",""弱她""]","","","","","","","","no","","","","","","","","","SRET","EW_formal","","key","j","16.653526785714348","731.4285714285714","407.23809523809524","朋友","无私","Positive","morality","","","","","","","","","","",""
"566","","f","psychophysics","26","141683","0.0-7.0-3.0-0.12","7","7","7","7","7","5","5","5","5","5","5","2","0","2","1","2","2","2","2","5","5","5","5","4","5","5","5","4","4","7","7","6","6","5","5","6","8","7","6","6","7","7","7","7","6","1","6","7","1","7","6","7","7","6","6","7","7","7","7","6","7","7","6","6","7","7","7","7","7","7","6","7","7","7","7","7","7","6","5","598892418162491392","何","590","Female","[""好她"",""坏我"",""好我"",""坏她""]","[""强她"",""弱我"",""强我"",""弱她""]","","","","","","","","yes","","","","","","","","","SRET","EW_formal","","key","f","16.65154255319144","731.4285714285714","407.23809523809524","朋友","礼貌","Positive","morality","","","","","","","","","","",""
"1015","","j","psychophysics","27","143699","0.0-7.0-3.0-0.13","7","7","7","7","7","5","5","5","5","5","5","2","0","2","1","2","2","2","2","5","5","5","5","4","5","5","5","4","4","7","7","6","6","5","5","6","8","7","6","6","7","7","7","7","6","1","6","7","1","7","6","7","7","6","6","7","7","7","7","6","7","7","6","6","7","7","7","7","7","7","6","7","7","7","7","7","7","6","5","598892418162491392","何","590","Female","[""好她"",""坏我"",""好我"",""坏她""]","[""强她"",""弱我"",""强我"",""弱她""]","","","","","","","","no","","","","","","","","","SRET","EW_formal","","key","j","16.65417499999991","731.4285714285714","407.23809523809524","自己","拖延","Negative","ability","","","","","","","","","","",""
"726","","j","psychophysics","28","145427","0.0-7.0-3.0-0.14","7","7","7","7","7","5","5","5","5","5","5","2","0","2","1","2","2","2","2","5","5","5","5","4","5","5","5","4","4","7","7","6","6","5","5","6","8","7","6","6","7","7","7","7","6","1","6","7","1","7","6","7","7","6","6","7","7","7","7","6","7","7","6","6","7","7","7","7","7","7","6","7","7","7","7","7","7","6","5","598892418162491392","何","590","Female","[""好她"",""坏我"",""好我"",""坏她""]","[""强她"",""弱我"",""强我"",""弱她""]","","","","","","","","no","","","","","","","","","SRET","EW_formal","","key","j","16.651637254902003","731.4285714285714","407.23809523809524","自己","毛糙","Negative","ability","","","","","","","","","","",""
"655","","f","psychophysics","29","147083","0.0-7.0-3.0-0.15","7","7","7","7","7","5","5","5","5","5","5","2","0","2","1","2","2","2","2","5","5","5","5","4","5","5","5","4","4","7","7","6","6","5","5","6","8","7","6","6","7","7","7","7","6","1","6","7","1","7","6","7","7","6","6","7","7","7","7","6","7","7","6","6","7","7","7","7","7","7","6","7","7","7","7","7","7","6","5","598892418162491392","何","590","Female","[""好她"",""坏我"",""好我"",""坏她""]","[""强她"",""弱我"",""强我"",""弱她""]","","","","","","","","yes","","","","","","","","","SRET","EW_formal","","key","f","16.65149494949487","731.4285714285714","407.23809523809524","朋友","思辨","Positive","ability","","","","","","","","","","",""
"518","","f","psychophysics","30","148602","0.0-7.0-3.0-0.16","7","7","7","7","7","5","5","5","5","5","5","2","0","2","1","2","2","2","2","5","5","5","5","4","5","5","5","4","4","7","7","6","6","5","5","6","8","7","6","6","7","7","7","7","6","1","6","7","1","7","6","7","7","6","6","7","7","7","7","6","7","7","6","6","7","7","7","7","7","7","6","7","7","7","7","7","7","6","5","598892418162491392","何","590","Female","[""好她"",""坏我"",""好我"",""坏她""]","[""强她"",""弱我"",""强我"",""弱她""]","","","","","","","","yes","","","","","","","","","SRET","EW_formal","","key","f","16.654499999999988","731.4285714285714","407.23809523809524","自己","敬业","Positive","morality","","","","","","","","","","",""
"497","","f","psychophysics","31","150100","0.0-7.0-3.0-0.17","7","7","7","7","7","5","5","5","5","5","5","2","0","2","1","2","2","2","2","5","5","5","5","4","5","5","5","4","4","7","7","6","6","5","5","6","8","7","6","6","7","7","7","7","6","1","6","7","1","7","6","7","7","6","6","7","7","7","7","6","7","7","6","6","7","7","7","7","7","7","6","7","7","7","7","7","7","6","5","598892418162491392","何","590","Female","[""好她"",""坏我"",""好我"",""坏她""]","[""强她"",""弱我"",""强我"",""弱她""]","","","","","","","","yes","","","","","","","","","SRET","EW_formal","","key","f","16.651674157303493","731.4285714285714","407.23809523809524","朋友","正气","Positive","morality","","","","","","","","","","",""
"694","","j","psychophysics","32","151795","0.0-7.0-3.0-0.18","7","7","7","7","7","5","5","5","5","5","5","2","0","2","1","2","2","2","2","5","5","5","5","4","5","5","5","4","4","7","7","6","6","5","5","6","8","7","6","6","7","7","7","7","6","1","6","7","1","7","6","7","7","6","6","7","7","7","7","6","7","7","6","6","7","7","7","7","7","7","6","7","7","7","7","7","7","6","5","598892418162491392","何","590","Female","[""好她"",""坏我"",""好我"",""坏她""]","[""强她"",""弱我"",""强我"",""弱她""]","","","","","","","","no","","","","","","","","","SRET","EW_formal","","key","j","16.65141584158421","731.4285714285714","407.23809523809524","自己","自私","Negative","morality","","","","","","","","","","",""
"726","","j","psychophysics","33","153522","0.0-7.0-3.0-0.19","7","7","7","7","7","5","5","5","5","5","5","2","0","2","1","2","2","2","2","5","5","5","5","4","5","5","5","4","4","7","7","6","6","5","5","6","8","7","6","6","7","7","7","7","6","1","6","7","1","7","6","7","7","6","6","7","7","7","7","6","7","7","6","6","7","7","7","7","7","7","6","7","7","7","7","7","7","6","5","598892418162491392","何","590","Female","[""好她"",""坏我"",""好我"",""坏她""]","[""强她"",""弱我"",""强我"",""弱她""]","","","","","","","","no","","","","","","","","","SRET","EW_formal","","key","j","16.650951456310775","731.4285714285714","407.23809523809524","朋友","小人","Negative","morality","","","","","","","","","","",""
"623","","f","psychophysics","34","155146","0.0-7.0-3.0-0.20","7","7","7","7","7","5","5","5","5","5","5","2","0","2","1","2","2","2","2","5","5","5","5","4","5","5","5","4","4","7","7","6","6","5","5","6","8","7","6","6","7","7","7","7","6","1","6","7","1","7","6","7","7","6","6","7","7","7","7","6","7","7","6","6","7","7","7","7","7","7","6","7","7","7","7","7","7","6","5","598892418162491392","何","590","Female","[""好她"",""坏我"",""好我"",""坏她""]","[""强她"",""弱我"",""强我"",""弱她""]","","","","","","","","yes","","","","","","","","","SRET","EW_formal","","key","f","16.64933333333344","731.4285714285714","407.23809523809524","自己","廉正","Positive","morality","","","","","","","","","","",""
"558","","f","psychophysics","35","156707","0.0-7.0-3.0-0.21","7","7","7","7","7","5","5","5","5","5","5","2","0","2","1","2","2","2","2","5","5","5","5","4","5","5","5","4","4","7","7","6","6","5","5","6","8","7","6","6","7","7","7","7","6","1","6","7","1","7","6","7","7","6","6","7","7","7","7","6","7","7","6","6","7","7","7","7","7","7","6","7","7","7","7","7","7","6","5","598892418162491392","何","590","Female","[""好她"",""坏我"",""好我"",""坏她""]","[""强她"",""弱我"",""强我"",""弱她""]","","","","","","","","yes","","","","","","","","","SRET","EW_formal","","key","f","16.653731182795607","731.4285714285714","407.23809523809524","朋友","专注","Positive","ability","","","","","","","","","","",""
"694","","j","psychophysics","36","158402","0.0-7.0-3.0-0.22","7","7","7","7","7","5","5","5","5","5","5","2","0","2","1","2","2","2","2","5","5","5","5","4","5","5","5","4","4","7","7","6","6","5","5","6","8","7","6","6","7","7","7","7","6","1","6","7","1","7","6","7","7","6","6","7","7","7","7","6","7","7","6","6","7","7","7","7","7","7","6","7","7","7","7","7","7","6","5","598892418162491392","何","590","Female","[""好她"",""坏我"",""好我"",""坏她""]","[""强她"",""弱我"",""强我"",""弱她""]","","","","","","","","no","","","","","","","","","SRET","EW_formal","","key","j","16.654118811881105","731.4285714285714","407.23809523809524","朋友","弱智","Negative","ability","","","","","","","","","","",""
"920","","f","psychophysics","37","160323","0.0-7.0-3.0-0.23","7","7","7","7","7","5","5","5","5","5","5","2","0","2","1","2","2","2","2","5","5","5","5","4","5","5","5","4","4","7","7","6","6","5","5","6","8","7","6","6","7","7","7","7","6","1","6","7","1","7","6","7","7","6","6","7","7","7","7","6","7","7","6","6","7","7","7","7","7","7","6","7","7","7","7","7","7","6","5","598892418162491392","何","590","Female","[""好她"",""坏我"",""好我"",""坏她""]","[""强她"",""弱我"",""强我"",""弱她""]","","","","","","","","yes","","","","","","","","","SRET","EW_formal","","key","f","16.650140350877273","731.4285714285714","407.23809523809524","自己","慈悲","Positive","morality","","","","","","","","","","",""
"671","","f","psychophysics","38","161995","0.0-7.0-3.0-0.24","7","7","7","7","7","5","5","5","5","5","5","2","0","2","1","2","2","2","2","5","5","5","5","4","5","5","5","4","4","7","7","6","6","5","5","6","8","7","6","6","7","7","7","7","6","1","6","7","1","7","6","7","7","6","6","7","7","7","7","6","7","7","6","6","7","7","7","7","7","7","6","7","7","7","7","7","7","6","5","598892418162491392","何","590","Female","[""好她"",""坏我"",""好我"",""坏她""]","[""强她"",""弱我"",""强我"",""弱她""]","","","","","","","","yes","","","","","","","","","SRET","EW_formal","","key","f","16.651121212121314","731.4285714285714","407.23809523809524","自己","沉着","Positive","ability","","","","","","","","","","",""
"711","","f","psychophysics","39","163707","0.0-7.0-3.0-0.25","7","7","7","7","7","5","5","5","5","5","5","2","0","2","1","2","2","2","2","5","5","5","5","4","5","5","5","4","4","7","7","6","6","5","5","6","8","7","6","6","7","7","7","7","6","1","6","7","1","7","6","7","7","6","6","7","7","7","7","6","7","7","6","6","7","7","7","7","7","7","6","7","7","7","7","7","7","6","5","598892418162491392","何","590","Female","[""好她"",""坏我"",""好我"",""坏她""]","[""强她"",""弱我"",""强我"",""弱她""]","","","","","","","","yes","","","","","","","","","SRET","EW_formal","","key","f","16.652058823529504","731.4285714285714","407.23809523809524","自己","仗义","Positive","morality","","","","","","","","","","",""
"751","","f","psychophysics","40","165459","0.0-7.0-3.0-0.26","7","7","7","7","7","5","5","5","5","5","5","2","0","2","1","2","2","2","2","5","5","5","5","4","5","5","5","4","4","7","7","6","6","5","5","6","8","7","6","6","7","7","7","7","6","1","6","7","1","7","6","7","7","6","6","7","7","7","7","6","7","7","6","6","7","7","7","7","7","7","6","7","7","7","7","7","7","6","5","598892418162491392","何","590","Female","[""好她"",""坏我"",""好我"",""坏她""]","[""强她"",""弱我"",""强我"",""弱她""]","","","","","","","","yes","","","","","","","","","SRET","EW_formal","","key","f","16.652326923076963","731.4285714285714","407.23809523809524","朋友","慷慨","Positive","morality","","","","","","","","","","",""
"687","","j","psychophysics","41","167146","0.0-7.0-3.0-0.27","7","7","7","7","7","5","5","5","5","5","5","2","0","2","1","2","2","2","2","5","5","5","5","4","5","5","5","4","4","7","7","6","6","5","5","6","8","7","6","6","7","7","7","7","6","1","6","7","1","7","6","7","7","6","6","7","7","7","7","6","7","7","6","6","7","7","7","7","7","7","6","7","7","7","7","7","7","6","5","598892418162491392","何","590","Female","[""好她"",""坏我"",""好我"",""坏她""]","[""强她"",""弱我"",""强我"",""弱她""]","","","","","","","","no","","","","","","","","","SRET","EW_formal","","key","j","16.651702970297176","731.4285714285714","407.23809523809524","自己","无能","Negative","ability","","","","","","","","","","",""
"710","","j","psychophysics","42","168858","0.0-7.0-3.0-0.28","7","7","7","7","7","5","5","5","5","5","5","2","0","2","1","2","2","2","2","5","5","5","5","4","5","5","5","4","4","7","7","6","6","5","5","6","8","7","6","6","7","7","7","7","6","1","6","7","1","7","6","7","7","6","6","7","7","7","7","6","7","7","6","6","7","7","7","7","7","7","6","7","7","7","7","7","7","6","5","598892418162491392","何","590","Female","[""好她"",""坏我"",""好我"",""坏她""]","[""强她"",""弱我"",""强我"",""弱她""]","","","","","","","","no","","","","","","","","","SRET","EW_formal","","key","j","16.651823529411523","731.4285714285714","407.23809523809524","自己","罪恶","Negative","morality","","","","","","","","","","",""
"590","","f","psychophysics","43","170450","0.0-7.0-3.0-0.29","7","7","7","7","7","5","5","5","5","5","5","2","0","2","1","2","2","2","2","5","5","5","5","4","5","5","5","4","4","7","7","6","6","5","5","6","8","7","6","6","7","7","7","7","6","1","6","7","1","7","6","7","7","6","6","7","7","7","7","6","7","7","6","6","7","7","7","7","7","7","6","7","7","7","7","7","7","6","5","598892418162491392","何","590","Female","[""好她"",""坏我"",""好我"",""坏她""]","[""强她"",""弱我"",""强我"",""弱她""]","","","","","","","","yes","","","","","","","","","SRET","EW_formal","","key","f","16.654265957446693","731.4285714285714","407.23809523809524","自己","有力","Positive","ability","","","","","","","","","","",""
"518","","f","psychophysics","44","171970","0.0-7.0-3.0-0.30","7","7","7","7","7","5","5","5","5","5","5","2","0","2","1","2","2","2","2","5","5","5","5","4","5","5","5","4","4","7","7","6","6","5","5","6","8","7","6","6","7","7","7","7","6","1","6","7","1","7","6","7","7","6","6","7","7","7","7","6","7","7","6","6","7","7","7","7","7","7","6","7","7","7","7","7","7","6","5","598892418162491392","何","590","Female","[""好她"",""坏我"",""好我"",""坏她""]","[""强她"",""弱我"",""强我"",""弱她""]","","","","","","","","yes","","","","","","","","","SRET","EW_formal","","key","f","16.83875280898882","731.4285714285714","407.23809523809524","朋友","肯干","Positive","ability","","","","","","","","","","",""
"710","","j","psychophysics","45","173683","0.0-7.0-3.0-0.31","7","7","7","7","7","5","5","5","5","5","5","2","0","2","1","2","2","2","2","5","5","5","5","4","5","5","5","4","4","7","7","6","6","5","5","6","8","7","6","6","7","7","7","7","6","1","6","7","1","7","6","7","7","6","6","7","7","7","7","6","7","7","6","6","7","7","7","7","7","7","6","7","7","7","7","7","7","6","5","598892418162491392","何","590","Female","[""好她"",""坏我"",""好我"",""坏她""]","[""强她"",""弱我"",""强我"",""弱她""]","","","","","","","","no","","","","","","","","","SRET","EW_formal","","key","j","16.652303921568663","731.4285714285714","407.23809523809524","自己","狡狯","Negative","morality","","","","","","","","","","",""
"567","","f","psychophysics","46","175252","0.0-7.0-3.0-0.32","7","7","7","7","7","5","5","5","5","5","5","2","0","2","1","2","2","2","2","5","5","5","5","4","5","5","5","4","4","7","7","6","6","5","5","6","8","7","6","6","7","7","7","7","6","1","6","7","1","7","6","7","7","6","6","7","7","7","7","6","7","7","6","6","7","7","7","7","7","7","6","7","7","7","7","7","7","6","5","598892418162491392","何","590","Female","[""好她"",""坏我"",""好我"",""坏她""]","[""强她"",""弱我"",""强我"",""弱她""]","","","","","","","","yes","","","","","","","","","SRET","EW_formal","","key","f","16.651276595744385","731.4285714285714","407.23809523809524","朋友","变通","Positive","ability","","","","","","","","","","",""
"758","","j","psychophysics","47","177010","0.0-7.0-3.0-0.33","7","7","7","7","7","5","5","5","5","5","5","2","0","2","1","2","2","2","2","5","5","5","5","4","5","5","5","4","4","7","7","6","6","5","5","6","8","7","6","6","7","7","7","7","6","1","6","7","1","7","6","7","7","6","6","7","7","7","7","6","7","7","6","6","7","7","7","7","7","7","6","7","7","7","7","7","7","6","5","598892418162491392","何","590","Female","[""好她"",""坏我"",""好我"",""坏她""]","[""强她"",""弱我"",""强我"",""弱她""]","","","","","","","","no","","","","","","","","","SRET","EW_formal","","key","j","16.64784615384633","731.4285714285714","407.23809523809524","自己","失信","Negative","morality","","","","","","","","","","",""
"648","","f","psychophysics","48","178660","0.0-7.0-3.0-0.34","7","7","7","7","7","5","5","5","5","5","5","2","0","2","1","2","2","2","2","5","5","5","5","4","5","5","5","4","4","7","7","6","6","5","5","6","8","7","6","6","7","7","7","7","6","1","6","7","1","7","6","7","7","6","6","7","7","7","7","6","7","7","6","6","7","7","7","7","7","7","6","7","7","7","7","7","7","6","5","598892418162491392","何","590","Female","[""好她"",""坏我"",""好我"",""坏她""]","[""强她"",""弱我"",""强我"",""弱她""]","","","","","","","","yes","","","","","","","","","SRET","EW_formal","","key","f","16.65214285714289","731.4285714285714","407.23809523809524","自己","诚信","Positive","morality","","","","","","","","","","",""
"679","","j","psychophysics","49","180340","0.0-7.0-3.0-0.35","7","7","7","7","7","5","5","5","5","5","5","2","0","2","1","2","2","2","2","5","5","5","5","4","5","5","5","4","4","7","7","6","6","5","5","6","8","7","6","6","7","7","7","7","6","1","6","7","1","7","6","7","7","6","6","7","7","7","7","6","7","7","6","6","7","7","7","7","7","7","6","7","7","7","7","7","7","6","5","598892418162491392","何","590","Female","[""好她"",""坏我"",""好我"",""坏她""]","[""强她"",""弱我"",""强我"",""弱她""]","","","","","","","","no","","","","","","","","","SRET","EW_formal","","key","j","16.65220000000001","731.4285714285714","407.23809523809524","朋友","恶劣","Negative","morality","","","","","","","","","","",""
"726","","f","psychophysics","50","182067","0.0-7.0-3.0-0.36","7","7","7","7","7","5","5","5","5","5","5","2","0","2","1","2","2","2","2","5","5","5","5","4","5","5","5","4","4","7","7","6","6","5","5","6","8","7","6","6","7","7","7","7","6","1","6","7","1","7","6","7","7","6","6","7","7","7","7","6","7","7","6","6","7","7","7","7","7","7","6","7","7","7","7","7","7","6","5","598892418162491392","何","590","Female","[""好她"",""坏我"",""好我"",""坏她""]","[""强她"",""弱我"",""强我"",""弱她""]","","","","","","","","yes","","","","","","","","","SRET","EW_formal","","key","f","16.651067961165026","731.4285714285714","407.23809523809524","自己","侠义","Positive","morality","","","","","","","","","","",""
"630","","j","psychophysics","51","183699","0.0-7.0-3.0-0.37","7","7","7","7","7","5","5","5","5","5","5","2","0","2","1","2","2","2","2","5","5","5","5","4","5","5","5","4","4","7","7","6","6","5","5","6","8","7","6","6","7","7","7","7","6","1","6","7","1","7","6","7","7","6","6","7","7","7","7","6","7","7","6","6","7","7","7","7","7","7","6","7","7","7","7","7","7","6","5","598892418162491392","何","590","Female","[""好她"",""坏我"",""好我"",""坏她""]","[""强她"",""弱我"",""强我"",""弱她""]","","","","","","","","no","","","","","","","","","SRET","EW_formal","","key","j","16.655958762886566","731.4285714285714","407.23809523809524","自己","怠惰","Negative","ability","","","","","","","","","","",""
"937","","j","psychophysics","52","185637","0.0-7.0-3.0-0.38","7","7","7","7","7","5","5","5","5","5","5","2","0","2","1","2","2","2","2","5","5","5","5","4","5","5","5","4","4","7","7","6","6","5","5","6","8","7","6","6","7","7","7","7","6","1","6","7","1","7","6","7","7","6","6","7","7","7","7","6","7","7","6","6","7","7","7","7","7","7","6","7","7","7","7","7","7","6","5","598892418162491392","何","590","Female","[""好她"",""坏我"",""好我"",""坏她""]","[""强她"",""弱我"",""强我"",""弱她""]","","","","","","","","no","","","","","","","","","SRET","EW_formal","","key","j","16.655026086956596","731.4285714285714","407.23809523809524","朋友","贪腐","Negative","morality","","","","","","","","","","",""
"748","","f","psychophysics","53","187386","0.0-7.0-3.0-0.39","7","7","7","7","7","5","5","5","5","5","5","2","0","2","1","2","2","2","2","5","5","5","5","4","5","5","5","4","4","7","7","6","6","5","5","6","8","7","6","6","7","7","7","7","6","1","6","7","1","7","6","7","7","6","6","7","7","7","7","6","7","7","6","6","7","7","7","7","7","7","6","7","7","7","7","7","7","6","5","598892418162491392","何","590","Female","[""好她"",""坏我"",""好我"",""坏她""]","[""强她"",""弱我"",""强我"",""弱她""]","","","","","","","","yes","","","","","","","","","SRET","EW_formal","","key","f","16.653528846153886","731.4285714285714","407.23809523809524","自己","果决","Positive","ability","","","","","","","","","","",""
"791","","j","psychophysics","54","189180","0.0-7.0-3.0-0.40","7","7","7","7","7","5","5","5","5","5","5","2","0","2","1","2","2","2","2","5","5","5","5","4","5","5","5","4","4","7","7","6","6","5","5","6","8","7","6","6","7","7","7","7","6","1","6","7","1","7","6","7","7","6","6","7","7","7","7","6","7","7","6","6","7","7","7","7","7","7","6","7","7","7","7","7","7","6","5","598892418162491392","何","590","Female","[""好她"",""坏我"",""好我"",""坏她""]","[""强她"",""弱我"",""强我"",""弱她""]","","","","","","","","no","","","","","","","","","SRET","EW_formal","","key","j","16.651953271028223","731.4285714285714","407.23809523809524","自己","诡诈","Negative","morality","","","","","","","","","","",""
"1188","","j","psychophysics","55","191370","0.0-7.0-3.0-0.41","7","7","7","7","7","5","5","5","5","5","5","2","0","2","1","2","2","2","2","5","5","5","5","4","5","5","5","4","4","7","7","6","6","5","5","6","8","7","6","6","7","7","7","7","6","1","6","7","1","7","6","7","7","6","6","7","7","7","7","6","7","7","6","6","7","7","7","7","7","7","6","7","7","7","7","7","7","6","5","598892418162491392","何","590","Female","[""好她"",""坏我"",""好我"",""坏她""]","[""强她"",""弱我"",""强我"",""弱她""]","","","","","","","","no","","","","","","","","","SRET","EW_formal","","key","j","16.65111450381681","731.4285714285714","407.23809523809524","朋友","卑鄙","Negative","morality","","","","","","","","","","",""
"838","","j","psychophysics","56","193210","0.0-7.0-3.0-0.42","7","7","7","7","7","5","5","5","5","5","5","2","0","2","1","2","2","2","2","5","5","5","5","4","5","5","5","4","4","7","7","6","6","5","5","6","8","7","6","6","7","7","7","7","6","1","6","7","1","7","6","7","7","6","6","7","7","7","7","6","7","7","6","6","7","7","7","7","7","7","6","7","7","7","7","7","7","6","5","598892418162491392","何","590","Female","[""好她"",""坏我"",""好我"",""坏她""]","[""强她"",""弱我"",""强我"",""弱她""]","","","","","","","","no","","","","","","","","","SRET","EW_formal","","key","j","16.652165137614773","731.4285714285714","407.23809523809524","朋友","无为","Negative","ability","","","","","","","","","","",""
"856","","j","psychophysics","57","195067","0.0-7.0-3.0-0.43","7","7","7","7","7","5","5","5","5","5","5","2","0","2","1","2","2","2","2","5","5","5","5","4","5","5","5","4","4","7","7","6","6","5","5","6","8","7","6","6","7","7","7","7","6","1","6","7","1","7","6","7","7","6","6","7","7","7","7","6","7","7","6","6","7","7","7","7","7","7","6","7","7","7","7","7","7","6","5","598892418162491392","何","590","Female","[""好她"",""坏我"",""好我"",""坏她""]","[""强她"",""弱我"",""强我"",""弱她""]","","","","","","","","no","","","","","","","","","SRET","EW_formal","","key","j","16.651945945945766","731.4285714285714","407.23809523809524","自己","拖拉","Negative","ability","","","","","","","","","","",""
"670","","f","psychophysics","58","196738","0.0-7.0-3.0-0.44","7","7","7","7","7","5","5","5","5","5","5","2","0","2","1","2","2","2","2","5","5","5","5","4","5","5","5","4","4","7","7","6","6","5","5","6","8","7","6","6","7","7","7","7","6","1","6","7","1","7","6","7","7","6","6","7","7","7","7","6","7","7","6","6","7","7","7","7","7","7","6","7","7","7","7","7","7","6","5","598892418162491392","何","590","Female","[""好她"",""坏我"",""好我"",""坏她""]","[""强她"",""弱我"",""强我"",""弱她""]","","","","","","","","yes","","","","","","","","","SRET","EW_formal","","key","f","16.65061616161609","731.4285714285714","407.23809523809524","自己","扎实","Positive","ability","","","","","","","","","","",""
"903","","f","psychophysics","59","198644","0.0-7.0-3.0-0.45","7","7","7","7","7","5","5","5","5","5","5","2","0","2","1","2","2","2","2","5","5","5","5","4","5","5","5","4","4","7","7","6","6","5","5","6","8","7","6","6","7","7","7","7","6","1","6","7","1","7","6","7","7","6","6","7","7","7","7","6","7","7","6","6","7","7","7","7","7","7","6","7","7","7","7","7","7","6","5","598892418162491392","何","590","Female","[""好她"",""坏我"",""好我"",""坏她""]","[""强她"",""弱我"",""强我"",""弱她""]","","","","","","","","yes","","","","","","","","","SRET","EW_formal","","key","f","16.651637168141676","731.4285714285714","407.23809523809524","自己","刻苦","Positive","ability","","","","","","","","","","",""
"510","","f","psychophysics","60","200154","0.0-7.0-3.0-0.46","7","7","7","7","7","5","5","5","5","5","5","2","0","2","1","2","2","2","2","5","5","5","5","4","5","5","5","4","4","7","7","6","6","5","5","6","8","7","6","6","7","7","7","7","6","1","6","7","1","7","6","7","7","6","6","7","7","7","7","6","7","7","6","6","7","7","7","7","7","7","6","7","7","7","7","7","7","6","5","598892418162491392","何","590","Female","[""好她"",""坏我"",""好我"",""坏她""]","[""强她"",""弱我"",""强我"",""弱她""]","","","","","","","","yes","","","","","","","","","SRET","EW_formal","","key","f","16.651744444444518","731.4285714285714","407.23809523809524","朋友","博学","Positive","ability","","","","","","","","","","",""
"981","","f","psychophysics","61","202138","0.0-7.0-3.0-0.47","7","7","7","7","7","5","5","5","5","5","5","2","0","2","1","2","2","2","2","5","5","5","5","4","5","5","5","4","4","7","7","6","6","5","5","6","8","7","6","6","7","7","7","7","6","1","6","7","1","7","6","7","7","6","6","7","7","7","7","6","7","7","6","6","7","7","7","7","7","7","6","7","7","7","7","7","7","6","5","598892418162491392","何","590","Female","[""好她"",""坏我"",""好我"",""坏她""]","[""强她"",""弱我"",""强我"",""弱她""]","","","","","","","","yes","","","","","","","","","SRET","EW_formal","","key","f","16.652347457626988","731.4285714285714","407.23809523809524","自己","好心","Positive","morality","","","","","","","","","","",""
"519","","f","psychophysics","62","203659","0.0-7.0-3.0-0.48","7","7","7","7","7","5","5","5","5","5","5","2","0","2","1","2","2","2","2","5","5","5","5","4","5","5","5","4","4","7","7","6","6","5","5","6","8","7","6","6","7","7","7","7","6","1","6","7","1","7","6","7","7","6","6","7","7","7","7","6","7","7","6","6","7","7","7","7","7","7","6","7","7","7","7","7","7","6","5","598892418162491392","何","590","Female","[""好她"",""坏我"",""好我"",""坏她""]","[""强她"",""弱我"",""强我"",""弱她""]","","","","","","","","yes","","","","","","","","","SRET","EW_formal","","key","f","16.655241758241843","731.4285714285714","407.23809523809524","自己","高明","Positive","ability","","","","","","","","","","",""
"935","","j","psychophysics","63","205596","0.0-7.0-3.0-0.49","7","7","7","7","7","5","5","5","5","5","5","2","0","2","1","2","2","2","2","5","5","5","5","4","5","5","5","4","4","7","7","6","6","5","5","6","8","7","6","6","7","7","7","7","6","1","6","7","1","7","6","7","7","6","6","7","7","7","7","6","7","7","6","6","7","7","7","7","7","7","6","7","7","7","7","7","7","6","5","598892418162491392","何","590","Female","[""好她"",""坏我"",""好我"",""坏她""]","[""强她"",""弱我"",""强我"",""弱她""]","","","","","","","","no","","","","","","","","","SRET","EW_formal","","key","j","16.65158260869566","731.4285714285714","407.23809523809524","朋友","业余","Negative","ability","","","","","","","","","","",""
"902","","j","psychophysics","64","207498","0.0-7.0-3.0-0.50","7","7","7","7","7","5","5","5","5","5","5","2","0","2","1","2","2","2","2","5","5","5","5","4","5","5","5","4","4","7","7","6","6","5","5","6","8","7","6","6","7","7","7","7","6","1","6","7","1","7","6","7","7","6","6","7","7","7","7","6","7","7","6","6","7","7","7","7","7","7","6","7","7","7","7","7","7","6","5","598892418162491392","何","590","Female","[""好她"",""坏我"",""好我"",""坏她""]","[""强她"",""弱我"",""强我"",""弱她""]","","","","","","","","no","","","","","","","","","SRET","EW_formal","","key","j","16.654654867256852","731.4285714285714","407.23809523809524","朋友","蛇蝎","Negative","morality","","","","","","","","","","",""
"647","","f","psychophysics","65","209146","0.0-7.0-3.0-0.51","7","7","7","7","7","5","5","5","5","5","5","2","0","2","1","2","2","2","2","5","5","5","5","4","5","5","5","4","4","7","7","6","6","5","5","6","8","7","6","6","7","7","7","7","6","1","6","7","1","7","6","7","7","6","6","7","7","7","7","6","7","7","6","6","7","7","7","7","7","7","6","7","7","7","7","7","7","6","5","598892418162491392","何","590","Female","[""好她"",""坏我"",""好我"",""坏她""]","[""强她"",""弱我"",""强我"",""弱她""]","","","","","","","","yes","","","","","","","","","SRET","EW_formal","","key","f","16.651061224489833","731.4285714285714","407.23809523809524","自己","全才","Positive","ability","","","","","","","","","","",""
"718","","f","psychophysics","66","210866","0.0-7.0-3.0-0.52","7","7","7","7","7","5","5","5","5","5","5","2","0","2","1","2","2","2","2","5","5","5","5","4","5","5","5","4","4","7","7","6","6","5","5","6","8","7","6","6","7","7","7","7","6","1","6","7","1","7","6","7","7","6","6","7","7","7","7","6","7","7","6","6","7","7","7","7","7","7","6","7","7","7","7","7","7","6","5","598892418162491392","何","590","Female","[""好她"",""坏我"",""好我"",""坏她""]","[""强她"",""弱我"",""强我"",""弱她""]","","","","","","","","yes","","","","","","","","","SRET","EW_formal","","key","f","16.65266666666681","731.4285714285714","407.23809523809524","朋友","骁勇","Positive","ability","","","","","","","","","","",""
"816","","j","psychophysics","67","212683","0.0-7.0-3.0-0.53","7","7","7","7","7","5","5","5","5","5","5","2","0","2","1","2","2","2","2","5","5","5","5","4","5","5","5","4","4","7","7","6","6","5","5","6","8","7","6","6","7","7","7","7","6","1","6","7","1","7","6","7","7","6","6","7","7","7","7","6","7","7","6","6","7","7","7","7","7","7","6","7","7","7","7","7","7","6","5","598892418162491392","何","590","Female","[""好她"",""坏我"",""好我"",""坏她""]","[""强她"",""弱我"",""强我"",""弱她""]","","","","","","","","no","","","","","","","","","SRET","EW_formal","","key","j","16.651266055045717","731.4285714285714","407.23809523809524","朋友","虚假","Negative","morality","","","","","","","","","","",""
"661","","f","psychophysics","68","214346","0.0-7.0-3.0-0.54","7","7","7","7","7","5","5","5","5","5","5","2","0","2","1","2","2","2","2","5","5","5","5","4","5","5","5","4","4","7","7","6","6","5","5","6","8","7","6","6","7","7","7","7","6","1","6","7","1","7","6","7","7","6","6","7","7","7","7","6","7","7","6","6","7","7","7","7","7","7","6","7","7","7","7","7","7","6","5","598892418162491392","何","590","Female","[""好她"",""坏我"",""好我"",""坏她""]","[""强她"",""弱我"",""强我"",""弱她""]","","","","","","","","yes","","","","","","","","","SRET","EW_formal","","key","f","16.650948979591888","731.4285714285714","407.23809523809524","朋友","学霸","Positive","ability","","","","","","","","","","",""
"455","","f","psychophysics","69","215802","0.0-7.0-3.0-0.55","7","7","7","7","7","5","5","5","5","5","5","2","0","2","1","2","2","2","2","5","5","5","5","4","5","5","5","4","4","7","7","6","6","5","5","6","8","7","6","6","7","7","7","7","6","1","6","7","1","7","6","7","7","6","6","7","7","7","7","6","7","7","6","6","7","7","7","7","7","7","6","7","7","7","7","7","7","6","5","598892418162491392","何","590","Female","[""好她"",""坏我"",""好我"",""坏她""]","[""强她"",""弱我"",""强我"",""弱她""]","","","","","","","","yes","","","","","","","","","SRET","EW_formal","","key","f","16.65180459770109","731.4285714285714","407.23809523809524","自己","博识","Positive","ability","","","","","","","","","","",""
"855","","f","psychophysics","70","217659","0.0-7.0-3.0-0.56","7","7","7","7","7","5","5","5","5","5","5","2","0","2","1","2","2","2","2","5","5","5","5","4","5","5","5","4","4","7","7","6","6","5","5","6","8","7","6","6","7","7","7","7","6","1","6","7","1","7","6","7","7","6","6","7","7","7","7","6","7","7","6","6","7","7","7","7","7","7","6","7","7","7","7","7","7","6","5","598892418162491392","何","590","Female","[""好她"",""坏我"",""好我"",""坏她""]","[""强她"",""弱我"",""强我"",""弱她""]","","","","","","","","yes","","","","","","","","","SRET","EW_formal","","key","f","16.649709090909298","731.4285714285714","407.23809523809524","自己","守时","Positive","morality","","","","","","","","","","",""
"646","","j","psychophysics","71","219307","0.0-7.0-3.0-0.57","7","7","7","7","7","5","5","5","5","5","5","2","0","2","1","2","2","2","2","5","5","5","5","4","5","5","5","4","4","7","7","6","6","5","5","6","8","7","6","6","7","7","7","7","6","1","6","7","1","7","6","7","7","6","6","7","7","7","7","6","7","7","6","6","7","7","7","7","7","7","6","7","7","7","7","7","7","6","5","598892418162491392","何","590","Female","[""好她"",""坏我"",""好我"",""坏她""]","[""强她"",""弱我"",""强我"",""弱她""]","","","","","","","","no","","","","","","","","","SRET","EW_formal","","key","j","16.65162244897956","731.4285714285714","407.23809523809524","自己","背叛","Negative","morality","","","","","","","","","","",""
"719","","j","psychophysics","72","221027","0.0-7.0-3.0-0.58","7","7","7","7","7","5","5","5","5","5","5","2","0","2","1","2","2","2","2","5","5","5","5","4","5","5","5","4","4","7","7","6","6","5","5","6","8","7","6","6","7","7","7","7","6","1","6","7","1","7","6","7","7","6","6","7","7","7","7","6","7","7","6","6","7","7","7","7","7","7","6","7","7","7","7","7","7","6","5","598892418162491392","何","590","Female","[""好她"",""坏我"",""好我"",""坏她""]","[""强她"",""弱我"",""强我"",""弱她""]","","","","","","","","no","","","","","","","","","SRET","EW_formal","","key","j","16.652368932039007","731.4285714285714","407.23809523809524","自己","新手","Negative","ability","","","","","","","","","","",""
"606","","j","psychophysics","73","222635","0.0-7.0-3.0-0.59","7","7","7","7","7","5","5","5","5","5","5","2","0","2","1","2","2","2","2","5","5","5","5","4","5","5","5","4","4","7","7","6","6","5","5","6","8","7","6","6","7","7","7","7","6","1","6","7","1","7","6","7","7","6","6","7","7","7","7","6","7","7","6","6","7","7","7","7","7","7","6","7","7","7","7","7","7","6","5","598892418162491392","何","590","Female","[""好她"",""坏我"",""好我"",""坏她""]","[""强她"",""弱我"",""强我"",""弱她""]","","","","","","","","no","","","","","","","","","SRET","EW_formal","","key","j","16.646642105262973","731.4285714285714","407.23809523809524","自己","笨蛋","Negative","ability","","","","","","","","","","",""
"751","","j","psychophysics","74","224386","0.0-7.0-3.0-0.60","7","7","7","7","7","5","5","5","5","5","5","2","0","2","1","2","2","2","2","5","5","5","5","4","5","5","5","4","4","7","7","6","6","5","5","6","8","7","6","6","7","7","7","7","6","1","6","7","1","7","6","7","7","6","6","7","7","7","7","6","7","7","6","6","7","7","7","7","7","7","6","7","7","7","7","7","7","6","5","598892418162491392","何","590","Female","[""好她"",""坏我"",""好我"",""坏她""]","[""强她"",""弱我"",""强我"",""弱她""]","","","","","","","","no","","","","","","","","","SRET","EW_formal","","key","j","16.651423076923002","731.4285714285714","407.23809523809524","朋友","差生","Negative","ability","","","","","","","","","","",""
"935","","j","psychophysics","75","226323","0.0-7.0-3.0-0.61","7","7","7","7","7","5","5","5","5","5","5","2","0","2","1","2","2","2","2","5","5","5","5","4","5","5","5","4","4","7","7","6","6","5","5","6","8","7","6","6","7","7","7","7","6","1","6","7","1","7","6","7","7","6","6","7","7","7","7","6","7","7","6","6","7","7","7","7","7","7","6","7","7","7","7","7","7","6","5","598892418162491392","何","590","Female","[""好她"",""坏我"",""好我"",""坏她""]","[""强她"",""弱我"",""强我"",""弱她""]","","","","","","","","no","","","","","","","","","SRET","EW_formal","","key","j","16.651456896551878","731.4285714285714","407.23809523809524","朋友","独断","Negative","ability","","","","","","","","","","",""
"502","","f","psychophysics","76","227826","0.0-7.0-3.0-0.62","7","7","7","7","7","5","5","5","5","5","5","2","0","2","1","2","2","2","2","5","5","5","5","4","5","5","5","4","4","7","7","6","6","5","5","6","8","7","6","6","7","7","7","7","6","1","6","7","1","7","6","7","7","6","6","7","7","7","7","6","7","7","6","6","7","7","7","7","7","7","6","7","7","7","7","7","7","6","5","598892418162491392","何","590","Female","[""好她"",""坏我"",""好我"",""坏她""]","[""强她"",""弱我"",""强我"",""弱她""]","","","","","","","","yes","","","","","","","","","SRET","EW_formal","","key","f","16.64874157303352","731.4285714285714","407.23809523809524","自己","忠诚","Positive","morality","","","","","","","","","","",""
"679","","j","psychophysics","77","229506","0.0-7.0-3.0-0.63","7","7","7","7","7","5","5","5","5","5","5","2","0","2","1","2","2","2","2","5","5","5","5","4","5","5","5","4","4","7","7","6","6","5","5","6","8","7","6","6","7","7","7","7","6","1","6","7","1","7","6","7","7","6","6","7","7","7","7","6","7","7","6","6","7","7","7","7","7","7","6","7","7","7","7","7","7","6","5","598892418162491392","何","590","Female","[""好她"",""坏我"",""好我"",""坏她""]","[""强她"",""弱我"",""强我"",""弱她""]","","","","","","","","no","","","","","","","","","SRET","EW_formal","","key","j","16.655770000000192","731.4285714285714","407.23809523809524","朋友","驽钝","Negative","ability","","","","","","","","","","",""
"767","","j","psychophysics","78","231274","0.0-7.0-3.0-0.64","7","7","7","7","7","5","5","5","5","5","5","2","0","2","1","2","2","2","2","5","5","5","5","4","5","5","5","4","4","7","7","6","6","5","5","6","8","7","6","6","7","7","7","7","6","1","6","7","1","7","6","7","7","6","6","7","7","7","7","6","7","7","6","6","7","7","7","7","7","7","6","7","7","7","7","7","7","6","5","598892418162491392","何","590","Female","[""好她"",""坏我"",""好我"",""坏她""]","[""强她"",""弱我"",""强我"",""弱她""]","","","","","","","","no","","","","","","","","","SRET","EW_formal","","key","j","16.653523809523765","731.4285714285714","407.23809523809524","朋友","浅薄","Negative","ability","","","","","","","","","","",""
"623","","f","psychophysics","79","232898","0.0-7.0-3.0-0.65","7","7","7","7","7","5","5","5","5","5","5","2","0","2","1","2","2","2","2","5","5","5","5","4","5","5","5","4","4","7","7","6","6","5","5","6","8","7","6","6","7","7","7","7","6","1","6","7","1","7","6","7","7","6","6","7","7","7","7","6","7","7","6","6","7","7","7","7","7","7","6","7","7","7","7","7","7","6","5","598892418162491392","何","590","Female","[""好她"",""坏我"",""好我"",""坏她""]","[""强她"",""弱我"",""强我"",""弱她""]","","","","","","","","yes","","","","","","","","","SRET","EW_formal","","key","f","16.651453608247337","731.4285714285714","407.23809523809524","朋友","清廉","Positive","morality","","","","","","","","","","",""
"664","","j","psychophysics","80","234562","0.0-7.0-3.0-0.66","7","7","7","7","7","5","5","5","5","5","5","2","0","2","1","2","2","2","2","5","5","5","5","4","5","5","5","4","4","7","7","6","6","5","5","6","8","7","6","6","7","7","7","7","6","1","6","7","1","7","6","7","7","6","6","7","7","7","7","6","7","7","6","6","7","7","7","7","7","7","6","7","7","7","7","7","7","6","5","598892418162491392","何","590","Female","[""好她"",""坏我"",""好我"",""坏她""]","[""强她"",""弱我"",""强我"",""弱她""]","","","","","","","","no","","","","","","","","","SRET","EW_formal","","key","j","16.65096969696966","731.4285714285714","407.23809523809524","自己","歹毒","Negative","morality","","","","","","","","","","",""
"688","","f","psychophysics","81","236251","0.0-7.0-3.0-0.67","7","7","7","7","7","5","5","5","5","5","5","2","0","2","1","2","2","2","2","5","5","5","5","4","5","5","5","4","4","7","7","6","6","5","5","6","8","7","6","6","7","7","7","7","6","1","6","7","1","7","6","7","7","6","6","7","7","7","7","6","7","7","6","6","7","7","7","7","7","7","6","7","7","7","7","7","7","6","5","598892418162491392","何","590","Female","[""好她"",""坏我"",""好我"",""坏她""]","[""强她"",""弱我"",""强我"",""弱她""]","","","","","","","","yes","","","","","","","","","SRET","EW_formal","","key","f","16.6508600000001","731.4285714285714","407.23809523809524","朋友","守信","Positive","morality","","","","","","","","","","",""
"494","","f","psychophysics","82","237746","0.0-7.0-3.0-0.68","7","7","7","7","7","5","5","5","5","5","5","2","0","2","1","2","2","2","2","5","5","5","5","4","5","5","5","4","4","7","7","6","6","5","5","6","8","7","6","6","7","7","7","7","6","1","6","7","1","7","6","7","7","6","6","7","7","7","7","6","7","7","6","6","7","7","7","7","7","7","6","7","7","7","7","7","7","6","5","598892418162491392","何","590","Female","[""好她"",""坏我"",""好我"",""坏她""]","[""强她"",""弱我"",""强我"",""弱她""]","","","","","","","","yes","","","","","","","","","SRET","EW_formal","","key","f","16.65223595505617","731.4285714285714","407.23809523809524","朋友","善良","Positive","morality","","","","","","","","","","",""
"558","","j","psychophysics","83","239306","0.0-7.0-3.0-0.69","7","7","7","7","7","5","5","5","5","5","5","2","0","2","1","2","2","2","2","5","5","5","5","4","5","5","5","4","4","7","7","6","6","5","5","6","8","7","6","6","7","7","7","7","6","1","6","7","1","7","6","7","7","6","6","7","7","7","7","6","7","7","6","6","7","7","7","7","7","7","6","7","7","7","7","7","7","6","5","598892418162491392","何","590","Female","[""好她"",""坏我"",""好我"",""坏她""]","[""强她"",""弱我"",""强我"",""弱她""]","","","","","","","","no","","","","","","","","","SRET","EW_formal","","key","j","16.652858695652117","731.4285714285714","407.23809523809524","朋友","不端","Negative","morality","","","","","","","","","","",""
"519","","f","psychophysics","84","240826","0.0-7.0-3.0-0.70","7","7","7","7","7","5","5","5","5","5","5","2","0","2","1","2","2","2","2","5","5","5","5","4","5","5","5","4","4","7","7","6","6","5","5","6","8","7","6","6","7","7","7","7","6","1","6","7","1","7","6","7","7","6","6","7","7","7","7","6","7","7","6","6","7","7","7","7","7","7","6","7","7","7","7","7","7","6","5","598892418162491392","何","590","Female","[""好她"",""坏我"",""好我"",""坏她""]","[""强她"",""弱我"",""强我"",""弱她""]","","","","","","","","yes","","","","","","","","","SRET","EW_formal","","key","f","16.653417582417696","731.4285714285714","407.23809523809524","自己","聪明","Positive","ability","","","","","","","","","","",""
"678","","f","psychophysics","85","242507","0.0-7.0-3.0-0.71","7","7","7","7","7","5","5","5","5","5","5","2","0","2","1","2","2","2","2","5","5","5","5","4","5","5","5","4","4","7","7","6","6","5","5","6","8","7","6","6","7","7","7","7","6","1","6","7","1","7","6","7","7","6","6","7","7","7","7","6","7","7","6","6","7","7","7","7","7","7","6","7","7","7","7","7","7","6","5","598892418162491392","何","590","Female","[""好她"",""坏我"",""好我"",""坏她""]","[""强她"",""弱我"",""强我"",""弱她""]","","","","","","","","yes","","","","","","","","","SRET","EW_formal","","key","f","16.650259999999836","731.4285714285714","407.23809523809524","朋友","仁厚","Positive","morality","","","","","","","","","","",""
"572","","j","psychophysics","86","244082","0.0-7.0-3.0-0.72","7","7","7","7","7","5","5","5","5","5","5","2","0","2","1","2","2","2","2","5","5","5","5","4","5","5","5","4","4","7","7","6","6","5","5","6","8","7","6","6","7","7","7","7","6","1","6","7","1","7","6","7","7","6","6","7","7","7","7","6","7","7","6","6","7","7","7","7","7","7","6","7","7","7","7","7","7","6","5","598892418162491392","何","590","Female","[""好她"",""坏我"",""好我"",""坏她""]","[""强她"",""弱我"",""强我"",""弱她""]","","","","","","","","no","","","","","","","","","SRET","EW_formal","","key","j","16.651516129032107","731.4285714285714","407.23809523809524","朋友","愚钝","Negative","ability","","","","","","","","","","",""
"545","","j","psychophysics","87","245627","0.0-7.0-3.0-0.73","7","7","7","7","7","5","5","5","5","5","5","2","0","2","1","2","2","2","2","5","5","5","5","4","5","5","5","4","4","7","7","6","6","5","5","6","8","7","6","6","7","7","7","7","6","1","6","7","1","7","6","7","7","6","6","7","7","7","7","6","7","7","6","6","7","7","7","7","7","7","6","7","7","7","7","7","7","6","5","598892418162491392","何","590","Female","[""好她"",""坏我"",""好我"",""坏她""]","[""强她"",""弱我"",""强我"",""弱她""]","","","","","","","","no","","","","","","","","","SRET","EW_formal","","key","j","16.651054347826058","731.4285714285714","407.23809523809524","自己","畏难","Negative","ability","","","","","","","","","","",""
"454","","f","psychophysics","88","247083","0.0-7.0-3.0-0.74","7","7","7","7","7","5","5","5","5","5","5","2","0","2","1","2","2","2","2","5","5","5","5","4","5","5","5","4","4","7","7","6","6","5","5","6","8","7","6","6","7","7","7","7","6","1","6","7","1","7","6","7","7","6","6","7","7","7","7","6","7","7","6","6","7","7","7","7","7","7","6","7","7","7","7","7","7","6","5","598892418162491392","何","590","Female","[""好她"",""坏我"",""好我"",""坏她""]","[""强她"",""弱我"",""强我"",""弱她""]","","","","","","","","yes","","","","","","","","","SRET","EW_formal","","key","f","16.652093023256004","731.4285714285714","407.23809523809524","朋友","精干","Positive","ability","","","","","","","","","","",""
"951","","f","psychophysics","89","249035","0.0-7.0-3.0-0.75","7","7","7","7","7","5","5","5","5","5","5","2","0","2","1","2","2","2","2","5","5","5","5","4","5","5","5","4","4","7","7","6","6","5","5","6","8","7","6","6","7","7","7","7","6","1","6","7","1","7","6","7","7","6","6","7","7","7","7","6","7","7","6","6","7","7","7","7","7","7","6","7","7","7","7","7","7","6","5","598892418162491392","何","590","Female","[""好她"",""坏我"",""好我"",""坏她""]","[""强她"",""弱我"",""强我"",""弱她""]","","","","","","","","yes","","","","","","","","","SRET","EW_formal","","key","f","16.65143589743609","731.4285714285714","407.23809523809524","朋友","干练","Positive","ability","","","","","","","","","","",""
"600","","j","psychophysics","90","250635","0.0-7.0-3.0-0.76","7","7","7","7","7","5","5","5","5","5","5","2","0","2","1","2","2","2","2","5","5","5","5","4","5","5","5","4","4","7","7","6","6","5","5","6","8","7","6","6","7","7","7","7","6","1","6","7","1","7","6","7","7","6","6","7","7","7","7","6","7","7","6","6","7","7","7","7","7","7","6","7","7","7","7","7","7","6","5","598892418162491392","何","590","Female","[""好她"",""坏我"",""好我"",""坏她""]","[""强她"",""弱我"",""强我"",""弱她""]","","","","","","","","no","","","","","","","","","SRET","EW_formal","","key","j","16.651905263158014","731.4285714285714","407.23809523809524","朋友","缺德","Negative","morality","","","","","","","","","","",""
"591","","j","psychophysics","91","252227","0.0-7.0-3.0-0.77","7","7","7","7","7","5","5","5","5","5","5","2","0","2","1","2","2","2","2","5","5","5","5","4","5","5","5","4","4","7","7","6","6","5","5","6","8","7","6","6","7","7","7","7","6","1","6","7","1","7","6","7","7","6","6","7","7","7","7","6","7","7","6","6","7","7","7","7","7","7","6","7","7","7","7","7","7","6","5","598892418162491392","何","590","Female","[""好她"",""坏我"",""好我"",""坏她""]","[""强她"",""弱我"",""强我"",""弱她""]","","","","","","","","no","","","","","","","","","SRET","EW_formal","","key","j","16.651627659574437","731.4285714285714","407.23809523809524","自己","愚蠢","Negative","ability","","","","","","","","","","",""
"558","","j","psychophysics","92","253786","0.0-7.0-3.0-0.78","7","7","7","7","7","5","5","5","5","5","5","2","0","2","1","2","2","2","2","5","5","5","5","4","5","5","5","4","4","7","7","6","6","5","5","6","8","7","6","6","7","7","7","7","6","1","6","7","1","7","6","7","7","6","6","7","7","7","7","6","7","7","6","6","7","7","7","7","7","7","6","7","7","7","7","7","7","6","5","598892418162491392","何","590","Female","[""好她"",""坏我"",""好我"",""坏她""]","[""强她"",""弱我"",""强我"",""弱她""]","","","","","","","","no","","","","","","","","","SRET","EW_formal","","key","j","16.652322580645134","731.4285714285714","407.23809523809524","自己","狡诈","Negative","morality","","","","","","","","","","",""
"671","","j","psychophysics","93","255458","0.0-7.0-3.0-0.79","7","7","7","7","7","5","5","5","5","5","5","2","0","2","1","2","2","2","2","5","5","5","5","4","5","5","5","4","4","7","7","6","6","5","5","6","8","7","6","6","7","7","7","7","6","1","6","7","1","7","6","7","7","6","6","7","7","7","7","6","7","7","6","6","7","7","7","7","7","7","6","7","7","7","7","7","7","6","5","598892418162491392","何","590","Female","[""好她"",""坏我"",""好我"",""坏她""]","[""强她"",""弱我"",""强我"",""弱她""]","","","","","","","","no","","","","","","","","","SRET","EW_formal","","key","j","16.651666666666515","731.4285714285714","407.23809523809524","朋友","屈才","Negative","ability","","","","","","","","","","",""
"583","","j","psychophysics","94","257042","0.0-7.0-3.0-0.80","7","7","7","7","7","5","5","5","5","5","5","2","0","2","1","2","2","2","2","5","5","5","5","4","5","5","5","4","4","7","7","6","6","5","5","6","8","7","6","6","7","7","7","7","6","1","6","7","1","7","6","7","7","6","6","7","7","7","7","6","7","7","6","6","7","7","7","7","7","7","6","7","7","7","7","7","7","6","5","598892418162491392","何","590","Female","[""好她"",""坏我"",""好我"",""坏她""]","[""强她"",""弱我"",""强我"",""弱她""]","","","","","","","","no","","","","","","","","","SRET","EW_formal","","key","j","16.655242105263383","731.4285714285714","407.23809523809524","朋友","龌龊","Negative","morality","","","","","","","","","","",""
"671","","j","psychophysics","95","258714","0.0-7.0-3.0-0.81","7","7","7","7","7","5","5","5","5","5","5","2","0","2","1","2","2","2","2","5","5","5","5","4","5","5","5","4","4","7","7","6","6","5","5","6","8","7","6","6","7","7","7","7","6","1","6","7","1","7","6","7","7","6","6","7","7","7","7","6","7","7","6","6","7","7","7","7","7","7","6","7","7","7","7","7","7","6","5","598892418162491392","何","590","Female","[""好她"",""坏我"",""好我"",""坏她""]","[""强她"",""弱我"",""强我"",""弱她""]","","","","","","","","no","","","","","","","","","SRET","EW_formal","","key","j","16.65403030303041","731.4285714285714","407.23809523809524","自己","窝囊","Negative","ability","","","","","","","","","","",""
"471","","f","psychophysics","96","260186","0.0-7.0-3.0-0.82","7","7","7","7","7","5","5","5","5","5","5","2","0","2","1","2","2","2","2","5","5","5","5","4","5","5","5","4","4","7","7","6","6","5","5","6","8","7","6","6","7","7","7","7","6","1","6","7","1","7","6","7","7","6","6","7","7","7","7","6","7","7","6","6","7","7","7","7","7","7","6","7","7","7","7","7","7","6","5","598892418162491392","何","590","Female","[""好她"",""坏我"",""好我"",""坏她""]","[""强她"",""弱我"",""强我"",""弱她""]","","","","","","","","yes","","","","","","","","","SRET","EW_formal","","key","f","16.651229885057212","731.4285714285714","407.23809523809524","自己","娴熟","Positive","ability","","","","","","","","","","",""
"455","","f","psychophysics","97","261642","0.0-7.0-3.0-0.83","7","7","7","7","7","5","5","5","5","5","5","2","0","2","1","2","2","2","2","5","5","5","5","4","5","5","5","4","4","7","7","6","6","5","5","6","8","7","6","6","7","7","7","7","6","1","6","7","1","7","6","7","7","6","6","7","7","7","7","6","7","7","6","6","7","7","7","7","7","7","6","7","7","7","7","7","7","6","5","598892418162491392","何","590","Female","[""好她"",""坏我"",""好我"",""坏她""]","[""强她"",""弱我"",""强我"",""弱她""]","","","","","","","","yes","","","","","","","","","SRET","EW_formal","","key","f","16.651931034482683","731.4285714285714","407.23809523809524","朋友","忠勇","Positive","morality","","","","","","","","","","",""
"593","","j","psychophysics","98","263237","0.0-7.0-3.0-0.84","7","7","7","7","7","5","5","5","5","5","5","2","0","2","1","2","2","2","2","5","5","5","5","4","5","5","5","4","4","7","7","6","6","5","5","6","8","7","6","6","7","7","7","7","6","1","6","7","1","7","6","7","7","6","6","7","7","7","7","6","7","7","6","6","7","7","7","7","7","7","6","7","7","7","7","7","7","6","5","598892418162491392","何","590","Female","[""好她"",""坏我"",""好我"",""坏她""]","[""强她"",""弱我"",""强我"",""弱她""]","","","","","","","","no","","","","","","","","","SRET","EW_formal","","key","j","16.651768421052687","731.4285714285714","407.23809523809524","自己","缓慢","Negative","ability","","","","","","","","","","",""
"580","","f","psychophysics","99","264818","0.0-7.0-3.0-0.85","7","7","7","7","7","5","5","5","5","5","5","2","0","2","1","2","2","2","2","5","5","5","5","4","5","5","5","4","4","7","7","6","6","5","5","6","8","7","6","6","7","7","7","7","6","1","6","7","1","7","6","7","7","6","6","7","7","7","7","6","7","7","6","6","7","7","7","7","7","7","6","7","7","7","7","7","7","6","5","598892418162491392","何","590","Female","[""好她"",""坏我"",""好我"",""坏她""]","[""强她"",""弱我"",""强我"",""弱她""]","","","","","","","","yes","","","","","","","","","SRET","EW_formal","","key","f","16.655308510638164","731.4285714285714","407.23809523809524","自己","主见","Positive","ability","","","","","","","","","","",""
"702","","j","psychophysics","100","266522","0.0-7.0-3.0-0.86","7","7","7","7","7","5","5","5","5","5","5","2","0","2","1","2","2","2","2","5","5","5","5","4","5","5","5","4","4","7","7","6","6","5","5","6","8","7","6","6","7","7","7","7","6","1","6","7","1","7","6","7","7","6","6","7","7","7","7","6","7","7","6","6","7","7","7","7","7","7","6","7","7","7","7","7","7","6","5","598892418162491392","何","590","Female","[""好她"",""坏我"",""好我"",""坏她""]","[""强她"",""弱我"",""强我"",""弱她""]","","","","","","","","no","","","","","","","","","SRET","EW_formal","","key","j","16.650277227722338","731.4285714285714","407.23809523809524","朋友","低俗","Negative","morality","","","","","","","","","","",""
"566","","f","psychophysics","101","268090","0.0-7.0-3.0-0.87","7","7","7","7","7","5","5","5","5","5","5","2","0","2","1","2","2","2","2","5","5","5","5","4","5","5","5","4","4","7","7","6","6","5","5","6","8","7","6","6","7","7","7","7","6","1","6","7","1","7","6","7","7","6","6","7","7","7","7","6","7","7","6","6","7","7","7","7","7","7","6","7","7","7","7","7","7","6","5","598892418162491392","何","590","Female","[""好她"",""坏我"",""好我"",""坏她""]","[""强她"",""弱我"",""强我"",""弱她""]","","","","","","","","yes","","","","","","","","","SRET","EW_formal","","key","f","16.651526881720475","731.4285714285714","407.23809523809524","朋友","素养","Positive","morality","","","","","","","","","","",""
"61936","
    <p><div style='color:white;font-size:35px; line-height:20px;'>计算任务</div></p><br>
    <p><div style='color:red;font-size:25px; line-height:20px;'>接下来，您将看到一些四则运算题，<b>请从键盘选择 0-9 进行反应。</b></div></p>
    <p><div style='color:red;font-size:25px; line-height:20px;'>请尽可能快地进行计算，计算的速度和正确率将影响报酬的发放。</div></p>
    <p><div class='footer' style='color:white;font-size:25px; line-height:20px;'>如果对本实验还有不清楚之处，请立即向实验员咨询。</p><p style='color:white;font-size:25px; line-height:20px;'>如果您明白了规则：</p><p style='color:white;font-size:22px; line-height:20px;'>请按 继续 进入练习</p>
    </div>
    ","0","html-button-response","102","330027","0.0-7.0-4.0","7","7","7","7","7","5","5","5","5","5","5","2","0","2","1","2","2","2","2","5","5","5","5","4","5","5","5","4","4","7","7","6","6","5","5","6","8","7","6","6","7","7","7","7","6","1","6","7","1","7","6","7","7","6","6","7","7","7","7","6","7","7","6","6","7","7","7","7","7","7","6","7","7","7","7","7","7","6","5","598892418162491392","何","590","Female","[""好她"",""坏我"",""好我"",""坏她""]","[""强她"",""弱我"",""强我"",""弱她""]","","","","","","","","","","","","","","","","","SRET_math","math_instructions","Mon Dec 25 2023 20:29:39 GMT+0800 (中国标准时间)","","","","","","","","","","","","","","","","","","","",""
"1716","","3","psychophysics","103","331747","0.0-7.0-5.0-0.0","7","7","7","7","7","5","5","5","5","5","5","2","0","2","1","2","2","2","2","5","5","5","5","4","5","5","5","4","4","7","7","6","6","5","5","6","8","7","6","6","7","7","7","7","6","1","6","7","1","7","6","7","7","6","6","7","7","7","7","6","7","7","6","6","7","7","7","7","7","7","6","7","7","7","7","7","7","6","5","598892418162491392","何","590","Female","[""好她"",""坏我"",""好我"",""坏她""]","[""强她"",""弱我"",""强我"",""弱她""]","","","","","","","","3","","","","","","","","","SRET","SRET_math_calculate","","key","3","16.648543689320274","731.4285714285714","407.23809523809524","","","","","2+1= ?","3","1","","","","","","","",""
"1719","","9","psychophysics","104","333467","0.0-7.0-5.0-0.1","7","7","7","7","7","5","5","5","5","5","5","2","0","2","1","2","2","2","2","5","5","5","5","4","5","5","5","4","4","7","7","6","6","5","5","6","8","7","6","6","7","7","7","7","6","1","6","7","1","7","6","7","7","6","6","7","7","7","7","6","7","7","6","6","7","7","7","7","7","7","6","7","7","7","7","7","7","6","5","598892418162491392","何","590","Female","[""好她"",""坏我"",""好我"",""坏她""]","[""强她"",""弱我"",""强我"",""弱她""]","","","","","","","","9","","","","","","","","","SRET","SRET_math_calculate","","key","9","16.653843137255286","731.4285714285714","407.23809523809524","","","","","6+3= ?","9","1","","","","","","","",""
"1935","","9","psychophysics","105","335403","0.0-7.0-5.0-0.2","7","7","7","7","7","5","5","5","5","5","5","2","0","2","1","2","2","2","2","5","5","5","5","4","5","5","5","4","4","7","7","6","6","5","5","6","8","7","6","6","7","7","7","7","6","1","6","7","1","7","6","7","7","6","6","7","7","7","7","6","7","7","6","6","7","7","7","7","7","7","6","7","7","7","7","7","7","6","5","598892418162491392","何","590","Female","[""好她"",""坏我"",""好我"",""坏她""]","[""强她"",""弱我"",""强我"",""弱她""]","","","","","","","","9","","","","","","","","","SRET","SRET_math_calculate","","key","9","16.65138793103437","731.4285714285714","407.23809523809524","","","","","3*3= ?","9","1","","","","","","","",""
"1743","","7","psychophysics","106","337147","0.0-7.0-5.0-0.3","7","7","7","7","7","5","5","5","5","5","5","2","0","2","1","2","2","2","2","5","5","5","5","4","5","5","5","4","4","7","7","6","6","5","5","6","8","7","6","6","7","7","7","7","6","1","6","7","1","7","6","7","7","6","6","7","7","7","7","6","7","7","6","6","7","7","7","7","7","7","6","7","7","7","7","7","7","6","5","598892418162491392","何","590","Female","[""好她"",""坏我"",""好我"",""坏她""]","[""强她"",""弱我"",""强我"",""弱她""]","","","","","","","","7","","","","","","","","","SRET","SRET_math_calculate","","key","7","16.645378640776578","731.4285714285714","407.23809523809524","","","","","5+2= ?","7","1","","","","","","","",""
"1776","","0","psychophysics","107","338923","0.0-7.0-5.0-0.4","7","7","7","7","7","5","5","5","5","5","5","2","0","2","1","2","2","2","2","5","5","5","5","4","5","5","5","4","4","7","7","6","6","5","5","6","8","7","6","6","7","7","7","7","6","1","6","7","1","7","6","7","7","6","6","7","7","7","7","6","7","7","6","6","7","7","7","7","7","7","6","7","7","7","7","7","7","6","5","598892418162491392","何","590","Female","[""好她"",""坏我"",""好我"",""坏她""]","[""强她"",""弱我"",""强我"",""弱她""]","","","","","","","","0","","","","","","","","","SRET","SRET_math_calculate","","key","0","16.651075471697798","731.4285714285714","407.23809523809524","","","","","7*0= ?","0","1","","","","","","","",""
"1903","","5","psychophysics","108","340827","0.0-7.0-5.0-0.5","7","7","7","7","7","5","5","5","5","5","5","2","0","2","1","2","2","2","2","5","5","5","5","4","5","5","5","4","4","7","7","6","6","5","5","6","8","7","6","6","7","7","7","7","6","1","6","7","1","7","6","7","7","6","6","7","7","7","7","6","7","7","6","6","7","7","7","7","7","7","6","7","7","7","7","7","7","6","5","598892418162491392","何","590","Female","[""好她"",""坏我"",""好我"",""坏她""]","[""强她"",""弱我"",""强我"",""弱她""]","","","","","","","","5","","","","","","","","","SRET","SRET_math_calculate","","key","5","16.651566371681742","731.4285714285714","407.23809523809524","","","","","17-12= ? ","5","1","","","","","","","",""
"1718","","4","psychophysics","109","342547","0.0-7.0-5.0-0.6","7","7","7","7","7","5","5","5","5","5","5","2","0","2","1","2","2","2","2","5","5","5","5","4","5","5","5","4","4","7","7","6","6","5","5","6","8","7","6","6","7","7","7","7","6","1","6","7","1","7","6","7","7","6","6","7","7","7","7","6","7","7","6","6","7","7","7","7","7","7","6","7","7","7","7","7","7","6","5","598892418162491392","何","590","Female","[""好她"",""坏我"",""好我"",""坏她""]","[""强她"",""弱我"",""强我"",""弱她""]","","","","","","","","4","","","","","","","","","SRET","SRET_math_calculate","","key","4","16.651456310679386","731.4285714285714","407.23809523809524","","","","","2+2= ?","4","1","","","","","","","",""
"1759","","9","psychophysics","110","344308","0.0-7.0-5.0-0.7","7","7","7","7","7","5","5","5","5","5","5","2","0","2","1","2","2","2","2","5","5","5","5","4","5","5","5","4","4","7","7","6","6","5","5","6","8","7","6","6","7","7","7","7","6","1","6","7","1","7","6","7","7","6","6","7","7","7","7","6","7","7","6","6","7","7","7","7","7","7","6","7","7","7","7","7","7","6","5","598892418162491392","何","590","Female","[""好她"",""坏我"",""好我"",""坏她""]","[""强她"",""弱我"",""强我"",""弱她""]","","","","","","","","9","","","","","","","","","SRET","SRET_math_calculate","","key","9","16.653038461538156","731.4285714285714","407.23809523809524","","","","","1+8= ?","9","1","","","","","","","",""
"1937","","3","psychophysics","111","346252","0.0-7.0-5.0-0.8","7","7","7","7","7","5","5","5","5","5","5","2","0","2","1","2","2","2","2","5","5","5","5","4","5","5","5","4","4","7","7","6","6","5","5","6","8","7","6","6","7","7","7","7","6","1","6","7","1","7","6","7","7","6","6","7","7","7","7","6","7","7","6","6","7","7","7","7","7","7","6","7","7","7","7","7","7","6","5","598892418162491392","何","590","Female","[""好她"",""坏我"",""好我"",""坏她""]","[""强她"",""弱我"",""强我"",""弱她""]","","","","","","","","3","","","","","","","","","SRET","SRET_math_calculate","","key","3","16.65027586206872","731.4285714285714","407.23809523809524","","","","","9-6= ?","3","1","","","","","","","",""
"1878","","6","psychophysics","112","348131","0.0-7.0-5.0-0.9","7","7","7","7","7","5","5","5","5","5","5","2","0","2","1","2","2","2","2","5","5","5","5","4","5","5","5","4","4","7","7","6","6","5","5","6","8","7","6","6","7","7","7","7","6","1","6","7","1","7","6","7","7","6","6","7","7","7","7","6","7","7","6","6","7","7","7","7","7","7","6","7","7","7","7","7","7","6","5","598892418162491392","何","590","Female","[""好她"",""坏我"",""好我"",""坏她""]","[""强她"",""弱我"",""强我"",""弱她""]","","","","","","","","6","","","","","","","","","SRET","SRET_math_calculate","","key","6","16.651705357142678","731.4285714285714","407.23809523809524","","","","","9-3= ?","6","1","","","","","","","",""
"2183","","8","psychophysics","113","350315","0.0-7.0-5.0-0.10","7","7","7","7","7","5","5","5","5","5","5","2","0","2","1","2","2","2","2","5","5","5","5","4","5","5","5","4","4","7","7","6","6","5","5","6","8","7","6","6","7","7","7","7","6","1","6","7","1","7","6","7","7","6","6","7","7","7","7","6","7","7","6","6","7","7","7","7","7","7","6","7","7","7","7","7","7","6","5","598892418162491392","何","590","Female","[""好她"",""坏我"",""好我"",""坏她""]","[""强她"",""弱我"",""强我"",""弱她""]","","","","","","","","8","","","","","","","","","SRET","SRET_math_calculate","","key","8","16.651153846154024","731.4285714285714","407.23809523809524","","","","","11-3= ?","8","1","","","","","","","",""
"2095","","2","psychophysics","114","352411","0.0-7.0-5.0-0.11","7","7","7","7","7","5","5","5","5","5","5","2","0","2","1","2","2","2","2","5","5","5","5","4","5","5","5","4","4","7","7","6","6","5","5","6","8","7","6","6","7","7","7","7","6","1","6","7","1","7","6","7","7","6","6","7","7","7","7","6","7","7","6","6","7","7","7","7","7","7","6","7","7","7","7","7","7","6","5","598892418162491392","何","590","Female","[""好她"",""坏我"",""好我"",""坏她""]","[""强她"",""弱我"",""强我"",""弱她""]","","","","","","","","2","","","","","","","","","SRET","SRET_math_calculate","","key","2","16.651175999999978","731.4285714285714","407.23809523809524","","","","","5-3= ?","2","1","","","","","","","",""
"1734","","0","psychophysics","115","354147","0.0-7.0-5.0-0.12","7","7","7","7","7","5","5","5","5","5","5","2","0","2","1","2","2","2","2","5","5","5","5","4","5","5","5","4","4","7","7","6","6","5","5","6","8","7","6","6","7","7","7","7","6","1","6","7","1","7","6","7","7","6","6","7","7","7","7","6","7","7","6","6","7","7","7","7","7","7","6","7","7","7","7","7","7","6","5","598892418162491392","何","590","Female","[""好她"",""坏我"",""好我"",""坏她""]","[""强她"",""弱我"",""强我"",""弱她""]","","","","","","","","0","","","","","","","","","SRET","SRET_math_calculate","","key","0","16.651669902912367","731.4285714285714","407.23809523809524","","","","","6*0= ?","0","1","","","","","","","",""
"2024","","6","psychophysics","116","356171","0.0-7.0-5.0-0.13","7","7","7","7","7","5","5","5","5","5","5","2","0","2","1","2","2","2","2","5","5","5","5","4","5","5","5","4","4","7","7","6","6","5","5","6","8","7","6","6","7","7","7","7","6","1","6","7","1","7","6","7","7","6","6","7","7","7","7","6","7","7","6","6","7","7","7","7","7","7","6","7","7","7","7","7","7","6","5","598892418162491392","何","590","Female","[""好她"",""坏我"",""好我"",""坏她""]","[""强她"",""弱我"",""强我"",""弱她""]","","","","","","","","6","","","","","","","","","SRET","SRET_math_calculate","","key","6","16.65071900826465","731.4285714285714","407.23809523809524","","","","","3+0= ?","3","0","","","","","","","",""
"1839","","7","psychophysics","117","358012","0.0-7.0-5.0-0.14","7","7","7","7","7","5","5","5","5","5","5","2","0","2","1","2","2","2","2","5","5","5","5","4","5","5","5","4","4","7","7","6","6","5","5","6","8","7","6","6","7","7","7","7","6","1","6","7","1","7","6","7","7","6","6","7","7","7","7","6","7","7","6","6","7","7","7","7","7","7","6","7","7","7","7","7","7","6","5","598892418162491392","何","590","Female","[""好她"",""坏我"",""好我"",""坏她""]","[""强她"",""弱我"",""强我"",""弱她""]","","","","","","","","7","","","","","","","","","SRET","SRET_math_calculate","","key","7","16.65208256880725","731.4285714285714","407.23809523809524","","","","","8-1= ?","7","1","","","","","","","",""
"1710","","7","psychophysics","118","359724","0.0-7.0-5.0-0.15","7","7","7","7","7","5","5","5","5","5","5","2","0","2","1","2","2","2","2","5","5","5","5","4","5","5","5","4","4","7","7","6","6","5","5","6","8","7","6","6","7","7","7","7","6","1","6","7","1","7","6","7","7","6","6","7","7","7","7","6","7","7","6","6","7","7","7","7","7","7","6","7","7","7","7","7","7","6","5","598892418162491392","何","590","Female","[""好她"",""坏我"",""好我"",""坏她""]","[""强她"",""弱我"",""强我"",""弱她""]","","","","","","","","7","","","","","","","","","SRET","SRET_math_calculate","","key","7","16.651931372548763","731.4285714285714","407.23809523809524","","","","","2+5= ?","7","1","","","","","","","",""
"1990","","3","psychophysics","119","361715","0.0-7.0-5.0-0.16","7","7","7","7","7","5","5","5","5","5","5","2","0","2","1","2","2","2","2","5","5","5","5","4","5","5","5","4","4","7","7","6","6","5","5","6","8","7","6","6","7","7","7","7","6","1","6","7","1","7","6","7","7","6","6","7","7","7","7","6","7","7","6","6","7","7","7","7","7","7","6","7","7","7","7","7","7","6","5","598892418162491392","何","590","Female","[""好她"",""坏我"",""好我"",""坏她""]","[""强她"",""弱我"",""强我"",""弱她""]","","","","","","","","3","","","","","","","","","SRET","SRET_math_calculate","","key","3","16.654033613445517","731.4285714285714","407.23809523809524","","","","","8-5= ?","3","1","","","","","","","",""
"1679","","9","psychophysics","120","363395","0.0-7.0-5.0-0.17","7","7","7","7","7","5","5","5","5","5","5","2","0","2","1","2","2","2","2","5","5","5","5","4","5","5","5","4","4","7","7","6","6","5","5","6","8","7","6","6","7","7","7","7","6","1","6","7","1","7","6","7","7","6","6","7","7","7","7","6","7","7","6","6","7","7","7","7","7","7","6","7","7","7","7","7","7","6","5","598892418162491392","何","590","Female","[""好她"",""坏我"",""好我"",""坏她""]","[""强她"",""弱我"",""强我"",""弱她""]","","","","","","","","9","","","","","","","","","SRET","SRET_math_calculate","","key","9","16.651189999999477","731.4285714285714","407.23809523809524","","","","","4+5= ?","9","1","","","","","","","",""
"1782","","2","psychophysics","121","365179","0.0-7.0-5.0-0.18","7","7","7","7","7","5","5","5","5","5","5","2","0","2","1","2","2","2","2","5","5","5","5","4","5","5","5","4","4","7","7","6","6","5","5","6","8","7","6","6","7","7","7","7","6","1","6","7","1","7","6","7","7","6","6","7","7","7","7","6","7","7","6","6","7","7","7","7","7","7","6","7","7","7","7","7","7","6","5","598892418162491392","何","590","Female","[""好她"",""坏我"",""好我"",""坏她""]","[""强她"",""弱我"",""强我"",""弱她""]","","","","","","","","2","","","","","","","","","SRET","SRET_math_calculate","","key","2","16.650792452830707","731.4285714285714","407.23809523809524","","","","","90/45= ?","2","1","","","","","","","",""
"2183","","1","psychophysics","122","367364","0.0-7.0-5.0-0.19","7","7","7","7","7","5","5","5","5","5","5","2","0","2","1","2","2","2","2","5","5","5","5","4","5","5","5","4","4","7","7","6","6","5","5","6","8","7","6","6","7","7","7","7","6","1","6","7","1","7","6","7","7","6","6","7","7","7","7","6","7","7","6","6","7","7","7","7","7","7","6","7","7","7","7","7","7","6","5","598892418162491392","何","590","Female","[""好她"",""坏我"",""好我"",""坏她""]","[""强她"",""弱我"",""强我"",""弱她""]","","","","","","","","1","","","","","","","","","SRET","SRET_math_calculate","","key","1","16.651584615384657","731.4285714285714","407.23809523809524","","","","","12/12= ?","1","1","","","","","","","",""
"1823","","9","psychophysics","123","369188","0.0-7.0-5.0-0.20","7","7","7","7","7","5","5","5","5","5","5","2","0","2","1","2","2","2","2","5","5","5","5","4","5","5","5","4","4","7","7","6","6","5","5","6","8","7","6","6","7","7","7","7","6","1","6","7","1","7","6","7","7","6","6","7","7","7","7","6","7","7","6","6","7","7","7","7","7","7","6","7","7","7","7","7","7","6","5","598892418162491392","何","590","Female","[""好她"",""坏我"",""好我"",""坏她""]","[""强她"",""弱我"",""强我"",""弱她""]","","","","","","","","9","","","","","","","","","SRET","SRET_math_calculate","","key","9","16.65153211009221","731.4285714285714","407.23809523809524","","","","","3+6= ?","9","1","","","","","","","",""
"1741","","4","psychophysics","124","370931","0.0-7.0-5.0-0.21","7","7","7","7","7","5","5","5","5","5","5","2","0","2","1","2","2","2","2","5","5","5","5","4","5","5","5","4","4","7","7","6","6","5","5","6","8","7","6","6","7","7","7","7","6","1","6","7","1","7","6","7","7","6","6","7","7","7","7","6","7","7","6","6","7","7","7","7","7","7","6","7","7","7","7","7","7","6","5","598892418162491392","何","590","Female","[""好她"",""坏我"",""好我"",""坏她""]","[""强她"",""弱我"",""强我"",""弱她""]","","","","","","","","4","","","","","","","","","SRET","SRET_math_calculate","","key","4","16.649504854368697","731.4285714285714","407.23809523809524","","","","","9-5= ?","4","1","","","","","","","",""
"1824","","4","psychophysics","125","372755","0.0-7.0-5.0-0.22","7","7","7","7","7","5","5","5","5","5","5","2","0","2","1","2","2","2","2","5","5","5","5","4","5","5","5","4","4","7","7","6","6","5","5","6","8","7","6","6","7","7","7","7","6","1","6","7","1","7","6","7","7","6","6","7","7","7","7","6","7","7","6","6","7","7","7","7","7","7","6","7","7","7","7","7","7","6","5","598892418162491392","何","590","Female","[""好她"",""坏我"",""好我"",""坏她""]","[""强她"",""弱我"",""强我"",""弱她""]","","","","","","","","4","","","","","","","","","SRET","SRET_math_calculate","","key","4","16.651559633027695","731.4285714285714","407.23809523809524","","","","","4*1= ?","4","1","","","","","","","",""
"1832","","8","psychophysics","126","374588","0.0-7.0-5.0-0.23","7","7","7","7","7","5","5","5","5","5","5","2","0","2","1","2","2","2","2","5","5","5","5","4","5","5","5","4","4","7","7","6","6","5","5","6","8","7","6","6","7","7","7","7","6","1","6","7","1","7","6","7","7","6","6","7","7","7","7","6","7","7","6","6","7","7","7","7","7","7","6","7","7","7","7","7","7","6","5","598892418162491392","何","590","Female","[""好她"",""坏我"",""好我"",""坏她""]","[""强她"",""弱我"",""强我"",""弱她""]","","","","","","","","8","","","","","","","","","SRET","SRET_math_calculate","","key","8","16.652027522935747","731.4285714285714","407.23809523809524","","","","","7+1= ?","8","1","","","","","","","",""
"1722","","4","psychophysics","127","376315","0.0-7.0-5.0-0.24","7","7","7","7","7","5","5","5","5","5","5","2","0","2","1","2","2","2","2","5","5","5","5","4","5","5","5","4","4","7","7","6","6","5","5","6","8","7","6","6","7","7","7","7","6","1","6","7","1","7","6","7","7","6","6","7","7","7","7","6","7","7","6","6","7","7","7","7","7","7","6","7","7","7","7","7","7","6","5","598892418162491392","何","590","Female","[""好她"",""坏我"",""好我"",""坏她""]","[""强她"",""弱我"",""强我"",""弱她""]","","","","","","","","4","","","","","","","","","SRET","SRET_math_calculate","","key","4","16.65134951456346","731.4285714285714","407.23809523809524","","","","","3+1= ?","4","1","","","","","","","",""
"1799","","7","psychophysics","128","378115","0.0-7.0-5.0-0.25","7","7","7","7","7","5","5","5","5","5","5","2","0","2","1","2","2","2","2","5","5","5","5","4","5","5","5","4","4","7","7","6","6","5","5","6","8","7","6","6","7","7","7","7","6","1","6","7","1","7","6","7","7","6","6","7","7","7","7","6","7","7","6","6","7","7","7","7","7","7","6","7","7","7","7","7","7","6","5","598892418162491392","何","590","Female","[""好她"",""坏我"",""好我"",""坏她""]","[""强她"",""弱我"",""强我"",""弱她""]","","","","","","","","7","","","","","","","","","SRET","SRET_math_calculate","","key","7","16.65117757009325","731.4285714285714","407.23809523809524","","","","","12-5= ?","7","1","","","","","","","",""
"1887","","4","psychophysics","129","380003","0.0-7.0-5.0-0.26","7","7","7","7","7","5","5","5","5","5","5","2","0","2","1","2","2","2","2","5","5","5","5","4","5","5","5","4","4","7","7","6","6","5","5","6","8","7","6","6","7","7","7","7","6","1","6","7","1","7","6","7","7","6","6","7","7","7","7","6","7","7","6","6","7","7","7","7","7","7","6","7","7","7","7","7","7","6","5","598892418162491392","何","590","Female","[""好她"",""坏我"",""好我"",""坏她""]","[""强她"",""弱我"",""强我"",""弱她""]","","","","","","","","4","","","","","","","","","SRET","SRET_math_calculate","","key","4","16.648857142857327","731.4285714285714","407.23809523809524","","","","","20/5= ?","4","1","","","","","","","",""
"1822","","8","psychophysics","130","381827","0.0-7.0-5.0-0.27","7","7","7","7","7","5","5","5","5","5","5","2","0","2","1","2","2","2","2","5","5","5","5","4","5","5","5","4","4","7","7","6","6","5","5","6","8","7","6","6","7","7","7","7","6","1","6","7","1","7","6","7","7","6","6","7","7","7","7","6","7","7","6","6","7","7","7","7","7","7","6","7","7","7","7","7","7","6","5","598892418162491392","何","590","Female","[""好她"",""坏我"",""好我"",""坏她""]","[""强她"",""弱我"",""强我"",""弱她""]","","","","","","","","8","","","","","","","","","SRET","SRET_math_calculate","","key","8","16.65160550458737","731.4285714285714","407.23809523809524","","","","","5+3= ?","8","1","","","","","","","",""
"2415","","8","psychophysics","131","384243","0.0-7.0-5.0-0.28","7","7","7","7","7","5","5","5","5","5","5","2","0","2","1","2","2","2","2","5","5","5","5","4","5","5","5","4","4","7","7","6","6","5","5","6","8","7","6","6","7","7","7","7","6","1","6","7","1","7","6","7","7","6","6","7","7","7","7","6","7","7","6","6","7","7","7","7","7","7","6","7","7","7","7","7","7","6","5","598892418162491392","何","590","Female","[""好她"",""坏我"",""好我"",""坏她""]","[""强她"",""弱我"",""强我"",""弱她""]","","","","","","","","8","","","","","","","","","SRET","SRET_math_calculate","","key","8","16.65115972222217","731.4285714285714","407.23809523809524","","","","","56/7= ?","8","1","","","","","","","",""
"2126","","9","psychophysics","132","386371","0.0-7.0-5.0-0.29","7","7","7","7","7","5","5","5","5","5","5","2","0","2","1","2","2","2","2","5","5","5","5","4","5","5","5","4","4","7","7","6","6","5","5","6","8","7","6","6","7","7","7","7","6","1","6","7","1","7","6","7","7","6","6","7","7","7","7","6","7","7","6","6","7","7","7","7","7","7","6","7","7","7","7","7","7","6","5","598892418162491392","何","590","Female","[""好她"",""坏我"",""好我"",""坏她""]","[""强她"",""弱我"",""强我"",""弱她""]","","","","","","","","9","","","","","","","","","SRET","SRET_math_calculate","","key","9","16.64955555555542","731.4285714285714","407.23809523809524","","","","","7+2= ?","9","1","","","","","","","",""
"1781","","5","psychophysics","133","388155","0.0-7.0-5.0-0.30","7","7","7","7","7","5","5","5","5","5","5","2","0","2","1","2","2","2","2","5","5","5","5","4","5","5","5","4","4","7","7","6","6","5","5","6","8","7","6","6","7","7","7","7","6","1","6","7","1","7","6","7","7","6","6","7","7","7","7","6","7","7","6","6","7","7","7","7","7","7","6","7","7","7","7","7","7","6","5","598892418162491392","何","590","Female","[""好她"",""坏我"",""好我"",""坏她""]","[""强她"",""弱我"",""强我"",""弱她""]","","","","","","","","5","","","","","","","","","SRET","SRET_math_calculate","","key","5","16.65077570093432","731.4285714285714","407.23809523809524","","","","","9-4= ?","5","1","","","","","","","",""
"1816","","9","psychophysics","134","389972","0.0-7.0-5.0-0.31","7","7","7","7","7","5","5","5","5","5","5","2","0","2","1","2","2","2","2","5","5","5","5","4","5","5","5","4","4","7","7","6","6","5","5","6","8","7","6","6","7","7","7","7","6","1","6","7","1","7","6","7","7","6","6","7","7","7","7","6","7","7","6","6","7","7","7","7","7","7","6","7","7","7","7","7","7","6","5","598892418162491392","何","590","Female","[""好她"",""坏我"",""好我"",""坏她""]","[""强她"",""弱我"",""强我"",""弱她""]","","","","","","","","9","","","","","","","","","SRET","SRET_math_calculate","","key","9","16.65255555555578","731.4285714285714","407.23809523809524","","","","","8+1= ?","9","1","","","","","","","",""
"1837","","0","psychophysics","135","391810","0.0-7.0-5.0-0.32","7","7","7","7","7","5","5","5","5","5","5","2","0","2","1","2","2","2","2","5","5","5","5","4","5","5","5","4","4","7","7","6","6","5","5","6","8","7","6","6","7","7","7","7","6","1","6","7","1","7","6","7","7","6","6","7","7","7","7","6","7","7","6","6","7","7","7","7","7","7","6","7","7","7","7","7","7","6","5","598892418162491392","何","590","Female","[""好她"",""坏我"",""好我"",""坏她""]","[""强她"",""弱我"",""强我"",""弱她""]","","","","","","","","0","","","","","","","","","SRET","SRET_math_calculate","","key","0","16.651642201834683","731.4285714285714","407.23809523809524","","","","","5*0= ?","0","1","","","","","","","",""
"1775","","8","psychophysics","136","393586","0.0-7.0-5.0-0.33","7","7","7","7","7","5","5","5","5","5","5","2","0","2","1","2","2","2","2","5","5","5","5","4","5","5","5","4","4","7","7","6","6","5","5","6","8","7","6","6","7","7","7","7","6","1","6","7","1","7","6","7","7","6","6","7","7","7","7","6","7","7","6","6","7","7","7","7","7","7","6","7","7","7","7","7","7","6","5","598892418162491392","何","590","Female","[""好她"",""坏我"",""好我"",""坏她""]","[""强她"",""弱我"",""强我"",""弱她""]","","","","","","","","8","","","","","","","","","SRET","SRET_math_calculate","","key","8","16.65367924528337","731.4285714285714","407.23809523809524","","","","","9-1= ?","8","1","","","","","","","",""
