"rt","stimulus","response","trial_type","trial_index","time_elapsed","internal_node_id","swb_1","swb_2","swb_3","swb_4","swb_5","LOT_1","LOT_2","LOT_3","LOT_4","LOT_5","LOT_6","IPC_1","IPC_2","IPC_3","IPC_4","IPC_5","IPC_6","IPC_7","IPC_8","MorIden_1","MorIden_2","MorIden_3","MorIden_4","MorIden_5","MorIden_6","MorIden_7","MorIden_8","MorIden_9","MorIden_10","moralSeImag_1","moralSeImag_2","moralSeImag_3","moralSeImag_4","moralSeImag_5","moralSeImag_6","moralSeImag_7","moralSeImag_8","moralSeImag_9","sde_1","sde_2","sde_3","sde_4","sde_5","sde_6","sde_7","sde_8","sde_9","sde_10","trap2","sde_11","sde_12","sde_13","sde_14","sde_15","sde_16","sde_17","sde_18","sde_19","sde_20","IM_1","IM_2","IM_3","IM_4","IM_5","IM_6","IM_7","IM_8","IM_9","IM_10","IM_11","IM_12","IM_13","IM_14","IM_15","IM_16","IM_17","IM_18","IM_19","IM_20","subj_idx","friend_name","ParticipantID","Sex","Word","Word2","value","success","timeout","failed_images","failed_audio","failed_video","user_agent","responses","item_order","radio_event_ids","radio_event_times","key_event_times","mouse_event_times","straightlining","zigzagging","honeypot","task_id","screen_id","time_stamp","response_type","key_press","avg_frame_time","center_x","center_y","person","word","valence","domain","math","correct_response","correct","status","view_history","identity","duration","Image","condition","question_order","trap2_item"
"2734","
   <p><div style='color:white; font-size: 25px'>您好，欢迎参加本次实验。</div></p>
   <p><div style='color:white; font-size: 25px'>为充分保障您的权利，请确保您已经知晓并同意《参与实验同意书》以及《数据公开知情同意书》。</div></p>
   <p><div style='color:white; font-size: 25px'>如果您未见过上述内容，请咨询实验员。</div></p>
   <p style='color:white; font-size: 25px'>如果您选择继续实验，则表示您已经清楚两份知情同意书的内容并同意。</p>
   <p><div style = ""color: pink;font-size:30px;"">请确保您记得day0的实验编号，您将在本次实验输入该编号，若您忘记，请咨询实验员后作答。</div></p>
   <p><div style = ""color:lightblue;font-size:25px;"">请您尽可能认真地作答，我们将依据您在各问卷和按键任务中的作答质量发放报酬。</div></p>
   <p> <div style = ""color: green""><按空格键至下页></div> </p>
   "," ","html-keyboard-response","0","2747","0.0-0.0","6","6","7","6","7","5","1","4","4","4","5","1","1","2","1","0","2","2","1","5","5","5","5","4","4","4","4","5","4","5","5","6","7","4","7","7","5","8","6","3","1","3","6","3","6","1","5","1","1","5","2","6","2","2","4","5","3","2","4","3","5","3","3","2","6","3","7","3","7","7","2","4","4","2","5","2","7","3","5","768533085213167618","徐","417","Female","[""坏我"",""好她"",""坏她"",""好我""]","[""弱我"",""强她"",""弱她"",""强我""]","","","","","","","","","","","","","","","","","","","","","","","","","","","","","","","","","","","","","","",""
"","","","call-function","1","2752","0.0-1.0-0.0","6","6","7","6","7","5","1","4","4","4","5","1","1","2","1","0","2","2","1","5","5","5","5","4","4","4","4","5","4","5","5","6","7","4","7","7","5","8","6","3","1","3","6","3","6","1","5","1","1","5","2","6","2","2","4","5","3","2","4","3","5","3","3","2","6","3","7","3","7","7","2","4","4","2","5","2","7","3","5","768533085213167618","徐","417","Female","[""坏我"",""好她"",""坏她"",""好我""]","[""弱我"",""强她"",""弱她"",""强我""]","","","","","","","","","","","","","","","","","","","","","","","","","","","","","","","","","","","","","","",""
"48309","","[{""name"":""Sex"",""value"":""1""},{""name"":""friend_name"",""value"":""徐""},{""name"":""ParticipantID"",""value"":""417""}]","survey-html-form","2","51066","0.0-1.0-1.0","6","6","7","6","7","5","1","4","4","4","5","1","1","2","1","0","2","2","1","5","5","5","5","4","4","4","4","5","4","5","5","6","7","4","7","7","5","8","6","3","1","3","6","3","6","1","5","1","1","5","2","6","2","2","4","5","3","2","4","3","5","3","3","2","6","3","7","3","7","7","2","4","4","2","5","2","7","3","5","768533085213167618","徐","417","Female","[""坏我"",""好她"",""坏她"",""好我""]","[""弱我"",""强她"",""弱她"",""强我""]","","","","","","","","","","","","","","","","","","","","","","","","","","","","","","","","","","","","","","",""
"","","","preload","3","53218","0.0-2.0","6","6","7","6","7","5","1","4","4","4","5","1","1","2","1","0","2","2","1","5","5","5","5","4","4","4","4","5","4","5","5","6","7","4","7","7","5","8","6","3","1","3","6","3","6","1","5","1","1","5","2","6","2","2","4","5","3","2","4","3","5","3","3","2","6","3","7","3","7","7","2","4","4","2","5","2","7","3","5","768533085213167618","徐","417","Female","[""坏我"",""好她"",""坏她"",""好我""]","[""弱我"",""强她"",""弱她"",""强我""]","","true","false","[]","[]","[]","","","","","","","","","","","","","","","","","","","","","","","","","","","","","","","","",""
"","","","fullscreen","4","56175","0.0-3.0","6","6","7","6","7","5","1","4","4","4","5","1","1","2","1","0","2","2","1","5","5","5","5","4","4","4","4","5","4","5","5","6","7","4","7","7","5","8","6","3","1","3","6","3","6","1","5","1","1","5","2","6","2","2","4","5","3","2","4","3","5","3","3","2","6","3","7","3","7","7","2","4","4","2","5","2","7","3","5","768533085213167618","徐","417","Female","[""坏我"",""好她"",""坏她"",""好我""]","[""弱我"",""强她"",""弱她"",""强我""]","","true","","","","","{}","","","","","","","","","","","","","","","","","","","","","","","","","","","","","","","",""
"11472.5","","{""Q01"":""6"",""Q02"":""6"",""Q03"":""7"",""Q04"":""6"",""Q05"":""7""}","survey-template","5","67661","0.0-4.0","6","6","7","6","7","5","1","4","4","4","5","1","1","2","1","0","2","2","1","5","5","5","5","4","4","4","4","5","4","5","5","6","7","4","7","7","5","8","6","3","1","3","6","3","6","1","5","1","1","5","2","6","2","2","4","5","3","2","4","3","5","3","3","2","6","3","7","3","7","7","2","4","4","2","5","2","7","3","5","768533085213167618","徐","417","Female","[""坏我"",""好她"",""坏她"",""好我""]","[""弱我"",""强她"",""弱她"",""强我""]","","","","","","","","{""Q01"":""6"",""Q02"":""6"",""Q03"":""7"",""Q04"":""6"",""Q05"":""7""}","[0,1,2,3,4]","[""Q01"",""Q02"",""Q03"",""Q04"",""Q05""]","[2568.5999999996275,4724.799999998882,7495.0999999996275,9714.89999999851,10732.099999999627]","[]","[2568.5999999996275,3776.5,4724.799999998882,6439.39999999851,7495.0999999996275,8480.699999999255,9714.89999999851,10732.099999999627,11464.099999999627]","0.6","0.75","0","","","","","","","","","","","","","","","","","","","","","","",""
"13984.400000000373","","{""Q01"":""5"",""Q02"":""1"",""Q03"":""4"",""Q04"":""4"",""Q05"":""4"",""Q06"":""5""}","survey-template","6","81669","0.0-5.0","6","6","7","6","7","5","1","4","4","4","5","1","1","2","1","0","2","2","1","5","5","5","5","4","4","4","4","5","4","5","5","6","7","4","7","7","5","8","6","3","1","3","6","3","6","1","5","1","1","5","2","6","2","2","4","5","3","2","4","3","5","3","3","2","6","3","7","3","7","7","2","4","4","2","5","2","7","3","5","768533085213167618","徐","417","Female","[""坏我"",""好她"",""坏她"",""好我""]","[""弱我"",""强她"",""弱她"",""强我""]","","","","","","","","{""Q01"":""5"",""Q02"":""1"",""Q03"":""4"",""Q04"":""4"",""Q05"":""4"",""Q06"":""5""}","[0,1,2,3,4,5]","[""Q01"",""Q02"",""Q03"",""Q04"",""Q05"",""Q06""]","[3432.5,4912.9000000003725,6595.5,8633.699999999255,9854.199999999255,13260]","[]","[3432.5,4912.9000000003725,6595.5,8633.699999999255,9854.199999999255,13260,13981.900000000373]","0.5","0.2","0","","","","","","","","","","","","","","","","","","","","","","",""
"27841.400000000373","","{""Q01"":""1"",""Q02"":""1"",""Q03"":""2"",""Q04"":""1"",""Q05"":""0"",""Q06"":""2"",""Q07"":""2"",""Q08"":""1""}","survey-template","7","109534","0.0-6.0","6","6","7","6","7","5","1","4","4","4","5","1","1","2","1","0","2","2","1","5","5","5","5","4","4","4","4","5","4","5","5","6","7","4","7","7","5","8","6","3","1","3","6","3","6","1","5","1","1","5","2","6","2","2","4","5","3","2","4","3","5","3","3","2","6","3","7","3","7","7","2","4","4","2","5","2","7","3","5","768533085213167618","徐","417","Female","[""坏我"",""好她"",""坏她"",""好我""]","[""弱我"",""强她"",""弱她"",""强我""]","","","","","","","","{""Q01"":""1"",""Q02"":""1"",""Q03"":""2"",""Q04"":""1"",""Q05"":""0"",""Q06"":""2"",""Q07"":""2"",""Q08"":""1""}","[0,1,2,3,4,5,6,7]","[""Q01"",""Q02"",""Q03"",""Q04"",""Q05"",""Q06"",""Q07"",""Q08""]","[10182.400000000373,12517.700000001118,14394,17368.60000000149,19595.5,21361.900000000373,23388.60000000149,26056]","[]","[10182.400000000373,12517.700000001118,14394,17368.60000000149,19595.5,21361.900000000373,23388.60000000149,24491.10000000149,26056,27832.800000000745]","0.5","0.5714285714285714","0","","","","","","","","","","","","","","","","","","","","","","",""
"20221","
    <p><div style='color:white;font-size:35px; line-height:20px;'>词汇评估任务</div></p><br>
    <p><div style='color:white;font-size:25px; line-height:20px;'>请再次回忆该亲密的朋友，你们至少2年前就认识了，并且最近2年经常见面。</div></p>
    <p><div style='color:white;font-size:25px; line-height:20px;'>在本实验中，您将会看到一些形容词。</div></p>
    <p><div style='color:yellow;font-size:25px; line-height:20px;'>您的任务是判断这些形容词是否符合对您自己或您的朋友的描述。</div></p><p style='font-size:35px'>符合按<span style=""color:lightgreen""> j 键</span>，不符合按<span style=""color:red""> f 键</span></p>","0","html-button-response","8","129774","0.0-7.0-0.0","6","6","7","6","7","5","1","4","4","4","5","1","1","2","1","0","2","2","1","5","5","5","5","4","4","4","4","5","4","5","5","6","7","4","7","7","5","8","6","3","1","3","6","3","6","1","5","1","1","5","2","6","2","2","4","5","3","2","4","3","5","3","3","2","6","3","7","3","7","7","2","4","4","2","5","2","7","3","5","768533085213167618","徐","417","Female","[""坏我"",""好她"",""坏她"",""好我""]","[""弱我"",""强她"",""弱她"",""强我""]","","","","","","","","","","","","","","","","","SRET_EW","EW_instructions","Mon Dec 25 2023 14:48:53 GMT+0800 (中国标准时间)","","","","","","","","","","","","","","","","","","","",""
"1322","","f","psychophysics","9","132112","0.0-7.0-1.0-0.0","6","6","7","6","7","5","1","4","4","4","5","1","1","2","1","0","2","2","1","5","5","5","5","4","4","4","4","5","4","5","5","6","7","4","7","7","5","8","6","3","1","3","6","3","6","1","5","1","1","5","2","6","2","2","4","5","3","2","4","3","5","3","3","2","6","3","7","3","7","7","2","4","4","2","5","2","7","3","5","768533085213167618","徐","417","Female","[""坏我"",""好她"",""坏她"",""好我""]","[""弱我"",""强她"",""弱她"",""强我""]","","","","","","","","no","","","","","","","","","SRET_EW","EW_practice","","key","f","22.769336633663162","853.1249872874471","475.6249929126353","自己","严谨","Positive","ability","","","","","","","","","","",""
"1665","","j","psychophysics","10","134814","0.0-7.0-1.0-0.1","6","6","7","6","7","5","1","4","4","4","5","1","1","2","1","0","2","2","1","5","5","5","5","4","4","4","4","5","4","5","5","6","7","4","7","7","5","8","6","3","1","3","6","3","6","1","5","1","1","5","2","6","2","2","4","5","3","2","4","3","5","3","3","2","6","3","7","3","7","7","2","4","4","2","5","2","7","3","5","768533085213167618","徐","417","Female","[""坏我"",""好她"",""坏她"",""好我""]","[""弱我"",""强她"",""弱她"",""强我""]","","","","","","","","yes","","","","","","","","","SRET_EW","EW_practice","","key","j","23.131293103448115","853.1249872874471","475.6249929126353","朋友","徇私","Negative","morality","","","","","","","","","","",""
"1068","","f","psychophysics","11","136903","0.0-7.0-1.0-0.2","6","6","7","6","7","5","1","4","4","4","5","1","1","2","1","0","2","2","1","5","5","5","5","4","4","4","4","5","4","5","5","6","7","4","7","7","5","8","6","3","1","3","6","3","6","1","5","1","1","5","2","6","2","2","4","5","3","2","4","3","5","3","3","2","6","3","7","3","7","7","2","4","4","2","5","2","7","3","5","768533085213167618","徐","417","Female","[""坏我"",""好她"",""坏她"",""好我""]","[""弱我"",""强她"",""弱她"",""强我""]","","","","","","","","no","","","","","","","","","SRET_EW","EW_practice","","key","f","22.70995604395604","853.1249872874471","475.6249929126353","朋友","忠实","Positive","morality","","","","","","","","","","",""
"848","","j","psychophysics","12","138757","0.0-7.0-1.0-0.3","6","6","7","6","7","5","1","4","4","4","5","1","1","2","1","0","2","2","1","5","5","5","5","4","4","4","4","5","4","5","5","6","7","4","7","7","5","8","6","3","1","3","6","3","6","1","5","1","1","5","2","6","2","2","4","5","3","2","4","3","5","3","3","2","6","3","7","3","7","7","2","4","4","2","5","2","7","3","5","768533085213167618","徐","417","Female","[""坏我"",""好她"",""坏她"",""好我""]","[""弱我"",""强她"",""弱她"",""强我""]","","","","","","","","yes","","","","","","","","","SRET_EW","EW_practice","","key","j","22.994607594936625","853.1249872874471","475.6249929126353","自己","刻板","Negative","ability","","","","","","","","","","",""
"16624","
    <p><div style='color:white;font-size:35px; line-height:20px;'>请您再次阅读实验要求</div></p><br>
    <p><div style='color:white;font-size:25px; line-height:20px;'>请回忆某一个亲密的朋友，你们至少2年前就认识了，并且最近2年经常见面。</div></p>
    <p><div style='color:white;font-size:25px; line-height:20px;'>在本实验中，您将会看到一些形容词。</div></p>
    <p><div style='color:yellow;font-size:25px; line-height:20px;'>您的任务是判断这些形容词是否符合对您自己或您的朋友的描述。</div></p>
    <p><div class='footer' style='font-size:25px; line-height:20px;'>如果对本实验还有不清楚之处，请立即向实验员咨询。</p><p style='font-size:25px; line-height:20px;'>如果您明白了规则：</p><p style='font-size:22px; line-height:20px;'>请按 继续 进入正式实验</p>
    </div>
    <p style='font-size:35px'>符合按<span style=""color:lightgreen""> j 键</span>，不符合按<span style=""color:red""> f 键</span></p>","0","html-button-response","13","155387","0.0-7.0-2.0","6","6","7","6","7","5","1","4","4","4","5","1","1","2","1","0","2","2","1","5","5","5","5","4","4","4","4","5","4","5","5","6","7","4","7","7","5","8","6","3","1","3","6","3","6","1","5","1","1","5","2","6","2","2","4","5","3","2","4","3","5","3","3","2","6","3","7","3","7","7","2","4","4","2","5","2","7","3","5","768533085213167618","徐","417","Female","[""坏我"",""好她"",""坏她"",""好我""]","[""弱我"",""强她"",""弱她"",""强我""]","","","","","","","","","","","","","","","","","SRET_EW","prac_instructions","Mon Dec 25 2023 14:48:53 GMT+0800 (中国标准时间)","","","","","","","","","","","","","","","","","","","",""
"647","","j","psychophysics","14","157057","0.0-7.0-3.0-0.0","6","6","7","6","7","5","1","4","4","4","5","1","1","2","1","0","2","2","1","5","5","5","5","4","4","4","4","5","4","5","5","6","7","4","7","7","5","8","6","3","1","3","6","3","6","1","5","1","1","5","2","6","2","2","4","5","3","2","4","3","5","3","3","2","6","3","7","3","7","7","2","4","4","2","5","2","7","3","5","768533085213167618","徐","417","Female","[""坏我"",""好她"",""坏她"",""好我""]","[""弱我"",""强她"",""弱她"",""强我""]","","","","","","","","yes","","","","","","","","","SRET","EW_formal","","key","j","22.5973698630138","853.1249872874471","475.6249929126353","朋友","务实","Positive","ability","","","","","","","","","","",""
"767","","f","psychophysics","15","158839","0.0-7.0-3.0-0.1","6","6","7","6","7","5","1","4","4","4","5","1","1","2","1","0","2","2","1","5","5","5","5","4","4","4","4","5","4","5","5","6","7","4","7","7","5","8","6","3","1","3","6","3","6","1","5","1","1","5","2","6","2","2","4","5","3","2","4","3","5","3","3","2","6","3","7","3","7","7","2","4","4","2","5","2","7","3","5","768533085213167618","徐","417","Female","[""坏我"",""好她"",""坏她"",""好我""]","[""弱我"",""强她"",""弱她"",""强我""]","","","","","","","","no","","","","","","","","","SRET","EW_formal","","key","f","23.02125000000026","853.1249872874471","475.6249929126353","朋友","迷糊","Negative","ability","","","","","","","","","","",""
"943","","f","psychophysics","16","160799","0.0-7.0-3.0-0.2","6","6","7","6","7","5","1","4","4","4","5","1","1","2","1","0","2","2","1","5","5","5","5","4","4","4","4","5","4","5","5","6","7","4","7","7","5","8","6","3","1","3","6","3","6","1","5","1","1","5","2","6","2","2","4","5","3","2","4","3","5","3","3","2","6","3","7","3","7","7","2","4","4","2","5","2","7","3","5","768533085213167618","徐","417","Female","[""坏我"",""好她"",""坏她"",""好我""]","[""弱我"",""强她"",""弱她"",""强我""]","","","","","","","","no","","","","","","","","","SRET","EW_formal","","key","f","23.86745679012376","853.1249872874471","475.6249929126353","自己","说谎","Negative","morality","","","","","","","","","","",""
"521","","j","psychophysics","17","162344","0.0-7.0-3.0-0.3","6","6","7","6","7","5","1","4","4","4","5","1","1","2","1","0","2","2","1","5","5","5","5","4","4","4","4","5","4","5","5","6","7","4","7","7","5","8","6","3","1","3","6","3","6","1","5","1","1","5","2","6","2","2","4","5","3","2","4","3","5","3","3","2","6","3","7","3","7","7","2","4","4","2","5","2","7","3","5","768533085213167618","徐","417","Female","[""坏我"",""好她"",""坏她"",""好我""]","[""弱我"",""强她"",""弱她"",""强我""]","","","","","","","","yes","","","","","","","","","SRET","EW_formal","","key","j","22.547117647058794","853.1249872874471","475.6249929126353","自己","坚贞","Positive","morality","","","","","","","","","","",""
"707","","j","psychophysics","18","164069","0.0-7.0-3.0-0.4","6","6","7","6","7","5","1","4","4","4","5","1","1","2","1","0","2","2","1","5","5","5","5","4","4","4","4","5","4","5","5","6","7","4","7","7","5","8","6","3","1","3","6","3","6","1","5","1","1","5","2","6","2","2","4","5","3","2","4","3","5","3","3","2","6","3","7","3","7","7","2","4","4","2","5","2","7","3","5","768533085213167618","徐","417","Female","[""坏我"",""好她"",""坏她"",""好我""]","[""弱我"",""强她"",""弱她"",""强我""]","","","","","","","","yes","","","","","","","","","SRET","EW_formal","","key","j","23.61061111111121","853.1249872874471","475.6249929126353","自己","廉明","Positive","morality","","","","","","","","","","",""
"961","","j","psychophysics","19","166055","0.0-7.0-3.0-0.5","6","6","7","6","7","5","1","4","4","4","5","1","1","2","1","0","2","2","1","5","5","5","5","4","4","4","4","5","4","5","5","6","7","4","7","7","5","8","6","3","1","3","6","3","6","1","5","1","1","5","2","6","2","2","4","5","3","2","4","3","5","3","3","2","6","3","7","3","7","7","2","4","4","2","5","2","7","3","5","768533085213167618","徐","417","Female","[""坏我"",""好她"",""坏她"",""好我""]","[""弱我"",""强她"",""弱她"",""强我""]","","","","","","","","yes","","","","","","","","","SRET","EW_formal","","key","j","22.940376470588244","853.1249872874471","475.6249929126353","朋友","刻苦","Positive","ability","","","","","","","","","","",""
"636","","j","psychophysics","20","167712","0.0-7.0-3.0-0.6","6","6","7","6","7","5","1","4","4","4","5","1","1","2","1","0","2","2","1","5","5","5","5","4","4","4","4","5","4","5","5","6","7","4","7","7","5","8","6","3","1","3","6","3","6","1","5","1","1","5","2","6","2","2","4","5","3","2","4","3","5","3","3","2","6","3","7","3","7","7","2","4","4","2","5","2","7","3","5","768533085213167618","徐","417","Female","[""坏我"",""好她"",""坏她"",""好我""]","[""弱我"",""强她"",""弱她"",""强我""]","","","","","","","","yes","","","","","","","","","SRET","EW_formal","","key","j","22.685541666666623","853.1249872874471","475.6249929126353","朋友","正气","Positive","morality","","","","","","","","","","",""
"835","","f","psychophysics","21","169590","0.0-7.0-3.0-0.7","6","6","7","6","7","5","1","4","4","4","5","1","1","2","1","0","2","2","1","5","5","5","5","4","4","4","4","5","4","5","5","6","7","4","7","7","5","8","6","3","1","3","6","3","6","1","5","1","1","5","2","6","2","2","4","5","3","2","4","3","5","3","3","2","6","3","7","3","7","7","2","4","4","2","5","2","7","3","5","768533085213167618","徐","417","Female","[""坏我"",""好她"",""坏她"",""好我""]","[""弱我"",""强她"",""弱她"",""强我""]","","","","","","","","no","","","","","","","","","SRET","EW_formal","","key","f","23.333799999999975","853.1249872874471","475.6249929126353","朋友","拜金","Negative","morality","","","","","","","","","","",""
"856","","f","psychophysics","22","171459","0.0-7.0-3.0-0.8","6","6","7","6","7","5","1","4","4","4","5","1","1","2","1","0","2","2","1","5","5","5","5","4","4","4","4","5","4","5","5","6","7","4","7","7","5","8","6","3","1","3","6","3","6","1","5","1","1","5","2","6","2","2","4","5","3","2","4","3","5","3","3","2","6","3","7","3","7","7","2","4","4","2","5","2","7","3","5","768533085213167618","徐","417","Female","[""坏我"",""好她"",""坏她"",""好我""]","[""弱我"",""强她"",""弱她"",""强我""]","","","","","","","","no","","","","","","","","","SRET","EW_formal","","key","f","23.123287499999787","853.1249872874471","475.6249929126353","自己","卑鄙","Negative","morality","","","","","","","","","","",""
"739","","j","psychophysics","23","173206","0.0-7.0-3.0-0.9","6","6","7","6","7","5","1","4","4","4","5","1","1","2","1","0","2","2","1","5","5","5","5","4","4","4","4","5","4","5","5","6","7","4","7","7","5","8","6","3","1","3","6","3","6","1","5","1","1","5","2","6","2","2","4","5","3","2","4","3","5","3","3","2","6","3","7","3","7","7","2","4","4","2","5","2","7","3","5","768533085213167618","徐","417","Female","[""坏我"",""好她"",""坏她"",""好我""]","[""弱我"",""强她"",""弱她"",""强我""]","","","","","","","","yes","","","","","","","","","SRET","EW_formal","","key","j","22.806855263157846","853.1249872874471","475.6249929126353","朋友","坦荡","Positive","morality","","","","","","","","","","",""
"942","","f","psychophysics","24","175174","0.0-7.0-3.0-0.10","6","6","7","6","7","5","1","4","4","4","5","1","1","2","1","0","2","2","1","5","5","5","5","4","4","4","4","5","4","5","5","6","7","4","7","7","5","8","6","3","1","3","6","3","6","1","5","1","1","5","2","6","2","2","4","5","3","2","4","3","5","3","3","2","6","3","7","3","7","7","2","4","4","2","5","2","7","3","5","768533085213167618","徐","417","Female","[""坏我"",""好她"",""坏她"",""好我""]","[""弱我"",""强她"",""弱她"",""强我""]","","","","","","","","no","","","","","","","","","SRET","EW_formal","","key","f","23.77979268292682","853.1249872874471","475.6249929126353","自己","愚痴","Negative","ability","","","","","","","","","","",""
"930","","j","psychophysics","25","177114","0.0-7.0-3.0-0.11","6","6","7","6","7","5","1","4","4","4","5","1","1","2","1","0","2","2","1","5","5","5","5","4","4","4","4","5","4","5","5","6","7","4","7","7","5","8","6","3","1","3","6","3","6","1","5","1","1","5","2","6","2","2","4","5","3","2","4","3","5","3","3","2","6","3","7","3","7","7","2","4","4","2","5","2","7","3","5","768533085213167618","徐","417","Female","[""坏我"",""好她"",""坏她"",""好我""]","[""弱我"",""强她"",""弱她"",""强我""]","","","","","","","","yes","","","","","","","","","SRET","EW_formal","","key","j","23.65919753086407","853.1249872874471","475.6249929126353","朋友","君子","Positive","morality","","","","","","","","","","",""
"660","","j","psychophysics","26","178787","0.0-7.0-3.0-0.12","6","6","7","6","7","5","1","4","4","4","5","1","1","2","1","0","2","2","1","5","5","5","5","4","4","4","4","5","4","5","5","6","7","4","7","7","5","8","6","3","1","3","6","3","6","1","5","1","1","5","2","6","2","2","4","5","3","2","4","3","5","3","3","2","6","3","7","3","7","7","2","4","4","2","5","2","7","3","5","768533085213167618","徐","417","Female","[""坏我"",""好她"",""坏她"",""好我""]","[""弱我"",""强她"",""弱她"",""强我""]","","","","","","","","yes","","","","","","","","","SRET","EW_formal","","key","j","23.333985714285934","853.1249872874471","475.6249929126353","自己","善良","Positive","morality","","","","","","","","","","",""
"734","","f","psychophysics","27","180549","0.0-7.0-3.0-0.13","6","6","7","6","7","5","1","4","4","4","5","1","1","2","1","0","2","2","1","5","5","5","5","4","4","4","4","5","4","5","5","6","7","4","7","7","5","8","6","3","1","3","6","3","6","1","5","1","1","5","2","6","2","2","4","5","3","2","4","3","5","3","3","2","6","3","7","3","7","7","2","4","4","2","5","2","7","3","5","768533085213167618","徐","417","Female","[""坏我"",""好她"",""坏她"",""好我""]","[""弱我"",""强她"",""弱她"",""强我""]","","","","","","","","no","","","","","","","","","SRET","EW_formal","","key","f","23.970890410958905","853.1249872874471","475.6249929126353","自己","恶劣","Negative","morality","","","","","","","","","","",""
"754","","f","psychophysics","28","182321","0.0-7.0-3.0-0.14","6","6","7","6","7","5","1","4","4","4","5","1","1","2","1","0","2","2","1","5","5","5","5","4","4","4","4","5","4","5","5","6","7","4","7","7","5","8","6","3","1","3","6","3","6","1","5","1","1","5","2","6","2","2","4","5","3","2","4","3","5","3","3","2","6","3","7","3","7","7","2","4","4","2","5","2","7","3","5","768533085213167618","徐","417","Female","[""坏我"",""好她"",""坏她"",""好我""]","[""弱我"",""强她"",""弱她"",""强我""]","","","","","","","","no","","","","","","","","","SRET","EW_formal","","key","f","22.648179487179732","853.1249872874471","475.6249929126353","自己","迟钝","Negative","ability","","","","","","","","","","",""
"786","","j","psychophysics","29","184110","0.0-7.0-3.0-0.15","6","6","7","6","7","5","1","4","4","4","5","1","1","2","1","0","2","2","1","5","5","5","5","4","4","4","4","5","4","5","5","6","7","4","7","7","5","8","6","3","1","3","6","3","6","1","5","1","1","5","2","6","2","2","4","5","3","2","4","3","5","3","3","2","6","3","7","3","7","7","2","4","4","2","5","2","7","3","5","768533085213167618","徐","417","Female","[""坏我"",""好她"",""坏她"",""好我""]","[""弱我"",""强她"",""弱她"",""强我""]","","","","","","","","yes","","","","","","","","","SRET","EW_formal","","key","j","23.87241891891864","853.1249872874471","475.6249929126353","自己","思辨","Positive","ability","","","","","","","","","","",""
"590","","j","psychophysics","30","185714","0.0-7.0-3.0-0.16","6","6","7","6","7","5","1","4","4","4","5","1","1","2","1","0","2","2","1","5","5","5","5","4","4","4","4","5","4","5","5","6","7","4","7","7","5","8","6","3","1","3","6","3","6","1","5","1","1","5","2","6","2","2","4","5","3","2","4","3","5","3","3","2","6","3","7","3","7","7","2","4","4","2","5","2","7","3","5","768533085213167618","徐","417","Female","[""坏我"",""好她"",""坏她"",""好我""]","[""弱我"",""强她"",""弱她"",""强我""]","","","","","","","","yes","","","","","","","","","SRET","EW_formal","","key","j","23.633298507462857","853.1249872874471","475.6249929126353","朋友","聪明","Positive","ability","","","","","","","","","","",""
"951","","f","psychophysics","31","187675","0.0-7.0-3.0-0.17","6","6","7","6","7","5","1","4","4","4","5","1","1","2","1","0","2","2","1","5","5","5","5","4","4","4","4","5","4","5","5","6","7","4","7","7","5","8","6","3","1","3","6","3","6","1","5","1","1","5","2","6","2","2","4","5","3","2","4","3","5","3","3","2","6","3","7","3","7","7","2","4","4","2","5","2","7","3","5","768533085213167618","徐","417","Female","[""坏我"",""好她"",""坏她"",""好我""]","[""弱我"",""强她"",""弱她"",""强我""]","","","","","","","","no","","","","","","","","","SRET","EW_formal","","key","f","23.21314285714297","853.1249872874471","475.6249929126353","自己","马虎","Negative","ability","","","","","","","","","","",""
"854","","j","psychophysics","32","189563","0.0-7.0-3.0-0.18","6","6","7","6","7","5","1","4","4","4","5","1","1","2","1","0","2","2","1","5","5","5","5","4","4","4","4","5","4","5","5","6","7","4","7","7","5","8","6","3","1","3","6","3","6","1","5","1","1","5","2","6","2","2","4","5","3","2","4","3","5","3","3","2","6","3","7","3","7","7","2","4","4","2","5","2","7","3","5","768533085213167618","徐","417","Female","[""坏我"",""好她"",""坏她"",""好我""]","[""弱我"",""强她"",""弱她"",""强我""]","","","","","","","","yes","","","","","","","","","SRET","EW_formal","","key","j","23.33131250000006","853.1249872874471","475.6249929126353","朋友","高效","Positive","ability","","","","","","","","","","",""
"831","","j","psychophysics","33","191411","0.0-7.0-3.0-0.19","6","6","7","6","7","5","1","4","4","4","5","1","1","2","1","0","2","2","1","5","5","5","5","4","4","4","4","5","4","5","5","6","7","4","7","7","5","8","6","3","1","3","6","3","6","1","5","1","1","5","2","6","2","2","4","5","3","2","4","3","5","3","3","2","6","3","7","3","7","7","2","4","4","2","5","2","7","3","5","768533085213167618","徐","417","Female","[""坏我"",""好她"",""坏她"",""好我""]","[""弱我"",""强她"",""弱她"",""强我""]","","","","","","","","yes","","","","","","","","","SRET","EW_formal","","key","j","23.71812820512815","853.1249872874471","475.6249929126353","朋友","博学","Positive","ability","","","","","","","","","","",""
"780","","f","psychophysics","34","193206","0.0-7.0-3.0-0.20","6","6","7","6","7","5","1","4","4","4","5","1","1","2","1","0","2","2","1","5","5","5","5","4","4","4","4","5","4","5","5","6","7","4","7","7","5","8","6","3","1","3","6","3","6","1","5","1","1","5","2","6","2","2","4","5","3","2","4","3","5","3","3","2","6","3","7","3","7","7","2","4","4","2","5","2","7","3","5","768533085213167618","徐","417","Female","[""坏我"",""好她"",""坏她"",""好我""]","[""弱我"",""强她"",""弱她"",""强我""]","","","","","","","","no","","","","","","","","","SRET","EW_formal","","key","f","23.64621621621631","853.1249872874471","475.6249929126353","自己","不良","Negative","morality","","","","","","","","","","",""
"722","","j","psychophysics","35","194948","0.0-7.0-3.0-0.21","6","6","7","6","7","5","1","4","4","4","5","1","1","2","1","0","2","2","1","5","5","5","5","4","4","4","4","5","4","5","5","6","7","4","7","7","5","8","6","3","1","3","6","3","6","1","5","1","1","5","2","6","2","2","4","5","3","2","4","3","5","3","3","2","6","3","7","3","7","7","2","4","4","2","5","2","7","3","5","768533085213167618","徐","417","Female","[""坏我"",""好她"",""坏她"",""好我""]","[""弱我"",""强她"",""弱她"",""强我""]","","","","","","","","yes","","","","","","","","","SRET","EW_formal","","key","j","24.520342857142843","853.1249872874471","475.6249929126353","朋友","忠勇","Positive","morality","","","","","","","","","","",""
"613","","j","psychophysics","36","196573","0.0-7.0-3.0-0.22","6","6","7","6","7","5","1","4","4","4","5","1","1","2","1","0","2","2","1","5","5","5","5","4","4","4","4","5","4","5","5","6","7","4","7","7","5","8","6","3","1","3","6","3","6","1","5","1","1","5","2","6","2","2","4","5","3","2","4","3","5","3","3","2","6","3","7","3","7","7","2","4","4","2","5","2","7","3","5","768533085213167618","徐","417","Female","[""坏我"",""好她"",""坏她"",""好我""]","[""弱我"",""强她"",""弱她"",""强我""]","","","","","","","","yes","","","","","","","","","SRET","EW_formal","","key","j","23.186159420289872","853.1249872874471","475.6249929126353","朋友","诚信","Positive","morality","","","","","","","","","","",""
"1155","","j","psychophysics","37","198749","0.0-7.0-3.0-0.23","6","6","7","6","7","5","1","4","4","4","5","1","1","2","1","0","2","2","1","5","5","5","5","4","4","4","4","5","4","5","5","6","7","4","7","7","5","8","6","3","1","3","6","3","6","1","5","1","1","5","2","6","2","2","4","5","3","2","4","3","5","3","3","2","6","3","7","3","7","7","2","4","4","2","5","2","7","3","5","768533085213167618","徐","417","Female","[""坏我"",""好她"",""坏她"",""好我""]","[""弱我"",""强她"",""弱她"",""强我""]","","","","","","","","yes","","","","","","","","","SRET","EW_formal","","key","j","22.87243617021267","853.1249872874471","475.6249929126353","朋友","果决","Positive","ability","","","","","","","","","","",""
"821","","j","psychophysics","38","200584","0.0-7.0-3.0-0.24","6","6","7","6","7","5","1","4","4","4","5","1","1","2","1","0","2","2","1","5","5","5","5","4","4","4","4","5","4","5","5","6","7","4","7","7","5","8","6","3","1","3","6","3","6","1","5","1","1","5","2","6","2","2","4","5","3","2","4","3","5","3","3","2","6","3","7","3","7","7","2","4","4","2","5","2","7","3","5","768533085213167618","徐","417","Female","[""坏我"",""好她"",""坏她"",""好我""]","[""弱我"",""强她"",""弱她"",""强我""]","","","","","","","","yes","","","","","","","","","SRET","EW_formal","","key","j","23.07439743589762","853.1249872874471","475.6249929126353","朋友","变通","Positive","ability","","","","","","","","","","",""
"804","","f","psychophysics","39","202406","0.0-7.0-3.0-0.25","6","6","7","6","7","5","1","4","4","4","5","1","1","2","1","0","2","2","1","5","5","5","5","4","4","4","4","5","4","5","5","6","7","4","7","7","5","8","6","3","1","3","6","3","6","1","5","1","1","5","2","6","2","2","4","5","3","2","4","3","5","3","3","2","6","3","7","3","7","7","2","4","4","2","5","2","7","3","5","768533085213167618","徐","417","Female","[""坏我"",""好她"",""坏她"",""好我""]","[""弱我"",""强她"",""弱她"",""强我""]","","","","","","","","no","","","","","","","","","SRET","EW_formal","","key","f","22.49812499999971","853.1249872874471","475.6249929126353","朋友","废物","Negative","ability","","","","","","","","","","",""
"1094","","f","psychophysics","40","204519","0.0-7.0-3.0-0.26","6","6","7","6","7","5","1","4","4","4","5","1","1","2","1","0","2","2","1","5","5","5","5","4","4","4","4","5","4","5","5","6","7","4","7","7","5","8","6","3","1","3","6","3","6","1","5","1","1","5","2","6","2","2","4","5","3","2","4","3","5","3","3","2","6","3","7","3","7","7","2","4","4","2","5","2","7","3","5","768533085213167618","徐","417","Female","[""坏我"",""好她"",""坏她"",""好我""]","[""弱我"",""强她"",""弱她"",""强我""]","","","","","","","","no","","","","","","","","","SRET","EW_formal","","key","f","23.944609195402094","853.1249872874471","475.6249929126353","自己","笨蛋","Negative","ability","","","","","","","","","","",""
"981","","j","psychophysics","41","206531","0.0-7.0-3.0-0.27","6","6","7","6","7","5","1","4","4","4","5","1","1","2","1","0","2","2","1","5","5","5","5","4","4","4","4","5","4","5","5","6","7","4","7","7","5","8","6","3","1","3","6","3","6","1","5","1","1","5","2","6","2","2","4","5","3","2","4","3","5","3","3","2","6","3","7","3","7","7","2","4","4","2","5","2","7","3","5","768533085213167618","徐","417","Female","[""坏我"",""好她"",""坏她"",""好我""]","[""弱我"",""强她"",""弱她"",""强我""]","","","","","","","","yes","","","","","","","","","SRET","EW_formal","","key","j","24.185695121951383","853.1249872874471","475.6249929126353","自己","淡泊","Positive","morality","","","","","","","","","","",""
"722","","j","psychophysics","42","208261","0.0-7.0-3.0-0.28","6","6","7","6","7","5","1","4","4","4","5","1","1","2","1","0","2","2","1","5","5","5","5","4","4","4","4","5","4","5","5","6","7","4","7","7","5","8","6","3","1","3","6","3","6","1","5","1","1","5","2","6","2","2","4","5","3","2","4","3","5","3","3","2","6","3","7","3","7","7","2","4","4","2","5","2","7","3","5","768533085213167618","徐","417","Female","[""坏我"",""好她"",""坏她"",""好我""]","[""弱我"",""强她"",""弱她"",""强我""]","","","","","","","","yes","","","","","","","","","SRET","EW_formal","","key","j","26.409846153845923","853.1249872874471","475.6249929126353","朋友","刚正","Positive","morality","","","","","","","","","","",""
"831","","f","psychophysics","43","210103","0.0-7.0-3.0-0.29","6","6","7","6","7","5","1","4","4","4","5","1","1","2","1","0","2","2","1","5","5","5","5","4","4","4","4","5","4","5","5","6","7","4","7","7","5","8","6","3","1","3","6","3","6","1","5","1","1","5","2","6","2","2","4","5","3","2","4","3","5","3","3","2","6","3","7","3","7","7","2","4","4","2","5","2","7","3","5","768533085213167618","徐","417","Female","[""坏我"",""好她"",""坏她"",""好我""]","[""弱我"",""强她"",""弱她"",""强我""]","","","","","","","","no","","","","","","","","","SRET","EW_formal","","key","f","24.774797297297187","853.1249872874471","475.6249929126353","朋友","窝囊","Negative","ability","","","","","","","","","","",""
"959","","f","psychophysics","44","212073","0.0-7.0-3.0-0.30","6","6","7","6","7","5","1","4","4","4","5","1","1","2","1","0","2","2","1","5","5","5","5","4","4","4","4","5","4","5","5","6","7","4","7","7","5","8","6","3","1","3","6","3","6","1","5","1","1","5","2","6","2","2","4","5","3","2","4","3","5","3","3","2","6","3","7","3","7","7","2","4","4","2","5","2","7","3","5","768533085213167618","徐","417","Female","[""坏我"",""好她"",""坏她"",""好我""]","[""弱我"",""强她"",""弱她"",""强我""]","","","","","","","","no","","","","","","","","","SRET","EW_formal","","key","f","24.07081481481487","853.1249872874471","475.6249929126353","自己","迂拙","Negative","ability","","","","","","","","","","",""
"1826","","f","psychophysics","45","214922","0.0-7.0-3.0-0.31","6","6","7","6","7","5","1","4","4","4","5","1","1","2","1","0","2","2","1","5","5","5","5","4","4","4","4","5","4","5","5","6","7","4","7","7","5","8","6","3","1","3","6","3","6","1","5","1","1","5","2","6","2","2","4","5","3","2","4","3","5","3","3","2","6","3","7","3","7","7","2","4","4","2","5","2","7","3","5","768533085213167618","徐","417","Female","[""坏我"",""好她"",""坏她"",""好我""]","[""弱我"",""强她"",""弱她"",""强我""]","","","","","","","","no","","","","","","","","","SRET","EW_formal","","key","f","24.279577586206994","853.1249872874471","475.6249929126353","朋友","自私","Negative","morality","","","","","","","","","","",""
"993","","j","psychophysics","46","216933","0.0-7.0-3.0-0.32","6","6","7","6","7","5","1","4","4","4","5","1","1","2","1","0","2","2","1","5","5","5","5","4","4","4","4","5","4","5","5","6","7","4","7","7","5","8","6","3","1","3","6","3","6","1","5","1","1","5","2","6","2","2","4","5","3","2","4","3","5","3","3","2","6","3","7","3","7","7","2","4","4","2","5","2","7","3","5","768533085213167618","徐","417","Female","[""坏我"",""好她"",""坏她"",""好我""]","[""弱我"",""强她"",""弱她"",""强我""]","","","","","","","","yes","","","","","","","","","SRET","EW_formal","","key","j","24.094228915662605","853.1249872874471","475.6249929126353","自己","沉着","Positive","ability","","","","","","","","","","",""
"777","","j","psychophysics","47","218735","0.0-7.0-3.0-0.33","6","6","7","6","7","5","1","4","4","4","5","1","1","2","1","0","2","2","1","5","5","5","5","4","4","4","4","5","4","5","5","6","7","4","7","7","5","8","6","3","1","3","6","3","6","1","5","1","1","5","2","6","2","2","4","5","3","2","4","3","5","3","3","2","6","3","7","3","7","7","2","4","4","2","5","2","7","3","5","768533085213167618","徐","417","Female","[""坏我"",""好她"",""坏她"",""好我""]","[""弱我"",""强她"",""弱她"",""强我""]","","","","","","","","yes","","","","","","","","","SRET","EW_formal","","key","j","24.880267605633954","853.1249872874471","475.6249929126353","自己","高尚","Positive","morality","","","","","","","","","","",""
"756","","j","psychophysics","48","220513","0.0-7.0-3.0-0.34","6","6","7","6","7","5","1","4","4","4","5","1","1","2","1","0","2","2","1","5","5","5","5","4","4","4","4","5","4","5","5","6","7","4","7","7","5","8","6","3","1","3","6","3","6","1","5","1","1","5","2","6","2","2","4","5","3","2","4","3","5","3","3","2","6","3","7","3","7","7","2","4","4","2","5","2","7","3","5","768533085213167618","徐","417","Female","[""坏我"",""好她"",""坏她"",""好我""]","[""弱我"",""强她"",""弱她"",""强我""]","","","","","","","","yes","","","","","","","","","SRET","EW_formal","","key","j","25.360478260869453","853.1249872874471","475.6249929126353","自己","清廉","Positive","morality","","","","","","","","","","",""
"814","","f","psychophysics","49","222332","0.0-7.0-3.0-0.35","6","6","7","6","7","5","1","4","4","4","5","1","1","2","1","0","2","2","1","5","5","5","5","4","4","4","4","5","4","5","5","6","7","4","7","7","5","8","6","3","1","3","6","3","6","1","5","1","1","5","2","6","2","2","4","5","3","2","4","3","5","3","3","2","6","3","7","3","7","7","2","4","4","2","5","2","7","3","5","768533085213167618","徐","417","Female","[""坏我"",""好她"",""坏她"",""好我""]","[""弱我"",""强她"",""弱她"",""强我""]","","","","","","","","no","","","","","","","","","SRET","EW_formal","","key","f","24.324891891892104","853.1249872874471","475.6249929126353","自己","庸碌","Negative","ability","","","","","","","","","","",""
"737","","j","psychophysics","50","224077","0.0-7.0-3.0-0.36","6","6","7","6","7","5","1","4","4","4","5","1","1","2","1","0","2","2","1","5","5","5","5","4","4","4","4","5","4","5","5","6","7","4","7","7","5","8","6","3","1","3","6","3","6","1","5","1","1","5","2","6","2","2","4","5","3","2","4","3","5","3","3","2","6","3","7","3","7","7","2","4","4","2","5","2","7","3","5","768533085213167618","徐","417","Female","[""坏我"",""好她"",""坏她"",""好我""]","[""弱我"",""强她"",""弱她"",""强我""]","","","","","","","","yes","","","","","","","","","SRET","EW_formal","","key","j","24.760828571428593","853.1249872874471","475.6249929126353","自己","忠诚","Positive","morality","","","","","","","","","","",""
"663","","j","psychophysics","51","225748","0.0-7.0-3.0-0.37","6","6","7","6","7","5","1","4","4","4","5","1","1","2","1","0","2","2","1","5","5","5","5","4","4","4","4","5","4","5","5","6","7","4","7","7","5","8","6","3","1","3","6","3","6","1","5","1","1","5","2","6","2","2","4","5","3","2","4","3","5","3","3","2","6","3","7","3","7","7","2","4","4","2","5","2","7","3","5","768533085213167618","徐","417","Female","[""坏我"",""好她"",""坏她"",""好我""]","[""弱我"",""强她"",""弱她"",""强我""]","","","","","","","","yes","","","","","","","","","SRET","EW_formal","","key","j","24.01970588235289","853.1249872874471","475.6249929126353","自己","专注","Positive","ability","","","","","","","","","","",""
"514","","j","psychophysics","52","227283","0.0-7.0-3.0-0.38","6","6","7","6","7","5","1","4","4","4","5","1","1","2","1","0","2","2","1","5","5","5","5","4","4","4","4","5","4","5","5","6","7","4","7","7","5","8","6","3","1","3","6","3","6","1","5","1","1","5","2","6","2","2","4","5","3","2","4","3","5","3","3","2","6","3","7","3","7","7","2","4","4","2","5","2","7","3","5","768533085213167618","徐","417","Female","[""坏我"",""好她"",""坏她"",""好我""]","[""弱我"",""强她"",""弱她"",""强我""]","","","","","","","","yes","","","","","","","","","SRET","EW_formal","","key","j","23.434312500000033","853.1249872874471","475.6249929126353","自己","守法","Positive","morality","","","","","","","","","","",""
"772","","j","psychophysics","53","229072","0.0-7.0-3.0-0.39","6","6","7","6","7","5","1","4","4","4","5","1","1","2","1","0","2","2","1","5","5","5","5","4","4","4","4","5","4","5","5","6","7","4","7","7","5","8","6","3","1","3","6","3","6","1","5","1","1","5","2","6","2","2","4","5","3","2","4","3","5","3","3","2","6","3","7","3","7","7","2","4","4","2","5","2","7","3","5","768533085213167618","徐","417","Female","[""坏我"",""好她"",""坏她"",""好我""]","[""弱我"",""强她"",""弱她"",""强我""]","","","","","","","","yes","","","","","","","","","SRET","EW_formal","","key","j","24.303527777777667","853.1249872874471","475.6249929126353","朋友","畏难","Negative","ability","","","","","","","","","","",""
"1105","","j","psychophysics","54","231198","0.0-7.0-3.0-0.40","6","6","7","6","7","5","1","4","4","4","5","1","1","2","1","0","2","2","1","5","5","5","5","4","4","4","4","5","4","5","5","6","7","4","7","7","5","8","6","3","1","3","6","3","6","1","5","1","1","5","2","6","2","2","4","5","3","2","4","3","5","3","3","2","6","3","7","3","7","7","2","4","4","2","5","2","7","3","5","768533085213167618","徐","417","Female","[""坏我"",""好她"",""坏她"",""好我""]","[""弱我"",""强她"",""弱她"",""强我""]","","","","","","","","yes","","","","","","","","","SRET","EW_formal","","key","j","24.416558139535145","853.1249872874471","475.6249929126353","朋友","学霸","Positive","ability","","","","","","","","","","",""
"1095","","f","psychophysics","55","233301","0.0-7.0-3.0-0.41","6","6","7","6","7","5","1","4","4","4","5","1","1","2","1","0","2","2","1","5","5","5","5","4","4","4","4","5","4","5","5","6","7","4","7","7","5","8","6","3","1","3","6","3","6","1","5","1","1","5","2","6","2","2","4","5","3","2","4","3","5","3","3","2","6","3","7","3","7","7","2","4","4","2","5","2","7","3","5","768533085213167618","徐","417","Female","[""坏我"",""好她"",""坏她"",""好我""]","[""弱我"",""强她"",""弱她"",""强我""]","","","","","","","","no","","","","","","","","","SRET","EW_formal","","key","f","23.75197701149449","853.1249872874471","475.6249929126353","自己","利己","Negative","morality","","","","","","","","","","",""
"755","","f","psychophysics","56","235078","0.0-7.0-3.0-0.42","6","6","7","6","7","5","1","4","4","4","5","1","1","2","1","0","2","2","1","5","5","5","5","4","4","4","4","5","4","5","5","6","7","4","7","7","5","8","6","3","1","3","6","3","6","1","5","1","1","5","2","6","2","2","4","5","3","2","4","3","5","3","3","2","6","3","7","3","7","7","2","4","4","2","5","2","7","3","5","768533085213167618","徐","417","Female","[""坏我"",""好她"",""坏她"",""好我""]","[""弱我"",""强她"",""弱她"",""强我""]","","","","","","","","no","","","","","","","","","SRET","EW_formal","","key","f","24.64560563380266","853.1249872874471","475.6249929126353","朋友","独断","Negative","ability","","","","","","","","","","",""
"1042","","f","psychophysics","57","237126","0.0-7.0-3.0-0.43","6","6","7","6","7","5","1","4","4","4","5","1","1","2","1","0","2","2","1","5","5","5","5","4","4","4","4","5","4","5","5","6","7","4","7","7","5","8","6","3","1","3","6","3","6","1","5","1","1","5","2","6","2","2","4","5","3","2","4","3","5","3","3","2","6","3","7","3","7","7","2","4","4","2","5","2","7","3","5","768533085213167618","徐","417","Female","[""坏我"",""好她"",""坏她"",""好我""]","[""弱我"",""强她"",""弱她"",""强我""]","","","","","","","","no","","","","","","","","","SRET","EW_formal","","key","f","24.20578571428563","853.1249872874471","475.6249929126353","自己","中用","Positive","ability","","","","","","","","","","",""
"1605","","f","psychophysics","58","239746","0.0-7.0-3.0-0.44","6","6","7","6","7","5","1","4","4","4","5","1","1","2","1","0","2","2","1","5","5","5","5","4","4","4","4","5","4","5","5","6","7","4","7","7","5","8","6","3","1","3","6","3","6","1","5","1","1","5","2","6","2","2","4","5","3","2","4","3","5","3","3","2","6","3","7","3","7","7","2","4","4","2","5","2","7","3","5","768533085213167618","徐","417","Female","[""坏我"",""好她"",""坏她"",""好我""]","[""弱我"",""强她"",""弱她"",""强我""]","","","","","","","","no","","","","","","","","","SRET","EW_formal","","key","f","26.164770000000136","853.1249872874471","475.6249929126353","朋友","偏私","Negative","morality","","","","","","","","","","",""
"834","","j","psychophysics","59","241586","0.0-7.0-3.0-0.45","6","6","7","6","7","5","1","4","4","4","5","1","1","2","1","0","2","2","1","5","5","5","5","4","4","4","4","5","4","5","5","6","7","4","7","7","5","8","6","3","1","3","6","3","6","1","5","1","1","5","2","6","2","2","4","5","3","2","4","3","5","3","3","2","6","3","7","3","7","7","2","4","4","2","5","2","7","3","5","768533085213167618","徐","417","Female","[""坏我"",""好她"",""坏她"",""好我""]","[""弱我"",""强她"",""弱她"",""强我""]","","","","","","","","yes","","","","","","","","","SRET","EW_formal","","key","j","27.27099999999998","853.1249872874471","475.6249929126353","自己","干练","Positive","ability","","","","","","","","","","",""
"778","","j","psychophysics","60","243385","0.0-7.0-3.0-0.46","6","6","7","6","7","5","1","4","4","4","5","1","1","2","1","0","2","2","1","5","5","5","5","4","4","4","4","5","4","5","5","6","7","4","7","7","5","8","6","3","1","3","6","3","6","1","5","1","1","5","2","6","2","2","4","5","3","2","4","3","5","3","3","2","6","3","7","3","7","7","2","4","4","2","5","2","7","3","5","768533085213167618","徐","417","Female","[""坏我"",""好她"",""坏她"",""好我""]","[""弱我"",""强她"",""弱她"",""强我""]","","","","","","","","yes","","","","","","","","","SRET","EW_formal","","key","j","25.116309859154953","853.1249872874471","475.6249929126353","朋友","奉献","Positive","morality","","","","","","","","","","",""
"868","","j","psychophysics","61","245261","0.0-7.0-3.0-0.47","6","6","7","6","7","5","1","4","4","4","5","1","1","2","1","0","2","2","1","5","5","5","5","4","4","4","4","5","4","5","5","6","7","4","7","7","5","8","6","3","1","3","6","3","6","1","5","1","1","5","2","6","2","2","4","5","3","2","4","3","5","3","3","2","6","3","7","3","7","7","2","4","4","2","5","2","7","3","5","768533085213167618","徐","417","Female","[""坏我"",""好她"",""坏她"",""好我""]","[""弱我"",""强她"",""弱她"",""强我""]","","","","","","","","yes","","","","","","","","","SRET","EW_formal","","key","j","24.998878378378198","853.1249872874471","475.6249929126353","自己","远见","Positive","ability","","","","","","","","","","",""
"607","","f","psychophysics","62","246898","0.0-7.0-3.0-0.48","6","6","7","6","7","5","1","4","4","4","5","1","1","2","1","0","2","2","1","5","5","5","5","4","4","4","4","5","4","5","5","6","7","4","7","7","5","8","6","3","1","3","6","3","6","1","5","1","1","5","2","6","2","2","4","5","3","2","4","3","5","3","3","2","6","3","7","3","7","7","2","4","4","2","5","2","7","3","5","768533085213167618","徐","417","Female","[""坏我"",""好她"",""坏她"",""好我""]","[""弱我"",""强她"",""弱她"",""强我""]","","","","","","","","no","","","","","","","","","SRET","EW_formal","","key","f","25.658587301587445","853.1249872874471","475.6249929126353","自己","黑心","Negative","morality","","","","","","","","","","",""
"940","","j","psychophysics","63","248847","0.0-7.0-3.0-0.49","6","6","7","6","7","5","1","4","4","4","5","1","1","2","1","0","2","2","1","5","5","5","5","4","4","4","4","5","4","5","5","6","7","4","7","7","5","8","6","3","1","3","6","3","6","1","5","1","1","5","2","6","2","2","4","5","3","2","4","3","5","3","3","2","6","3","7","3","7","7","2","4","4","2","5","2","7","3","5","768533085213167618","徐","417","Female","[""坏我"",""好她"",""坏她"",""好我""]","[""弱我"",""强她"",""弱她"",""强我""]","","","","","","","","yes","","","","","","","","","SRET","EW_formal","","key","j","29.424375000000055","853.1249872874471","475.6249929126353","自己","上进","Positive","ability","","","","","","","","","","",""
"835","","j","psychophysics","64","250721","0.0-7.0-3.0-0.50","6","6","7","6","7","5","1","4","4","4","5","1","1","2","1","0","2","2","1","5","5","5","5","4","4","4","4","5","4","5","5","6","7","4","7","7","5","8","6","3","1","3","6","3","6","1","5","1","1","5","2","6","2","2","4","5","3","2","4","3","5","3","3","2","6","3","7","3","7","7","2","4","4","2","5","2","7","3","5","768533085213167618","徐","417","Female","[""坏我"",""好她"",""坏她"",""好我""]","[""弱我"",""强她"",""弱她"",""强我""]","","","","","","","","yes","","","","","","","","","SRET","EW_formal","","key","j","28.71669230769218","853.1249872874471","475.6249929126353","自己","高洁","Positive","morality","","","","","","","","","","",""
"772","","f","psychophysics","65","252517","0.0-7.0-3.0-0.51","6","6","7","6","7","5","1","4","4","4","5","1","1","2","1","0","2","2","1","5","5","5","5","4","4","4","4","5","4","5","5","6","7","4","7","7","5","8","6","3","1","3","6","3","6","1","5","1","1","5","2","6","2","2","4","5","3","2","4","3","5","3","3","2","6","3","7","3","7","7","2","4","4","2","5","2","7","3","5","768533085213167618","徐","417","Female","[""坏我"",""好她"",""坏她"",""好我""]","[""弱我"",""强她"",""弱她"",""强我""]","","","","","","","","no","","","","","","","","","SRET","EW_formal","","key","f","23.96927397260251","853.1249872874471","475.6249929126353","自己","狡诈","Negative","morality","","","","","","","","","","",""
"656","","f","psychophysics","66","254195","0.0-7.0-3.0-0.52","6","6","7","6","7","5","1","4","4","4","5","1","1","2","1","0","2","2","1","5","5","5","5","4","4","4","4","5","4","5","5","6","7","4","7","7","5","8","6","3","1","3","6","3","6","1","5","1","1","5","2","6","2","2","4","5","3","2","4","3","5","3","3","2","6","3","7","3","7","7","2","4","4","2","5","2","7","3","5","768533085213167618","徐","417","Female","[""坏我"",""好她"",""坏她"",""好我""]","[""弱我"",""强她"",""弱她"",""强我""]","","","","","","","","no","","","","","","","","","SRET","EW_formal","","key","f","24.622701492537605","853.1249872874471","475.6249929126353","自己","虚假","Negative","morality","","","","","","","","","","",""
"906","","f","psychophysics","67","256124","0.0-7.0-3.0-0.53","6","6","7","6","7","5","1","4","4","4","5","1","1","2","1","0","2","2","1","5","5","5","5","4","4","4","4","5","4","5","5","6","7","4","7","7","5","8","6","3","1","3","6","3","6","1","5","1","1","5","2","6","2","2","4","5","3","2","4","3","5","3","3","2","6","3","7","3","7","7","2","4","4","2","5","2","7","3","5","768533085213167618","徐","417","Female","[""坏我"",""好她"",""坏她"",""好我""]","[""弱我"",""强她"",""弱她"",""强我""]","","","","","","","","no","","","","","","","","","SRET","EW_formal","","key","f","24.356910256409975","853.1249872874471","475.6249929126353","朋友","草率","Negative","ability","","","","","","","","","","",""
"780","","j","psychophysics","68","257921","0.0-7.0-3.0-0.54","6","6","7","6","7","5","1","4","4","4","5","1","1","2","1","0","2","2","1","5","5","5","5","4","4","4","4","5","4","5","5","6","7","4","7","7","5","8","6","3","1","3","6","3","6","1","5","1","1","5","2","6","2","2","4","5","3","2","4","3","5","3","3","2","6","3","7","3","7","7","2","4","4","2","5","2","7","3","5","768533085213167618","徐","417","Female","[""坏我"",""好她"",""坏她"",""好我""]","[""弱我"",""强她"",""弱她"",""强我""]","","","","","","","","yes","","","","","","","","","SRET","EW_formal","","key","j","24.099270270270143","853.1249872874471","475.6249929126353","朋友","努力","Positive","ability","","","","","","","","","","",""
"811","","f","psychophysics","69","259744","0.0-7.0-3.0-0.55","6","6","7","6","7","5","1","4","4","4","5","1","1","2","1","0","2","2","1","5","5","5","5","4","4","4","4","5","4","5","5","6","7","4","7","7","5","8","6","3","1","3","6","3","6","1","5","1","1","5","2","6","2","2","4","5","3","2","4","3","5","3","3","2","6","3","7","3","7","7","2","4","4","2","5","2","7","3","5","768533085213167618","徐","417","Female","[""坏我"",""好她"",""坏她"",""好我""]","[""弱我"",""强她"",""弱她"",""强我""]","","","","","","","","no","","","","","","","","","SRET","EW_formal","","key","f","24.996708333333018","853.1249872874471","475.6249929126353","朋友","诡诈","Negative","morality","","","","","","","","","","",""
"675","","f","psychophysics","70","261429","0.0-7.0-3.0-0.56","6","6","7","6","7","5","1","4","4","4","5","1","1","2","1","0","2","2","1","5","5","5","5","4","4","4","4","5","4","5","5","6","7","4","7","7","5","8","6","3","1","3","6","3","6","1","5","1","1","5","2","6","2","2","4","5","3","2","4","3","5","3","3","2","6","3","7","3","7","7","2","4","4","2","5","2","7","3","5","768533085213167618","徐","417","Female","[""坏我"",""好她"",""坏她"",""好我""]","[""弱我"",""强她"",""弱她"",""强我""]","","","","","","","","no","","","","","","","","","SRET","EW_formal","","key","f","23.571314285714678","853.1249872874471","475.6249929126353","朋友","愚钝","Negative","ability","","","","","","","","","","",""
"888","","j","psychophysics","71","263333","0.0-7.0-3.0-0.57","6","6","7","6","7","5","1","4","4","4","5","1","1","2","1","0","2","2","1","5","5","5","5","4","4","4","4","5","4","5","5","6","7","4","7","7","5","8","6","3","1","3","6","3","6","1","5","1","1","5","2","6","2","2","4","5","3","2","4","3","5","3","3","2","6","3","7","3","7","7","2","4","4","2","5","2","7","3","5","768533085213167618","徐","417","Female","[""坏我"",""好她"",""坏她"",""好我""]","[""弱我"",""强她"",""弱她"",""强我""]","","","","","","","","yes","","","","","","","","","SRET","EW_formal","","key","j","24.777802631579107","853.1249872874471","475.6249929126353","自己","新手","Negative","ability","","","","","","","","","","",""
"663","","j","psychophysics","72","265005","0.0-7.0-3.0-0.58","6","6","7","6","7","5","1","4","4","4","5","1","1","2","1","0","2","2","1","5","5","5","5","4","4","4","4","5","4","5","5","6","7","4","7","7","5","8","6","3","1","3","6","3","6","1","5","1","1","5","2","6","2","2","4","5","3","2","4","3","5","3","3","2","6","3","7","3","7","7","2","4","4","2","5","2","7","3","5","768533085213167618","徐","417","Female","[""坏我"",""好她"",""坏她"",""好我""]","[""弱我"",""强她"",""弱她"",""强我""]","","","","","","","","yes","","","","","","","","","SRET","EW_formal","","key","j","24.748409090909373","853.1249872874471","475.6249929126353","自己","娴熟","Positive","ability","","","","","","","","","","",""
"840","","j","psychophysics","73","266855","0.0-7.0-3.0-0.59","6","6","7","6","7","5","1","4","4","4","5","1","1","2","1","0","2","2","1","5","5","5","5","4","4","4","4","5","4","5","5","6","7","4","7","7","5","8","6","3","1","3","6","3","6","1","5","1","1","5","2","6","2","2","4","5","3","2","4","3","5","3","3","2","6","3","7","3","7","7","2","4","4","2","5","2","7","3","5","768533085213167618","徐","417","Female","[""坏我"",""好她"",""坏她"",""好我""]","[""弱我"",""强她"",""弱她"",""强我""]","","","","","","","","yes","","","","","","","","","SRET","EW_formal","","key","j","24.120473684210754","853.1249872874471","475.6249929126353","自己","谦逊","Positive","morality","","","","","","","","","","",""
"631","","f","psychophysics","74","268499","0.0-7.0-3.0-0.60","6","6","7","6","7","5","1","4","4","4","5","1","1","2","1","0","2","2","1","5","5","5","5","4","4","4","4","5","4","5","5","6","7","4","7","7","5","8","6","3","1","3","6","3","6","1","5","1","1","5","2","6","2","2","4","5","3","2","4","3","5","3","3","2","6","3","7","3","7","7","2","4","4","2","5","2","7","3","5","768533085213167618","徐","417","Female","[""坏我"",""好她"",""坏她"",""好我""]","[""弱我"",""强她"",""弱她"",""强我""]","","","","","","","","no","","","","","","","","","SRET","EW_formal","","key","f","24.377716417910893","853.1249872874471","475.6249929126353","朋友","失信","Negative","morality","","","","","","","","","","",""
"560","","f","psychophysics","75","270078","0.0-7.0-3.0-0.61","6","6","7","6","7","5","1","4","4","4","5","1","1","2","1","0","2","2","1","5","5","5","5","4","4","4","4","5","4","5","5","6","7","4","7","7","5","8","6","3","1","3","6","3","6","1","5","1","1","5","2","6","2","2","4","5","3","2","4","3","5","3","3","2","6","3","7","3","7","7","2","4","4","2","5","2","7","3","5","768533085213167618","徐","417","Female","[""坏我"",""好她"",""坏她"",""好我""]","[""弱我"",""强她"",""弱她"",""强我""]","","","","","","","","no","","","","","","","","","SRET","EW_formal","","key","f","24.215734375000466","853.1249872874471","475.6249929126353","朋友","奸险","Negative","morality","","","","","","","","","","",""
"506","","f","psychophysics","76","271594","0.0-7.0-3.0-0.62","6","6","7","6","7","5","1","4","4","4","5","1","1","2","1","0","2","2","1","5","5","5","5","4","4","4","4","5","4","5","5","6","7","4","7","7","5","8","6","3","1","3","6","3","6","1","5","1","1","5","2","6","2","2","4","5","3","2","4","3","5","3","3","2","6","3","7","3","7","7","2","4","4","2","5","2","7","3","5","768533085213167618","徐","417","Female","[""坏我"",""好她"",""坏她"",""好我""]","[""弱我"",""强她"",""弱她"",""强我""]","","","","","","","","no","","","","","","","","","SRET","EW_formal","","key","f","24.720966666667177","853.1249872874471","475.6249929126353","朋友","无赖","Negative","morality","","","","","","","","","","",""
"579","","f","psychophysics","77","273177","0.0-7.0-3.0-0.63","6","6","7","6","7","5","1","4","4","4","5","1","1","2","1","0","2","2","1","5","5","5","5","4","4","4","4","5","4","5","5","6","7","4","7","7","5","8","6","3","1","3","6","3","6","1","5","1","1","5","2","6","2","2","4","5","3","2","4","3","5","3","3","2","6","3","7","3","7","7","2","4","4","2","5","2","7","3","5","768533085213167618","徐","417","Female","[""坏我"",""好她"",""坏她"",""好我""]","[""弱我"",""强她"",""弱她"",""强我""]","","","","","","","","no","","","","","","","","","SRET","EW_formal","","key","f","24.60138095238076","853.1249872874471","475.6249929126353","朋友","无为","Negative","ability","","","","","","","","","","",""
"559","","j","psychophysics","78","274759","0.0-7.0-3.0-0.64","6","6","7","6","7","5","1","4","4","4","5","1","1","2","1","0","2","2","1","5","5","5","5","4","4","4","4","5","4","5","5","6","7","4","7","7","5","8","6","3","1","3","6","3","6","1","5","1","1","5","2","6","2","2","4","5","3","2","4","3","5","3","3","2","6","3","7","3","7","7","2","4","4","2","5","2","7","3","5","768533085213167618","徐","417","Female","[""坏我"",""好她"",""坏她"",""好我""]","[""弱我"",""强她"",""弱她"",""强我""]","","","","","","","","yes","","","","","","","","","SRET","EW_formal","","key","j","24.217375000000175","853.1249872874471","475.6249929126353","朋友","礼貌","Positive","morality","","","","","","","","","","",""
"691","","f","psychophysics","79","276458","0.0-7.0-3.0-0.65","6","6","7","6","7","5","1","4","4","4","5","1","1","2","1","0","2","2","1","5","5","5","5","4","4","4","4","5","4","5","5","6","7","4","7","7","5","8","6","3","1","3","6","3","6","1","5","1","1","5","2","6","2","2","4","5","3","2","4","3","5","3","3","2","6","3","7","3","7","7","2","4","4","2","5","2","7","3","5","768533085213167618","徐","417","Female","[""坏我"",""好她"",""坏她"",""好我""]","[""弱我"",""强她"",""弱她"",""强我""]","","","","","","","","no","","","","","","","","","SRET","EW_formal","","key","f","24.047057142857064","853.1249872874471","475.6249929126353","自己","不端","Negative","morality","","","","","","","","","","",""
"1054","","f","psychophysics","80","278517","0.0-7.0-3.0-0.66","6","6","7","6","7","5","1","4","4","4","5","1","1","2","1","0","2","2","1","5","5","5","5","4","4","4","4","5","4","5","5","6","7","4","7","7","5","8","6","3","1","3","6","3","6","1","5","1","1","5","2","6","2","2","4","5","3","2","4","3","5","3","3","2","6","3","7","3","7","7","2","4","4","2","5","2","7","3","5","768533085213167618","徐","417","Female","[""坏我"",""好她"",""坏她"",""好我""]","[""弱我"",""强她"",""弱她"",""强我""]","","","","","","","","no","","","","","","","","","SRET","EW_formal","","key","f","23.836174418604905","853.1249872874471","475.6249929126353","朋友","浅薄","Negative","ability","","","","","","","","","","",""
"702","","j","psychophysics","81","280222","0.0-7.0-3.0-0.67","6","6","7","6","7","5","1","4","4","4","5","1","1","2","1","0","2","2","1","5","5","5","5","4","4","4","4","5","4","5","5","6","7","4","7","7","5","8","6","3","1","3","6","3","6","1","5","1","1","5","2","6","2","2","4","5","3","2","4","3","5","3","3","2","6","3","7","3","7","7","2","4","4","2","5","2","7","3","5","768533085213167618","徐","417","Female","[""坏我"",""好她"",""坏她"",""好我""]","[""弱我"",""强她"",""弱她"",""强我""]","","","","","","","","yes","","","","","","","","","SRET","EW_formal","","key","j","24.754426470587905","853.1249872874471","475.6249929126353","朋友","细心","Positive","ability","","","","","","","","","","",""
"843","","f","psychophysics","82","282077","0.0-7.0-3.0-0.68","6","6","7","6","7","5","1","4","4","4","5","1","1","2","1","0","2","2","1","5","5","5","5","4","4","4","4","5","4","5","5","6","7","4","7","7","5","8","6","3","1","3","6","3","6","1","5","1","1","5","2","6","2","2","4","5","3","2","4","3","5","3","3","2","6","3","7","3","7","7","2","4","4","2","5","2","7","3","5","768533085213167618","徐","417","Female","[""坏我"",""好她"",""坏她"",""好我""]","[""弱我"",""强她"",""弱她"",""强我""]","","","","","","","","no","","","","","","","","","SRET","EW_formal","","key","f","23.80884415584438","853.1249872874471","475.6249929126353","朋友","贪腐","Negative","morality","","","","","","","","","","",""
"965","","f","psychophysics","83","284060","0.0-7.0-3.0-0.69","6","6","7","6","7","5","1","4","4","4","5","1","1","2","1","0","2","2","1","5","5","5","5","4","4","4","4","5","4","5","5","6","7","4","7","7","5","8","6","3","1","3","6","3","6","1","5","1","1","5","2","6","2","2","4","5","3","2","4","3","5","3","3","2","6","3","7","3","7","7","2","4","4","2","5","2","7","3","5","768533085213167618","徐","417","Female","[""坏我"",""好她"",""坏她"",""好我""]","[""弱我"",""强她"",""弱她"",""强我""]","","","","","","","","no","","","","","","","","","SRET","EW_formal","","key","f","24.784717948717745","853.1249872874471","475.6249929126353","朋友","业余","Negative","ability","","","","","","","","","","",""
"553","","j","psychophysics","84","285645","0.0-7.0-3.0-0.70","6","6","7","6","7","5","1","4","4","4","5","1","1","2","1","0","2","2","1","5","5","5","5","4","4","4","4","5","4","5","5","6","7","4","7","7","5","8","6","3","1","3","6","3","6","1","5","1","1","5","2","6","2","2","4","5","3","2","4","3","5","3","3","2","6","3","7","3","7","7","2","4","4","2","5","2","7","3","5","768533085213167618","徐","417","Female","[""坏我"",""好她"",""坏她"",""好我""]","[""弱我"",""强她"",""弱她"",""强我""]","","","","","","","","yes","","","","","","","","","SRET","EW_formal","","key","j","24.720841269841276","853.1249872874471","475.6249929126353","自己","智慧","Positive","ability","","","","","","","","","","",""
"842","","j","psychophysics","85","287513","0.0-7.0-3.0-0.71","6","6","7","6","7","5","1","4","4","4","5","1","1","2","1","0","2","2","1","5","5","5","5","4","4","4","4","5","4","5","5","6","7","4","7","7","5","8","6","3","1","3","6","3","6","1","5","1","1","5","2","6","2","2","4","5","3","2","4","3","5","3","3","2","6","3","7","3","7","7","2","4","4","2","5","2","7","3","5","768533085213167618","徐","417","Female","[""坏我"",""好她"",""坏她"",""好我""]","[""弱我"",""强她"",""弱她"",""强我""]","","","","","","","","yes","","","","","","","","","SRET","EW_formal","","key","j","25.819873239436763","853.1249872874471","475.6249929126353","朋友","有力","Positive","ability","","","","","","","","","","",""
"1180","","j","psychophysics","86","289717","0.0-7.0-3.0-0.72","6","6","7","6","7","5","1","4","4","4","5","1","1","2","1","0","2","2","1","5","5","5","5","4","4","4","4","5","4","5","5","6","7","4","7","7","5","8","6","3","1","3","6","3","6","1","5","1","1","5","2","6","2","2","4","5","3","2","4","3","5","3","3","2","6","3","7","3","7","7","2","4","4","2","5","2","7","3","5","768533085213167618","徐","417","Female","[""坏我"",""好她"",""坏她"",""好我""]","[""弱我"",""强她"",""弱她"",""强我""]","","","","","","","","yes","","","","","","","","","SRET","EW_formal","","key","j","26.303722891565947","853.1249872874471","475.6249929126353","朋友","罪恶","Negative","morality","","","","","","","","","","",""
"866","","j","psychophysics","87","291609","0.0-7.0-3.0-0.73","6","6","7","6","7","5","1","4","4","4","5","1","1","2","1","0","2","2","1","5","5","5","5","4","4","4","4","5","4","5","5","6","7","4","7","7","5","8","6","3","1","3","6","3","6","1","5","1","1","5","2","6","2","2","4","5","3","2","4","3","5","3","3","2","6","3","7","3","7","7","2","4","4","2","5","2","7","3","5","768533085213167618","徐","417","Female","[""坏我"",""好她"",""坏她"",""好我""]","[""弱我"",""强她"",""弱她"",""强我""]","","","","","","","","yes","","","","","","","","","SRET","EW_formal","","key","j","24.88692000000039","853.1249872874471","475.6249929126353","朋友","爱国","Positive","morality","","","","","","","","","","",""
"760","","f","psychophysics","88","293394","0.0-7.0-3.0-0.74","6","6","7","6","7","5","1","4","4","4","5","1","1","2","1","0","2","2","1","5","5","5","5","4","4","4","4","5","4","5","5","6","7","4","7","7","5","8","6","3","1","3","6","3","6","1","5","1","1","5","2","6","2","2","4","5","3","2","4","3","5","3","3","2","6","3","7","3","7","7","2","4","4","2","5","2","7","3","5","768533085213167618","徐","417","Female","[""坏我"",""好她"",""坏她"",""好我""]","[""弱我"",""强她"",""弱她"",""强我""]","","","","","","","","no","","","","","","","","","SRET","EW_formal","","key","f","25.235928571428772","853.1249872874471","475.6249929126353","自己","不仁","Negative","morality","","","","","","","","","","",""
"1033","","f","psychophysics","89","295436","0.0-7.0-3.0-0.75","6","6","7","6","7","5","1","4","4","4","5","1","1","2","1","0","2","2","1","5","5","5","5","4","4","4","4","5","4","5","5","6","7","4","7","7","5","8","6","3","1","3","6","3","6","1","5","1","1","5","2","6","2","2","4","5","3","2","4","3","5","3","3","2","6","3","7","3","7","7","2","4","4","2","5","2","7","3","5","768533085213167618","徐","417","Female","[""坏我"",""好她"",""坏她"",""好我""]","[""弱我"",""强她"",""弱她"",""强我""]","","","","","","","","no","","","","","","","","","SRET","EW_formal","","key","f","25.206762499999606","853.1249872874471","475.6249929126353","自己","外行","Negative","ability","","","","","","","","","","",""
"609","","f","psychophysics","90","297053","0.0-7.0-3.0-0.76","6","6","7","6","7","5","1","4","4","4","5","1","1","2","1","0","2","2","1","5","5","5","5","4","4","4","4","5","4","5","5","6","7","4","7","7","5","8","6","3","1","3","6","3","6","1","5","1","1","5","2","6","2","2","4","5","3","2","4","3","5","3","3","2","6","3","7","3","7","7","2","4","4","2","5","2","7","3","5","768533085213167618","徐","417","Female","[""坏我"",""好她"",""坏她"",""好我""]","[""弱我"",""强她"",""弱她"",""强我""]","","","","","","","","no","","","","","","","","","SRET","EW_formal","","key","f","23.528338235294488","853.1249872874471","475.6249929126353","自己","低劣","Negative","morality","","","","","","","","","","",""
"778","","f","psychophysics","91","298837","0.0-7.0-3.0-0.77","6","6","7","6","7","5","1","4","4","4","5","1","1","2","1","0","2","2","1","5","5","5","5","4","4","4","4","5","4","5","5","6","7","4","7","7","5","8","6","3","1","3","6","3","6","1","5","1","1","5","2","6","2","2","4","5","3","2","4","3","5","3","3","2","6","3","7","3","7","7","2","4","4","2","5","2","7","3","5","768533085213167618","徐","417","Female","[""坏我"",""好她"",""坏她"",""好我""]","[""弱我"",""强她"",""弱她"",""强我""]","","","","","","","","no","","","","","","","","","SRET","EW_formal","","key","f","23.87329729729744","853.1249872874471","475.6249929126353","自己","无知","Negative","ability","","","","","","","","","","",""
"661","","f","psychophysics","92","300512","0.0-7.0-3.0-0.78","6","6","7","6","7","5","1","4","4","4","5","1","1","2","1","0","2","2","1","5","5","5","5","4","4","4","4","5","4","5","5","6","7","4","7","7","5","8","6","3","1","3","6","3","6","1","5","1","1","5","2","6","2","2","4","5","3","2","4","3","5","3","3","2","6","3","7","3","7","7","2","4","4","2","5","2","7","3","5","768533085213167618","徐","417","Female","[""坏我"",""好她"",""坏她"",""好我""]","[""弱我"",""强她"",""弱她"",""强我""]","","","","","","","","no","","","","","","","","","SRET","EW_formal","","key","f","24.627029850746247","853.1249872874471","475.6249929126353","朋友","拖延","Negative","ability","","","","","","","","","","",""
"744","","j","psychophysics","93","302274","0.0-7.0-3.0-0.79","6","6","7","6","7","5","1","4","4","4","5","1","1","2","1","0","2","2","1","5","5","5","5","4","4","4","4","5","4","5","5","6","7","4","7","7","5","8","6","3","1","3","6","3","6","1","5","1","1","5","2","6","2","2","4","5","3","2","4","3","5","3","3","2","6","3","7","3","7","7","2","4","4","2","5","2","7","3","5","768533085213167618","徐","417","Female","[""坏我"",""好她"",""坏她"",""好我""]","[""弱我"",""强她"",""弱她"",""强我""]","","","","","","","","yes","","","","","","","","","SRET","EW_formal","","key","j","24.763771428571946","853.1249872874471","475.6249929126353","自己","仁爱","Positive","morality","","","","","","","","","","",""
"619","","j","psychophysics","94","303913","0.0-7.0-3.0-0.80","6","6","7","6","7","5","1","4","4","4","5","1","1","2","1","0","2","2","1","5","5","5","5","4","4","4","4","5","4","5","5","6","7","4","7","7","5","8","6","3","1","3","6","3","6","1","5","1","1","5","2","6","2","2","4","5","3","2","4","3","5","3","3","2","6","3","7","3","7","7","2","4","4","2","5","2","7","3","5","768533085213167618","徐","417","Female","[""坏我"",""好她"",""坏她"",""好我""]","[""弱我"",""强她"",""弱她"",""强我""]","","","","","","","","yes","","","","","","","","","SRET","EW_formal","","key","j","23.77270588235286","853.1249872874471","475.6249929126353","自己","敏捷","Positive","ability","","","","","","","","","","",""
"625","","f","psychophysics","95","305545","0.0-7.0-3.0-0.81","6","6","7","6","7","5","1","4","4","4","5","1","1","2","1","0","2","2","1","5","5","5","5","4","4","4","4","5","4","5","5","6","7","4","7","7","5","8","6","3","1","3","6","3","6","1","5","1","1","5","2","6","2","2","4","5","3","2","4","3","5","3","3","2","6","3","7","3","7","7","2","4","4","2","5","2","7","3","5","768533085213167618","徐","417","Female","[""坏我"",""好她"",""坏她"",""好我""]","[""弱我"",""强她"",""弱她"",""强我""]","","","","","","","","no","","","","","","","","","SRET","EW_formal","","key","f","24.614799999999992","853.1249872874471","475.6249929126353","朋友","腐败","Negative","morality","","","","","","","","","","",""
"851","","f","psychophysics","96","307423","0.0-7.0-3.0-0.82","6","6","7","6","7","5","1","4","4","4","5","1","1","2","1","0","2","2","1","5","5","5","5","4","4","4","4","5","4","5","5","6","7","4","7","7","5","8","6","3","1","3","6","3","6","1","5","1","1","5","2","6","2","2","4","5","3","2","4","3","5","3","3","2","6","3","7","3","7","7","2","4","4","2","5","2","7","3","5","768533085213167618","徐","417","Female","[""坏我"",""好她"",""坏她"",""好我""]","[""弱我"",""强她"",""弱她"",""强我""]","","","","","","","","no","","","","","","","","","SRET","EW_formal","","key","f","24.99910810810822","853.1249872874471","475.6249929126353","自己","才尽","Negative","ability","","","","","","","","","","",""
"622","","j","psychophysics","97","309053","0.0-7.0-3.0-0.83","6","6","7","6","7","5","1","4","4","4","5","1","1","2","1","0","2","2","1","5","5","5","5","4","4","4","4","5","4","5","5","6","7","4","7","7","5","8","6","3","1","3","6","3","6","1","5","1","1","5","2","6","2","2","4","5","3","2","4","3","5","3","3","2","6","3","7","3","7","7","2","4","4","2","5","2","7","3","5","768533085213167618","徐","417","Female","[""坏我"",""好她"",""坏她"",""好我""]","[""弱我"",""强她"",""弱她"",""强我""]","","","","","","","","yes","","","","","","","","","SRET","EW_formal","","key","j","24.87050769230745","853.1249872874471","475.6249929126353","朋友","忠良","Positive","morality","","","","","","","","","","",""
"735","","f","psychophysics","98","310808","0.0-7.0-3.0-0.84","6","6","7","6","7","5","1","4","4","4","5","1","1","2","1","0","2","2","1","5","5","5","5","4","4","4","4","5","4","5","5","6","7","4","7","7","5","8","6","3","1","3","6","3","6","1","5","1","1","5","2","6","2","2","4","5","3","2","4","3","5","3","3","2","6","3","7","3","7","7","2","4","4","2","5","2","7","3","5","768533085213167618","徐","417","Female","[""坏我"",""好她"",""坏她"",""好我""]","[""弱我"",""强她"",""弱她"",""强我""]","","","","","","","","no","","","","","","","","","SRET","EW_formal","","key","f","24.75944285714234","853.1249872874471","475.6249929126353","朋友","低俗","Negative","morality","","","","","","","","","","",""
"763","","j","psychophysics","99","312581","0.0-7.0-3.0-0.85","6","6","7","6","7","5","1","4","4","4","5","1","1","2","1","0","2","2","1","5","5","5","5","4","4","4","4","5","4","5","5","6","7","4","7","7","5","8","6","3","1","3","6","3","6","1","5","1","1","5","2","6","2","2","4","5","3","2","4","3","5","3","3","2","6","3","7","3","7","7","2","4","4","2","5","2","7","3","5","768533085213167618","徐","417","Female","[""坏我"",""好她"",""坏她"",""好我""]","[""弱我"",""强她"",""弱她"",""强我""]","","","","","","","","yes","","","","","","","","","SRET","EW_formal","","key","j","25.118913043478496","853.1249872874471","475.6249929126353","朋友","素养","Positive","morality","","","","","","","","","","",""
"639","","j","psychophysics","100","314243","0.0-7.0-3.0-0.86","6","6","7","6","7","5","1","4","4","4","5","1","1","2","1","0","2","2","1","5","5","5","5","4","4","4","4","5","4","5","5","6","7","4","7","7","5","8","6","3","1","3","6","3","6","1","5","1","1","5","2","6","2","2","4","5","3","2","4","3","5","3","3","2","6","3","7","3","7","7","2","4","4","2","5","2","7","3","5","768533085213167618","徐","417","Female","[""坏我"",""好她"",""坏她"",""好我""]","[""弱我"",""强她"",""弱她"",""强我""]","","","","","","","","yes","","","","","","","","","SRET","EW_formal","","key","j","29.69394545454574","853.1249872874471","475.6249929126353","自己","主见","Positive","ability","","","","","","","","","","",""
"944","","f","psychophysics","101","316195","0.0-7.0-3.0-0.87","6","6","7","6","7","5","1","4","4","4","5","1","1","2","1","0","2","2","1","5","5","5","5","4","4","4","4","5","4","5","5","6","7","4","7","7","5","8","6","3","1","3","6","3","6","1","5","1","1","5","2","6","2","2","4","5","3","2","4","3","5","3","3","2","6","3","7","3","7","7","2","4","4","2","5","2","7","3","5","768533085213167618","徐","417","Female","[""坏我"",""好她"",""坏她"",""好我""]","[""弱我"",""强她"",""弱她"",""强我""]","","","","","","","","no","","","","","","","","","SRET","EW_formal","","key","f","25.2170789473687","853.1249872874471","475.6249929126353","自己","缓慢","Negative","ability","","","","","","","","","","",""
"26061","
    <p><div style='color:white;font-size:35px; line-height:20px;'>计算任务</div></p><br>
    <p><div style='color:red;font-size:25px; line-height:20px;'>接下来，您将看到一些四则运算题，<b>请从键盘选择 0-9 进行反应。</b></div></p>
    <p><div style='color:red;font-size:25px; line-height:20px;'>请尽可能快地进行计算，计算的速度和正确率将影响报酬的发放。</div></p>
    <p><div class='footer' style='color:white;font-size:25px; line-height:20px;'>如果对本实验还有不清楚之处，请立即向实验员咨询。</p><p style='color:white;font-size:25px; line-height:20px;'>如果您明白了规则：</p><p style='color:white;font-size:22px; line-height:20px;'>请按 继续 进入练习</p>
    </div>
    ","0","html-button-response","102","342262","0.0-7.0-4.0","6","6","7","6","7","5","1","4","4","4","5","1","1","2","1","0","2","2","1","5","5","5","5","4","4","4","4","5","4","5","5","6","7","4","7","7","5","8","6","3","1","3","6","3","6","1","5","1","1","5","2","6","2","2","4","5","3","2","4","3","5","3","3","2","6","3","7","3","7","7","2","4","4","2","5","2","7","3","5","768533085213167618","徐","417","Female","[""坏我"",""好她"",""坏她"",""好我""]","[""弱我"",""强她"",""弱她"",""强我""]","","","","","","","","","","","","","","","","","SRET_math","math_instructions","Mon Dec 25 2023 14:48:53 GMT+0800 (中国标准时间)","","","","","","","","","","","","","","","","","","","",""
"2587","","9","psychophysics","103","344876","0.0-7.0-5.0-0.0","6","6","7","6","7","5","1","4","4","4","5","1","1","2","1","0","2","2","1","5","5","5","5","4","4","4","4","5","4","5","5","6","7","4","7","7","5","8","6","3","1","3","6","3","6","1","5","1","1","5","2","6","2","2","4","5","3","2","4","3","5","3","3","2","6","3","7","3","7","7","2","4","4","2","5","2","7","3","5","768533085213167618","徐","417","Female","[""坏我"",""好她"",""坏她"",""好我""]","[""弱我"",""强她"",""弱她"",""强我""]","","","","","","","","9","","","","","","","","","SRET","SRET_math_calculate","","key","9","25.492901960784437","853.1249872874471","475.6249929126353","","","","","18/2= ?","9","1","","","","","","","",""
"1970","","3","psychophysics","104","346868","0.0-7.0-5.0-0.1","6","6","7","6","7","5","1","4","4","4","5","1","1","2","1","0","2","2","1","5","5","5","5","4","4","4","4","5","4","5","5","6","7","4","7","7","5","8","6","3","1","3","6","3","6","1","5","1","1","5","2","6","2","2","4","5","3","2","4","3","5","3","3","2","6","3","7","3","7","7","2","4","4","2","5","2","7","3","5","768533085213167618","徐","417","Female","[""坏我"",""好她"",""坏她"",""好我""]","[""弱我"",""强她"",""弱她"",""强我""]","","","","","","","","3","","","","","","","","","SRET","SRET_math_calculate","","key","3","23.982170731707324","853.1249872874471","475.6249929126353","","","","","6/2= ?","3","1","","","","","","","",""
"2140","","8","psychophysics","105","349034","0.0-7.0-5.0-0.2","6","6","7","6","7","5","1","4","4","4","5","1","1","2","1","0","2","2","1","5","5","5","5","4","4","4","4","5","4","5","5","6","7","4","7","7","5","8","6","3","1","3","6","3","6","1","5","1","1","5","2","6","2","2","4","5","3","2","4","3","5","3","3","2","6","3","7","3","7","7","2","4","4","2","5","2","7","3","5","768533085213167618","徐","417","Female","[""坏我"",""好她"",""坏她"",""好我""]","[""弱我"",""强她"",""弱她"",""强我""]","","","","","","","","8","","","","","","","","","SRET","SRET_math_calculate","","key","8","24.711149425287303","853.1249872874471","475.6249929126353","","","","","3+5= ?","8","1","","","","","","","",""
"2053","","7","psychophysics","106","351113","0.0-7.0-5.0-0.3","6","6","7","6","7","5","1","4","4","4","5","1","1","2","1","0","2","2","1","5","5","5","5","4","4","4","4","5","4","5","5","6","7","4","7","7","5","8","6","3","1","3","6","3","6","1","5","1","1","5","2","6","2","2","4","5","3","2","4","3","5","3","3","2","6","3","7","3","7","7","2","4","4","2","5","2","7","3","5","768533085213167618","徐","417","Female","[""坏我"",""好她"",""坏她"",""好我""]","[""弱我"",""强她"",""弱她"",""强我""]","","","","","","","","7","","","","","","","","","SRET","SRET_math_calculate","","key","7","24.69677108433729","853.1249872874471","475.6249929126353","","","","","1+6= ?","7","1","","","","","","","",""
"2087","","2","psychophysics","107","353241","0.0-7.0-5.0-0.4","6","6","7","6","7","5","1","4","4","4","5","1","1","2","1","0","2","2","1","5","5","5","5","4","4","4","4","5","4","5","5","6","7","4","7","7","5","8","6","3","1","3","6","3","6","1","5","1","1","5","2","6","2","2","4","5","3","2","4","3","5","3","3","2","6","3","7","3","7","7","2","4","4","2","5","2","7","3","5","768533085213167618","徐","417","Female","[""坏我"",""好她"",""坏她"",""好我""]","[""弱我"",""强她"",""弱她"",""强我""]","","","","","","","","2","","","","","","","","","SRET","SRET_math_calculate","","key","2","24.99972619047566","853.1249872874471","475.6249929126353","","","","","5-3= ?","2","1","","","","","","","",""
"2008","","7","psychophysics","108","355272","0.0-7.0-5.0-0.5","6","6","7","6","7","5","1","4","4","4","5","1","1","2","1","0","2","2","1","5","5","5","5","4","4","4","4","5","4","5","5","6","7","4","7","7","5","8","6","3","1","3","6","3","6","1","5","1","1","5","2","6","2","2","4","5","3","2","4","3","5","3","3","2","6","3","7","3","7","7","2","4","4","2","5","2","7","3","5","768533085213167618","徐","417","Female","[""坏我"",""好她"",""坏她"",""好我""]","[""弱我"",""强她"",""弱她"",""强我""]","","","","","","","","7","","","","","","","","","SRET","SRET_math_calculate","","key","7","23.52852941176457","853.1249872874471","475.6249929126353","","","","","2+5= ?","7","1","","","","","","","",""
"2344","","8","psychophysics","109","357640","0.0-7.0-5.0-0.6","6","6","7","6","7","5","1","4","4","4","5","1","1","2","1","0","2","2","1","5","5","5","5","4","4","4","4","5","4","5","5","6","7","4","7","7","5","8","6","3","1","3","6","3","6","1","5","1","1","5","2","6","2","2","4","5","3","2","4","3","5","3","3","2","6","3","7","3","7","7","2","4","4","2","5","2","7","3","5","768533085213167618","徐","417","Female","[""坏我"",""好她"",""坏她"",""好我""]","[""弱我"",""强她"",""弱她"",""强我""]","","","","","","","","8","","","","","","","","","SRET","SRET_math_calculate","","key","8","24.476197916666933","853.1249872874471","475.6249929126353","","","","","50-42= ?","8","1","","","","","","","",""
"2352","","5","psychophysics","110","360012","0.0-7.0-5.0-0.7","6","6","7","6","7","5","1","4","4","4","5","1","1","2","1","0","2","2","1","5","5","5","5","4","4","4","4","5","4","5","5","6","7","4","7","7","5","8","6","3","1","3","6","3","6","1","5","1","1","5","2","6","2","2","4","5","3","2","4","3","5","3","3","2","6","3","7","3","7","7","2","4","4","2","5","2","7","3","5","768533085213167618","徐","417","Female","[""坏我"",""好她"",""坏她"",""好我""]","[""弱我"",""强她"",""弱她"",""强我""]","","","","","","","","5","","","","","","","","","SRET","SRET_math_calculate","","key","5","25.360663043478702","853.1249872874471","475.6249929126353","","","","","16-11= ?","5","1","","","","","","","",""
"2315","","0","psychophysics","111","362350","0.0-7.0-5.0-0.8","6","6","7","6","7","5","1","4","4","4","5","1","1","2","1","0","2","2","1","5","5","5","5","4","4","4","4","5","4","5","5","6","7","4","7","7","5","8","6","3","1","3","6","3","6","1","5","1","1","5","2","6","2","2","4","5","3","2","4","3","5","3","3","2","6","3","7","3","7","7","2","4","4","2","5","2","7","3","5","768533085213167618","徐","417","Female","[""坏我"",""好她"",""坏她"",""好我""]","[""弱我"",""强她"",""弱她"",""强我""]","","","","","","","","0","","","","","","","","","SRET","SRET_math_calculate","","key","0","24.466159574468275","853.1249872874471","475.6249929126353","","","","","6*0= ?","0","1","","","","","","","",""
"2111","","9","psychophysics","112","364491","0.0-7.0-5.0-0.9","6","6","7","6","7","5","1","4","4","4","5","1","1","2","1","0","2","2","1","5","5","5","5","4","4","4","4","5","4","5","5","6","7","4","7","7","5","8","6","3","1","3","6","3","6","1","5","1","1","5","2","6","2","2","4","5","3","2","4","3","5","3","3","2","6","3","7","3","7","7","2","4","4","2","5","2","7","3","5","768533085213167618","徐","417","Female","[""坏我"",""好她"",""坏她"",""好我""]","[""弱我"",""强她"",""弱她"",""强我""]","","","","","","","","9","","","","","","","","","SRET","SRET_math_calculate","","key","9","26.791379746835077","853.1249872874471","475.6249929126353","","","","","7+2= ?","9","1","","","","","","","",""
"1847","","6","psychophysics","113","366373","0.0-7.0-5.0-0.10","6","6","7","6","7","5","1","4","4","4","5","1","1","2","1","0","2","2","1","5","5","5","5","4","4","4","4","5","4","5","5","6","7","4","7","7","5","8","6","3","1","3","6","3","6","1","5","1","1","5","2","6","2","2","4","5","3","2","4","3","5","3","3","2","6","3","7","3","7","7","2","4","4","2","5","2","7","3","5","768533085213167618","徐","417","Female","[""坏我"",""好她"",""坏她"",""好我""]","[""弱我"",""强她"",""弱她"",""强我""]","","","","","","","","6","","","","","","","","","SRET","SRET_math_calculate","","key","6","25.695319444444774","853.1249872874471","475.6249929126353","","","","","3+3= ?","6","1","","","","","","","",""
"2050","","9","psychophysics","114","368449","0.0-7.0-5.0-0.11","6","6","7","6","7","5","1","4","4","4","5","1","1","2","1","0","2","2","1","5","5","5","5","4","4","4","4","5","4","5","5","6","7","4","7","7","5","8","6","3","1","3","6","3","6","1","5","1","1","5","2","6","2","2","4","5","3","2","4","3","5","3","3","2","6","3","7","3","7","7","2","4","4","2","5","2","7","3","5","768533085213167618","徐","417","Female","[""坏我"",""好她"",""坏她"",""好我""]","[""弱我"",""强她"",""弱她"",""强我""]","","","","","","","","9","","","","","","","","","SRET","SRET_math_calculate","","key","9","27.475081081081314","853.1249872874471","475.6249929126353","","","","","4+5= ?","9","1","","","","","","","",""
"2034","","4","psychophysics","115","370517","0.0-7.0-5.0-0.12","6","6","7","6","7","5","1","4","4","4","5","1","1","2","1","0","2","2","1","5","5","5","5","4","4","4","4","5","4","5","5","6","7","4","7","7","5","8","6","3","1","3","6","3","6","1","5","1","1","5","2","6","2","2","4","5","3","2","4","3","5","3","3","2","6","3","7","3","7","7","2","4","4","2","5","2","7","3","5","768533085213167618","徐","417","Female","[""坏我"",""好她"",""坏她"",""好我""]","[""弱我"",""强她"",""弱她"",""强我""]","","","","","","","","4","","","","","","","","","SRET","SRET_math_calculate","","key","4","30.515373134328776","853.1249872874471","475.6249929126353","","","","","20/5= ?","4","1","","","","","","","",""
"1997","","8","psychophysics","116","372546","0.0-7.0-5.0-0.13","6","6","7","6","7","5","1","4","4","4","5","1","1","2","1","0","2","2","1","5","5","5","5","4","4","4","4","5","4","5","5","6","7","4","7","7","5","8","6","3","1","3","6","3","6","1","5","1","1","5","2","6","2","2","4","5","3","2","4","3","5","3","3","2","6","3","7","3","7","7","2","4","4","2","5","2","7","3","5","768533085213167618","徐","417","Female","[""坏我"",""好她"",""坏她"",""好我""]","[""弱我"",""强她"",""弱她"",""强我""]","","","","","","","","8","","","","","","","","","SRET","SRET_math_calculate","","key","8","31.41800000000035","853.1249872874471","475.6249929126353","","","","","5+3= ?","8","1","","","","","","","",""
"5732","","7","psychophysics","117","378318","0.0-7.0-5.0-0.14","6","6","7","6","7","5","1","4","4","4","5","1","1","2","1","0","2","2","1","5","5","5","5","4","4","4","4","5","4","5","5","6","7","4","7","7","5","8","6","3","1","3","6","3","6","1","5","1","1","5","2","6","2","2","4","5","3","2","4","3","5","3","3","2","6","3","7","3","7","7","2","4","4","2","5","2","7","3","5","768533085213167618","徐","417","Female","[""坏我"",""好她"",""坏她"",""好我""]","[""弱我"",""强她"",""弱她"",""强我""]","","","","","","","","7","","","","","","","","","SRET","SRET_math_calculate","","key","7","54.61706603773571","853.1249872874471","475.6249929126353","","","","","7*1=  ?","7","1","","","","","","","",""
"920","","7","psychophysics","118","379248","0.0-7.0-5.0-0.15","6","6","7","6","7","5","1","4","4","4","5","1","1","2","1","0","2","2","1","5","5","5","5","4","4","4","4","5","4","5","5","6","7","4","7","7","5","8","6","3","1","3","6","3","6","1","5","1","1","5","2","6","2","2","4","5","3","2","4","3","5","3","3","2","6","3","7","3","7","7","2","4","4","2","5","2","7","3","5","768533085213167618","徐","417","Female","[""坏我"",""好她"",""坏她"",""好我""]","[""弱我"",""强她"",""弱她"",""强我""]","","","","","","","","7","","","","","","","","","SRET","SRET_math_calculate","","key","7","47.371947368420045","853.1249872874471","475.6249929126353","","","","","12-5= ?","7","1","","","","","","","",""
"2018","","8","psychophysics","119","381292","0.0-7.0-5.0-0.16","6","6","7","6","7","5","1","4","4","4","5","1","1","2","1","0","2","2","1","5","5","5","5","4","4","4","4","5","4","5","5","6","7","4","7","7","5","8","6","3","1","3","6","3","6","1","5","1","1","5","2","6","2","2","4","5","3","2","4","3","5","3","3","2","6","3","7","3","7","7","2","4","4","2","5","2","7","3","5","768533085213167618","徐","417","Female","[""坏我"",""好她"",""坏她"",""好我""]","[""弱我"",""强她"",""弱她"",""强我""]","","","","","","","","8","","","","","","","","","SRET","SRET_math_calculate","","key","8","24.691024691358002","853.1249872874471","475.6249929126353","","","","","2+6= ?","8","1","","","","","","","",""
"1950","","8","psychophysics","120","383270","0.0-7.0-5.0-0.17","6","6","7","6","7","5","1","4","4","4","5","1","1","2","1","0","2","2","1","5","5","5","5","4","4","4","4","5","4","5","5","6","7","4","7","7","5","8","6","3","1","3","6","3","6","1","5","1","1","5","2","6","2","2","4","5","3","2","4","3","5","3","3","2","6","3","7","3","7","7","2","4","4","2","5","2","7","3","5","768533085213167618","徐","417","Female","[""坏我"",""好她"",""坏她"",""好我""]","[""弱我"",""强她"",""弱她"",""强我""]","","","","","","","","8","","","","","","","","","SRET","SRET_math_calculate","","key","8","25.657328947368352","853.1249872874471","475.6249929126353","","","","","9-1= ?","8","1","","","","","","","",""
"2399","","7","psychophysics","121","385695","0.0-7.0-5.0-0.18","6","6","7","6","7","5","1","4","4","4","5","1","1","2","1","0","2","2","1","5","5","5","5","4","4","4","4","5","4","5","5","6","7","4","7","7","5","8","6","3","1","3","6","3","6","1","5","1","1","5","2","6","2","2","4","5","3","2","4","3","5","3","3","2","6","3","7","3","7","7","2","4","4","2","5","2","7","3","5","768533085213167618","徐","417","Female","[""坏我"",""好她"",""坏她"",""好我""]","[""弱我"",""强她"",""弱她"",""强我""]","","","","","","","","7","","","","","","","","","SRET","SRET_math_calculate","","key","7","30.377493670885894","853.1249872874471","475.6249929126353","","","","","49/7 = ?","7","1","","","","","","","",""
"1854","","0","psychophysics","122","387577","0.0-7.0-5.0-0.19","6","6","7","6","7","5","1","4","4","4","5","1","1","2","1","0","2","2","1","5","5","5","5","4","4","4","4","5","4","5","5","6","7","4","7","7","5","8","6","3","1","3","6","3","6","1","5","1","1","5","2","6","2","2","4","5","3","2","4","3","5","3","3","2","6","3","7","3","7","7","2","4","4","2","5","2","7","3","5","768533085213167618","徐","417","Female","[""坏我"",""好她"",""坏她"",""好我""]","[""弱我"",""强她"",""弱她"",""强我""]","","","","","","","","0","","","","","","","","","SRET","SRET_math_calculate","","key","0","29.837661290322544","853.1249872874471","475.6249929126353","","","","","9-9= ?","0","1","","","","","","","",""
"2122","","9","psychophysics","123","389727","0.0-7.0-5.0-0.20","6","6","7","6","7","5","1","4","4","4","5","1","1","2","1","0","2","2","1","5","5","5","5","4","4","4","4","5","4","5","5","6","7","4","7","7","5","8","6","3","1","3","6","3","6","1","5","1","1","5","2","6","2","2","4","5","3","2","4","3","5","3","3","2","6","3","7","3","7","7","2","4","4","2","5","2","7","3","5","768533085213167618","徐","417","Female","[""坏我"",""好她"",""坏她"",""好我""]","[""弱我"",""强她"",""弱她"",""强我""]","","","","","","","","9","","","","","","","","","SRET","SRET_math_calculate","","key","9","26.79192405063261","853.1249872874471","475.6249929126353","","","","","1*9= ?","9","1","","","","","","","",""
"2326","","5","psychophysics","124","392092","0.0-7.0-5.0-0.21","6","6","7","6","7","5","1","4","4","4","5","1","1","2","1","0","2","2","1","5","5","5","5","4","4","4","4","5","4","5","5","6","7","4","7","7","5","8","6","3","1","3","6","3","6","1","5","1","1","5","2","6","2","2","4","5","3","2","4","3","5","3","3","2","6","3","7","3","7","7","2","4","4","2","5","2","7","3","5","768533085213167618","徐","417","Female","[""坏我"",""好她"",""坏她"",""好我""]","[""弱我"",""强她"",""弱她"",""强我""]","","","","","","","","5","","","","","","","","","SRET","SRET_math_calculate","","key","5","24.821021276595506","853.1249872874471","475.6249929126353","","","","","8-3= ? ","5","1","","","","","","","",""
"2212","","2","psychophysics","125","394328","0.0-7.0-5.0-0.22","6","6","7","6","7","5","1","4","4","4","5","1","1","2","1","0","2","2","1","5","5","5","5","4","4","4","4","5","4","5","5","6","7","4","7","7","5","8","6","3","1","3","6","3","6","1","5","1","1","5","2","6","2","2","4","5","3","2","4","3","5","3","3","2","6","3","7","3","7","7","2","4","4","2","5","2","7","3","5","768533085213167618","徐","417","Female","[""坏我"",""好她"",""坏她"",""好我""]","[""弱我"",""强她"",""弱她"",""强我""]","","","","","","","","2","","","","","","","","","SRET","SRET_math_calculate","","key","2","24.092945652173672","853.1249872874471","475.6249929126353","","","","","8/4= ?","2","1","","","","","","","",""
"2555","","3","psychophysics","126","396908","0.0-7.0-5.0-0.23","6","6","7","6","7","5","1","4","4","4","5","1","1","2","1","0","2","2","1","5","5","5","5","4","4","4","4","5","4","5","5","6","7","4","7","7","5","8","6","3","1","3","6","3","6","1","5","1","1","5","2","6","2","2","4","5","3","2","4","3","5","3","3","2","6","3","7","3","7","7","2","4","4","2","5","2","7","3","5","768533085213167618","徐","417","Female","[""坏我"",""好她"",""坏她"",""好我""]","[""弱我"",""强她"",""弱她"",""强我""]","","","","","","","","3","","","","","","","","","SRET","SRET_math_calculate","","key","3","23.83106542056074","853.1249872874471","475.6249929126353","","","","","21/7=  ?","3","1","","","","","","","",""
"2142","","6","psychophysics","127","399110","0.0-7.0-5.0-0.24","6","6","7","6","7","5","1","4","4","4","5","1","1","2","1","0","2","2","1","5","5","5","5","4","4","4","4","5","4","5","5","6","7","4","7","7","5","8","6","3","1","3","6","3","6","1","5","1","1","5","2","6","2","2","4","5","3","2","4","3","5","3","3","2","6","3","7","3","7","7","2","4","4","2","5","2","7","3","5","768533085213167618","徐","417","Female","[""坏我"",""好她"",""坏她"",""好我""]","[""弱我"",""强她"",""弱她"",""强我""]","","","","","","","","6","","","","","","","","","SRET","SRET_math_calculate","","key","6","24.257866666667137","853.1249872874471","475.6249929126353","","","","","3*2= ?","6","1","","","","","","","",""
"1938","","8","psychophysics","128","401070","0.0-7.0-5.0-0.25","6","6","7","6","7","5","1","4","4","4","5","1","1","2","1","0","2","2","1","5","5","5","5","4","4","4","4","5","4","5","5","6","7","4","7","7","5","8","6","3","1","3","6","3","6","1","5","1","1","5","2","6","2","2","4","5","3","2","4","3","5","3","3","2","6","3","7","3","7","7","2","4","4","2","5","2","7","3","5","768533085213167618","徐","417","Female","[""坏我"",""好她"",""坏她"",""好我""]","[""弱我"",""强她"",""弱她"",""强我""]","","","","","","","","8","","","","","","","","","SRET","SRET_math_calculate","","key","8","23.014083333332866","853.1249872874471","475.6249929126353","","","","","4+4= ?","8","1","","","","","","","",""
"2196","","8","psychophysics","129","403288","0.0-7.0-5.0-0.26","6","6","7","6","7","5","1","4","4","4","5","1","1","2","1","0","2","2","1","5","5","5","5","4","4","4","4","5","4","5","5","6","7","4","7","7","5","8","6","3","1","3","6","3","6","1","5","1","1","5","2","6","2","2","4","5","3","2","4","3","5","3","3","2","6","3","7","3","7","7","2","4","4","2","5","2","7","3","5","768533085213167618","徐","417","Female","[""坏我"",""好她"",""坏她"",""好我""]","[""弱我"",""强她"",""弱她"",""强我""]","","","","","","","","8","","","","","","","","","SRET","SRET_math_calculate","","key","8","23.15498947368408","853.1249872874471","475.6249929126353","","","","","72/9= ?","8","1","","","","","","","",""
"1981","","0","psychophysics","130","405295","0.0-7.0-5.0-0.27","6","6","7","6","7","5","1","4","4","4","5","1","1","2","1","0","2","2","1","5","5","5","5","4","4","4","4","5","4","5","5","6","7","4","7","7","5","8","6","3","1","3","6","3","6","1","5","1","1","5","2","6","2","2","4","5","3","2","4","3","5","3","3","2","6","3","7","3","7","7","2","4","4","2","5","2","7","3","5","768533085213167618","徐","417","Female","[""坏我"",""好她"",""坏她"",""好我""]","[""弱我"",""强她"",""弱她"",""强我""]","","","","","","","","0","","","","","","","","","SRET","SRET_math_calculate","","key","0","23.60988095238073","853.1249872874471","475.6249929126353","","","","","7*0= ?","0","1","","","","","","","",""
"2262","","4","psychophysics","131","407581","0.0-7.0-5.0-0.28","6","6","7","6","7","5","1","4","4","4","5","1","1","2","1","0","2","2","1","5","5","5","5","4","4","4","4","5","4","5","5","6","7","4","7","7","5","8","6","3","1","3","6","3","6","1","5","1","1","5","2","6","2","2","4","5","3","2","4","3","5","3","3","2","6","3","7","3","7","7","2","4","4","2","5","2","7","3","5","768533085213167618","徐","417","Female","[""坏我"",""好她"",""坏她"",""好我""]","[""弱我"",""强她"",""弱她"",""强我""]","","","","","","","","4","","","","","","","","","SRET","SRET_math_calculate","","key","4","22.893949494949386","853.1249872874471","475.6249929126353","","","","","4*1= ?","4","1","","","","","","","",""
"2286","","2","psychophysics","132","409895","0.0-7.0-5.0-0.29","6","6","7","6","7","5","1","4","4","4","5","1","1","2","1","0","2","2","1","5","5","5","5","4","4","4","4","5","4","5","5","6","7","4","7","7","5","8","6","3","1","3","6","3","6","1","5","1","1","5","2","6","2","2","4","5","3","2","4","3","5","3","3","2","6","3","7","3","7","7","2","4","4","2","5","2","7","3","5","768533085213167618","徐","417","Female","[""坏我"",""好她"",""坏她"",""好我""]","[""弱我"",""强她"",""弱她"",""强我""]","","","","","","","","2","","","","","","","","","SRET","SRET_math_calculate","","key","2","23.709969072164633","853.1249872874471","475.6249929126353","","","","","19-17= ?","2","1","","","","","","","",""
"3421","","3","psychophysics","133","413347","0.0-7.0-5.0-0.30","6","6","7","6","7","5","1","4","4","4","5","1","1","2","1","0","2","2","1","5","5","5","5","4","4","4","4","5","4","5","5","6","7","4","7","7","5","8","6","3","1","3","6","3","6","1","5","1","1","5","2","6","2","2","4","5","3","2","4","3","5","3","3","2","6","3","7","3","7","7","2","4","4","2","5","2","7","3","5","768533085213167618","徐","417","Female","[""坏我"",""好她"",""坏她"",""好我""]","[""弱我"",""强她"",""弱她"",""强我""]","","","","","","","","3","","","","","","","","","SRET","SRET_math_calculate","","key","3","23.561420689655293","853.1249872874471","475.6249929126353","","","","","3+0= ?","3","1","","","","","","","",""
"2235","","3","psychophysics","134","415609","0.0-7.0-5.0-0.31","6","6","7","6","7","5","1","4","4","4","5","1","1","2","1","0","2","2","1","5","5","5","5","4","4","4","4","5","4","5","5","6","7","4","7","7","5","8","6","3","1","3","6","3","6","1","5","1","1","5","2","6","2","2","4","5","3","2","4","3","5","3","3","2","6","3","7","3","7","7","2","4","4","2","5","2","7","3","5","768533085213167618","徐","417","Female","[""坏我"",""好她"",""坏她"",""好我""]","[""弱我"",""强她"",""弱她"",""强我""]","","","","","","","","3","","","","","","","","","SRET","SRET_math_calculate","","key","3","23.022680412371255","853.1249872874471","475.6249929126353","","","","","3*1= ?","3","1","","","","","","","",""
"2198","","7","psychophysics","135","417826","0.0-7.0-5.0-0.32","6","6","7","6","7","5","1","4","4","4","5","1","1","2","1","0","2","2","1","5","5","5","5","4","4","4","4","5","4","5","5","6","7","4","7","7","5","8","6","3","1","3","6","3","6","1","5","1","1","5","2","6","2","2","4","5","3","2","4","3","5","3","3","2","6","3","7","3","7","7","2","4","4","2","5","2","7","3","5","768533085213167618","徐","417","Female","[""坏我"",""好她"",""坏她"",""好我""]","[""弱我"",""强她"",""弱她"",""强我""]","","","","","","","","7","","","","","","","","","SRET","SRET_math_calculate","","key","7","23.655301075269122","853.1249872874471","475.6249929126353","","","","","9-2= ?","7","1","","","","","","","",""
"1987","","7","psychophysics","136","419835","0.0-7.0-5.0-0.33","6","6","7","6","7","5","1","4","4","4","5","1","1","2","1","0","2","2","1","5","5","5","5","4","4","4","4","5","4","5","5","6","7","4","7","7","5","8","6","3","1","3","6","3","6","1","5","1","1","5","2","6","2","2","4","5","3","2","4","3","5","3","3","2","6","3","7","3","7","7","2","4","4","2","5","2","7","3","5","768533085213167618","徐","417","Female","[""坏我"",""好她"",""坏她"",""好我""]","[""弱我"",""强她"",""弱她"",""强我""]","","","","","","","","7","","","","","","","","","SRET","SRET_math_calculate","","key","7","24.183670731707156","853.1249872874471","475.6249929126353","","","","","3+4= ?","7","1","","","","","","","",""
"2879","","0","psychophysics","137","422736","0.0-7.0-5.0-0.34","6","6","7","6","7","5","1","4","4","4","5","1","1","2","1","0","2","2","1","5","5","5","5","4","4","4","4","5","4","5","5","6","7","4","7","7","5","8","6","3","1","3","6","3","6","1","5","1","1","5","2","6","2","2","4","5","3","2","4","3","5","3","3","2","6","3","7","3","7","7","2","4","4","2","5","2","7","3","5","768533085213167618","徐","417","Female","[""坏我"",""好她"",""坏她"",""好我""]","[""弱我"",""强她"",""弱她"",""强我""]","","","","","","","","0","","","","","","","","","SRET","SRET_math_calculate","","key","0","23.06600800000038","853.1249872874471","475.6249929126353","","","","","22-22= ?","0","1","","","","","","","",""
