"rt","stimulus","response","trial_type","trial_index","time_elapsed","internal_node_id","swb_1","swb_2","swb_3","swb_4","swb_5","LOT_1","LOT_2","LOT_3","LOT_4","LOT_5","LOT_6","IPC_1","IPC_2","IPC_3","IPC_4","IPC_5","IPC_6","IPC_7","IPC_8","MorIden_1","MorIden_2","MorIden_3","MorIden_4","MorIden_5","MorIden_6","MorIden_7","MorIden_8","MorIden_9","MorIden_10","moralSeImag_1","moralSeImag_2","moralSeImag_3","moralSeImag_4","moralSeImag_5","moralSeImag_6","moralSeImag_7","moralSeImag_8","moralSeImag_9","sde_1","sde_2","sde_3","sde_4","sde_5","sde_6","sde_7","sde_8","sde_9","sde_10","trap2","sde_11","sde_12","sde_13","sde_14","sde_15","sde_16","sde_17","sde_18","sde_19","sde_20","IM_1","IM_2","IM_3","IM_4","IM_5","IM_6","IM_7","IM_8","IM_9","IM_10","IM_11","IM_12","IM_13","IM_14","IM_15","IM_16","IM_17","IM_18","IM_19","IM_20","subj_idx","friend_name","ParticipantID","Sex","Word","Word2","value","success","timeout","failed_images","failed_audio","failed_video","user_agent","responses","item_order","radio_event_ids","radio_event_times","key_event_times","mouse_event_times","straightlining","zigzagging","honeypot","task_id","screen_id","time_stamp","response_type","key_press","avg_frame_time","center_x","center_y","person","word","valence","domain","math","correct_response","correct","status","view_history","identity","duration","Image","condition","question_order","trap2_item"
"3655","
   <p><div style='color:white; font-size: 25px'>您好，欢迎参加本次实验。</div></p>
   <p><div style='color:white; font-size: 25px'>为充分保障您的权利，请确保您已经知晓并同意《参与实验同意书》以及《数据公开知情同意书》。</div></p>
   <p><div style='color:white; font-size: 25px'>如果您未见过上述内容，请咨询实验员。</div></p>
   <p style='color:white; font-size: 25px'>如果您选择继续实验，则表示您已经清楚两份知情同意书的内容并同意。</p>
   <p><div style = ""color: pink;font-size:30px;"">请确保您记得day0的实验编号，您将在本次实验输入该编号，若您忘记，请咨询实验员后作答。</div></p>
   <p><div style = ""color:lightblue;font-size:25px;"">请您尽可能认真地作答，我们将依据您在各问卷和按键任务中的作答质量发放报酬。</div></p>
   <p> <div style = ""color: green""><按空格键至下页></div> </p>
   "," ","html-keyboard-response","0","3656","0.0-0.0","7","7","7","6","6","5","5","5","5","5","5","2","2","2","0","1","2","2","1","5","4","5","5","4","4","4","4","5","4","7","6","6","7","7","5","7","8","7","7","7","6","7","7","6","6","1","6","7","1","6","7","7","6","6","5","6","7","6","7","6","7","7","7","5","7","7","7","7","7","7","7","7","7","7","7","7","7","6","7","602312870918619136","张","630","Male","[""坏我"",""好我"",""好他"",""坏他""]","[""弱我"",""强我"",""强他"",""弱他""]","","","","","","","","","","","","","","","","","","","","","","","","","","","","","","","","","","","","","","",""
"","","","call-function","1","3657","0.0-1.0-0.0","7","7","7","6","6","5","5","5","5","5","5","2","2","2","0","1","2","2","1","5","4","5","5","4","4","4","4","5","4","7","6","6","7","7","5","7","8","7","7","7","6","7","7","6","6","1","6","7","1","6","7","7","6","6","5","6","7","6","7","6","7","7","7","5","7","7","7","7","7","7","7","7","7","7","7","7","7","6","7","602312870918619136","张","630","Male","[""坏我"",""好我"",""好他"",""坏他""]","[""弱我"",""强我"",""强他"",""弱他""]","","","","","","","","","","","","","","","","","","","","","","","","","","","","","","","","","","","","","","",""
"28695","","[{""name"":""Sex"",""value"":""0""},{""name"":""friend_name"",""value"":""张""},{""name"":""ParticipantID"",""value"":""630""}]","survey-html-form","2","32352","0.0-1.0-1.0","7","7","7","6","6","5","5","5","5","5","5","2","2","2","0","1","2","2","1","5","4","5","5","4","4","4","4","5","4","7","6","6","7","7","5","7","8","7","7","7","6","7","7","6","6","1","6","7","1","6","7","7","6","6","5","6","7","6","7","6","7","7","7","5","7","7","7","7","7","7","7","7","7","7","7","7","7","6","7","602312870918619136","张","630","Male","[""坏我"",""好我"",""好他"",""坏他""]","[""弱我"",""强我"",""强他"",""弱他""]","","","","","","","","","","","","","","","","","","","","","","","","","","","","","","","","","","","","","","",""
"","","","preload","3","32748","0.0-2.0","7","7","7","6","6","5","5","5","5","5","5","2","2","2","0","1","2","2","1","5","4","5","5","4","4","4","4","5","4","7","6","6","7","7","5","7","8","7","7","7","6","7","7","6","6","1","6","7","1","6","7","7","6","6","5","6","7","6","7","6","7","7","7","5","7","7","7","7","7","7","7","7","7","7","7","7","7","6","7","602312870918619136","张","630","Male","[""坏我"",""好我"",""好他"",""坏他""]","[""弱我"",""强我"",""强他"",""弱他""]","","true","false","[]","[]","[]","","","","","","","","","","","","","","","","","","","","","","","","","","","","","","","","",""
"","","","fullscreen","4","33886","0.0-3.0","7","7","7","6","6","5","5","5","5","5","5","2","2","2","0","1","2","2","1","5","4","5","5","4","4","4","4","5","4","7","6","6","7","7","5","7","8","7","7","7","6","7","7","6","6","1","6","7","1","6","7","7","6","6","5","6","7","6","7","6","7","7","7","5","7","7","7","7","7","7","7","7","7","7","7","7","7","6","7","602312870918619136","张","630","Male","[""坏我"",""好我"",""好他"",""坏他""]","[""弱我"",""强我"",""强他"",""弱他""]","","true","","","","","{}","","","","","","","","","","","","","","","","","","","","","","","","","","","","","","","",""
"13656.60000038147","","{""Q01"":""7"",""Q02"":""7"",""Q03"":""7"",""Q04"":""6"",""Q05"":""6""}","survey-template","5","47544","0.0-4.0","7","7","7","6","6","5","5","5","5","5","5","2","2","2","0","1","2","2","1","5","4","5","5","4","4","4","4","5","4","7","6","6","7","7","5","7","8","7","7","7","6","7","7","6","6","1","6","7","1","6","7","7","6","6","5","6","7","6","7","6","7","7","7","5","7","7","7","7","7","7","7","7","7","7","7","7","7","6","7","602312870918619136","张","630","Male","[""坏我"",""好我"",""好他"",""坏他""]","[""弱我"",""强我"",""强他"",""弱他""]","","","","","","","","{""Q01"":""7"",""Q02"":""7"",""Q03"":""7"",""Q04"":""6"",""Q05"":""6""}","[0,1,2,3,4]","[""Q01"",""Q02"",""Q03"",""Q04"",""Q05""]","[2528.3999996185303,6400,7096,9296.20000076294,10351.89999961853]","[]","[2528.3999996185303,6400,7096,9296.20000076294,10088.5,10351.89999961853,13655.79999923706]","0.6","0.25","0","","","","","","","","","","","","","","","","","","","","","","",""
"25150.10000038147","","{""Q01"":""5"",""Q02"":""5"",""Q03"":""5"",""Q04"":""5"",""Q05"":""5"",""Q06"":""5""}","survey-template","6","72697","0.0-5.0","7","7","7","6","6","5","5","5","5","5","5","2","2","2","0","1","2","2","1","5","4","5","5","4","4","4","4","5","4","7","6","6","7","7","5","7","8","7","7","7","6","7","7","6","6","1","6","7","1","6","7","7","6","6","5","6","7","6","7","6","7","7","7","5","7","7","7","7","7","7","7","7","7","7","7","7","7","6","7","602312870918619136","张","630","Male","[""坏我"",""好我"",""好他"",""坏他""]","[""弱我"",""强我"",""强他"",""弱他""]","","","","","","","","{""Q01"":""5"",""Q02"":""5"",""Q03"":""5"",""Q04"":""5"",""Q05"":""5"",""Q06"":""5""}","[0,1,2,3,4,5]","[""Q01"",""Q02"",""Q03"",""Q04"",""Q05"",""Q06"",""Q06""]","[4924.700000762939,6252.5,10590.39999961853,17285.20000076294,20660.5,21413,23260.5]","[]","[4924.700000762939,6252.5,10590.39999961853,17285.20000076294,20660.5,21413,23260.5,25149.60000038147]","0.5","0.8","0","","","","","","","","","","","","","","","","","","","","","","",""
"43813.40000152588","","{""Q01"":""2"",""Q02"":""2"",""Q03"":""2"",""Q04"":""0"",""Q05"":""1"",""Q06"":""2"",""Q07"":""2"",""Q08"":""1""}","survey-template","7","116514","0.0-6.0","7","7","7","6","6","5","5","5","5","5","5","2","2","2","0","1","2","2","1","5","4","5","5","4","4","4","4","5","4","7","6","6","7","7","5","7","8","7","7","7","6","7","7","6","6","1","6","7","1","6","7","7","6","6","5","6","7","6","7","6","7","7","7","5","7","7","7","7","7","7","7","7","7","7","7","7","7","6","7","602312870918619136","张","630","Male","[""坏我"",""好我"",""好他"",""坏他""]","[""弱我"",""强我"",""强他"",""弱他""]","","","","","","","","{""Q01"":""2"",""Q02"":""2"",""Q03"":""2"",""Q04"":""0"",""Q05"":""1"",""Q06"":""2"",""Q07"":""2"",""Q08"":""1""}","[0,1,2,3,4,5,6,7]","[""Q01"",""Q02"",""Q02"",""Q03"",""Q04"",""Q02"",""Q05"",""Q06"",""Q07"",""Q08"",""Q04"",""Q04""]","[1933.2000007629395,2452,3204.400001525879,25892.40000152588,26718,28724.40000152588,30436.10000038147,31349.70000076294,33588.30000114441,34508.60000038147,40596.40000152588,41492.90000152588]","[]","[1933.2000007629395,2452,3204.400001525879,25892.40000152588,26718,28724.40000152588,30436.10000038147,31349.70000076294,33588.30000114441,34508.60000038147,39468.40000152588,39820.20000076294,40596.40000152588,41492.90000152588,43812.5]","0.625","0.42857142857142855","0","","","","","","","","","","","","","","","","","","","","","","",""
"41198","
    <p><div style='color:white;font-size:35px; line-height:20px;'>词汇评估任务</div></p><br>
    <p><div style='color:white;font-size:25px; line-height:20px;'>请再次回忆该亲密的朋友，你们至少2年前就认识了，并且最近2年经常见面。</div></p>
    <p><div style='color:white;font-size:25px; line-height:20px;'>在本实验中，您将会看到一些形容词。</div></p>
    <p><div style='color:yellow;font-size:25px; line-height:20px;'>您的任务是判断这些形容词是否符合对您自己或您的朋友的描述。</div></p><p style='font-size:35px'>符合按<span style=""color:lightgreen""> f 键</span>，不符合按<span style=""color:red""> j 键</span></p>","0","html-button-response","8","157714","0.0-7.0-0.0","7","7","7","6","6","5","5","5","5","5","5","2","2","2","0","1","2","2","1","5","4","5","5","4","4","4","4","5","4","7","6","6","7","7","5","7","8","7","7","7","6","7","7","6","6","1","6","7","1","6","7","7","6","6","5","6","7","6","7","6","7","7","7","5","7","7","7","7","7","7","7","7","7","7","7","7","7","6","7","602312870918619136","张","630","Male","[""坏我"",""好我"",""好他"",""坏他""]","[""弱我"",""强我"",""强他"",""弱他""]","","","","","","","","","","","","","","","","","SRET_EW","EW_instructions","Mon Dec 25 2023 14:14:37 GMT+0800 (中国标准时间)","","","","","","","","","","","","","","","","","","","",""
"916","","f","psychophysics","9","159633","0.0-7.0-1.0-0.0","7","7","7","6","6","5","5","5","5","5","5","2","2","2","0","1","2","2","1","5","4","5","5","4","4","4","4","5","4","7","6","6","7","7","5","7","8","7","7","7","6","7","7","6","6","1","6","7","1","6","7","7","6","6","5","6","7","6","7","6","7","7","7","5","7","7","7","7","7","7","7","7","7","7","7","7","7","6","7","602312870918619136","张","630","Male","[""坏我"",""好我"",""好他"",""坏他""]","[""弱我"",""强我"",""强他"",""弱他""]","","","","","","","","yes","","","","","","","","","SRET_EW","EW_practice","","key","f","16.625217391304297","768","428","朋友","忠实","Positive","morality","","","","","","","","","","",""
"1209","","j","psychophysics","10","161843","0.0-7.0-1.0-0.1","7","7","7","6","6","5","5","5","5","5","5","2","2","2","0","1","2","2","1","5","4","5","5","4","4","4","4","5","4","7","6","6","7","7","5","7","8","7","7","7","6","7","7","6","6","1","6","7","1","6","7","7","6","6","5","6","7","6","7","6","7","7","7","5","7","7","7","7","7","7","7","7","7","7","7","7","7","6","7","602312870918619136","张","630","Male","[""坏我"",""好我"",""好他"",""坏他""]","[""弱我"",""强我"",""强他"",""弱他""]","","","","","","","","no","","","","","","","","","SRET_EW","EW_practice","","key","j","16.65075757575753","768","428","朋友","徇私","Negative","morality","","","","","","","","","","",""
"779","","f","psychophysics","11","163625","0.0-7.0-1.0-0.2","7","7","7","6","6","5","5","5","5","5","5","2","2","2","0","1","2","2","1","5","4","5","5","4","4","4","4","5","4","7","6","6","7","7","5","7","8","7","7","7","6","7","7","6","6","1","6","7","1","6","7","7","6","6","5","6","7","6","7","6","7","7","7","5","7","7","7","7","7","7","7","7","7","7","7","7","7","6","7","602312870918619136","张","630","Male","[""坏我"",""好我"",""好他"",""坏他""]","[""弱我"",""强我"",""强他"",""弱他""]","","","","","","","","yes","","","","","","","","","SRET_EW","EW_practice","","key","f","16.65377358490555","768","428","自己","严谨","Positive","ability","","","","","","","","","","",""
"912","","j","psychophysics","12","165537","0.0-7.0-1.0-0.3","7","7","7","6","6","5","5","5","5","5","5","2","2","2","0","1","2","2","1","5","4","5","5","4","4","4","4","5","4","7","6","6","7","7","5","7","8","7","7","7","6","7","7","6","6","1","6","7","1","6","7","7","6","6","5","6","7","6","7","6","7","7","7","5","7","7","7","7","7","7","7","7","7","7","7","7","7","6","7","602312870918619136","张","630","Male","[""坏我"",""好我"",""好他"",""坏他""]","[""弱我"",""强我"",""强他"",""弱他""]","","","","","","","","no","","","","","","","","","SRET_EW","EW_practice","","key","j","16.652212389380377","768","428","自己","刻板","Negative","ability","","","","","","","","","","",""
"34868","
    <p><div style='color:white;font-size:35px; line-height:20px;'>请您再次阅读实验要求</div></p><br>
    <p><div style='color:white;font-size:25px; line-height:20px;'>请回忆某一个亲密的朋友，你们至少2年前就认识了，并且最近2年经常见面。</div></p>
    <p><div style='color:white;font-size:25px; line-height:20px;'>在本实验中，您将会看到一些形容词。</div></p>
    <p><div style='color:yellow;font-size:25px; line-height:20px;'>您的任务是判断这些形容词是否符合对您自己或您的朋友的描述。</div></p>
    <p><div class='footer' style='font-size:25px; line-height:20px;'>如果对本实验还有不清楚之处，请立即向实验员咨询。</p><p style='font-size:25px; line-height:20px;'>如果您明白了规则：</p><p style='font-size:22px; line-height:20px;'>请按 继续 进入正式实验</p>
    </div>
    <p style='font-size:35px'>符合按<span style=""color:lightgreen""> f 键</span>，不符合按<span style=""color:red""> j 键</span></p>","0","html-button-response","13","200408","0.0-7.0-2.0","7","7","7","6","6","5","5","5","5","5","5","2","2","2","0","1","2","2","1","5","4","5","5","4","4","4","4","5","4","7","6","6","7","7","5","7","8","7","7","7","6","7","7","6","6","1","6","7","1","6","7","7","6","6","5","6","7","6","7","6","7","7","7","5","7","7","7","7","7","7","7","7","7","7","7","7","7","6","7","602312870918619136","张","630","Male","[""坏我"",""好我"",""好他"",""坏他""]","[""弱我"",""强我"",""强他"",""弱他""]","","","","","","","","","","","","","","","","","SRET_EW","prac_instructions","Mon Dec 25 2023 14:14:37 GMT+0800 (中国标准时间)","","","","","","","","","","","","","","","","","","","",""
"894","","f","psychophysics","14","202304","0.0-7.0-3.0-0.0","7","7","7","6","6","5","5","5","5","5","5","2","2","2","0","1","2","2","1","5","4","5","5","4","4","4","4","5","4","7","6","6","7","7","5","7","8","7","7","7","6","7","7","6","6","1","6","7","1","6","7","7","6","6","5","6","7","6","7","6","7","7","7","5","7","7","7","7","7","7","7","7","7","7","7","7","7","6","7","602312870918619136","张","630","Male","[""坏我"",""好我"",""好他"",""坏他""]","[""弱我"",""强我"",""强他"",""弱他""]","","","","","","","","yes","","","","","","","","","SRET","EW_formal","","key","f","16.643859649122756","768","428","朋友","务实","Positive","ability","","","","","","","","","","",""
"662","","j","psychophysics","15","203968","0.0-7.0-3.0-0.1","7","7","7","6","6","5","5","5","5","5","5","2","2","2","0","1","2","2","1","5","4","5","5","4","4","4","4","5","4","7","6","6","7","7","5","7","8","7","7","7","6","7","7","6","6","1","6","7","1","6","7","7","6","6","5","6","7","6","7","6","7","7","7","5","7","7","7","7","7","7","7","7","7","7","7","7","7","6","7","602312870918619136","张","630","Male","[""坏我"",""好我"",""好他"",""坏他""]","[""弱我"",""强我"",""强他"",""弱他""]","","","","","","","","no","","","","","","","","","SRET","EW_formal","","key","j","16.65408163265312","768","428","朋友","迷糊","Negative","ability","","","","","","","","","","",""
"631","","j","psychophysics","16","205600","0.0-7.0-3.0-0.2","7","7","7","6","6","5","5","5","5","5","5","2","2","2","0","1","2","2","1","5","4","5","5","4","4","4","4","5","4","7","6","6","7","7","5","7","8","7","7","7","6","7","7","6","6","1","6","7","1","6","7","7","6","6","5","6","7","6","7","6","7","7","7","5","7","7","7","7","7","7","7","7","7","7","7","7","7","6","7","602312870918619136","张","630","Male","[""坏我"",""好我"",""好他"",""坏他""]","[""弱我"",""强我"",""强他"",""弱他""]","","","","","","","","no","","","","","","","","","SRET","EW_formal","","key","j","16.652577319587508","768","428","自己","说谎","Negative","morality","","","","","","","","","","",""
"719","","f","psychophysics","17","207320","0.0-7.0-3.0-0.3","7","7","7","6","6","5","5","5","5","5","5","2","2","2","0","1","2","2","1","5","4","5","5","4","4","4","4","5","4","7","6","6","7","7","5","7","8","7","7","7","6","7","7","6","6","1","6","7","1","6","7","7","6","6","5","6","7","6","7","6","7","7","7","5","7","7","7","7","7","7","7","7","7","7","7","7","7","6","7","602312870918619136","张","630","Male","[""坏我"",""好我"",""好他"",""坏他""]","[""弱我"",""强我"",""强他"",""弱他""]","","","","","","","","yes","","","","","","","","","SRET","EW_formal","","key","f","16.651456310679666","768","428","自己","坚贞","Positive","morality","","","","","","","","","","",""
"599","","f","psychophysics","18","208920","0.0-7.0-3.0-0.4","7","7","7","6","6","5","5","5","5","5","5","2","2","2","0","1","2","2","1","5","4","5","5","4","4","4","4","5","4","7","6","6","7","7","5","7","8","7","7","7","6","7","7","6","6","1","6","7","1","6","7","7","6","6","5","6","7","6","7","6","7","7","7","5","7","7","7","7","7","7","7","7","7","7","7","7","7","6","7","602312870918619136","张","630","Male","[""坏我"",""好我"",""好他"",""坏他""]","[""弱我"",""强我"",""强他"",""弱他""]","","","","","","","","yes","","","","","","","","","SRET","EW_formal","","key","f","16.651578947368666","768","428","朋友","聪明","Positive","ability","","","","","","","","","","",""
"847","","j","psychophysics","19","210768","0.0-7.0-3.0-0.5","7","7","7","6","6","5","5","5","5","5","5","2","2","2","0","1","2","2","1","5","4","5","5","4","4","4","4","5","4","7","6","6","7","7","5","7","8","7","7","7","6","7","7","6","6","1","6","7","1","6","7","7","6","6","5","6","7","6","7","6","7","7","7","5","7","7","7","7","7","7","7","7","7","7","7","7","7","6","7","602312870918619136","张","630","Male","[""坏我"",""好我"",""好他"",""坏他""]","[""弱我"",""强我"",""强他"",""弱他""]","","","","","","","","no","","","","","","","","","SRET","EW_formal","","key","j","16.65181818181829","768","428","朋友","自私","Negative","morality","","","","","","","","","","",""
"703","","f","psychophysics","20","212472","0.0-7.0-3.0-0.6","7","7","7","6","6","5","5","5","5","5","5","2","2","2","0","1","2","2","1","5","4","5","5","4","4","4","4","5","4","7","6","6","7","7","5","7","8","7","7","7","6","7","7","6","6","1","6","7","1","6","7","7","6","6","5","6","7","6","7","6","7","7","7","5","7","7","7","7","7","7","7","7","7","7","7","7","7","6","7","602312870918619136","张","630","Male","[""坏我"",""好我"",""好他"",""坏他""]","[""弱我"",""强我"",""强他"",""弱他""]","","","","","","","","yes","","","","","","","","","SRET","EW_formal","","key","f","16.653465346534652","768","428","自己","毅力","Positive","ability","","","","","","","","","","",""
"894","","j","psychophysics","21","214368","0.0-7.0-3.0-0.7","7","7","7","6","6","5","5","5","5","5","5","2","2","2","0","1","2","2","1","5","4","5","5","4","4","4","4","5","4","7","6","6","7","7","5","7","8","7","7","7","6","7","7","6","6","1","6","7","1","6","7","7","6","6","5","6","7","6","7","6","7","7","7","5","7","7","7","7","7","7","7","7","7","7","7","7","7","6","7","602312870918619136","张","630","Male","[""坏我"",""好我"",""好他"",""坏他""]","[""弱我"",""强我"",""强他"",""弱他""]","","","","","","","","no","","","","","","","","","SRET","EW_formal","","key","j","16.654867256637168","768","428","自己","浅薄","Negative","ability","","","","","","","","","","",""
"735","","f","psychophysics","22","216104","0.0-7.0-3.0-0.8","7","7","7","6","6","5","5","5","5","5","5","2","2","2","0","1","2","2","1","5","4","5","5","4","4","4","4","5","4","7","6","6","7","7","5","7","8","7","7","7","6","7","7","6","6","1","6","7","1","6","7","7","6","6","5","6","7","6","7","6","7","7","7","5","7","7","7","7","7","7","7","7","7","7","7","7","7","6","7","602312870918619136","张","630","Male","[""坏我"",""好我"",""好他"",""坏他""]","[""弱我"",""强我"",""强他"",""弱他""]","","","","","","","","yes","","","","","","","","","SRET","EW_formal","","key","f","16.651456310679666","768","428","自己","守时","Positive","morality","","","","","","","","","","",""
"750","","j","psychophysics","23","217856","0.0-7.0-3.0-0.9","7","7","7","6","6","5","5","5","5","5","5","2","2","2","0","1","2","2","1","5","4","5","5","4","4","4","4","5","4","7","6","6","7","7","5","7","8","7","7","7","6","7","7","6","6","1","6","7","1","6","7","7","6","6","5","6","7","6","7","6","7","7","7","5","7","7","7","7","7","7","7","7","7","7","7","7","7","6","7","602312870918619136","张","630","Male","[""坏我"",""好我"",""好他"",""坏他""]","[""弱我"",""强我"",""强他"",""弱他""]","","","","","","","","no","","","","","","","","","SRET","EW_formal","","key","j","16.652884615384558","768","428","自己","腐败","Negative","morality","","","","","","","","","","",""
"919","","f","psychophysics","24","219776","0.0-7.0-3.0-0.10","7","7","7","6","6","5","5","5","5","5","5","2","2","2","0","1","2","2","1","5","4","5","5","4","4","4","4","5","4","7","6","6","7","7","5","7","8","7","7","7","6","7","7","6","6","1","6","7","1","6","7","7","6","6","5","6","7","6","7","6","7","7","7","5","7","7","7","7","7","7","7","7","7","7","7","7","7","6","7","602312870918619136","张","630","Male","[""坏我"",""好我"",""好他"",""坏他""]","[""弱我"",""强我"",""强他"",""弱他""]","","","","","","","","yes","","","","","","","","","SRET","EW_formal","","key","f","16.65304347826092","768","428","自己","孝顺","Positive","morality","","","","","","","","","","",""
"695","","j","psychophysics","25","221472","0.0-7.0-3.0-0.11","7","7","7","6","6","5","5","5","5","5","5","2","2","2","0","1","2","2","1","5","4","5","5","4","4","4","4","5","4","7","6","6","7","7","5","7","8","7","7","7","6","7","7","6","6","1","6","7","1","6","7","7","6","6","5","6","7","6","7","6","7","7","7","5","7","7","7","7","7","7","7","7","7","7","7","7","7","6","7","602312870918619136","张","630","Male","[""坏我"",""好我"",""好他"",""坏他""]","[""弱我"",""强我"",""强他"",""弱他""]","","","","","","","","no","","","","","","","","","SRET","EW_formal","","key","j","16.64653465346552","768","428","朋友","无私","Positive","morality","","","","","","","","","","",""
"1278","","j","psychophysics","26","223752","0.0-7.0-3.0-0.12","7","7","7","6","6","5","5","5","5","5","5","2","2","2","0","1","2","2","1","5","4","5","5","4","4","4","4","5","4","7","6","6","7","7","5","7","8","7","7","7","6","7","7","6","6","1","6","7","1","6","7","7","6","6","5","6","7","6","7","6","7","7","7","5","7","7","7","7","7","7","7","7","7","7","7","7","7","6","7","602312870918619136","张","630","Male","[""坏我"",""好我"",""好他"",""坏他""]","[""弱我"",""强我"",""强他"",""弱他""]","","","","","","","","no","","","","","","","","","SRET","EW_formal","","key","j","16.649264705882267","768","428","自己","逞强","Negative","ability","","","","","","","","","","",""
"743","","f","psychophysics","27","225496","0.0-7.0-3.0-0.13","7","7","7","6","6","5","5","5","5","5","5","2","2","2","0","1","2","2","1","5","4","5","5","4","4","4","4","5","4","7","6","6","7","7","5","7","8","7","7","7","6","7","7","6","6","1","6","7","1","6","7","7","6","6","5","6","7","6","7","6","7","7","7","5","7","7","7","7","7","7","7","7","7","7","7","7","7","6","7","602312870918619136","张","630","Male","[""坏我"",""好我"",""好他"",""坏他""]","[""弱我"",""强我"",""强他"",""弱他""]","","","","","","","","yes","","","","","","","","","SRET","EW_formal","","key","f","16.64660194174763","768","428","自己","清廉","Positive","morality","","","","","","","","","","",""
"702","","j","psychophysics","28","227200","0.0-7.0-3.0-0.14","7","7","7","6","6","5","5","5","5","5","5","2","2","2","0","1","2","2","1","5","4","5","5","4","4","4","4","5","4","7","6","6","7","7","5","7","8","7","7","7","6","7","7","6","6","1","6","7","1","6","7","7","6","6","5","6","7","6","7","6","7","7","7","5","7","7","7","7","7","7","7","7","7","7","7","7","7","6","7","602312870918619136","张","630","Male","[""坏我"",""好我"",""好他"",""坏他""]","[""弱我"",""强我"",""强他"",""弱他""]","","","","","","","","no","","","","","","","","","SRET","EW_formal","","key","j","16.65392156862728","768","428","朋友","畏难","Negative","ability","","","","","","","","","","",""
"685","","f","psychophysics","29","228888","0.0-7.0-3.0-0.15","7","7","7","6","6","5","5","5","5","5","5","2","2","2","0","1","2","2","1","5","4","5","5","4","4","4","4","5","4","7","6","6","7","7","5","7","8","7","7","7","6","7","7","6","6","1","6","7","1","6","7","7","6","6","5","6","7","6","7","6","7","7","7","5","7","7","7","7","7","7","7","7","7","7","7","7","7","6","7","602312870918619136","张","630","Male","[""坏我"",""好我"",""好他"",""坏他""]","[""弱我"",""强我"",""强他"",""弱他""]","","","","","","","","yes","","","","","","","","","SRET","EW_formal","","key","f","16.651000000000057","768","428","朋友","外行","Negative","ability","","","","","","","","","","",""
"1047","","j","psychophysics","30","230936","0.0-7.0-3.0-0.16","7","7","7","6","6","5","5","5","5","5","5","2","2","2","0","1","2","2","1","5","4","5","5","4","4","4","4","5","4","7","6","6","7","7","5","7","8","7","7","7","6","7","7","6","6","1","6","7","1","6","7","7","6","6","5","6","7","6","7","6","7","7","7","5","7","7","7","7","7","7","7","7","7","7","7","7","7","6","7","602312870918619136","张","630","Male","[""坏我"",""好我"",""好他"",""坏他""]","[""弱我"",""强我"",""强他"",""弱他""]","","","","","","","","no","","","","","","","","","SRET","EW_formal","","key","j","16.645901639344167","768","428","自己","愚钝","Negative","ability","","","","","","","","","","",""
"687","","j","psychophysics","31","232624","0.0-7.0-3.0-0.17","7","7","7","6","6","5","5","5","5","5","5","2","2","2","0","1","2","2","1","5","4","5","5","4","4","4","4","5","4","7","6","6","7","7","5","7","8","7","7","7","6","7","7","6","6","1","6","7","1","6","7","7","6","6","5","6","7","6","7","6","7","7","7","5","7","7","7","7","7","7","7","7","7","7","7","7","7","6","7","602312870918619136","张","630","Male","[""坏我"",""好我"",""好他"",""坏他""]","[""弱我"",""强我"",""强他"",""弱他""]","","","","","","","","no","","","","","","","","","SRET","EW_formal","","key","j","16.65600000000006","768","428","朋友","拜金","Negative","morality","","","","","","","","","","",""
"575","","f","psychophysics","32","234200","0.0-7.0-3.0-0.18","7","7","7","6","6","5","5","5","5","5","5","2","2","2","0","1","2","2","1","5","4","5","5","4","4","4","4","5","4","7","6","6","7","7","5","7","8","7","7","7","6","7","7","6","6","1","6","7","1","6","7","7","6","6","5","6","7","6","7","6","7","7","7","5","7","7","7","7","7","7","7","7","7","7","7","7","7","6","7","602312870918619136","张","630","Male","[""坏我"",""好我"",""好他"",""坏他""]","[""弱我"",""强我"",""强他"",""弱他""]","","","","","","","","yes","","","","","","","","","SRET","EW_formal","","key","f","16.651063829787358","768","428","朋友","有力","Positive","ability","","","","","","","","","","",""
"735","","j","psychophysics","33","235936","0.0-7.0-3.0-0.19","7","7","7","6","6","5","5","5","5","5","5","2","2","2","0","1","2","2","1","5","4","5","5","4","4","4","4","5","4","7","6","6","7","7","5","7","8","7","7","7","6","7","7","6","6","1","6","7","1","6","7","7","6","6","5","6","7","6","7","6","7","7","7","5","7","7","7","7","7","7","7","7","7","7","7","7","7","6","7","602312870918619136","张","630","Male","[""坏我"",""好我"",""好他"",""坏他""]","[""弱我"",""强我"",""强他"",""弱他""]","","","","","","","","no","","","","","","","","","SRET","EW_formal","","key","j","16.651456310679666","768","428","自己","混账","Negative","morality","","","","","","","","","","",""
"718","","f","psychophysics","34","237656","0.0-7.0-3.0-0.20","7","7","7","6","6","5","5","5","5","5","5","2","2","2","0","1","2","2","1","5","4","5","5","4","4","4","4","5","4","7","6","6","7","7","5","7","8","7","7","7","6","7","7","6","6","1","6","7","1","6","7","7","6","6","5","6","7","6","7","6","7","7","7","5","7","7","7","7","7","7","7","7","7","7","7","7","7","6","7","602312870918619136","张","630","Male","[""坏我"",""好我"",""好他"",""坏他""]","[""弱我"",""强我"",""强他"",""弱他""]","","","","","","","","yes","","","","","","","","","SRET","EW_formal","","key","f","16.65436893203878","768","428","朋友","博学","Positive","ability","","","","","","","","","","",""
"1382","","j","psychophysics","35","240040","0.0-7.0-3.0-0.21","7","7","7","6","6","5","5","5","5","5","5","2","2","2","0","1","2","2","1","5","4","5","5","4","4","4","4","5","4","7","6","6","7","7","5","7","8","7","7","7","6","7","7","6","6","1","6","7","1","6","7","7","6","6","5","6","7","6","7","6","7","7","7","5","7","7","7","7","7","7","7","7","7","7","7","7","7","6","7","602312870918619136","张","630","Male","[""坏我"",""好我"",""好他"",""坏他""]","[""弱我"",""强我"",""强他"",""弱他""]","","","","","","","","no","","","","","","","","","SRET","EW_formal","","key","j","16.64788732394366","768","428","自己","邪恶","Negative","morality","","","","","","","","","","",""
"949","","j","psychophysics","36","241992","0.0-7.0-3.0-0.22","7","7","7","6","6","5","5","5","5","5","5","2","2","2","0","1","2","2","1","5","4","5","5","4","4","4","4","5","4","7","6","6","7","7","5","7","8","7","7","7","6","7","7","6","6","1","6","7","1","6","7","7","6","6","5","6","7","6","7","6","7","7","7","5","7","7","7","7","7","7","7","7","7","7","7","7","7","6","7","602312870918619136","张","630","Male","[""坏我"",""好我"",""好他"",""坏他""]","[""弱我"",""强我"",""强他"",""弱他""]","","","","","","","","no","","","","","","","","","SRET","EW_formal","","key","j","16.651724137931083","768","428","朋友","无知","Negative","ability","","","","","","","","","","",""
"829","","j","psychophysics","37","243824","0.0-7.0-3.0-0.23","7","7","7","6","6","5","5","5","5","5","5","2","2","2","0","1","2","2","1","5","4","5","5","4","4","4","4","5","4","7","6","6","7","7","5","7","8","7","7","7","6","7","7","6","6","1","6","7","1","6","7","7","6","6","5","6","7","6","7","6","7","7","7","5","7","7","7","7","7","7","7","7","7","7","7","7","7","6","7","602312870918619136","张","630","Male","[""坏我"",""好我"",""好他"",""坏他""]","[""弱我"",""强我"",""强他"",""弱他""]","","","","","","","","no","","","","","","","","","SRET","EW_formal","","key","j","16.65137614678899","768","428","朋友","不良","Negative","morality","","","","","","","","","","",""
"823","","j","psychophysics","38","245648","0.0-7.0-3.0-0.24","7","7","7","6","6","5","5","5","5","5","5","2","2","2","0","1","2","2","1","5","4","5","5","4","4","4","4","5","4","7","6","6","7","7","5","7","8","7","7","7","6","7","7","6","6","1","6","7","1","6","7","7","6","6","5","6","7","6","7","6","7","7","7","5","7","7","7","7","7","7","7","7","7","7","7","7","7","6","7","602312870918619136","张","630","Male","[""坏我"",""好我"",""好他"",""坏他""]","[""弱我"",""强我"",""强他"",""弱他""]","","","","","","","","no","","","","","","","","","SRET","EW_formal","","key","j","16.645871559632972","768","428","朋友","中用","Positive","ability","","","","","","","","","","",""
"751","","j","psychophysics","39","247400","0.0-7.0-3.0-0.25","7","7","7","6","6","5","5","5","5","5","5","2","2","2","0","1","2","2","1","5","4","5","5","4","4","4","4","5","4","7","6","6","7","7","5","7","8","7","7","7","6","7","7","6","6","1","6","7","1","6","7","7","6","6","5","6","7","6","7","6","7","7","7","5","7","7","7","7","7","7","7","7","7","7","7","7","7","6","7","602312870918619136","张","630","Male","[""坏我"",""好我"",""好他"",""坏他""]","[""弱我"",""强我"",""强他"",""弱他""]","","","","","","","","no","","","","","","","","","SRET","EW_formal","","key","j","16.65096153846165","768","428","自己","下流","Negative","morality","","","","","","","","","","",""
"1280","","f","psychophysics","40","249681","0.0-7.0-3.0-0.26","7","7","7","6","6","5","5","5","5","5","5","2","2","2","0","1","2","2","1","5","4","5","5","4","4","4","4","5","4","7","6","6","7","7","5","7","8","7","7","7","6","7","7","6","6","1","6","7","1","6","7","7","6","6","5","6","7","6","7","6","7","7","7","5","7","7","7","7","7","7","7","7","7","7","7","7","7","6","7","602312870918619136","张","630","Male","[""坏我"",""好我"",""好他"",""坏他""]","[""弱我"",""强我"",""强他"",""弱他""]","","","","","","","","yes","","","","","","","","","SRET","EW_formal","","key","f","16.650000000000173","768","428","自己","坚持","Positive","ability","","","","","","","","","","",""
"734","","f","psychophysics","41","251417","0.0-7.0-3.0-0.27","7","7","7","6","6","5","5","5","5","5","5","2","2","2","0","1","2","2","1","5","4","5","5","4","4","4","4","5","4","7","6","6","7","7","5","7","8","7","7","7","6","7","7","6","6","1","6","7","1","6","7","7","6","6","5","6","7","6","7","6","7","7","7","5","7","7","7","7","7","7","7","7","7","7","7","7","7","6","7","602312870918619136","张","630","Male","[""坏我"",""好我"",""好他"",""坏他""]","[""弱我"",""强我"",""强他"",""弱他""]","","","","","","","","yes","","","","","","","","","SRET","EW_formal","","key","f","16.65436893203878","768","428","自己","独立","Positive","ability","","","","","","","","","","",""
"null","","null","psychophysics","42","254418","0.0-7.0-3.0-0.28","7","7","7","6","6","5","5","5","5","5","5","2","2","2","0","1","2","2","1","5","4","5","5","4","4","4","4","5","4","7","6","6","7","7","5","7","8","7","7","7","6","7","7","6","6","1","6","7","1","6","7","7","6","6","5","6","7","6","7","6","7","7","7","5","7","7","7","7","7","7","7","7","7","7","7","7","7","6","7","602312870918619136","张","630","Male","[""坏我"",""好我"",""好他"",""坏他""]","[""弱我"",""强我"",""强他"",""弱他""]","","","","","","","","","","","","","","","","","SRET","EW_formal","","key","null","16.650837988826815","768","428","自己","宽容","Positive","morality","","","","","","","","","","",""
"635","","f","psychophysics","43","256056","0.0-7.0-3.0-0.29","7","7","7","6","6","5","5","5","5","5","5","2","2","2","0","1","2","2","1","5","4","5","5","4","4","4","4","5","4","7","6","6","7","7","5","7","8","7","7","7","6","7","7","6","6","1","6","7","1","6","7","7","6","6","5","6","7","6","7","6","7","7","7","5","7","7","7","7","7","7","7","7","7","7","7","7","7","6","7","602312870918619136","张","630","Male","[""坏我"",""好我"",""好他"",""坏他""]","[""弱我"",""强我"",""强他"",""弱他""]","","","","","","","","yes","","","","","","","","","SRET","EW_formal","","key","f","16.652040816326767","768","428","自己","自律","Positive","ability","","","","","","","","","","",""
"1078","","j","psychophysics","44","258137","0.0-7.0-3.0-0.30","7","7","7","6","6","5","5","5","5","5","5","2","2","2","0","1","2","2","1","5","4","5","5","4","4","4","4","5","4","7","6","6","7","7","5","7","8","7","7","7","6","7","7","6","6","1","6","7","1","6","7","7","6","6","5","6","7","6","7","6","7","7","7","5","7","7","7","7","7","7","7","7","7","7","7","7","7","6","7","602312870918619136","张","630","Male","[""坏我"",""好我"",""好他"",""坏他""]","[""弱我"",""强我"",""强他"",""弱他""]","","","","","","","","no","","","","","","","","","SRET","EW_formal","","key","j","16.650806451612997","768","428","自己","拖延","Negative","ability","","","","","","","","","","",""
"878","","f","psychophysics","45","260016","0.0-7.0-3.0-0.31","7","7","7","6","6","5","5","5","5","5","5","2","2","2","0","1","2","2","1","5","4","5","5","4","4","4","4","5","4","7","6","6","7","7","5","7","8","7","7","7","6","7","7","6","6","1","6","7","1","6","7","7","6","6","5","6","7","6","7","6","7","7","7","5","7","7","7","7","7","7","7","7","7","7","7","7","7","6","7","602312870918619136","张","630","Male","[""坏我"",""好我"",""好他"",""坏他""]","[""弱我"",""强我"",""强他"",""弱他""]","","","","","","","","yes","","","","","","","","","SRET","EW_formal","","key","f","16.6495495495496","768","428","朋友","勤奋","Positive","ability","","","","","","","","","","",""
"1174","","j","psychophysics","46","262192","0.0-7.0-3.0-0.32","7","7","7","6","6","5","5","5","5","5","5","2","2","2","0","1","2","2","1","5","4","5","5","4","4","4","4","5","4","7","6","6","7","7","5","7","8","7","7","7","6","7","7","6","6","1","6","7","1","6","7","7","6","6","5","6","7","6","7","6","7","7","7","5","7","7","7","7","7","7","7","7","7","7","7","7","7","6","7","602312870918619136","张","630","Male","[""坏我"",""好我"",""好他"",""坏他""]","[""弱我"",""强我"",""强他"",""弱他""]","","","","","","","","no","","","","","","","","","SRET","EW_formal","","key","j","16.651538461538326","768","428","自己","短浅","Negative","ability","","","","","","","","","","",""
"687","","f","psychophysics","47","263880","0.0-7.0-3.0-0.33","7","7","7","6","6","5","5","5","5","5","5","2","2","2","0","1","2","2","1","5","4","5","5","4","4","4","4","5","4","7","6","6","7","7","5","7","8","7","7","7","6","7","7","6","6","1","6","7","1","6","7","7","6","6","5","6","7","6","7","6","7","7","7","5","7","7","7","7","7","7","7","7","7","7","7","7","7","6","7","602312870918619136","张","630","Male","[""坏我"",""好我"",""好他"",""坏他""]","[""弱我"",""强我"",""强他"",""弱他""]","","","","","","","","yes","","","","","","","","","SRET","EW_formal","","key","f","16.652475247524407","768","428","朋友","能干","Positive","ability","","","","","","","","","","",""
"966","","f","psychophysics","48","265848","0.0-7.0-3.0-0.34","7","7","7","6","6","5","5","5","5","5","5","2","2","2","0","1","2","2","1","5","4","5","5","4","4","4","4","5","4","7","6","6","7","7","5","7","8","7","7","7","6","7","7","6","6","1","6","7","1","6","7","7","6","6","5","6","7","6","7","6","7","7","7","5","7","7","7","7","7","7","7","7","7","7","7","7","7","6","7","602312870918619136","张","630","Male","[""坏我"",""好我"",""好他"",""坏他""]","[""弱我"",""强我"",""强他"",""弱他""]","","","","","","","","yes","","","","","","","","","SRET","EW_formal","","key","f","16.65042735042715","768","428","朋友","贪污","Negative","morality","","","","","","","","","","",""
"1175","","j","psychophysics","49","268024","0.0-7.0-3.0-0.35","7","7","7","6","6","5","5","5","5","5","5","2","2","2","0","1","2","2","1","5","4","5","5","4","4","4","4","5","4","7","6","6","7","7","5","7","8","7","7","7","6","7","7","6","6","1","6","7","1","6","7","7","6","6","5","6","7","6","7","6","7","7","7","5","7","7","7","7","7","7","7","7","7","7","7","7","7","6","7","602312870918619136","张","630","Male","[""坏我"",""好我"",""好他"",""坏他""]","[""弱我"",""强我"",""强他"",""弱他""]","","","","","","","","no","","","","","","","","","SRET","EW_formal","","key","j","16.651937984495945","768","428","自己","愚蠢","Negative","ability","","","","","","","","","","",""
"911","","f","psychophysics","50","269936","0.0-7.0-3.0-0.36","7","7","7","6","6","5","5","5","5","5","5","2","2","2","0","1","2","2","1","5","4","5","5","4","4","4","4","5","4","7","6","6","7","7","5","7","8","7","7","7","6","7","7","6","6","1","6","7","1","6","7","7","6","6","5","6","7","6","7","6","7","7","7","5","7","7","7","7","7","7","7","7","7","7","7","7","7","6","7","602312870918619136","张","630","Male","[""坏我"",""好我"",""好他"",""坏他""]","[""弱我"",""强我"",""强他"",""弱他""]","","","","","","","","yes","","","","","","","","","SRET","EW_formal","","key","f","16.649122807017545","768","428","朋友","骁勇","Positive","ability","","","","","","","","","","",""
"806","","f","psychophysics","51","271744","0.0-7.0-3.0-0.37","7","7","7","6","6","5","5","5","5","5","5","2","2","2","0","1","2","2","1","5","4","5","5","4","4","4","4","5","4","7","6","6","7","7","5","7","8","7","7","7","6","7","7","6","6","1","6","7","1","6","7","7","6","6","5","6","7","6","7","6","7","7","7","5","7","7","7","7","7","7","7","7","7","7","7","7","7","6","7","602312870918619136","张","630","Male","[""坏我"",""好我"",""好他"",""坏他""]","[""弱我"",""强我"",""强他"",""弱他""]","","","","","","","","yes","","","","","","","","","SRET","EW_formal","","key","f","16.65462962962974","768","428","自己","高洁","Positive","morality","","","","","","","","","","",""
"726","","f","psychophysics","52","273472","0.0-7.0-3.0-0.38","7","7","7","6","6","5","5","5","5","5","5","2","2","2","0","1","2","2","1","5","4","5","5","4","4","4","4","5","4","7","6","6","7","7","5","7","8","7","7","7","6","7","7","6","6","1","6","7","1","6","7","7","6","6","5","6","7","6","7","6","7","7","7","5","7","7","7","7","7","7","7","7","7","7","7","7","7","6","7","602312870918619136","张","630","Male","[""坏我"",""好我"",""好他"",""坏他""]","[""弱我"",""强我"",""强他"",""弱他""]","","","","","","","","yes","","","","","","","","","SRET","EW_formal","","key","f","16.647572815534094","768","428","朋友","娴熟","Positive","ability","","","","","","","","","","",""
"678","","j","psychophysics","53","275151","0.0-7.0-3.0-0.39","7","7","7","6","6","5","5","5","5","5","5","2","2","2","0","1","2","2","1","5","4","5","5","4","4","4","4","5","4","7","6","6","7","7","5","7","8","7","7","7","6","7","7","6","6","1","6","7","1","6","7","7","6","6","5","6","7","6","7","6","7","7","7","5","7","7","7","7","7","7","7","7","7","7","7","7","7","6","7","602312870918619136","张","630","Male","[""坏我"",""好我"",""好他"",""坏他""]","[""弱我"",""强我"",""强他"",""弱他""]","","","","","","","","no","","","","","","","","","SRET","EW_formal","","key","j","16.646464646464647","768","428","朋友","盲目","Negative","ability","","","","","","","","","","",""
"536","","f","psychophysics","54","276688","0.0-7.0-3.0-0.40","7","7","7","6","6","5","5","5","5","5","5","2","2","2","0","1","2","2","1","5","4","5","5","4","4","4","4","5","4","7","6","6","7","7","5","7","8","7","7","7","6","7","7","6","6","1","6","7","1","6","7","7","6","6","5","6","7","6","7","6","7","7","7","5","7","7","7","7","7","7","7","7","7","7","7","7","7","6","7","602312870918619136","张","630","Male","[""坏我"",""好我"",""好他"",""坏他""]","[""弱我"",""强我"",""强他"",""弱他""]","","","","","","","","yes","","","","","","","","","SRET","EW_formal","","key","f","16.65543478260857","768","428","朋友","文明","Positive","morality","","","","","","","","","","",""
"736","","f","psychophysics","55","278425","0.0-7.0-3.0-0.41","7","7","7","6","6","5","5","5","5","5","5","2","2","2","0","1","2","2","1","5","4","5","5","4","4","4","4","5","4","7","6","6","7","7","5","7","8","7","7","7","6","7","7","6","6","1","6","7","1","6","7","7","6","6","5","6","7","6","7","6","7","7","7","5","7","7","7","7","7","7","7","7","7","7","7","7","7","6","7","602312870918619136","张","630","Male","[""坏我"",""好我"",""好他"",""坏他""]","[""弱我"",""强我"",""强他"",""弱他""]","","","","","","","","yes","","","","","","","","","SRET","EW_formal","","key","f","16.65339805825288","768","428","朋友","依靠","Negative","ability","","","","","","","","","","",""
"892","","j","psychophysics","56","280320","0.0-7.0-3.0-0.42","7","7","7","6","6","5","5","5","5","5","5","2","2","2","0","1","2","2","1","5","4","5","5","4","4","4","4","5","4","7","6","6","7","7","5","7","8","7","7","7","6","7","7","6","6","1","6","7","1","6","7","7","6","6","5","6","7","6","7","6","7","7","7","5","7","7","7","7","7","7","7","7","7","7","7","7","7","6","7","602312870918619136","张","630","Male","[""坏我"",""好我"",""好他"",""坏他""]","[""弱我"",""强我"",""强他"",""弱他""]","","","","","","","","no","","","","","","","","","SRET","EW_formal","","key","j","16.650442477876105","768","428","朋友","迟钝","Negative","ability","","","","","","","","","","",""
"1231","","f","psychophysics","57","282552","0.0-7.0-3.0-0.43","7","7","7","6","6","5","5","5","5","5","5","2","2","2","0","1","2","2","1","5","4","5","5","4","4","4","4","5","4","7","6","6","7","7","5","7","8","7","7","7","6","7","7","6","6","1","6","7","1","6","7","7","6","6","5","6","7","6","7","6","7","7","7","5","7","7","7","7","7","7","7","7","7","7","7","7","7","6","7","602312870918619136","张","630","Male","[""坏我"",""好我"",""好他"",""坏他""]","[""弱我"",""强我"",""强他"",""弱他""]","","","","","","","","yes","","","","","","","","","SRET","EW_formal","","key","f","16.651127819548698","768","428","朋友","利落","Positive","ability","","","","","","","","","","",""
"678","","f","psychophysics","58","284231","0.0-7.0-3.0-0.44","7","7","7","6","6","5","5","5","5","5","5","2","2","2","0","1","2","2","1","5","4","5","5","4","4","4","4","5","4","7","6","6","7","7","5","7","8","7","7","7","6","7","7","6","6","1","6","7","1","6","7","7","6","6","5","6","7","6","7","6","7","7","7","5","7","7","7","7","7","7","7","7","7","7","7","7","7","6","7","602312870918619136","张","630","Male","[""坏我"",""好我"",""好他"",""坏他""]","[""弱我"",""强我"",""强他"",""弱他""]","","","","","","","","yes","","","","","","","","","SRET","EW_formal","","key","f","16.647000000000116","768","428","朋友","慈悲","Positive","morality","","","","","","","","","","",""
"776","","f","psychophysics","59","286009","0.0-7.0-3.0-0.45","7","7","7","6","6","5","5","5","5","5","5","2","2","2","0","1","2","2","1","5","4","5","5","4","4","4","4","5","4","7","6","6","7","7","5","7","8","7","7","7","6","7","7","6","6","1","6","7","1","6","7","7","6","6","5","6","7","6","7","6","7","7","7","5","7","7","7","7","7","7","7","7","7","7","7","7","7","6","7","602312870918619136","张","630","Male","[""坏我"",""好我"",""好他"",""坏他""]","[""弱我"",""强我"",""强他"",""弱他""]","","","","","","","","yes","","","","","","","","","SRET","EW_formal","","key","f","16.65047619047608","768","428","自己","智慧","Positive","ability","","","","","","","","","","",""
"804","","j","psychophysics","60","287816","0.0-7.0-3.0-0.46","7","7","7","6","6","5","5","5","5","5","5","2","2","2","0","1","2","2","1","5","4","5","5","4","4","4","4","5","4","7","6","6","7","7","5","7","8","7","7","7","6","7","7","6","6","1","6","7","1","6","7","7","6","6","5","6","7","6","7","6","7","7","7","5","7","7","7","7","7","7","7","7","7","7","7","7","7","6","7","602312870918619136","张","630","Male","[""坏我"",""好我"",""好他"",""坏他""]","[""弱我"",""强我"",""强他"",""弱他""]","","","","","","","","no","","","","","","","","","SRET","EW_formal","","key","j","16.65000000000011","768","428","自己","刻薄","Negative","morality","","","","","","","","","","",""
"815","","f","psychophysics","61","289633","0.0-7.0-3.0-0.47","7","7","7","6","6","5","5","5","5","5","5","2","2","2","0","1","2","2","1","5","4","5","5","4","4","4","4","5","4","7","6","6","7","7","5","7","8","7","7","7","6","7","7","6","6","1","6","7","1","6","7","7","6","6","5","6","7","6","7","6","7","7","7","5","7","7","7","7","7","7","7","7","7","7","7","7","7","6","7","602312870918619136","张","630","Male","[""坏我"",""好我"",""好他"",""坏他""]","[""弱我"",""强我"",""强他"",""弱他""]","","","","","","","","yes","","","","","","","","","SRET","EW_formal","","key","f","16.65185185185207","768","428","朋友","果决","Positive","ability","","","","","","","","","","",""
"797","","j","psychophysics","62","291432","0.0-7.0-3.0-0.48","7","7","7","6","6","5","5","5","5","5","5","2","2","2","0","1","2","2","1","5","4","5","5","4","4","4","4","5","4","7","6","6","7","7","5","7","8","7","7","7","6","7","7","6","6","1","6","7","1","6","7","7","6","6","5","6","7","6","7","6","7","7","7","5","7","7","7","7","7","7","7","7","7","7","7","7","7","6","7","602312870918619136","张","630","Male","[""坏我"",""好我"",""好他"",""坏他""]","[""弱我"",""强我"",""强他"",""弱他""]","","","","","","","","no","","","","","","","","","SRET","EW_formal","","key","j","16.654205607476637","768","428","自己","不仁","Negative","morality","","","","","","","","","","",""
"910","","j","psychophysics","63","293344","0.0-7.0-3.0-0.49","7","7","7","6","6","5","5","5","5","5","5","2","2","2","0","1","2","2","1","5","4","5","5","4","4","4","4","5","4","7","6","6","7","7","5","7","8","7","7","7","6","7","7","6","6","1","6","7","1","6","7","7","6","6","5","6","7","6","7","6","7","7","7","5","7","7","7","7","7","7","7","7","7","7","7","7","7","6","7","602312870918619136","张","630","Male","[""坏我"",""好我"",""好他"",""坏他""]","[""弱我"",""强我"",""强他"",""弱他""]","","","","","","","","no","","","","","","","","","SRET","EW_formal","","key","j","16.65175438596481","768","428","朋友","愚痴","Negative","ability","","","","","","","","","","",""
"830","","j","psychophysics","64","295176","0.0-7.0-3.0-0.50","7","7","7","6","6","5","5","5","5","5","5","2","2","2","0","1","2","2","1","5","4","5","5","4","4","4","4","5","4","7","6","6","7","7","5","7","8","7","7","7","6","7","7","6","6","1","6","7","1","6","7","7","6","6","5","6","7","6","7","6","7","7","7","5","7","7","7","7","7","7","7","7","7","7","7","7","7","6","7","602312870918619136","张","630","Male","[""坏我"",""好我"",""好他"",""坏他""]","[""弱我"",""强我"",""强他"",""弱他""]","","","","","","","","no","","","","","","","","","SRET","EW_formal","","key","j","16.65229357798144","768","428","朋友","虚假","Negative","morality","","","","","","","","","","",""
"574","","f","psychophysics","65","296752","0.0-7.0-3.0-0.51","7","7","7","6","6","5","5","5","5","5","5","2","2","2","0","1","2","2","1","5","4","5","5","4","4","4","4","5","4","7","6","6","7","7","5","7","8","7","7","7","6","7","7","6","6","1","6","7","1","6","7","7","6","6","5","6","7","6","7","6","7","7","7","5","7","7","7","7","7","7","7","7","7","7","7","7","7","6","7","602312870918619136","张","630","Male","[""坏我"",""好我"",""好他"",""坏他""]","[""弱我"",""强我"",""强他"",""弱他""]","","","","","","","","yes","","","","","","","","","SRET","EW_formal","","key","f","16.654255319148938","768","428","自己","廉正","Positive","morality","","","","","","","","","","",""
"664","","f","psychophysics","66","298418","0.0-7.0-3.0-0.52","7","7","7","6","6","5","5","5","5","5","5","2","2","2","0","1","2","2","1","5","4","5","5","4","4","4","4","5","4","7","6","6","7","7","5","7","8","7","7","7","6","7","7","6","6","1","6","7","1","6","7","7","6","6","5","6","7","6","7","6","7","7","7","5","7","7","7","7","7","7","7","7","7","7","7","7","7","6","7","602312870918619136","张","630","Male","[""坏我"",""好我"",""好他"",""坏他""]","[""弱我"",""强我"",""强他"",""弱他""]","","","","","","","","yes","","","","","","","","","SRET","EW_formal","","key","f","16.649494949494834","768","428","自己","干练","Positive","ability","","","","","","","","","","",""
"684","","f","psychophysics","67","300105","0.0-7.0-3.0-0.53","7","7","7","6","6","5","5","5","5","5","5","2","2","2","0","1","2","2","1","5","4","5","5","4","4","4","4","5","4","7","6","6","7","7","5","7","8","7","7","7","6","7","7","6","6","1","6","7","1","6","7","7","6","6","5","6","7","6","7","6","7","7","7","5","7","7","7","7","7","7","7","7","7","7","7","7","7","6","7","602312870918619136","张","630","Male","[""坏我"",""好我"",""好他"",""坏他""]","[""弱我"",""强我"",""强他"",""弱他""]","","","","","","","","yes","","","","","","","","","SRET","EW_formal","","key","f","16.652999999999885","768","428","朋友","君子","Positive","morality","","","","","","","","","","",""
"709","","f","psychophysics","68","301816","0.0-7.0-3.0-0.54","7","7","7","6","6","5","5","5","5","5","5","2","2","2","0","1","2","2","1","5","4","5","5","4","4","4","4","5","4","7","6","6","7","7","5","7","8","7","7","7","6","7","7","6","6","1","6","7","1","6","7","7","6","6","5","6","7","6","7","6","7","7","7","5","7","7","7","7","7","7","7","7","7","7","7","7","7","6","7","602312870918619136","张","630","Male","[""坏我"",""好我"",""好他"",""坏他""]","[""弱我"",""强我"",""强他"",""弱他""]","","","","","","","","yes","","","","","","","","","SRET","EW_formal","","key","f","16.64901960784325","768","428","朋友","忠勇","Positive","morality","","","","","","","","","","",""
"664","","j","psychophysics","69","303481","0.0-7.0-3.0-0.55","7","7","7","6","6","5","5","5","5","5","5","2","2","2","0","1","2","2","1","5","4","5","5","4","4","4","4","5","4","7","6","6","7","7","5","7","8","7","7","7","6","7","7","6","6","1","6","7","1","6","7","7","6","6","5","6","7","6","7","6","7","7","7","5","7","7","7","7","7","7","7","7","7","7","7","7","7","6","7","602312870918619136","张","630","Male","[""坏我"",""好我"",""好他"",""坏他""]","[""弱我"",""强我"",""强他"",""弱他""]","","","","","","","","no","","","","","","","","","SRET","EW_formal","","key","j","16.655555555555203","768","428","朋友","缺德","Negative","morality","","","","","","","","","","",""
"638","","f","psychophysics","70","305120","0.0-7.0-3.0-0.56","7","7","7","6","6","5","5","5","5","5","5","2","2","2","0","1","2","2","1","5","4","5","5","4","4","4","4","5","4","7","6","6","7","7","5","7","8","7","7","7","6","7","7","6","6","1","6","7","1","6","7","7","6","6","5","6","7","6","7","6","7","7","7","5","7","7","7","7","7","7","7","7","7","7","7","7","7","6","7","602312870918619136","张","630","Male","[""坏我"",""好我"",""好他"",""坏他""]","[""弱我"",""强我"",""强他"",""弱他""]","","","","","","","","yes","","","","","","","","","SRET","EW_formal","","key","f","16.650515463917287","768","428","自己","上进","Positive","ability","","","","","","","","","","",""
"703","","j","psychophysics","71","306824","0.0-7.0-3.0-0.57","7","7","7","6","6","5","5","5","5","5","5","2","2","2","0","1","2","2","1","5","4","5","5","4","4","4","4","5","4","7","6","6","7","7","5","7","8","7","7","7","6","7","7","6","6","1","6","7","1","6","7","7","6","6","5","6","7","6","7","6","7","7","7","5","7","7","7","7","7","7","7","7","7","7","7","7","7","6","7","602312870918619136","张","630","Male","[""坏我"",""好我"",""好他"",""坏他""]","[""弱我"",""强我"",""强他"",""弱他""]","","","","","","","","no","","","","","","","","","SRET","EW_formal","","key","j","16.652941176470932","768","428","朋友","龌龊","Negative","morality","","","","","","","","","","",""
"590","","f","psychophysics","72","308416","0.0-7.0-3.0-0.58","7","7","7","6","6","5","5","5","5","5","5","2","2","2","0","1","2","2","1","5","4","5","5","4","4","4","4","5","4","7","6","6","7","7","5","7","8","7","7","7","6","7","7","6","6","1","6","7","1","6","7","7","6","6","5","6","7","6","7","6","7","7","7","5","7","7","7","7","7","7","7","7","7","7","7","7","7","6","7","602312870918619136","张","630","Male","[""坏我"",""好我"",""好他"",""坏他""]","[""弱我"",""强我"",""强他"",""弱他""]","","","","","","","","yes","","","","","","","","","SRET","EW_formal","","key","f","16.652127659574344","768","428","自己","奉献","Positive","morality","","","","","","","","","","",""
"574","","j","psychophysics","73","309992","0.0-7.0-3.0-0.59","7","7","7","6","6","5","5","5","5","5","5","2","2","2","0","1","2","2","1","5","4","5","5","4","4","4","4","5","4","7","6","6","7","7","5","7","8","7","7","7","6","7","7","6","6","1","6","7","1","6","7","7","6","6","5","6","7","6","7","6","7","7","7","5","7","7","7","7","7","7","7","7","7","7","7","7","7","6","7","602312870918619136","张","630","Male","[""坏我"",""好我"",""好他"",""坏他""]","[""弱我"",""强我"",""强他"",""弱他""]","","","","","","","","no","","","","","","","","","SRET","EW_formal","","key","j","16.65531914893654","768","428","朋友","无赖","Negative","morality","","","","","","","","","","",""
"590","","j","psychophysics","74","311585","0.0-7.0-3.0-0.60","7","7","7","6","6","5","5","5","5","5","5","2","2","2","0","1","2","2","1","5","4","5","5","4","4","4","4","5","4","7","6","6","7","7","5","7","8","7","7","7","6","7","7","6","6","1","6","7","1","6","7","7","6","6","5","6","7","6","7","6","7","7","7","5","7","7","7","7","7","7","7","7","7","7","7","7","7","6","7","602312870918619136","张","630","Male","[""坏我"",""好我"",""好他"",""坏他""]","[""弱我"",""强我"",""强他"",""弱他""]","","","","","","","","no","","","","","","","","","SRET","EW_formal","","key","j","16.649999999999753","768","428","自己","毛糙","Negative","ability","","","","","","","","","","",""
"564","","f","psychophysics","75","313152","0.0-7.0-3.0-0.61","7","7","7","6","6","5","5","5","5","5","5","2","2","2","0","1","2","2","1","5","4","5","5","4","4","4","4","5","4","7","6","6","7","7","5","7","8","7","7","7","6","7","7","6","6","1","6","7","1","6","7","7","6","6","5","6","7","6","7","6","7","7","7","5","7","7","7","7","7","7","7","7","7","7","7","7","7","6","7","602312870918619136","张","630","Male","[""坏我"",""好我"",""好他"",""坏他""]","[""弱我"",""强我"",""强他"",""弱他""]","","","","","","","","yes","","","","","","","","","SRET","EW_formal","","key","f","16.649999999999753","768","428","朋友","忠义","Positive","morality","","","","","","","","","","",""
"710","","j","psychophysics","76","314864","0.0-7.0-3.0-0.62","7","7","7","6","6","5","5","5","5","5","5","2","2","2","0","1","2","2","1","5","4","5","5","4","4","4","4","5","4","7","6","6","7","7","5","7","8","7","7","7","6","7","7","6","6","1","6","7","1","6","7","7","6","6","5","6","7","6","7","6","7","7","7","5","7","7","7","7","7","7","7","7","7","7","7","7","7","6","7","602312870918619136","张","630","Male","[""坏我"",""好我"",""好他"",""坏他""]","[""弱我"",""强我"",""强他"",""弱他""]","","","","","","","","no","","","","","","","","","SRET","EW_formal","","key","j","16.654455445544325","768","428","自己","蛇蝎","Negative","morality","","","","","","","","","","",""
"535","","j","psychophysics","77","316400","0.0-7.0-3.0-0.63","7","7","7","6","6","5","5","5","5","5","5","2","2","2","0","1","2","2","1","5","4","5","5","4","4","4","4","5","4","7","6","6","7","7","5","7","8","7","7","7","6","7","7","6","6","1","6","7","1","6","7","7","6","6","5","6","7","6","7","6","7","7","7","5","7","7","7","7","7","7","7","7","7","7","7","7","7","6","7","602312870918619136","张","630","Male","[""坏我"",""好我"",""好他"",""坏他""]","[""弱我"",""强我"",""强他"",""弱他""]","","","","","","","","no","","","","","","","","","SRET","EW_formal","","key","j","16.653260869564964","768","428","朋友","贪腐","Negative","morality","","","","","","","","","","",""
"854","","f","psychophysics","78","318256","0.0-7.0-3.0-0.64","7","7","7","6","6","5","5","5","5","5","5","2","2","2","0","1","2","2","1","5","4","5","5","4","4","4","4","5","4","7","6","6","7","7","5","7","8","7","7","7","6","7","7","6","6","1","6","7","1","6","7","7","6","6","5","6","7","6","7","6","7","7","7","5","7","7","7","7","7","7","7","7","7","7","7","7","7","6","7","602312870918619136","张","630","Male","[""坏我"",""好我"",""好他"",""坏他""]","[""弱我"",""强我"",""强他"",""弱他""]","","","","","","","","yes","","","","","","","","","SRET","EW_formal","","key","f","16.653636363636046","768","428","朋友","慷慨","Positive","morality","","","","","","","","","","",""
"662","","j","psychophysics","79","319920","0.0-7.0-3.0-0.65","7","7","7","6","6","5","5","5","5","5","5","2","2","2","0","1","2","2","1","5","4","5","5","4","4","4","4","5","4","7","6","6","7","7","5","7","8","7","7","7","6","7","7","6","6","1","6","7","1","6","7","7","6","6","5","6","7","6","7","6","7","7","7","5","7","7","7","7","7","7","7","7","7","7","7","7","7","6","7","602312870918619136","张","630","Male","[""坏我"",""好我"",""好他"",""坏他""]","[""弱我"",""强我"",""强他"",""弱他""]","","","","","","","","no","","","","","","","","","SRET","EW_formal","","key","j","16.649494949494834","768","428","自己","阴毒","Negative","morality","","","","","","","","","","",""
"992","","f","psychophysics","80","321912","0.0-7.0-3.0-0.66","7","7","7","6","6","5","5","5","5","5","5","2","2","2","0","1","2","2","1","5","4","5","5","4","4","4","4","5","4","7","6","6","7","7","5","7","8","7","7","7","6","7","7","6","6","1","6","7","1","6","7","7","6","6","5","6","7","6","7","6","7","7","7","5","7","7","7","7","7","7","7","7","7","7","7","7","7","6","7","602312870918619136","张","630","Male","[""坏我"",""好我"",""好他"",""坏他""]","[""弱我"",""强我"",""强他"",""弱他""]","","","","","","","","yes","","","","","","","","","SRET","EW_formal","","key","f","16.649579831932677","768","428","朋友","庸碌","Negative","ability","","","","","","","","","","",""
"590","","f","psychophysics","81","323505","0.0-7.0-3.0-0.67","7","7","7","6","6","5","5","5","5","5","5","2","2","2","0","1","2","2","1","5","4","5","5","4","4","4","4","5","4","7","6","6","7","7","5","7","8","7","7","7","6","7","7","6","6","1","6","7","1","6","7","7","6","6","5","6","7","6","7","6","7","7","7","5","7","7","7","7","7","7","7","7","7","7","7","7","7","6","7","602312870918619136","张","630","Male","[""坏我"",""好我"",""好他"",""坏他""]","[""弱我"",""强我"",""强他"",""弱他""]","","","","","","","","yes","","","","","","","","","SRET","EW_formal","","key","f","16.645744680851188","768","428","自己","懂行","Positive","ability","","","","","","","","","","",""
"774","","f","psychophysics","82","325281","0.0-7.0-3.0-0.68","7","7","7","6","6","5","5","5","5","5","5","2","2","2","0","1","2","2","1","5","4","5","5","4","4","4","4","5","4","7","6","6","7","7","5","7","8","7","7","7","6","7","7","6","6","1","6","7","1","6","7","7","6","6","5","6","7","6","7","6","7","7","7","5","7","7","7","7","7","7","7","7","7","7","7","7","7","6","7","602312870918619136","张","630","Male","[""坏我"",""好我"",""好他"",""坏他""]","[""弱我"",""强我"",""强他"",""弱他""]","","","","","","","","yes","","","","","","","","","SRET","EW_formal","","key","f","16.650943396226417","768","428","朋友","忠诚","Positive","morality","","","","","","","","","","",""
"918","","j","psychophysics","83","327200","0.0-7.0-3.0-0.69","7","7","7","6","6","5","5","5","5","5","5","2","2","2","0","1","2","2","1","5","4","5","5","4","4","4","4","5","4","7","6","6","7","7","5","7","8","7","7","7","6","7","7","6","6","1","6","7","1","6","7","7","6","6","5","6","7","6","7","6","7","7","7","5","7","7","7","7","7","7","7","7","7","7","7","7","7","6","7","602312870918619136","张","630","Male","[""坏我"",""好我"",""好他"",""坏他""]","[""弱我"",""强我"",""强他"",""弱他""]","","","","","","","","no","","","","","","","","","SRET","EW_formal","","key","j","16.65438596491259","768","428","朋友","迂拙","Negative","ability","","","","","","","","","","",""
"711","","f","psychophysics","84","328912","0.0-7.0-3.0-0.70","7","7","7","6","6","5","5","5","5","5","5","2","2","2","0","1","2","2","1","5","4","5","5","4","4","4","4","5","4","7","6","6","7","7","5","7","8","7","7","7","6","7","7","6","6","1","6","7","1","6","7","7","6","6","5","6","7","6","7","6","7","7","7","5","7","7","7","7","7","7","7","7","7","7","7","7","7","6","7","602312870918619136","张","630","Male","[""坏我"",""好我"",""好他"",""坏他""]","[""弱我"",""强我"",""强他"",""弱他""]","","","","","","","","yes","","","","","","","","","SRET","EW_formal","","key","f","16.650000000000457","768","428","朋友","诚信","Positive","morality","","","","","","","","","","",""
"598","","j","psychophysics","85","330512","0.0-7.0-3.0-0.71","7","7","7","6","6","5","5","5","5","5","5","2","2","2","0","1","2","2","1","5","4","5","5","4","4","4","4","5","4","7","6","6","7","7","5","7","8","7","7","7","6","7","7","6","6","1","6","7","1","6","7","7","6","6","5","6","7","6","7","6","7","7","7","5","7","7","7","7","7","7","7","7","7","7","7","7","7","6","7","602312870918619136","张","630","Male","[""坏我"",""好我"",""好他"",""坏他""]","[""弱我"",""强我"",""强他"",""弱他""]","","","","","","","","no","","","","","","","","","SRET","EW_formal","","key","j","16.652631578947368","768","428","朋友","淫乱","Negative","morality","","","","","","","","","","",""
"679","","j","psychophysics","86","332192","0.0-7.0-3.0-0.72","7","7","7","6","6","5","5","5","5","5","5","2","2","2","0","1","2","2","1","5","4","5","5","4","4","4","4","5","4","7","6","6","7","7","5","7","8","7","7","7","6","7","7","6","6","1","6","7","1","6","7","7","6","6","5","6","7","6","7","6","7","7","7","5","7","7","7","7","7","7","7","7","7","7","7","7","7","6","7","602312870918619136","张","630","Male","[""坏我"",""好我"",""好他"",""坏他""]","[""弱我"",""强我"",""强他"",""弱他""]","","","","","","","","no","","","","","","","","","SRET","EW_formal","","key","j","16.652999999999885","768","428","自己","刻苦","Positive","ability","","","","","","","","","","",""
"782","","f","psychophysics","87","333976","0.0-7.0-3.0-0.73","7","7","7","6","6","5","5","5","5","5","5","2","2","2","0","1","2","2","1","5","4","5","5","4","4","4","4","5","4","7","6","6","7","7","5","7","8","7","7","7","6","7","7","6","6","1","6","7","1","6","7","7","6","6","5","6","7","6","7","6","7","7","7","5","7","7","7","7","7","7","7","7","7","7","7","7","7","6","7","602312870918619136","张","630","Male","[""坏我"",""好我"",""好他"",""坏他""]","[""弱我"",""强我"",""强他"",""弱他""]","","","","","","","","yes","","","","","","","","","SRET","EW_formal","","key","f","16.650943396226417","768","428","自己","周到","Positive","ability","","","","","","","","","","",""
"894","","f","psychophysics","88","335872","0.0-7.0-3.0-0.74","7","7","7","6","6","5","5","5","5","5","5","2","2","2","0","1","2","2","1","5","4","5","5","4","4","4","4","5","4","7","6","6","7","7","5","7","8","7","7","7","6","7","7","6","6","1","6","7","1","6","7","7","6","6","5","6","7","6","7","6","7","7","7","5","7","7","7","7","7","7","7","7","7","7","7","7","7","6","7","602312870918619136","张","630","Male","[""坏我"",""好我"",""好他"",""坏他""]","[""弱我"",""强我"",""强他"",""弱他""]","","","","","","","","yes","","","","","","","","","SRET","EW_formal","","key","f","16.651327433628627","768","428","自己","高尚","Positive","morality","","","","","","","","","","",""
"567","","j","psychophysics","89","337440","0.0-7.0-3.0-0.75","7","7","7","6","6","5","5","5","5","5","5","2","2","2","0","1","2","2","1","5","4","5","5","4","4","4","4","5","4","7","6","6","7","7","5","7","8","7","7","7","6","7","7","6","6","1","6","7","1","6","7","7","6","6","5","6","7","6","7","6","7","7","7","5","7","7","7","7","7","7","7","7","7","7","7","7","7","6","7","602312870918619136","张","630","Male","[""坏我"",""好我"",""好他"",""坏他""]","[""弱我"",""强我"",""强他"",""弱他""]","","","","","","","","no","","","","","","","","","SRET","EW_formal","","key","j","16.652688172043135","768","428","自己","歹毒","Negative","morality","","","","","","","","","","",""
"686","","j","psychophysics","90","339128","0.0-7.0-3.0-0.76","7","7","7","6","6","5","5","5","5","5","5","2","2","2","0","1","2","2","1","5","4","5","5","4","4","4","4","5","4","7","6","6","7","7","5","7","8","7","7","7","6","7","7","6","6","1","6","7","1","6","7","7","6","6","5","6","7","6","7","6","7","7","7","5","7","7","7","7","7","7","7","7","7","7","7","7","7","6","7","602312870918619136","张","630","Male","[""坏我"",""好我"",""好他"",""坏他""]","[""弱我"",""强我"",""强他"",""弱他""]","","","","","","","","no","","","","","","","","","SRET","EW_formal","","key","j","16.652475247524983","768","428","自己","无能","Negative","ability","","","","","","","","","","",""
"679","","j","psychophysics","91","340809","0.0-7.0-3.0-0.77","7","7","7","6","6","5","5","5","5","5","5","2","2","2","0","1","2","2","1","5","4","5","5","4","4","4","4","5","4","7","6","6","7","7","5","7","8","7","7","7","6","7","7","6","6","1","6","7","1","6","7","7","6","6","5","6","7","6","7","6","7","7","7","5","7","7","7","7","7","7","7","7","7","7","7","7","7","6","7","602312870918619136","张","630","Male","[""坏我"",""好我"",""好他"",""坏他""]","[""弱我"",""强我"",""强他"",""弱他""]","","","","","","","","no","","","","","","","","","SRET","EW_formal","","key","j","16.645999999999766","768","428","自己","狡诈","Negative","morality","","","","","","","","","","",""
"693","","f","psychophysics","92","342504","0.0-7.0-3.0-0.78","7","7","7","6","6","5","5","5","5","5","5","2","2","2","0","1","2","2","1","5","4","5","5","4","4","4","4","5","4","7","6","6","7","7","5","7","8","7","7","7","6","7","7","6","6","1","6","7","1","6","7","7","6","6","5","6","7","6","7","6","7","7","7","5","7","7","7","7","7","7","7","7","7","7","7","7","7","6","7","602312870918619136","张","630","Male","[""坏我"",""好我"",""好他"",""坏他""]","[""弱我"",""强我"",""强他"",""弱他""]","","","","","","","","yes","","","","","","","","","SRET","EW_formal","","key","f","16.652999999999885","768","428","自己","敬业","Positive","morality","","","","","","","","","","",""
"694","","j","psychophysics","93","344200","0.0-7.0-3.0-0.79","7","7","7","6","6","5","5","5","5","5","5","2","2","2","0","1","2","2","1","5","4","5","5","4","4","4","4","5","4","7","6","6","7","7","5","7","8","7","7","7","6","7","7","6","6","1","6","7","1","6","7","7","6","6","5","6","7","6","7","6","7","7","7","5","7","7","7","7","7","7","7","7","7","7","7","7","7","6","7","602312870918619136","张","630","Male","[""坏我"",""好我"",""好他"",""坏他""]","[""弱我"",""强我"",""强他"",""弱他""]","","","","","","","","no","","","","","","","","","SRET","EW_formal","","key","j","16.654455445544325","768","428","自己","差生","Negative","ability","","","","","","","","","","",""
"638","","j","psychophysics","94","345840","0.0-7.0-3.0-0.80","7","7","7","6","6","5","5","5","5","5","5","2","2","2","0","1","2","2","1","5","4","5","5","4","4","4","4","5","4","7","6","6","7","7","5","7","8","7","7","7","6","7","7","6","6","1","6","7","1","6","7","7","6","6","5","6","7","6","7","6","7","7","7","5","7","7","7","7","7","7","7","7","7","7","7","7","7","6","7","602312870918619136","张","630","Male","[""坏我"",""好我"",""好他"",""坏他""]","[""弱我"",""强我"",""强他"",""弱他""]","","","","","","","","no","","","","","","","","","SRET","EW_formal","","key","j","16.647959183673468","768","428","朋友","笨蛋","Negative","ability","","","","","","","","","","",""
"647","","f","psychophysics","95","347489","0.0-7.0-3.0-0.81","7","7","7","6","6","5","5","5","5","5","5","2","2","2","0","1","2","2","1","5","4","5","5","4","4","4","4","5","4","7","6","6","7","7","5","7","8","7","7","7","6","7","7","6","6","1","6","7","1","6","7","7","6","6","5","6","7","6","7","6","7","7","7","5","7","7","7","7","7","7","7","7","7","7","7","7","7","6","7","602312870918619136","张","630","Male","[""坏我"",""好我"",""好他"",""坏他""]","[""弱我"",""强我"",""强他"",""弱他""]","","","","","","","","yes","","","","","","","","","SRET","EW_formal","","key","f","16.65408163265342","768","428","朋友","义气","Positive","morality","","","","","","","","","","",""
"741","","j","psychophysics","96","349232","0.0-7.0-3.0-0.82","7","7","7","6","6","5","5","5","5","5","5","2","2","2","0","1","2","2","1","5","4","5","5","4","4","4","4","5","4","7","6","6","7","7","5","7","8","7","7","7","6","7","7","6","6","1","6","7","1","6","7","7","6","6","5","6","7","6","7","6","7","7","7","5","7","7","7","7","7","7","7","7","7","7","7","7","7","6","7","602312870918619136","张","630","Male","[""坏我"",""好我"",""好他"",""坏他""]","[""弱我"",""强我"",""强他"",""弱他""]","","","","","","","","no","","","","","","","","","SRET","EW_formal","","key","j","16.650485436893202","768","428","自己","昏庸","Negative","ability","","","","","","","","","","",""
"1095","","f","psychophysics","97","351328","0.0-7.0-3.0-0.83","7","7","7","6","6","5","5","5","5","5","5","2","2","2","0","1","2","2","1","5","4","5","5","4","4","4","4","5","4","7","6","6","7","7","5","7","8","7","7","7","6","7","7","6","6","1","6","7","1","6","7","7","6","6","5","6","7","6","7","6","7","7","7","5","7","7","7","7","7","7","7","7","7","7","7","7","7","6","7","602312870918619136","张","630","Male","[""坏我"",""好我"",""好他"",""坏他""]","[""弱我"",""强我"",""强他"",""弱他""]","","","","","","","","yes","","","","","","","","","SRET","EW_formal","","key","f","16.652","768","428","自己","坦荡","Positive","morality","","","","","","","","","","",""
"847","","f","psychophysics","98","353176","0.0-7.0-3.0-0.84","7","7","7","6","6","5","5","5","5","5","5","2","2","2","0","1","2","2","1","5","4","5","5","4","4","4","4","5","4","7","6","6","7","7","5","7","8","7","7","7","6","7","7","6","6","1","6","7","1","6","7","7","6","6","5","6","7","6","7","6","7","7","7","5","7","7","7","7","7","7","7","7","7","7","7","7","7","6","7","602312870918619136","张","630","Male","[""坏我"",""好我"",""好他"",""坏他""]","[""弱我"",""强我"",""强他"",""弱他""]","","","","","","","","yes","","","","","","","","","SRET","EW_formal","","key","f","16.65090909090941","768","428","自己","主见","Positive","ability","","","","","","","","","","",""
"766","","j","psychophysics","99","354944","0.0-7.0-3.0-0.85","7","7","7","6","6","5","5","5","5","5","5","2","2","2","0","1","2","2","1","5","4","5","5","4","4","4","4","5","4","7","6","6","7","7","5","7","8","7","7","7","6","7","7","6","6","1","6","7","1","6","7","7","6","6","5","6","7","6","7","6","7","7","7","5","7","7","7","7","7","7","7","7","7","7","7","7","7","6","7","602312870918619136","张","630","Male","[""坏我"",""好我"",""好他"",""坏他""]","[""弱我"",""强我"",""强他"",""弱他""]","","","","","","","","no","","","","","","","","","SRET","EW_formal","","key","j","16.65047619047608","768","428","朋友","低俗","Negative","morality","","","","","","","","","","",""
"599","","f","psychophysics","100","356544","0.0-7.0-3.0-0.86","7","7","7","6","6","5","5","5","5","5","5","2","2","2","0","1","2","2","1","5","4","5","5","4","4","4","4","5","4","7","6","6","7","7","5","7","8","7","7","7","6","7","7","6","6","1","6","7","1","6","7","7","6","6","5","6","7","6","7","6","7","7","7","5","7","7","7","7","7","7","7","7","7","7","7","7","7","6","7","602312870918619136","张","630","Male","[""坏我"",""好我"",""好他"",""坏他""]","[""弱我"",""强我"",""强他"",""弱他""]","","","","","","","","yes","","","","","","","","","SRET","EW_formal","","key","f","16.651041666666668","768","428","朋友","素养","Positive","morality","","","","","","","","","","",""
"550","","j","psychophysics","101","358096","0.0-7.0-3.0-0.87","7","7","7","6","6","5","5","5","5","5","5","2","2","2","0","1","2","2","1","5","4","5","5","4","4","4","4","5","4","7","6","6","7","7","5","7","8","7","7","7","6","7","7","6","6","1","6","7","1","6","7","7","6","6","5","6","7","6","7","6","7","7","7","5","7","7","7","7","7","7","7","7","7","7","7","7","7","6","7","602312870918619136","张","630","Male","[""坏我"",""好我"",""好他"",""坏他""]","[""弱我"",""强我"",""强他"",""弱他""]","","","","","","","","no","","","","","","","","","SRET","EW_formal","","key","j","16.651086956521993","768","428","自己","缓慢","Negative","ability","","","","","","","","","","",""
"50768","
    <p><div style='color:white;font-size:35px; line-height:20px;'>计算任务</div></p><br>
    <p><div style='color:red;font-size:25px; line-height:20px;'>接下来，您将看到一些四则运算题，<b>请从键盘选择 0-9 进行反应。</b></div></p>
    <p><div style='color:red;font-size:25px; line-height:20px;'>请尽可能快地进行计算，计算的速度和正确率将影响报酬的发放。</div></p>
    <p><div class='footer' style='color:white;font-size:25px; line-height:20px;'>如果对本实验还有不清楚之处，请立即向实验员咨询。</p><p style='color:white;font-size:25px; line-height:20px;'>如果您明白了规则：</p><p style='color:white;font-size:22px; line-height:20px;'>请按 继续 进入练习</p>
    </div>
    ","0","html-button-response","102","408865","0.0-7.0-4.0","7","7","7","6","6","5","5","5","5","5","5","2","2","2","0","1","2","2","1","5","4","5","5","4","4","4","4","5","4","7","6","6","7","7","5","7","8","7","7","7","6","7","7","6","6","1","6","7","1","6","7","7","6","6","5","6","7","6","7","6","7","7","7","5","7","7","7","7","7","7","7","7","7","7","7","7","7","6","7","602312870918619136","张","630","Male","[""坏我"",""好我"",""好他"",""坏他""]","[""弱我"",""强我"",""强他"",""弱他""]","","","","","","","","","","","","","","","","","SRET_math","math_instructions","Mon Dec 25 2023 14:14:37 GMT+0800 (中国标准时间)","","","","","","","","","","","","","","","","","","","",""
"1910","","9","psychophysics","103","410776","0.0-7.0-5.0-0.0","7","7","7","6","6","5","5","5","5","5","5","2","2","2","0","1","2","2","1","5","4","5","5","4","4","4","4","5","4","7","6","6","7","7","5","7","8","7","7","7","6","7","7","6","6","1","6","7","1","6","7","7","6","6","5","6","7","6","7","6","7","7","7","5","7","7","7","7","7","7","7","7","7","7","7","7","7","6","7","602312870918619136","张","630","Male","[""坏我"",""好我"",""好他"",""坏他""]","[""弱我"",""强我"",""强他"",""弱他""]","","","","","","","","9","","","","","","","","","SRET","SRET_math_calculate","","key","9","16.64736842105253","768","428","","","","","8+1= ?","9","1","","","","","","","",""
"1766","","5","psychophysics","104","412544","0.0-7.0-5.0-0.1","7","7","7","6","6","5","5","5","5","5","5","2","2","2","0","1","2","2","1","5","4","5","5","4","4","4","4","5","4","7","6","6","7","7","5","7","8","7","7","7","6","7","7","6","6","1","6","7","1","6","7","7","6","6","5","6","7","6","7","6","7","7","7","5","7","7","7","7","7","7","7","7","7","7","7","7","7","6","7","602312870918619136","张","630","Male","[""坏我"",""好我"",""好他"",""坏他""]","[""弱我"",""强我"",""强他"",""弱他""]","","","","","","","","5","","","","","","","","","SRET","SRET_math_calculate","","key","5","16.65188679245316","768","428","","","","","17-12= ? ","5","1","","","","","","","",""
"1719","","4","psychophysics","105","414264","0.0-7.0-5.0-0.2","7","7","7","6","6","5","5","5","5","5","5","2","2","2","0","1","2","2","1","5","4","5","5","4","4","4","4","5","4","7","6","6","7","7","5","7","8","7","7","7","6","7","7","6","6","1","6","7","1","6","7","7","6","6","5","6","7","6","7","6","7","7","7","5","7","7","7","7","7","7","7","7","7","7","7","7","7","6","7","602312870918619136","张","630","Male","[""坏我"",""好我"",""好他"",""坏他""]","[""弱我"",""强我"",""强他"",""弱他""]","","","","","","","","4","","","","","","","","","SRET","SRET_math_calculate","","key","4","16.653921568627567","768","428","","","","","8-4= ?","4","1","","","","","","","",""
"1968","","9","psychophysics","106","416232","0.0-7.0-5.0-0.3","7","7","7","6","6","5","5","5","5","5","5","2","2","2","0","1","2","2","1","5","4","5","5","4","4","4","4","5","4","7","6","6","7","7","5","7","8","7","7","7","6","7","7","6","6","1","6","7","1","6","7","7","6","6","5","6","7","6","7","6","7","7","7","5","7","7","7","7","7","7","7","7","7","7","7","7","7","6","7","602312870918619136","张","630","Male","[""坏我"",""好我"",""好他"",""坏他""]","[""弱我"",""强我"",""强他"",""弱他""]","","","","","","","","9","","","","","","","","","SRET","SRET_math_calculate","","key","9","16.651282051282152","768","428","","","","","2+7= ?","9","1","","","","","","","",""
"1767","","3","psychophysics","107","418001","0.0-7.0-5.0-0.4","7","7","7","6","6","5","5","5","5","5","5","2","2","2","0","1","2","2","1","5","4","5","5","4","4","4","4","5","4","7","6","6","7","7","5","7","8","7","7","7","6","7","7","6","6","1","6","7","1","6","7","7","6","6","5","6","7","6","7","6","7","7","7","5","7","7","7","7","7","7","7","7","7","7","7","7","7","6","7","602312870918619136","张","630","Male","[""坏我"",""好我"",""好他"",""坏他""]","[""弱我"",""强我"",""强他"",""弱他""]","","","","","","","","3","","","","","","","","","SRET","SRET_math_calculate","","key","3","16.651428571428237","768","428","","","","","2+1= ?","3","1","","","","","","","",""
"1719","","7","psychophysics","108","419721","0.0-7.0-5.0-0.5","7","7","7","6","6","5","5","5","5","5","5","2","2","2","0","1","2","2","1","5","4","5","5","4","4","4","4","5","4","7","6","6","7","7","5","7","8","7","7","7","6","7","7","6","6","1","6","7","1","6","7","7","6","6","5","6","7","6","7","6","7","7","7","5","7","7","7","7","7","7","7","7","7","7","7","7","7","6","7","602312870918619136","张","630","Male","[""坏我"",""好我"",""好他"",""坏他""]","[""弱我"",""强我"",""强他"",""弱他""]","","","","","","","","7","","","","","","","","","SRET","SRET_math_calculate","","key","7","16.656310679611426","768","428","","","","","1+6= ?","7","1","","","","","","","",""
"1710","","9","psychophysics","109","421432","0.0-7.0-5.0-0.6","7","7","7","6","6","5","5","5","5","5","5","2","2","2","0","1","2","2","1","5","4","5","5","4","4","4","4","5","4","7","6","6","7","7","5","7","8","7","7","7","6","7","7","6","6","1","6","7","1","6","7","7","6","6","5","6","7","6","7","6","7","7","7","5","7","7","7","7","7","7","7","7","7","7","7","7","7","6","7","602312870918619136","张","630","Male","[""坏我"",""好我"",""好他"",""坏他""]","[""弱我"",""强我"",""强他"",""弱他""]","","","","","","","","9","","","","","","","","","SRET","SRET_math_calculate","","key","9","16.650495049505064","768","428","","","","","1+8= ?","9","1","","","","","","","",""
"1832","","9","psychophysics","110","423264","0.0-7.0-5.0-0.7","7","7","7","6","6","5","5","5","5","5","5","2","2","2","0","1","2","2","1","5","4","5","5","4","4","4","4","5","4","7","6","6","7","7","5","7","8","7","7","7","6","7","7","6","6","1","6","7","1","6","7","7","6","6","5","6","7","6","7","6","7","7","7","5","7","7","7","7","7","7","7","7","7","7","7","7","7","6","7","602312870918619136","张","630","Male","[""坏我"",""好我"",""好他"",""坏他""]","[""弱我"",""强我"",""强他"",""弱他""]","","","","","","","","9","","","","","","","","","SRET","SRET_math_calculate","","key","9","16.65137614678899","768","428","","","","","81/9= ?","9","1","","","","","","","",""
"1839","","3","psychophysics","111","425106","0.0-7.0-5.0-0.8","7","7","7","6","6","5","5","5","5","5","5","2","2","2","0","1","2","2","1","5","4","5","5","4","4","4","4","5","4","7","6","6","7","7","5","7","8","7","7","7","6","7","7","6","6","1","6","7","1","6","7","7","6","6","5","6","7","6","7","6","7","7","7","5","7","7","7","7","7","7","7","7","7","7","7","7","7","6","7","602312870918619136","张","630","Male","[""坏我"",""好我"",""好他"",""坏他""]","[""弱我"",""强我"",""强他"",""弱他""]","","","","","","","","3","","","","","","","","","SRET","SRET_math_calculate","","key","3","16.65","768","428","","","","","8-5= ?","3","1","","","","","","","",""
"2998","","8","psychophysics","112","428104","0.0-7.0-5.0-0.9","7","7","7","6","6","5","5","5","5","5","5","2","2","2","0","1","2","2","1","5","4","5","5","4","4","4","4","5","4","7","6","6","7","7","5","7","8","7","7","7","6","7","7","6","6","1","6","7","1","6","7","7","6","6","5","6","7","6","7","6","7","7","7","5","7","7","7","7","7","7","7","7","7","7","7","7","7","6","7","602312870918619136","张","630","Male","[""坏我"",""好我"",""好他"",""坏他""]","[""弱我"",""强我"",""强他"",""弱他""]","","","","","","","","8","","","","","","","","","SRET","SRET_math_calculate","","key","8","16.65195530726231","768","428","","","","","56/7= ?","8","1","","","","","","","",""
"1640","","9","psychophysics","113","429745","0.0-7.0-5.0-0.10","7","7","7","6","6","5","5","5","5","5","5","2","2","2","0","1","2","2","1","5","4","5","5","4","4","4","4","5","4","7","6","6","7","7","5","7","8","7","7","7","6","7","7","6","6","1","6","7","1","6","7","7","6","6","5","6","7","6","7","6","7","7","7","5","7","7","7","7","7","7","7","7","7","7","7","7","7","6","7","602312870918619136","张","630","Male","[""坏我"",""好我"",""好他"",""坏他""]","[""弱我"",""强我"",""强他"",""弱他""]","","","","","","","","9","","","","","","","","","SRET","SRET_math_calculate","","key","9","16.652040816326174","768","428","","","","","4+5= ?","9","1","","","","","","","",""
"1854","","7","psychophysics","114","431600","0.0-7.0-5.0-0.11","7","7","7","6","6","5","5","5","5","5","5","2","2","2","0","1","2","2","1","5","4","5","5","4","4","4","4","5","4","7","6","6","7","7","5","7","8","7","7","7","6","7","7","6","6","1","6","7","1","6","7","7","6","6","5","6","7","6","7","6","7","7","7","5","7","7","7","7","7","7","7","7","7","7","7","7","7","6","7","602312870918619136","张","630","Male","[""坏我"",""好我"",""好他"",""坏他""]","[""弱我"",""强我"",""强他"",""弱他""]","","","","","","","","7","","","","","","","","","SRET","SRET_math_calculate","","key","7","16.65181818181829","768","428","","","","","21/3= ? ","7","1","","","","","","","",""
"1792","","1","psychophysics","115","433393","0.0-7.0-5.0-0.12","7","7","7","6","6","5","5","5","5","5","5","2","2","2","0","1","2","2","1","5","4","5","5","4","4","4","4","5","4","7","6","6","7","7","5","7","8","7","7","7","6","7","7","6","6","1","6","7","1","6","7","7","6","6","5","6","7","6","7","6","7","7","7","5","7","7","7","7","7","7","7","7","7","7","7","7","7","6","7","602312870918619136","张","630","Male","[""坏我"",""好我"",""好他"",""坏他""]","[""弱我"",""强我"",""强他"",""弱他""]","","","","","","","","1","","","","","","","","","SRET","SRET_math_calculate","","key","1","16.65140186915899","768","428","","","","","10-9= ?","1","1","","","","","","","",""
"1870","","1","psychophysics","116","435264","0.0-7.0-5.0-0.13","7","7","7","6","6","5","5","5","5","5","5","2","2","2","0","1","2","2","1","5","4","5","5","4","4","4","4","5","4","7","6","6","7","7","5","7","8","7","7","7","6","7","7","6","6","1","6","7","1","6","7","7","6","6","5","6","7","6","7","6","7","7","7","5","7","7","7","7","7","7","7","7","7","7","7","7","7","6","7","602312870918619136","张","630","Male","[""坏我"",""好我"",""好他"",""坏他""]","[""弱我"",""强我"",""强他"",""弱他""]","","","","","","","","1","","","","","","","","","SRET","SRET_math_calculate","","key","1","16.652252252252463","768","428","","","","","9-8= ?","1","1","","","","","","","",""
"2831","","9","psychophysics","117","438096","0.0-7.0-5.0-0.14","7","7","7","6","6","5","5","5","5","5","5","2","2","2","0","1","2","2","1","5","4","5","5","4","4","4","4","5","4","7","6","6","7","7","5","7","8","7","7","7","6","7","7","6","6","1","6","7","1","6","7","7","6","6","5","6","7","6","7","6","7","7","7","5","7","7","7","7","7","7","7","7","7","7","7","7","7","6","7","602312870918619136","张","630","Male","[""坏我"",""好我"",""好他"",""坏他""]","[""弱我"",""强我"",""强他"",""弱他""]","","","","","","","","9","","","","","","","","","SRET","SRET_math_calculate","","key","9","16.653846153846153","768","428","","","","","43-34= ?","9","1","","","","","","","",""
"2015","","3","psychophysics","118","440112","0.0-7.0-5.0-0.15","7","7","7","6","6","5","5","5","5","5","5","2","2","2","0","1","2","2","1","5","4","5","5","4","4","4","4","5","4","7","6","6","7","7","5","7","8","7","7","7","6","7","7","6","6","1","6","7","1","6","7","7","6","6","5","6","7","6","7","6","7","7","7","5","7","7","7","7","7","7","7","7","7","7","7","7","7","6","7","602312870918619136","张","630","Male","[""坏我"",""好我"",""好他"",""坏他""]","[""弱我"",""强我"",""强他"",""弱他""]","","","","","","","","3","","","","","","","","","SRET","SRET_math_calculate","","key","3","16.65083333333314","768","428","","","","","12/4= ?","3","1","","","","","","","",""
"1695","","7","psychophysics","119","441808","0.0-7.0-5.0-0.16","7","7","7","6","6","5","5","5","5","5","5","2","2","2","0","1","2","2","1","5","4","5","5","4","4","4","4","5","4","7","6","6","7","7","5","7","8","7","7","7","6","7","7","6","6","1","6","7","1","6","7","7","6","6","5","6","7","6","7","6","7","7","7","5","7","7","7","7","7","7","7","7","7","7","7","7","7","6","7","602312870918619136","张","630","Male","[""坏我"",""好我"",""好他"",""坏他""]","[""弱我"",""强我"",""强他"",""弱他""]","","","","","","","","7","","","","","","","","","SRET","SRET_math_calculate","","key","7","16.65544554455457","768","428","","","","","3+4= ?","7","1","","","","","","","",""
"2191","","5","psychophysics","120","444000","0.0-7.0-5.0-0.17","7","7","7","6","6","5","5","5","5","5","5","2","2","2","0","1","2","2","1","5","4","5","5","4","4","4","4","5","4","7","6","6","7","7","5","7","8","7","7","7","6","7","7","6","6","1","6","7","1","6","7","7","6","6","5","6","7","6","7","6","7","7","7","5","7","7","7","7","7","7","7","7","7","7","7","7","7","6","7","602312870918619136","张","630","Male","[""坏我"",""好我"",""好他"",""坏他""]","[""弱我"",""强我"",""强他"",""弱他""]","","","","","","","","5","","","","","","","","","SRET","SRET_math_calculate","","key","5","16.651145038168295","768","428","","","","","5/1= ?","5","1","","","","","","","",""
"1911","","4","psychophysics","121","445912","0.0-7.0-5.0-0.18","7","7","7","6","6","5","5","5","5","5","5","2","2","2","0","1","2","2","1","5","4","5","5","4","4","4","4","5","4","7","6","6","7","7","5","7","8","7","7","7","6","7","7","6","6","1","6","7","1","6","7","7","6","6","5","6","7","6","7","6","7","7","7","5","7","7","7","7","7","7","7","7","7","7","7","7","7","6","7","602312870918619136","张","630","Male","[""坏我"",""好我"",""好他"",""坏他""]","[""弱我"",""强我"",""强他"",""弱他""]","","","","","","","","4","","","","","","","","","SRET","SRET_math_calculate","","key","4","16.65438596491259","768","428","","","","","3+1= ?","4","1","","","","","","","",""
"1887","","0","psychophysics","122","447800","0.0-7.0-5.0-0.19","7","7","7","6","6","5","5","5","5","5","5","2","2","2","0","1","2","2","1","5","4","5","5","4","4","4","4","5","4","7","6","6","7","7","5","7","8","7","7","7","6","7","7","6","6","1","6","7","1","6","7","7","6","6","5","6","7","6","7","6","7","7","7","5","7","7","7","7","7","7","7","7","7","7","7","7","7","6","7","602312870918619136","张","630","Male","[""坏我"",""好我"",""好他"",""坏他""]","[""弱我"",""强我"",""强他"",""弱他""]","","","","","","","","0","","","","","","","","","SRET","SRET_math_calculate","","key","0","16.648214285714598","768","428","","","","","32-32= ?","0","1","","","","","","","",""
"1775","","4","psychophysics","123","449576","0.0-7.0-5.0-0.20","7","7","7","6","6","5","5","5","5","5","5","2","2","2","0","1","2","2","1","5","4","5","5","4","4","4","4","5","4","7","6","6","7","7","5","7","8","7","7","7","6","7","7","6","6","1","6","7","1","6","7","7","6","6","5","6","7","6","7","6","7","7","7","5","7","7","7","7","7","7","7","7","7","7","7","7","7","6","7","602312870918619136","张","630","Male","[""坏我"",""好我"",""好他"",""坏他""]","[""弱我"",""强我"",""强他"",""弱他""]","","","","","","","","4","","","","","","","","","SRET","SRET_math_calculate","","key","4","16.647169811320534","768","428","","","","","9-5= ?","4","1","","","","","","","",""
"2312","","7","psychophysics","124","451888","0.0-7.0-5.0-0.21","7","7","7","6","6","5","5","5","5","5","5","2","2","2","0","1","2","2","1","5","4","5","5","4","4","4","4","5","4","7","6","6","7","7","5","7","8","7","7","7","6","7","7","6","6","1","6","7","1","6","7","7","6","6","5","6","7","6","7","6","7","7","7","5","7","7","7","7","7","7","7","7","7","7","7","7","7","6","7","602312870918619136","张","630","Male","[""坏我"",""好我"",""好他"",""坏他""]","[""弱我"",""强我"",""强他"",""弱他""]","","","","","","","","7","","","","","","","","","SRET","SRET_math_calculate","","key","7","16.650724637681076","768","428","","","","","11-4= ?","7","1","","","","","","","",""
"1847","","6","psychophysics","125","453736","0.0-7.0-5.0-0.22","7","7","7","6","6","5","5","5","5","5","5","2","2","2","0","1","2","2","1","5","4","5","5","4","4","4","4","5","4","7","6","6","7","7","5","7","8","7","7","7","6","7","7","6","6","1","6","7","1","6","7","7","6","6","5","6","7","6","7","6","7","7","7","5","7","7","7","7","7","7","7","7","7","7","7","7","7","6","7","602312870918619136","张","630","Male","[""坏我"",""好我"",""好他"",""坏他""]","[""弱我"",""强我"",""强他"",""弱他""]","","","","","","","","6","","","","","","","","","SRET","SRET_math_calculate","","key","6","16.65137614678899","768","428","","","","","2+4= ?","6","1","","","","","","","",""
"1598","","7","psychophysics","126","455337","0.0-7.0-5.0-0.23","7","7","7","6","6","5","5","5","5","5","5","2","2","2","0","1","2","2","1","5","4","5","5","4","4","4","4","5","4","7","6","6","7","7","5","7","8","7","7","7","6","7","7","6","6","1","6","7","1","6","7","7","6","6","5","6","7","6","7","6","7","7","7","5","7","7","7","7","7","7","7","7","7","7","7","7","7","6","7","602312870918619136","张","630","Male","[""坏我"",""好我"",""好他"",""坏他""]","[""弱我"",""强我"",""强他"",""弱他""]","","","","","","","","7","","","","","","","","","SRET","SRET_math_calculate","","key","7","16.655208333333576","768","428","","","","","2+5= ?","7","1","","","","","","","",""
"1967","","2","psychophysics","127","457304","0.0-7.0-5.0-0.24","7","7","7","6","6","5","5","5","5","5","5","2","2","2","0","1","2","2","1","5","4","5","5","4","4","4","4","5","4","7","6","6","7","7","5","7","8","7","7","7","6","7","7","6","6","1","6","7","1","6","7","7","6","6","5","6","7","6","7","6","7","7","7","5","7","7","7","7","7","7","7","7","7","7","7","7","7","6","7","602312870918619136","张","630","Male","[""坏我"",""好我"",""好他"",""坏他""]","[""弱我"",""强我"",""强他"",""弱他""]","","","","","","","","2","","","","","","","","","SRET","SRET_math_calculate","","key","2","16.652136752136652","768","428","","","","","90/45= ?","2","1","","","","","","","",""
"1791","","1","psychophysics","128","459096","0.0-7.0-5.0-0.25","7","7","7","6","6","5","5","5","5","5","5","2","2","2","0","1","2","2","1","5","4","5","5","4","4","4","4","5","4","7","6","6","7","7","5","7","8","7","7","7","6","7","7","6","6","1","6","7","1","6","7","7","6","6","5","6","7","6","7","6","7","7","7","5","7","7","7","7","7","7","7","7","7","7","7","7","7","6","7","602312870918619136","张","630","Male","[""坏我"",""好我"",""好他"",""坏他""]","[""弱我"",""强我"",""强他"",""弱他""]","","","","","","","","1","","","","","","","","","SRET","SRET_math_calculate","","key","1","16.64811320754728","768","428","","","","","30-29= ?","1","1","","","","","","","",""
"1816","","3","psychophysics","129","460912","0.0-7.0-5.0-0.26","7","7","7","6","6","5","5","5","5","5","5","2","2","2","0","1","2","2","1","5","4","5","5","4","4","4","4","5","4","7","6","6","7","7","5","7","8","7","7","7","6","7","7","6","6","1","6","7","1","6","7","7","6","6","5","6","7","6","7","6","7","7","7","5","7","7","7","7","7","7","7","7","7","7","7","7","7","6","7","602312870918619136","张","630","Male","[""坏我"",""好我"",""好他"",""坏他""]","[""弱我"",""强我"",""强他"",""弱他""]","","","","","","","","3","","","","","","","","","SRET","SRET_math_calculate","","key","3","16.65185185185207","768","428","","","","","3*1= ?","3","1","","","","","","","",""
"1703","","6","psychophysics","130","462616","0.0-7.0-5.0-0.27","7","7","7","6","6","5","5","5","5","5","5","2","2","2","0","1","2","2","1","5","4","5","5","4","4","4","4","5","4","7","6","6","7","7","5","7","8","7","7","7","6","7","7","6","6","1","6","7","1","6","7","7","6","6","5","6","7","6","7","6","7","7","7","5","7","7","7","7","7","7","7","7","7","7","7","7","7","6","7","602312870918619136","张","630","Male","[""坏我"",""好我"",""好他"",""坏他""]","[""弱我"",""强我"",""强他"",""弱他""]","","","","","","","","6","","","","","","","","","SRET","SRET_math_calculate","","key","6","16.651960784313726","768","428","","","","","2*3= ?","6","1","","","","","","","",""
"1703","","9","psychophysics","131","464321","0.0-7.0-5.0-0.28","7","7","7","6","6","5","5","5","5","5","5","2","2","2","0","1","2","2","1","5","4","5","5","4","4","4","4","5","4","7","6","6","7","7","5","7","8","7","7","7","6","7","7","6","6","1","6","7","1","6","7","7","6","6","5","6","7","6","7","6","7","7","7","5","7","7","7","7","7","7","7","7","7","7","7","7","7","6","7","602312870918619136","张","630","Male","[""坏我"",""好我"",""好他"",""坏他""]","[""弱我"",""强我"",""强他"",""弱他""]","","","","","","","","9","","","","","","","","","SRET","SRET_math_calculate","","key","9","16.651485148515313","768","428","","","","","1+8= ?","9","1","","","","","","","",""
"1782","","2","psychophysics","132","466104","0.0-7.0-5.0-0.29","7","7","7","6","6","5","5","5","5","5","5","2","2","2","0","1","2","2","1","5","4","5","5","4","4","4","4","5","4","7","6","6","7","7","5","7","8","7","7","7","6","7","7","6","6","1","6","7","1","6","7","7","6","6","5","6","7","6","7","6","7","7","7","5","7","7","7","7","7","7","7","7","7","7","7","7","7","6","7","602312870918619136","张","630","Male","[""坏我"",""好我"",""好他"",""坏他""]","[""弱我"",""强我"",""强他"",""弱他""]","","","","","","","","2","","","","","","","","","SRET","SRET_math_calculate","","key","2","16.65566037735849","768","428","","","","","5-3= ?","2","1","","","","","","","",""
"1703","","9","psychophysics","133","467808","0.0-7.0-5.0-0.30","7","7","7","6","6","5","5","5","5","5","5","2","2","2","0","1","2","2","1","5","4","5","5","4","4","4","4","5","4","7","6","6","7","7","5","7","8","7","7","7","6","7","7","6","6","1","6","7","1","6","7","7","6","6","5","6","7","6","7","6","7","7","7","5","7","7","7","7","7","7","7","7","7","7","7","7","7","6","7","602312870918619136","张","630","Male","[""坏我"",""好我"",""好他"",""坏他""]","[""弱我"",""强我"",""强他"",""弱他""]","","","","","","","","9","","","","","","","","","SRET","SRET_math_calculate","","key","9","16.651960784313726","768","428","","","","","1*9= ?","9","1","","","","","","","",""
"1847","","1","psychophysics","134","469656","0.0-7.0-5.0-0.31","7","7","7","6","6","5","5","5","5","5","5","2","2","2","0","1","2","2","1","5","4","5","5","4","4","4","4","5","4","7","6","6","7","7","5","7","8","7","7","7","6","7","7","6","6","1","6","7","1","6","7","7","6","6","5","6","7","6","7","6","7","7","7","5","7","7","7","7","7","7","7","7","7","7","7","7","7","6","7","602312870918619136","张","630","Male","[""坏我"",""好我"",""好他"",""坏他""]","[""弱我"",""强我"",""强他"",""弱他""]","","","","","","","","1","","","","","","","","","SRET","SRET_math_calculate","","key","1","16.649090909090592","768","428","","","","","12/12= ?","1","1","","","","","","","",""
"1640","","2","psychophysics","135","471297","0.0-7.0-5.0-0.32","7","7","7","6","6","5","5","5","5","5","5","2","2","2","0","1","2","2","1","5","4","5","5","4","4","4","4","5","4","7","6","6","7","7","5","7","8","7","7","7","6","7","7","6","6","1","6","7","1","6","7","7","6","6","5","6","7","6","7","6","7","7","7","5","7","7","7","7","7","7","7","7","7","7","7","7","7","6","7","602312870918619136","张","630","Male","[""坏我"",""好我"",""好他"",""坏他""]","[""弱我"",""强我"",""强他"",""弱他""]","","","","","","","","2","","","","","","","","","SRET","SRET_math_calculate","","key","2","16.651546391752696","768","428","","","","","9-7= ?","2","1","","","","","","","",""
"1607","","3","psychophysics","136","472907","0.0-7.0-5.0-0.33","7","7","7","6","6","5","5","5","5","5","5","2","2","2","0","1","2","2","1","5","4","5","5","4","4","4","4","5","4","7","6","6","7","7","5","7","8","7","7","7","6","7","7","6","6","1","6","7","1","6","7","7","6","6","5","6","7","6","7","6","7","7","7","5","7","7","7","7","7","7","7","7","7","7","7","7","7","6","7","602312870918619136","张","630","Male","[""坏我"",""好我"",""好他"",""坏他""]","[""弱我"",""强我"",""强他"",""弱他""]","","","","","","","","3","","","","","","","","","SRET","SRET_math_calculate","","key","3","16.653124999999516","768","428","","","","","9/3= ?","3","1","","","","","","","",""
"1620","","1","psychophysics","137","474528","0.0-7.0-5.0-0.34","7","7","7","6","6","5","5","5","5","5","5","2","2","2","0","1","2","2","1","5","4","5","5","4","4","4","4","5","4","7","6","6","7","7","5","7","8","7","7","7","6","7","7","6","6","1","6","7","1","6","7","7","6","6","5","6","7","6","7","6","7","7","7","5","7","7","7","7","7","7","7","7","7","7","7","7","7","6","7","602312870918619136","张","630","Male","[""坏我"",""好我"",""好他"",""坏他""]","[""弱我"",""强我"",""强他"",""弱他""]","","","","","","","","1","","","","","","","","","SRET","SRET_math_calculate","","key","1","16.647916666666788","768","428","","","","","12-12= ?","0","0","","","","","","","",""
"1919","","5","psychophysics","138","476448","0.0-7.0-5.0-0.35","7","7","7","6","6","5","5","5","5","5","5","2","2","2","0","1","2","2","1","5","4","5","5","4","4","4","4","5","4","7","6","6","7","7","5","7","8","7","7","7","6","7","7","6","6","1","6","7","1","6","7","7","6","6","5","6","7","6","7","6","7","7","7","5","7","7","7","7","7","7","7","7","7","7","7","7","7","6","7","602312870918619136","张","630","Male","[""坏我"",""好我"",""好他"",""坏他""]","[""弱我"",""强我"",""强他"",""弱他""]","","","","","","","","5","","","","","","","","","SRET","SRET_math_calculate","","key","5","16.65087719298256","768","428","","","","","2+3= ?","5","1","","","","","","","",""
"1815","","9","psychophysics","139","478264","0.0-7.0-5.0-0.36","7","7","7","6","6","5","5","5","5","5","5","2","2","2","0","1","2","2","1","5","4","5","5","4","4","4","4","5","4","7","6","6","7","7","5","7","8","7","7","7","6","7","7","6","6","1","6","7","1","6","7","7","6","6","5","6","7","6","7","6","7","7","7","5","7","7","7","7","7","7","7","7","7","7","7","7","7","6","7","602312870918619136","张","630","Male","[""坏我"",""好我"",""好他"",""坏他""]","[""弱我"",""强我"",""强他"",""弱他""]","","","","","","","","9","","","","","","","","","SRET","SRET_math_calculate","","key","9","16.654128440366865","768","428","","","","","18/2= ?","9","1","","","","","","","",""
"1671","","5","psychophysics","140","479936","0.0-7.0-5.0-0.37","7","7","7","6","6","5","5","5","5","5","5","2","2","2","0","1","2","2","1","5","4","5","5","4","4","4","4","5","4","7","6","6","7","7","5","7","8","7","7","7","6","7","7","6","6","1","6","7","1","6","7","7","6","6","5","6","7","6","7","6","7","7","7","5","7","7","7","7","7","7","7","7","7","7","7","7","7","6","7","602312870918619136","张","630","Male","[""坏我"",""好我"",""好他"",""坏他""]","[""弱我"",""强我"",""强他"",""弱他""]","","","","","","","","5","","","","","","","","","SRET","SRET_math_calculate","","key","5","16.646464646464647","768","428","","","","","3+2= ?","5","1","","","","","","","",""
"1911","","8","psychophysics","141","481848","0.0-7.0-5.0-0.38","7","7","7","6","6","5","5","5","5","5","5","2","2","2","0","1","2","2","1","5","4","5","5","4","4","4","4","5","4","7","6","6","7","7","5","7","8","7","7","7","6","7","7","6","6","1","6","7","1","6","7","7","6","6","5","6","7","6","7","6","7","7","7","5","7","7","7","7","7","7","7","7","7","7","7","7","7","6","7","602312870918619136","张","630","Male","[""坏我"",""好我"",""好他"",""坏他""]","[""弱我"",""强我"",""强他"",""弱他""]","","","","","","","","8","","","","","","","","","SRET","SRET_math_calculate","","key","8","16.65614035087709","768","428","","","","","13-5= ?","8","1","","","","","","","",""
"1719","","7","psychophysics","142","483568","0.0-7.0-5.0-0.39","7","7","7","6","6","5","5","5","5","5","5","2","2","2","0","1","2","2","1","5","4","5","5","4","4","4","4","5","4","7","6","6","7","7","5","7","8","7","7","7","6","7","7","6","6","1","6","7","1","6","7","7","6","6","5","6","7","6","7","6","7","7","7","5","7","7","7","7","7","7","7","7","7","7","7","7","7","6","7","602312870918619136","张","630","Male","[""坏我"",""好我"",""好他"",""坏他""]","[""弱我"",""强我"",""强他"",""弱他""]","","","","","","","","7","","","","","","","","","SRET","SRET_math_calculate","","key","7","16.65294117647036","768","428","","","","","4+3= ?","7","1","","","","","","","",""
