"rt","stimulus","response","trial_type","trial_index","time_elapsed","internal_node_id","swb_1","swb_2","swb_3","swb_4","swb_5","LOT_1","LOT_2","LOT_3","LOT_4","LOT_5","LOT_6","IPC_1","IPC_2","IPC_3","IPC_4","IPC_5","IPC_6","IPC_7","IPC_8","MorIden_1","MorIden_2","MorIden_3","MorIden_4","MorIden_5","MorIden_6","MorIden_7","MorIden_8","MorIden_9","MorIden_10","moralSeImag_1","moralSeImag_2","moralSeImag_3","moralSeImag_4","moralSeImag_5","moralSeImag_6","moralSeImag_7","moralSeImag_8","moralSeImag_9","sde_1","sde_2","sde_3","sde_4","sde_5","sde_6","sde_7","sde_8","sde_9","sde_10","trap2","sde_11","sde_12","sde_13","sde_14","sde_15","sde_16","sde_17","sde_18","sde_19","sde_20","IM_1","IM_2","IM_3","IM_4","IM_5","IM_6","IM_7","IM_8","IM_9","IM_10","IM_11","IM_12","IM_13","IM_14","IM_15","IM_16","IM_17","IM_18","IM_19","IM_20","subj_idx","friend_name","ParticipantID","Sex","Word","Word2","value","success","timeout","failed_images","failed_audio","failed_video","user_agent","responses","item_order","radio_event_ids","radio_event_times","key_event_times","mouse_event_times","straightlining","zigzagging","honeypot","view_history","response_type","key_press","avg_frame_time","center_x","center_y","correct_response","correct","identity","Image","word","condition","task_id","screen_id","time_stamp","person","valence","domain","math","status","duration","question_order","trap2_item"
"16870","
   <p><div style='color:white; font-size: 25px'>您好，欢迎参加本次实验。</div></p>
   <p><div style='color:white; font-size: 25px'>为充分保障您的权利，请确保您已经知晓并同意《参与实验同意书》以及《数据公开知情同意书》。</div></p>
   <p><div style='color:white; font-size: 25px'>如果您未见过上述内容，请咨询实验员。</div></p>
   <p style='color:white; font-size: 25px'>如果您选择继续实验，则表示您已经清楚两份知情同意书的内容并同意。</p>
   <p><div style = ""color: pink;font-size:30px;"">请确保您记得day0的实验编号，您将在本次实验输入该编号，若您忘记，请咨询实验员后作答。</div></p>
   <p><div style = ""color:lightblue;font-size:25px;"">请您尽可能认真地作答，我们将依据您在各问卷和按键任务中的作答质量发放报酬。</div></p>
   <p> <div style = ""color: green""><按空格键至下页></div> </p>
   "," ","html-keyboard-response","0","16872","0.0-0.0","5","4","5","6","3","4","3","5","4","5","4","0","-1","0","0","1","2","2","1","4","5","5","5","4","3","4","3","5","4","6","6","7","8","5","5","5","6","7","5","6","3","6","5","2","5","1","6","3","1","3","3","5","4","3","6","4","6","1","5","7","5","4","5","3","6","5","5","7","6","7","5","7","6","6","5","6","6","3","5","779745842755276801","陈","651","Male","[""好我"",""好他"",""坏他"",""坏我""]","[""强我"",""强他"",""弱他"",""弱我""]","","","","","","","","","","","","","","","","","","","","","","","","","","","","","","","","","","","","","","",""
"","","","call-function","1","16874","0.0-1.0-0.0","5","4","5","6","3","4","3","5","4","5","4","0","-1","0","0","1","2","2","1","4","5","5","5","4","3","4","3","5","4","6","6","7","8","5","5","5","6","7","5","6","3","6","5","2","5","1","6","3","1","3","3","5","4","3","6","4","6","1","5","7","5","4","5","3","6","5","5","7","6","7","5","7","6","6","5","6","6","3","5","779745842755276801","陈","651","Male","[""好我"",""好他"",""坏他"",""坏我""]","[""强我"",""强他"",""弱他"",""弱我""]","","","","","","","","","","","","","","","","","","","","","","","","","","","","","","","","","","","","","","",""
"37153","","[{""name"":""Sex"",""value"":""0""},{""name"":""friend_name"",""value"":""陈""},{""name"":""ParticipantID"",""value"":""651""}]","survey-html-form","2","54028","0.0-1.0-1.0","5","4","5","6","3","4","3","5","4","5","4","0","-1","0","0","1","2","2","1","4","5","5","5","4","3","4","3","5","4","6","6","7","8","5","5","5","6","7","5","6","3","6","5","2","5","1","6","3","1","3","3","5","4","3","6","4","6","1","5","7","5","4","5","3","6","5","5","7","6","7","5","7","6","6","5","6","6","3","5","779745842755276801","陈","651","Male","[""好我"",""好他"",""坏他"",""坏我""]","[""强我"",""强他"",""弱他"",""弱我""]","","","","","","","","","","","","","","","","","","","","","","","","","","","","","","","","","","","","","","",""
"","","","preload","3","54428","0.0-2.0","5","4","5","6","3","4","3","5","4","5","4","0","-1","0","0","1","2","2","1","4","5","5","5","4","3","4","3","5","4","6","6","7","8","5","5","5","6","7","5","6","3","6","5","2","5","1","6","3","1","3","3","5","4","3","6","4","6","1","5","7","5","4","5","3","6","5","5","7","6","7","5","7","6","6","5","6","6","3","5","779745842755276801","陈","651","Male","[""好我"",""好他"",""坏他"",""坏我""]","[""强我"",""强他"",""弱他"",""弱我""]","","true","false","[]","[]","[]","","","","","","","","","","","","","","","","","","","","","","","","","","","","","","","","",""
"","","","fullscreen","4","60867","0.0-3.0","5","4","5","6","3","4","3","5","4","5","4","0","-1","0","0","1","2","2","1","4","5","5","5","4","3","4","3","5","4","6","6","7","8","5","5","5","6","7","5","6","3","6","5","2","5","1","6","3","1","3","3","5","4","3","6","4","6","1","5","7","5","4","5","3","6","5","5","7","6","7","5","7","6","6","5","6","6","3","5","779745842755276801","陈","651","Male","[""好我"",""好他"",""坏他"",""坏我""]","[""强我"",""强他"",""弱他"",""弱我""]","","true","","","","","{}","","","","","","","","","","","","","","","","","","","","","","","","","","","","","","","",""
"20662.099999964237","","{""Q01"":""5"",""Q02"":""4"",""Q03"":""5"",""Q04"":""6"",""Q05"":""3""}","survey-template","5","81531","0.0-4.0","5","4","5","6","3","4","3","5","4","5","4","0","-1","0","0","1","2","2","1","4","5","5","5","4","3","4","3","5","4","6","6","7","8","5","5","5","6","7","5","6","3","6","5","2","5","1","6","3","1","3","3","5","4","3","6","4","6","1","5","7","5","4","5","3","6","5","5","7","6","7","5","7","6","6","5","6","6","3","5","779745842755276801","陈","651","Male","[""好我"",""好他"",""坏他"",""坏我""]","[""强我"",""强他"",""弱他"",""弱我""]","","","","","","","","{""Q01"":""5"",""Q02"":""4"",""Q03"":""5"",""Q04"":""6"",""Q05"":""3""}","[0,1,2,3,4]","[""Q05"",""Q04"",""Q03"",""Q02"",""Q01"",""Q04""]","[5724,8037.199999988079,9312.699999988079,10714.899999976158,12479.699999988079,16584.099999964237]","[]","[5724,8037.199999988079,9312.699999988079,10714.899999976158,12479.699999988079,16584.099999964237,20661.30000001192]","0.4","0.75","0","","","","","","","","","","","","","","","","","","","","","","",""
"32947","","{""Q01"":""4"",""Q02"":""3"",""Q03"":""5"",""Q04"":""4"",""Q05"":""5"",""Q06"":""4""}","survey-template","6","114481","0.0-5.0","5","4","5","6","3","4","3","5","4","5","4","0","-1","0","0","1","2","2","1","4","5","5","5","4","3","4","3","5","4","6","6","7","8","5","5","5","6","7","5","6","3","6","5","2","5","1","6","3","1","3","3","5","4","3","6","4","6","1","5","7","5","4","5","3","6","5","5","7","6","7","5","7","6","6","5","6","6","3","5","779745842755276801","陈","651","Male","[""好我"",""好他"",""坏他"",""坏我""]","[""强我"",""强他"",""弱他"",""弱我""]","","","","","","","","{""Q01"":""4"",""Q02"":""3"",""Q03"":""5"",""Q04"":""4"",""Q05"":""5"",""Q06"":""4""}","[0,1,2,3,4,5]","[""Q03"",""Q04"",""Q05"",""Q06"",""Q01"",""Q02""]","[3678,6606.5,8076.899999976158,10760.699999988079,12428.299999952316,16474.099999964237]","[]","[3678,6606.5,8076.899999976158,10760.699999988079,12428.299999952316,16474.099999964237,32946.39999997616]","0.3333333333333333","0.4","0","","","","","","","","","","","","","","","","","","","","","","",""
"37379.80000001192","","{""Q01"":""0"",""Q02"":""-1"",""Q03"":""0"",""Q04"":""0"",""Q05"":""1"",""Q06"":""2"",""Q07"":""2"",""Q08"":""1""}","survey-template","7","151864","0.0-6.0","5","4","5","6","3","4","3","5","4","5","4","0","-1","0","0","1","2","2","1","4","5","5","5","4","3","4","3","5","4","6","6","7","8","5","5","5","6","7","5","6","3","6","5","2","5","1","6","3","1","3","3","5","4","3","6","4","6","1","5","7","5","4","5","3","6","5","5","7","6","7","5","7","6","6","5","6","6","3","5","779745842755276801","陈","651","Male","[""好我"",""好他"",""坏他"",""坏我""]","[""强我"",""强他"",""弱他"",""弱我""]","","","","","","","","{""Q01"":""0"",""Q02"":""-1"",""Q03"":""0"",""Q04"":""0"",""Q05"":""1"",""Q06"":""2"",""Q07"":""2"",""Q08"":""1""}","[0,1,2,3,4,5,6,7]","[""Q08"",""Q06"",""Q07"",""Q05"",""Q04"",""Q03"",""Q02"",""Q01""]","[3399.100000023842,5067.5,7060.100000023842,8511.400000035763,15103.900000035763,16909.5,19938.600000023842,23164.5]","[]","[3399.100000023842,5067.5,7060.100000023842,8511.400000035763,15103.900000035763,16909.5,19938.600000023842,23164.5,37378.80000001192]","0.375","0.7142857142857143","0","","","","","","","","","","","","","","","","","","","","","","",""
"34015","","","instructions","8","185880","0.0-7.0","5","4","5","6","3","4","3","5","4","5","4","0","-1","0","0","1","2","2","1","4","5","5","5","4","3","4","3","5","4","6","6","7","8","5","5","5","6","7","5","6","3","6","5","2","5","1","6","3","1","3","3","5","4","3","6","4","6","1","5","7","5","4","5","3","6","5","5","7","6","7","5","7","6","6","5","6","6","3","5","779745842755276801","陈","651","Male","[""好我"",""好他"",""坏他"",""坏我""]","[""强我"",""强他"",""弱他"",""弱我""]","","","","","","","","","","","","","","","","","[{""page_index"":0,""viewing_time"":34014}]","","","","","","","","","","","","","","","","","","","","","",""
"212913","","","instructions","9","398795","0.0-8.0-0.0-0.0","5","4","5","6","3","4","3","5","4","5","4","0","-1","0","0","1","2","2","1","4","5","5","5","4","3","4","3","5","4","6","6","7","8","5","5","5","6","7","5","6","3","6","5","2","5","1","6","3","1","3","3","5","4","3","6","4","6","1","5","7","5","4","5","3","6","5","5","7","6","7","5","7","6","6","5","6","6","3","5","779745842755276801","陈","651","Male","[""好我"",""好他"",""坏他"",""坏我""]","[""强我"",""强他"",""弱他"",""弱我""]","","","","","","","","","","","","","","","","","[{""page_index"":0,""viewing_time"":10192},{""page_index"":1,""viewing_time"":148982},{""page_index"":2,""viewing_time"":11163},{""page_index"":3,""viewing_time"":42576}]","","","","","","","","","","","","","","","","","","","","","",""
"1113","","j","psychophysics","10","400911","0.0-8.0-0.0-1.0-0.0-0.0","5","4","5","6","3","4","3","5","4","5","4","0","-1","0","0","1","2","2","1","4","5","5","5","4","3","4","3","5","4","6","6","7","8","5","5","5","6","7","5","6","3","6","5","2","5","1","6","3","1","3","3","5","4","3","6","4","6","1","5","7","5","4","5","3","6","5","5","7","6","7","5","7","6","6","5","6","6","3","5","779745842755276801","陈","651","Male","[""好我"",""好他"",""坏他"",""坏我""]","[""强我"",""强他"",""弱他"",""弱我""]","","","","","","","","match","","","","","","","","","","key","j","16.65317460317497","640","356","j","true","match","img/triangle.png","坏我","坏我","prac_ALT2_moral","practice_moral","","","","","","","","",""
"null","<span style='color:GreenYellow; font-size: 70px;'>正确! </span>","null","html-keyboard-response","11","401414","0.0-8.0-0.0-1.0-0.0-1.0","5","4","5","6","3","4","3","5","4","5","4","0","-1","0","0","1","2","2","1","4","5","5","5","4","3","4","3","5","4","6","6","7","8","5","5","5","6","7","5","6","3","6","5","2","5","1","6","3","1","3","3","5","4","3","6","4","6","1","5","7","5","4","5","3","6","5","5","7","6","7","5","7","6","6","5","6","6","3","5","779745842755276801","陈","651","Male","[""好我"",""好他"",""坏他"",""坏我""]","[""强我"",""强他"",""弱他"",""弱我""]","","","","","","","","","","","","","","","","","","","","","","","","","","","","","","feedback_test","","","","","","","","",""
"805","","f","psychophysics","12","403220","0.0-8.0-0.0-1.0-0.0-0.1","5","4","5","6","3","4","3","5","4","5","4","0","-1","0","0","1","2","2","1","4","5","5","5","4","3","4","3","5","4","6","6","7","8","5","5","5","6","7","5","6","3","6","5","2","5","1","6","3","1","3","3","5","4","3","6","4","6","1","5","7","5","4","5","3","6","5","5","7","6","7","5","7","6","6","5","6","6","3","5","779745842755276801","陈","651","Male","[""好我"",""好他"",""坏他"",""坏我""]","[""强我"",""强他"",""弱他"",""弱我""]","","","","","","","","nonmatch","","","","","","","","","","key","f","16.654205607476637","640","356","f","true","nonmatch","img/circle.png","坏他","好我","prac_ALT2_moral","practice_moral","","","","","","","","",""
"null","<span style='color:GreenYellow; font-size: 70px;'>正确! </span>","null","html-keyboard-response","13","403721","0.0-8.0-0.0-1.0-0.0-1.1","5","4","5","6","3","4","3","5","4","5","4","0","-1","0","0","1","2","2","1","4","5","5","5","4","3","4","3","5","4","6","6","7","8","5","5","5","6","7","5","6","3","6","5","2","5","1","6","3","1","3","3","5","4","3","6","4","6","1","5","7","5","4","5","3","6","5","5","7","6","7","5","7","6","6","5","6","6","3","5","779745842755276801","陈","651","Male","[""好我"",""好他"",""坏他"",""坏我""]","[""强我"",""强他"",""弱他"",""弱我""]","","","","","","","","","","","","","","","","","","","","","","","","","","","","","","feedback_test","","","","","","","","",""
"773","","f","psychophysics","14","405495","0.0-8.0-0.0-1.0-0.0-0.2","5","4","5","6","3","4","3","5","4","5","4","0","-1","0","0","1","2","2","1","4","5","5","5","4","3","4","3","5","4","6","6","7","8","5","5","5","6","7","5","6","3","6","5","2","5","1","6","3","1","3","3","5","4","3","6","4","6","1","5","7","5","4","5","3","6","5","5","7","6","7","5","7","6","6","5","6","6","3","5","779745842755276801","陈","651","Male","[""好我"",""好他"",""坏他"",""坏我""]","[""强我"",""强他"",""弱他"",""弱我""]","","","","","","","","nonmatch","","","","","","","","","","key","f","16.652830188679356","640","356","f","true","nonmatch","img/triangle.png","好我","坏我","prac_ALT2_moral","practice_moral","","","","","","","","",""
"null","<span style='color:GreenYellow; font-size: 70px;'>正确! </span>","null","html-keyboard-response","15","405995","0.0-8.0-0.0-1.0-0.0-1.2","5","4","5","6","3","4","3","5","4","5","4","0","-1","0","0","1","2","2","1","4","5","5","5","4","3","4","3","5","4","6","6","7","8","5","5","5","6","7","5","6","3","6","5","2","5","1","6","3","1","3","3","5","4","3","6","4","6","1","5","7","5","4","5","3","6","5","5","7","6","7","5","7","6","6","5","6","6","3","5","779745842755276801","陈","651","Male","[""好我"",""好他"",""坏他"",""坏我""]","[""强我"",""强他"",""弱他"",""弱我""]","","","","","","","","","","","","","","","","","","","","","","","","","","","","","","feedback_test","","","","","","","","",""
"848","","j","psychophysics","16","407845","0.0-8.0-0.0-1.0-0.0-0.3","5","4","5","6","3","4","3","5","4","5","4","0","-1","0","0","1","2","2","1","4","5","5","5","4","3","4","3","5","4","6","6","7","8","5","5","5","6","7","5","6","3","6","5","2","5","1","6","3","1","3","3","5","4","3","6","4","6","1","5","7","5","4","5","3","6","5","5","7","6","7","5","7","6","6","5","6","6","3","5","779745842755276801","陈","651","Male","[""好我"",""好他"",""坏他"",""坏我""]","[""强我"",""强他"",""弱他"",""弱我""]","","","","","","","","match","","","","","","","","","","key","j","16.653636363636046","640","356","j","true","match","img/circle.png","好我","好我","prac_ALT2_moral","practice_moral","","","","","","","","",""
"null","<span style='color:GreenYellow; font-size: 70px;'>正确! </span>","null","html-keyboard-response","17","408346","0.0-8.0-0.0-1.0-0.0-1.3","5","4","5","6","3","4","3","5","4","5","4","0","-1","0","0","1","2","2","1","4","5","5","5","4","3","4","3","5","4","6","6","7","8","5","5","5","6","7","5","6","3","6","5","2","5","1","6","3","1","3","3","5","4","3","6","4","6","1","5","7","5","4","5","3","6","5","5","7","6","7","5","7","6","6","5","6","6","3","5","779745842755276801","陈","651","Male","[""好我"",""好他"",""坏他"",""坏我""]","[""强我"",""强他"",""弱他"",""弱我""]","","","","","","","","","","","","","","","","","","","","","","","","","","","","","","feedback_test","","","","","","","","",""
"675","","f","psychophysics","18","410023","0.0-8.0-0.0-1.0-0.0-0.4","5","4","5","6","3","4","3","5","4","5","4","0","-1","0","0","1","2","2","1","4","5","5","5","4","3","4","3","5","4","6","6","7","8","5","5","5","6","7","5","6","3","6","5","2","5","1","6","3","1","3","3","5","4","3","6","4","6","1","5","7","5","4","5","3","6","5","5","7","6","7","5","7","6","6","5","6","6","3","5","779745842755276801","陈","651","Male","[""好我"",""好他"",""坏他"",""坏我""]","[""强我"",""强他"",""弱他"",""弱我""]","","","","","","","","nonmatch","","","","","","","","","","key","f","16.653000000000464","640","356","f","true","nonmatch","img/circle.png","坏我","好我","prac_ALT2_moral","practice_moral","","","","","","","","",""
"null","<span style='color:GreenYellow; font-size: 70px;'>正确! </span>","null","html-keyboard-response","19","410524","0.0-8.0-0.0-1.0-0.0-1.4","5","4","5","6","3","4","3","5","4","5","4","0","-1","0","0","1","2","2","1","4","5","5","5","4","3","4","3","5","4","6","6","7","8","5","5","5","6","7","5","6","3","6","5","2","5","1","6","3","1","3","3","5","4","3","6","4","6","1","5","7","5","4","5","3","6","5","5","7","6","7","5","7","6","6","5","6","6","3","5","779745842755276801","陈","651","Male","[""好我"",""好他"",""坏他"",""坏我""]","[""强我"",""强他"",""弱他"",""弱我""]","","","","","","","","","","","","","","","","","","","","","","","","","","","","","","feedback_test","","","","","","","","",""
"832","","f","psychophysics","20","412357","0.0-8.0-0.0-1.0-0.0-0.5","5","4","5","6","3","4","3","5","4","5","4","0","-1","0","0","1","2","2","1","4","5","5","5","4","3","4","3","5","4","6","6","7","8","5","5","5","6","7","5","6","3","6","5","2","5","1","6","3","1","3","3","5","4","3","6","4","6","1","5","7","5","4","5","3","6","5","5","7","6","7","5","7","6","6","5","6","6","3","5","779745842755276801","陈","651","Male","[""好我"",""好他"",""坏他"",""坏我""]","[""强我"",""强他"",""弱他"",""弱我""]","","","","","","","","nonmatch","","","","","","","","","","key","f","16.6541284403674","640","356","f","true","nonmatch","img/circle.png","好他","好我","prac_ALT2_moral","practice_moral","","","","","","","","",""
"null","<span style='color:GreenYellow; font-size: 70px;'>正确! </span>","null","html-keyboard-response","21","412858","0.0-8.0-0.0-1.0-0.0-1.5","5","4","5","6","3","4","3","5","4","5","4","0","-1","0","0","1","2","2","1","4","5","5","5","4","3","4","3","5","4","6","6","7","8","5","5","5","6","7","5","6","3","6","5","2","5","1","6","3","1","3","3","5","4","3","6","4","6","1","5","7","5","4","5","3","6","5","5","7","6","7","5","7","6","6","5","6","6","3","5","779745842755276801","陈","651","Male","[""好我"",""好他"",""坏他"",""坏我""]","[""强我"",""强他"",""弱他"",""弱我""]","","","","","","","","","","","","","","","","","","","","","","","","","","","","","","feedback_test","","","","","","","","",""
"900","","f","psychophysics","22","414761","0.0-8.0-0.0-1.0-0.0-0.6","5","4","5","6","3","4","3","5","4","5","4","0","-1","0","0","1","2","2","1","4","5","5","5","4","3","4","3","5","4","6","6","7","8","5","5","5","6","7","5","6","3","6","5","2","5","1","6","3","1","3","3","5","4","3","6","4","6","1","5","7","5","4","5","3","6","5","5","7","6","7","5","7","6","6","5","6","6","3","5","779745842755276801","陈","651","Male","[""好我"",""好他"",""坏他"",""坏我""]","[""强我"",""强他"",""弱他"",""弱我""]","","","","","","","","nonmatch","","","","","","","","","","key","f","16.653097345133155","640","356","f","true","nonmatch","img/pentagon.png","好他","坏他","prac_ALT2_moral","practice_moral","","","","","","","","",""
"null","<span style='color:GreenYellow; font-size: 70px;'>正确! </span>","null","html-keyboard-response","23","415262","0.0-8.0-0.0-1.0-0.0-1.6","5","4","5","6","3","4","3","5","4","5","4","0","-1","0","0","1","2","2","1","4","5","5","5","4","3","4","3","5","4","6","6","7","8","5","5","5","6","7","5","6","3","6","5","2","5","1","6","3","1","3","3","5","4","3","6","4","6","1","5","7","5","4","5","3","6","5","5","7","6","7","5","7","6","6","5","6","6","3","5","779745842755276801","陈","651","Male","[""好我"",""好他"",""坏他"",""坏我""]","[""强我"",""强他"",""弱他"",""弱我""]","","","","","","","","","","","","","","","","","","","","","","","","","","","","","","feedback_test","","","","","","","","",""
"696","","j","psychophysics","24","416960","0.0-8.0-0.0-1.0-0.0-0.7","5","4","5","6","3","4","3","5","4","5","4","0","-1","0","0","1","2","2","1","4","5","5","5","4","3","4","3","5","4","6","6","7","8","5","5","5","6","7","5","6","3","6","5","2","5","1","6","3","1","3","3","5","4","3","6","4","6","1","5","7","5","4","5","3","6","5","5","7","6","7","5","7","6","6","5","6","6","3","5","779745842755276801","陈","651","Male","[""好我"",""好他"",""坏他"",""坏我""]","[""强我"",""强他"",""弱他"",""弱我""]","","","","","","","","match","","","","","","","","","","key","j","16.6544554455449","640","356","j","true","match","img/circle.png","好我","好我","prac_ALT2_moral","practice_moral","","","","","","","","",""
"null","<span style='color:GreenYellow; font-size: 70px;'>正确! </span>","null","html-keyboard-response","25","417460","0.0-8.0-0.0-1.0-0.0-1.7","5","4","5","6","3","4","3","5","4","5","4","0","-1","0","0","1","2","2","1","4","5","5","5","4","3","4","3","5","4","6","6","7","8","5","5","5","6","7","5","6","3","6","5","2","5","1","6","3","1","3","3","5","4","3","6","4","6","1","5","7","5","4","5","3","6","5","5","7","6","7","5","7","6","6","5","6","6","3","5","779745842755276801","陈","651","Male","[""好我"",""好他"",""坏他"",""坏我""]","[""强我"",""强他"",""弱他"",""弱我""]","","","","","","","","","","","","","","","","","","","","","","","","","","","","","","feedback_test","","","","","","","","",""
"587","","j","psychophysics","26","419049","0.0-8.0-0.0-1.0-0.0-0.8","5","4","5","6","3","4","3","5","4","5","4","0","-1","0","0","1","2","2","1","4","5","5","5","4","3","4","3","5","4","6","6","7","8","5","5","5","6","7","5","6","3","6","5","2","5","1","6","3","1","3","3","5","4","3","6","4","6","1","5","7","5","4","5","3","6","5","5","7","6","7","5","7","6","6","5","6","6","3","5","779745842755276801","陈","651","Male","[""好我"",""好他"",""坏他"",""坏我""]","[""强我"",""强他"",""弱他"",""弱我""]","","","","","","","","match","","","","","","","","","","key","j","16.65684210526279","640","356","j","true","match","img/circle.png","好我","好我","prac_ALT2_moral","practice_moral","","","","","","","","",""
"null","<span style='color:GreenYellow; font-size: 70px;'>正确! </span>","null","html-keyboard-response","27","419555","0.0-8.0-0.0-1.0-0.0-1.8","5","4","5","6","3","4","3","5","4","5","4","0","-1","0","0","1","2","2","1","4","5","5","5","4","3","4","3","5","4","6","6","7","8","5","5","5","6","7","5","6","3","6","5","2","5","1","6","3","1","3","3","5","4","3","6","4","6","1","5","7","5","4","5","3","6","5","5","7","6","7","5","7","6","6","5","6","6","3","5","779745842755276801","陈","651","Male","[""好我"",""好他"",""坏他"",""坏我""]","[""强我"",""强他"",""弱他"",""弱我""]","","","","","","","","","","","","","","","","","","","","","","","","","","","","","","feedback_test","","","","","","","","",""
"794","","j","psychophysics","28","421350","0.0-8.0-0.0-1.0-0.0-0.9","5","4","5","6","3","4","3","5","4","5","4","0","-1","0","0","1","2","2","1","4","5","5","5","4","3","4","3","5","4","6","6","7","8","5","5","5","6","7","5","6","3","6","5","2","5","1","6","3","1","3","3","5","4","3","6","4","6","1","5","7","5","4","5","3","6","5","5","7","6","7","5","7","6","6","5","6","6","3","5","779745842755276801","陈","651","Male","[""好我"",""好他"",""坏他"",""坏我""]","[""强我"",""强他"",""弱他"",""弱我""]","","","","","","","","match","","","","","","","","","","key","j","16.65607476635525","640","356","j","true","match","img/pentagon.png","坏他","坏他","prac_ALT2_moral","practice_moral","","","","","","","","",""
"null","<span style='color:GreenYellow; font-size: 70px;'>正确! </span>","null","html-keyboard-response","29","421851","0.0-8.0-0.0-1.0-0.0-1.9","5","4","5","6","3","4","3","5","4","5","4","0","-1","0","0","1","2","2","1","4","5","5","5","4","3","4","3","5","4","6","6","7","8","5","5","5","6","7","5","6","3","6","5","2","5","1","6","3","1","3","3","5","4","3","6","4","6","1","5","7","5","4","5","3","6","5","5","7","6","7","5","7","6","6","5","6","6","3","5","779745842755276801","陈","651","Male","[""好我"",""好他"",""坏他"",""坏我""]","[""强我"",""强他"",""弱他"",""弱我""]","","","","","","","","","","","","","","","","","","","","","","","","","","","","","","feedback_test","","","","","","","","",""
"651","","j","psychophysics","30","423505","0.0-8.0-0.0-1.0-0.0-0.10","5","4","5","6","3","4","3","5","4","5","4","0","-1","0","0","1","2","2","1","4","5","5","5","4","3","4","3","5","4","6","6","7","8","5","5","5","6","7","5","6","3","6","5","2","5","1","6","3","1","3","3","5","4","3","6","4","6","1","5","7","5","4","5","3","6","5","5","7","6","7","5","7","6","6","5","6","6","3","5","779745842755276801","陈","651","Male","[""好我"",""好他"",""坏他"",""坏我""]","[""强我"",""强他"",""弱他"",""弱我""]","","","","","","","","match","","","","","","","","","","key","j","16.656122448979474","640","356","j","true","match","img/pentagon.png","坏他","坏他","prac_ALT2_moral","practice_moral","","","","","","","","",""
"null","<span style='color:GreenYellow; font-size: 70px;'>正确! </span>","null","html-keyboard-response","31","424006","0.0-8.0-0.0-1.0-0.0-1.10","5","4","5","6","3","4","3","5","4","5","4","0","-1","0","0","1","2","2","1","4","5","5","5","4","3","4","3","5","4","6","6","7","8","5","5","5","6","7","5","6","3","6","5","2","5","1","6","3","1","3","3","5","4","3","6","4","6","1","5","7","5","4","5","3","6","5","5","7","6","7","5","7","6","6","5","6","6","3","5","779745842755276801","陈","651","Male","[""好我"",""好他"",""坏他"",""坏我""]","[""强我"",""强他"",""弱他"",""弱我""]","","","","","","","","","","","","","","","","","","","","","","","","","","","","","","feedback_test","","","","","","","","",""
"961","","f","psychophysics","32","425969","0.0-8.0-0.0-1.0-0.0-0.11","5","4","5","6","3","4","3","5","4","5","4","0","-1","0","0","1","2","2","1","4","5","5","5","4","3","4","3","5","4","6","6","7","8","5","5","5","6","7","5","6","3","6","5","2","5","1","6","3","1","3","3","5","4","3","6","4","6","1","5","7","5","4","5","3","6","5","5","7","6","7","5","7","6","6","5","6","6","3","5","779745842755276801","陈","651","Male","[""好我"",""好他"",""坏他"",""坏我""]","[""强我"",""强他"",""弱他"",""弱我""]","","","","","","","","nonmatch","","","","","","","","","","key","f","16.652991452991156","640","356","f","true","nonmatch","img/diamond.png","坏我","好他","prac_ALT2_moral","practice_moral","","","","","","","","",""
"null","<span style='color:GreenYellow; font-size: 70px;'>正确! </span>","null","html-keyboard-response","33","426471","0.0-8.0-0.0-1.0-0.0-1.11","5","4","5","6","3","4","3","5","4","5","4","0","-1","0","0","1","2","2","1","4","5","5","5","4","3","4","3","5","4","6","6","7","8","5","5","5","6","7","5","6","3","6","5","2","5","1","6","3","1","3","3","5","4","3","6","4","6","1","5","7","5","4","5","3","6","5","5","7","6","7","5","7","6","6","5","6","6","3","5","779745842755276801","陈","651","Male","[""好我"",""好他"",""坏他"",""坏我""]","[""强我"",""强他"",""弱他"",""弱我""]","","","","","","","","","","","","","","","","","","","","","","","","","","","","","","feedback_test","","","","","","","","",""
"826","","f","psychophysics","34","428298","0.0-8.0-0.0-1.0-0.0-0.12","5","4","5","6","3","4","3","5","4","5","4","0","-1","0","0","1","2","2","1","4","5","5","5","4","3","4","3","5","4","6","6","7","8","5","5","5","6","7","5","6","3","6","5","2","5","1","6","3","1","3","3","5","4","3","6","4","6","1","5","7","5","4","5","3","6","5","5","7","6","7","5","7","6","6","5","6","6","3","5","779745842755276801","陈","651","Male","[""好我"",""好他"",""坏他"",""坏我""]","[""强我"",""强他"",""弱他"",""弱我""]","","","","","","","","nonmatch","","","","","","","","","","key","f","16.653211009173884","640","356","j","false","match","img/pentagon.png","坏他","坏他","prac_ALT2_moral","practice_moral","","","","","","","","",""
"null","<span style='color:red; font-size: 70px;'>错误! </span>","null","html-keyboard-response","35","428800","0.0-8.0-0.0-1.0-0.0-1.12","5","4","5","6","3","4","3","5","4","5","4","0","-1","0","0","1","2","2","1","4","5","5","5","4","3","4","3","5","4","6","6","7","8","5","5","5","6","7","5","6","3","6","5","2","5","1","6","3","1","3","3","5","4","3","6","4","6","1","5","7","5","4","5","3","6","5","5","7","6","7","5","7","6","6","5","6","6","3","5","779745842755276801","陈","651","Male","[""好我"",""好他"",""坏他"",""坏我""]","[""强我"",""强他"",""弱他"",""弱我""]","","","","","","","","","","","","","","","","","","","","","","","","","","","","","","feedback_test","","","","","","","","",""
"1004","","f","psychophysics","36","430807","0.0-8.0-0.0-1.0-0.0-0.13","5","4","5","6","3","4","3","5","4","5","4","0","-1","0","0","1","2","2","1","4","5","5","5","4","3","4","3","5","4","6","6","7","8","5","5","5","6","7","5","6","3","6","5","2","5","1","6","3","1","3","3","5","4","3","6","4","6","1","5","7","5","4","5","3","6","5","5","7","6","7","5","7","6","6","5","6","6","3","5","779745842755276801","陈","651","Male","[""好我"",""好他"",""坏他"",""坏我""]","[""强我"",""强他"",""弱他"",""弱我""]","","","","","","","","nonmatch","","","","","","","","","","key","f","16.652499999999904","640","356","f","true","nonmatch","img/triangle.png","坏他","坏我","prac_ALT2_moral","practice_moral","","","","","","","","",""
"null","<span style='color:GreenYellow; font-size: 70px;'>正确! </span>","null","html-keyboard-response","37","431308","0.0-8.0-0.0-1.0-0.0-1.13","5","4","5","6","3","4","3","5","4","5","4","0","-1","0","0","1","2","2","1","4","5","5","5","4","3","4","3","5","4","6","6","7","8","5","5","5","6","7","5","6","3","6","5","2","5","1","6","3","1","3","3","5","4","3","6","4","6","1","5","7","5","4","5","3","6","5","5","7","6","7","5","7","6","6","5","6","6","3","5","779745842755276801","陈","651","Male","[""好我"",""好他"",""坏他"",""坏我""]","[""强我"",""强他"",""弱他"",""弱我""]","","","","","","","","","","","","","","","","","","","","","","","","","","","","","","feedback_test","","","","","","","","",""
"979","","j","psychophysics","38","433289","0.0-8.0-0.0-1.0-0.0-0.14","5","4","5","6","3","4","3","5","4","5","4","0","-1","0","0","1","2","2","1","4","5","5","5","4","3","4","3","5","4","6","6","7","8","5","5","5","6","7","5","6","3","6","5","2","5","1","6","3","1","3","3","5","4","3","6","4","6","1","5","7","5","4","5","3","6","5","5","7","6","7","5","7","6","6","5","6","6","3","5","779745842755276801","陈","651","Male","[""好我"",""好他"",""坏他"",""坏我""]","[""强我"",""强他"",""弱他"",""弱我""]","","","","","","","","match","","","","","","","","","","key","j","16.653389830508278","640","356","j","true","match","img/diamond.png","好他","好他","prac_ALT2_moral","practice_moral","","","","","","","","",""
"null","<span style='color:GreenYellow; font-size: 70px;'>正确! </span>","null","html-keyboard-response","39","433789","0.0-8.0-0.0-1.0-0.0-1.14","5","4","5","6","3","4","3","5","4","5","4","0","-1","0","0","1","2","2","1","4","5","5","5","4","3","4","3","5","4","6","6","7","8","5","5","5","6","7","5","6","3","6","5","2","5","1","6","3","1","3","3","5","4","3","6","4","6","1","5","7","5","4","5","3","6","5","5","7","6","7","5","7","6","6","5","6","6","3","5","779745842755276801","陈","651","Male","[""好我"",""好他"",""坏他"",""坏我""]","[""强我"",""强他"",""弱他"",""弱我""]","","","","","","","","","","","","","","","","","","","","","","","","","","","","","","feedback_test","","","","","","","","",""
"628","","j","psychophysics","40","435419","0.0-8.0-0.0-1.0-0.0-0.15","5","4","5","6","3","4","3","5","4","5","4","0","-1","0","0","1","2","2","1","4","5","5","5","4","3","4","3","5","4","6","6","7","8","5","5","5","6","7","5","6","3","6","5","2","5","1","6","3","1","3","3","5","4","3","6","4","6","1","5","7","5","4","5","3","6","5","5","7","6","7","5","7","6","6","5","6","6","3","5","779745842755276801","陈","651","Male","[""好我"",""好他"",""坏他"",""坏我""]","[""强我"",""强他"",""弱他"",""弱我""]","","","","","","","","match","","","","","","","","","","key","j","16.652577319587508","640","356","j","true","match","img/diamond.png","好他","好他","prac_ALT2_moral","practice_moral","","","","","","","","",""
"null","<span style='color:GreenYellow; font-size: 70px;'>正确! </span>","null","html-keyboard-response","41","435924","0.0-8.0-0.0-1.0-0.0-1.15","5","4","5","6","3","4","3","5","4","5","4","0","-1","0","0","1","2","2","1","4","5","5","5","4","3","4","3","5","4","6","6","7","8","5","5","5","6","7","5","6","3","6","5","2","5","1","6","3","1","3","3","5","4","3","6","4","6","1","5","7","5","4","5","3","6","5","5","7","6","7","5","7","6","6","5","6","6","3","5","779745842755276801","陈","651","Male","[""好我"",""好他"",""坏他"",""坏我""]","[""强我"",""强他"",""弱他"",""弱我""]","","","","","","","","","","","","","","","","","","","","","","","","","","","","","","feedback_test","","","","","","","","",""
"1048","","f","psychophysics","42","437973","0.0-8.0-0.0-1.0-0.0-0.16","5","4","5","6","3","4","3","5","4","5","4","0","-1","0","0","1","2","2","1","4","5","5","5","4","3","4","3","5","4","6","6","7","8","5","5","5","6","7","5","6","3","6","5","2","5","1","6","3","1","3","3","5","4","3","6","4","6","1","5","7","5","4","5","3","6","5","5","7","6","7","5","7","6","6","5","6","6","3","5","779745842755276801","陈","651","Male","[""好我"",""好他"",""坏他"",""坏我""]","[""强我"",""强他"",""弱他"",""弱我""]","","","","","","","","nonmatch","","","","","","","","","","key","f","16.653278688524686","640","356","f","true","nonmatch","img/pentagon.png","好我","坏他","prac_ALT2_moral","practice_moral","","","","","","","","",""
"null","<span style='color:GreenYellow; font-size: 70px;'>正确! </span>","null","html-keyboard-response","43","438474","0.0-8.0-0.0-1.0-0.0-1.16","5","4","5","6","3","4","3","5","4","5","4","0","-1","0","0","1","2","2","1","4","5","5","5","4","3","4","3","5","4","6","6","7","8","5","5","5","6","7","5","6","3","6","5","2","5","1","6","3","1","3","3","5","4","3","6","4","6","1","5","7","5","4","5","3","6","5","5","7","6","7","5","7","6","6","5","6","6","3","5","779745842755276801","陈","651","Male","[""好我"",""好他"",""坏他"",""坏我""]","[""强我"",""强他"",""弱他"",""弱我""]","","","","","","","","","","","","","","","","","","","","","","","","","","","","","","feedback_test","","","","","","","","",""
"886","","f","psychophysics","44","440362","0.0-8.0-0.0-1.0-0.0-0.17","5","4","5","6","3","4","3","5","4","5","4","0","-1","0","0","1","2","2","1","4","5","5","5","4","3","4","3","5","4","6","6","7","8","5","5","5","6","7","5","6","3","6","5","2","5","1","6","3","1","3","3","5","4","3","6","4","6","1","5","7","5","4","5","3","6","5","5","7","6","7","5","7","6","6","5","6","6","3","5","779745842755276801","陈","651","Male","[""好我"",""好他"",""坏他"",""坏我""]","[""强我"",""强他"",""弱他"",""弱我""]","","","","","","","","nonmatch","","","","","","","","","","key","f","16.65625","640","356","j","false","match","img/diamond.png","好他","好他","prac_ALT2_moral","practice_moral","","","","","","","","",""
"null","<span style='color:red; font-size: 70px;'>错误! </span>","null","html-keyboard-response","45","440863","0.0-8.0-0.0-1.0-0.0-1.17","5","4","5","6","3","4","3","5","4","5","4","0","-1","0","0","1","2","2","1","4","5","5","5","4","3","4","3","5","4","6","6","7","8","5","5","5","6","7","5","6","3","6","5","2","5","1","6","3","1","3","3","5","4","3","6","4","6","1","5","7","5","4","5","3","6","5","5","7","6","7","5","7","6","6","5","6","6","3","5","779745842755276801","陈","651","Male","[""好我"",""好他"",""坏他"",""坏我""]","[""强我"",""强他"",""弱他"",""弱我""]","","","","","","","","","","","","","","","","","","","","","","","","","","","","","","feedback_test","","","","","","","","",""
"609","","j","psychophysics","46","442473","0.0-8.0-0.0-1.0-0.0-0.18","5","4","5","6","3","4","3","5","4","5","4","0","-1","0","0","1","2","2","1","4","5","5","5","4","3","4","3","5","4","6","6","7","8","5","5","5","6","7","5","6","3","6","5","2","5","1","6","3","1","3","3","5","4","3","6","4","6","1","5","7","5","4","5","3","6","5","5","7","6","7","5","7","6","6","5","6","6","3","5","779745842755276801","陈","651","Male","[""好我"",""好他"",""坏他"",""坏我""]","[""强我"",""强他"",""弱他"",""弱我""]","","","","","","","","match","","","","","","","","","","key","j","16.65368421052607","640","356","f","false","nonmatch","img/triangle.png","好他","坏我","prac_ALT2_moral","practice_moral","","","","","","","","",""
"null","<span style='color:red; font-size: 70px;'>错误! </span>","null","html-keyboard-response","47","442974","0.0-8.0-0.0-1.0-0.0-1.18","5","4","5","6","3","4","3","5","4","5","4","0","-1","0","0","1","2","2","1","4","5","5","5","4","3","4","3","5","4","6","6","7","8","5","5","5","6","7","5","6","3","6","5","2","5","1","6","3","1","3","3","5","4","3","6","4","6","1","5","7","5","4","5","3","6","5","5","7","6","7","5","7","6","6","5","6","6","3","5","779745842755276801","陈","651","Male","[""好我"",""好他"",""坏他"",""坏我""]","[""强我"",""强他"",""弱他"",""弱我""]","","","","","","","","","","","","","","","","","","","","","","","","","","","","","","feedback_test","","","","","","","","",""
"998","","f","psychophysics","48","444974","0.0-8.0-0.0-1.0-0.0-0.19","5","4","5","6","3","4","3","5","4","5","4","0","-1","0","0","1","2","2","1","4","5","5","5","4","3","4","3","5","4","6","6","7","8","5","5","5","6","7","5","6","3","6","5","2","5","1","6","3","1","3","3","5","4","3","6","4","6","1","5","7","5","4","5","3","6","5","5","7","6","7","5","7","6","6","5","6","6","3","5","779745842755276801","陈","651","Male","[""好我"",""好他"",""坏他"",""坏我""]","[""强我"",""强他"",""弱他"",""弱我""]","","","","","","","","nonmatch","","","","","","","","","","key","f","16.653781512604944","640","356","j","false","match","img/triangle.png","坏我","坏我","prac_ALT2_moral","practice_moral","","","","","","","","",""
"null","<span style='color:red; font-size: 70px;'>错误! </span>","null","html-keyboard-response","49","445476","0.0-8.0-0.0-1.0-0.0-1.19","5","4","5","6","3","4","3","5","4","5","4","0","-1","0","0","1","2","2","1","4","5","5","5","4","3","4","3","5","4","6","6","7","8","5","5","5","6","7","5","6","3","6","5","2","5","1","6","3","1","3","3","5","4","3","6","4","6","1","5","7","5","4","5","3","6","5","5","7","6","7","5","7","6","6","5","6","6","3","5","779745842755276801","陈","651","Male","[""好我"",""好他"",""坏他"",""坏我""]","[""强我"",""强他"",""弱他"",""弱我""]","","","","","","","","","","","","","","","","","","","","","","","","","","","","","","feedback_test","","","","","","","","",""
"829","","j","psychophysics","50","447306","0.0-8.0-0.0-1.0-0.0-0.20","5","4","5","6","3","4","3","5","4","5","4","0","-1","0","0","1","2","2","1","4","5","5","5","4","3","4","3","5","4","6","6","7","8","5","5","5","6","7","5","6","3","6","5","2","5","1","6","3","1","3","3","5","4","3","6","4","6","1","5","7","5","4","5","3","6","5","5","7","6","7","5","7","6","6","5","6","6","3","5","779745842755276801","陈","651","Male","[""好我"",""好他"",""坏他"",""坏我""]","[""强我"",""强他"",""弱他"",""弱我""]","","","","","","","","match","","","","","","","","","","key","j","16.65648148148116","640","356","f","false","nonmatch","img/pentagon.png","坏我","坏他","prac_ALT2_moral","practice_moral","","","","","","","","",""
"null","<span style='color:red; font-size: 70px;'>错误! </span>","null","html-keyboard-response","51","447807","0.0-8.0-0.0-1.0-0.0-1.20","5","4","5","6","3","4","3","5","4","5","4","0","-1","0","0","1","2","2","1","4","5","5","5","4","3","4","3","5","4","6","6","7","8","5","5","5","6","7","5","6","3","6","5","2","5","1","6","3","1","3","3","5","4","3","6","4","6","1","5","7","5","4","5","3","6","5","5","7","6","7","5","7","6","6","5","6","6","3","5","779745842755276801","陈","651","Male","[""好我"",""好他"",""坏他"",""坏我""]","[""强我"",""强他"",""弱他"",""弱我""]","","","","","","","","","","","","","","","","","","","","","","","","","","","","","","feedback_test","","","","","","","","",""
"739","","j","psychophysics","52","449549","0.0-8.0-0.0-1.0-0.0-0.21","5","4","5","6","3","4","3","5","4","5","4","0","-1","0","0","1","2","2","1","4","5","5","5","4","3","4","3","5","4","6","6","7","8","5","5","5","6","7","5","6","3","6","5","2","5","1","6","3","1","3","3","5","4","3","6","4","6","1","5","7","5","4","5","3","6","5","5","7","6","7","5","7","6","6","5","6","6","3","5","779745842755276801","陈","651","Male","[""好我"",""好他"",""坏他"",""坏我""]","[""强我"",""强他"",""弱他"",""弱我""]","","","","","","","","match","","","","","","","","","","key","j","16.653398058252314","640","356","f","false","nonmatch","img/diamond.png","好我","好他","prac_ALT2_moral","practice_moral","","","","","","","","",""
"null","<span style='color:red; font-size: 70px;'>错误! </span>","null","html-keyboard-response","53","450050","0.0-8.0-0.0-1.0-0.0-1.21","5","4","5","6","3","4","3","5","4","5","4","0","-1","0","0","1","2","2","1","4","5","5","5","4","3","4","3","5","4","6","6","7","8","5","5","5","6","7","5","6","3","6","5","2","5","1","6","3","1","3","3","5","4","3","6","4","6","1","5","7","5","4","5","3","6","5","5","7","6","7","5","7","6","6","5","6","6","3","5","779745842755276801","陈","651","Male","[""好我"",""好他"",""坏他"",""坏我""]","[""强我"",""强他"",""弱他"",""弱我""]","","","","","","","","","","","","","","","","","","","","","","","","","","","","","","feedback_test","","","","","","","","",""
"960","","f","psychophysics","54","452011","0.0-8.0-0.0-1.0-0.0-0.22","5","4","5","6","3","4","3","5","4","5","4","0","-1","0","0","1","2","2","1","4","5","5","5","4","3","4","3","5","4","6","6","7","8","5","5","5","6","7","5","6","3","6","5","2","5","1","6","3","1","3","3","5","4","3","6","4","6","1","5","7","5","4","5","3","6","5","5","7","6","7","5","7","6","6","5","6","6","3","5","779745842755276801","陈","651","Male","[""好我"",""好他"",""坏他"",""坏我""]","[""强我"",""强他"",""弱他"",""弱我""]","","","","","","","","nonmatch","","","","","","","","","","key","f","16.655555555555654","640","356","j","false","match","img/triangle.png","坏我","坏我","prac_ALT2_moral","practice_moral","","","","","","","","",""
"null","<span style='color:red; font-size: 70px;'>错误! </span>","null","html-keyboard-response","55","452511","0.0-8.0-0.0-1.0-0.0-1.22","5","4","5","6","3","4","3","5","4","5","4","0","-1","0","0","1","2","2","1","4","5","5","5","4","3","4","3","5","4","6","6","7","8","5","5","5","6","7","5","6","3","6","5","2","5","1","6","3","1","3","3","5","4","3","6","4","6","1","5","7","5","4","5","3","6","5","5","7","6","7","5","7","6","6","5","6","6","3","5","779745842755276801","陈","651","Male","[""好我"",""好他"",""坏他"",""坏我""]","[""强我"",""强他"",""弱他"",""弱我""]","","","","","","","","","","","","","","","","","","","","","","","","","","","","","","feedback_test","","","","","","","","",""
"1090","","f","psychophysics","56","454603","0.0-8.0-0.0-1.0-0.0-0.23","5","4","5","6","3","4","3","5","4","5","4","0","-1","0","0","1","2","2","1","4","5","5","5","4","3","4","3","5","4","6","6","7","8","5","5","5","6","7","5","6","3","6","5","2","5","1","6","3","1","3","3","5","4","3","6","4","6","1","5","7","5","4","5","3","6","5","5","7","6","7","5","7","6","6","5","6","6","3","5","779745842755276801","陈","651","Male","[""好我"",""好他"",""坏他"",""坏我""]","[""强我"",""强他"",""弱他"",""弱我""]","","","","","","","","nonmatch","","","","","","","","","","key","f","16.652799999999814","640","356","f","true","nonmatch","img/diamond.png","坏他","好他","prac_ALT2_moral","practice_moral","","","","","","","","",""
"null","<span style='color:GreenYellow; font-size: 70px;'>正确! </span>","null","html-keyboard-response","57","455104","0.0-8.0-0.0-1.0-0.0-1.23","5","4","5","6","3","4","3","5","4","5","4","0","-1","0","0","1","2","2","1","4","5","5","5","4","3","4","3","5","4","6","6","7","8","5","5","5","6","7","5","6","3","6","5","2","5","1","6","3","1","3","3","5","4","3","6","4","6","1","5","7","5","4","5","3","6","5","5","7","6","7","5","7","6","6","5","6","6","3","5","779745842755276801","陈","651","Male","[""好我"",""好他"",""坏他"",""坏我""]","[""强我"",""强他"",""弱他"",""弱我""]","","","","","","","","","","","","","","","","","","","","","","","","","","","","","","feedback_test","","","","","","","","",""
"990","","f","psychophysics","58","457097","0.0-8.0-0.0-1.0-0.0-0.24","5","4","5","6","3","4","3","5","4","5","4","0","-1","0","0","1","2","2","1","4","5","5","5","4","3","4","3","5","4","6","6","7","8","5","5","5","6","7","5","6","3","6","5","2","5","1","6","3","1","3","3","5","4","3","6","4","6","1","5","7","5","4","5","3","6","5","5","7","6","7","5","7","6","6","5","6","6","3","5","779745842755276801","陈","651","Male","[""好我"",""好他"",""坏他"",""坏我""]","[""强我"",""强他"",""弱他"",""弱我""]","","","","","","","","nonmatch","","","","","","","","","","key","f","16.65338983050877","640","356","f","true","nonmatch","img/pentagon.png","好他","坏他","prac_ALT2_moral","practice_moral","","","","","","","","",""
"null","<span style='color:GreenYellow; font-size: 70px;'>正确! </span>","null","html-keyboard-response","59","457598","0.0-8.0-0.0-1.0-0.0-1.24","5","4","5","6","3","4","3","5","4","5","4","0","-1","0","0","1","2","2","1","4","5","5","5","4","3","4","3","5","4","6","6","7","8","5","5","5","6","7","5","6","3","6","5","2","5","1","6","3","1","3","3","5","4","3","6","4","6","1","5","7","5","4","5","3","6","5","5","7","6","7","5","7","6","6","5","6","6","3","5","779745842755276801","陈","651","Male","[""好我"",""好他"",""坏他"",""坏我""]","[""强我"",""强他"",""弱他"",""弱我""]","","","","","","","","","","","","","","","","","","","","","","","","","","","","","","feedback_test","","","","","","","","",""
"1012","","j","psychophysics","60","459613","0.0-8.0-0.0-1.0-0.0-0.25","5","4","5","6","3","4","3","5","4","5","4","0","-1","0","0","1","2","2","1","4","5","5","5","4","3","4","3","5","4","6","6","7","8","5","5","5","6","7","5","6","3","6","5","2","5","1","6","3","1","3","3","5","4","3","6","4","6","1","5","7","5","4","5","3","6","5","5","7","6","7","5","7","6","6","5","6","6","3","5","779745842755276801","陈","651","Male","[""好我"",""好他"",""坏他"",""坏我""]","[""强我"",""强他"",""弱他"",""弱我""]","","","","","","","","match","","","","","","","","","","key","j","16.653781512604944","640","356","j","true","match","img/diamond.png","好他","好他","prac_ALT2_moral","practice_moral","","","","","","","","",""
"null","<span style='color:GreenYellow; font-size: 70px;'>正确! </span>","null","html-keyboard-response","61","460114","0.0-8.0-0.0-1.0-0.0-1.25","5","4","5","6","3","4","3","5","4","5","4","0","-1","0","0","1","2","2","1","4","5","5","5","4","3","4","3","5","4","6","6","7","8","5","5","5","6","7","5","6","3","6","5","2","5","1","6","3","1","3","3","5","4","3","6","4","6","1","5","7","5","4","5","3","6","5","5","7","6","7","5","7","6","6","5","6","6","3","5","779745842755276801","陈","651","Male","[""好我"",""好他"",""坏他"",""坏我""]","[""强我"",""强他"",""弱他"",""弱我""]","","","","","","","","","","","","","","","","","","","","","","","","","","","","","","feedback_test","","","","","","","","",""
"1073","","f","psychophysics","62","462189","0.0-8.0-0.0-1.0-0.0-0.26","5","4","5","6","3","4","3","5","4","5","4","0","-1","0","0","1","2","2","1","4","5","5","5","4","3","4","3","5","4","6","6","7","8","5","5","5","6","7","5","6","3","6","5","2","5","1","6","3","1","3","3","5","4","3","6","4","6","1","5","7","5","4","5","3","6","5","5","7","6","7","5","7","6","6","5","6","6","3","5","779745842755276801","陈","651","Male","[""好我"",""好他"",""坏他"",""坏我""]","[""强我"",""强他"",""弱他"",""弱我""]","","","","","","","","nonmatch","","","","","","","","","","key","f","16.653658536585557","640","356","f","true","nonmatch","img/triangle.png","好我","坏我","prac_ALT2_moral","practice_moral","","","","","","","","",""
"null","<span style='color:GreenYellow; font-size: 70px;'>正确! </span>","null","html-keyboard-response","63","462690","0.0-8.0-0.0-1.0-0.0-1.26","5","4","5","6","3","4","3","5","4","5","4","0","-1","0","0","1","2","2","1","4","5","5","5","4","3","4","3","5","4","6","6","7","8","5","5","5","6","7","5","6","3","6","5","2","5","1","6","3","1","3","3","5","4","3","6","4","6","1","5","7","5","4","5","3","6","5","5","7","6","7","5","7","6","6","5","6","6","3","5","779745842755276801","陈","651","Male","[""好我"",""好他"",""坏他"",""坏我""]","[""强我"",""强他"",""弱他"",""弱我""]","","","","","","","","","","","","","","","","","","","","","","","","","","","","","","feedback_test","","","","","","","","",""
"861","","f","psychophysics","64","464553","0.0-8.0-0.0-1.0-0.0-0.27","5","4","5","6","3","4","3","5","4","5","4","0","-1","0","0","1","2","2","1","4","5","5","5","4","3","4","3","5","4","6","6","7","8","5","5","5","6","7","5","6","3","6","5","2","5","1","6","3","1","3","3","5","4","3","6","4","6","1","5","7","5","4","5","3","6","5","5","7","6","7","5","7","6","6","5","6","6","3","5","779745842755276801","陈","651","Male","[""好我"",""好他"",""坏他"",""坏我""]","[""强我"",""强他"",""弱他"",""弱我""]","","","","","","","","nonmatch","","","","","","","","","","key","f","16.652252252251937","640","356","f","true","nonmatch","img/pentagon.png","坏我","坏他","prac_ALT2_moral","practice_moral","","","","","","","","",""
"null","<span style='color:GreenYellow; font-size: 70px;'>正确! </span>","null","html-keyboard-response","65","465055","0.0-8.0-0.0-1.0-0.0-1.27","5","4","5","6","3","4","3","5","4","5","4","0","-1","0","0","1","2","2","1","4","5","5","5","4","3","4","3","5","4","6","6","7","8","5","5","5","6","7","5","6","3","6","5","2","5","1","6","3","1","3","3","5","4","3","6","4","6","1","5","7","5","4","5","3","6","5","5","7","6","7","5","7","6","6","5","6","6","3","5","779745842755276801","陈","651","Male","[""好我"",""好他"",""坏他"",""坏我""]","[""强我"",""强他"",""弱他"",""弱我""]","","","","","","","","","","","","","","","","","","","","","","","","","","","","","","feedback_test","","","","","","","","",""
"1077","","f","psychophysics","66","467132","0.0-8.0-0.0-1.0-0.0-0.28","5","4","5","6","3","4","3","5","4","5","4","0","-1","0","0","1","2","2","1","4","5","5","5","4","3","4","3","5","4","6","6","7","8","5","5","5","6","7","5","6","3","6","5","2","5","1","6","3","1","3","3","5","4","3","6","4","6","1","5","7","5","4","5","3","6","5","5","7","6","7","5","7","6","6","5","6","6","3","5","779745842755276801","陈","651","Male","[""好我"",""好他"",""坏他"",""坏我""]","[""强我"",""强他"",""弱他"",""弱我""]","","","","","","","","nonmatch","","","","","","","","","","key","f","16.653225806451612","640","356","f","true","nonmatch","img/diamond.png","坏我","好他","prac_ALT2_moral","practice_moral","","","","","","","","",""
"null","<span style='color:GreenYellow; font-size: 70px;'>正确! </span>","null","html-keyboard-response","67","467634","0.0-8.0-0.0-1.0-0.0-1.28","5","4","5","6","3","4","3","5","4","5","4","0","-1","0","0","1","2","2","1","4","5","5","5","4","3","4","3","5","4","6","6","7","8","5","5","5","6","7","5","6","3","6","5","2","5","1","6","3","1","3","3","5","4","3","6","4","6","1","5","7","5","4","5","3","6","5","5","7","6","7","5","7","6","6","5","6","6","3","5","779745842755276801","陈","651","Male","[""好我"",""好他"",""坏他"",""坏我""]","[""强我"",""强他"",""弱他"",""弱我""]","","","","","","","","","","","","","","","","","","","","","","","","","","","","","","feedback_test","","","","","","","","",""
"1009","","f","psychophysics","68","469645","0.0-8.0-0.0-1.0-0.0-0.29","5","4","5","6","3","4","3","5","4","5","4","0","-1","0","0","1","2","2","1","4","5","5","5","4","3","4","3","5","4","6","6","7","8","5","5","5","6","7","5","6","3","6","5","2","5","1","6","3","1","3","3","5","4","3","6","4","6","1","5","7","5","4","5","3","6","5","5","7","6","7","5","7","6","6","5","6","6","3","5","779745842755276801","陈","651","Male","[""好我"",""好他"",""坏他"",""坏我""]","[""强我"",""强他"",""弱他"",""弱我""]","","","","","","","","nonmatch","","","","","","","","","","key","f","16.65333333333304","640","356","j","false","match","img/triangle.png","坏我","坏我","prac_ALT2_moral","practice_moral","","","","","","","","",""
"null","<span style='color:red; font-size: 70px;'>错误! </span>","null","html-keyboard-response","69","470146","0.0-8.0-0.0-1.0-0.0-1.29","5","4","5","6","3","4","3","5","4","5","4","0","-1","0","0","1","2","2","1","4","5","5","5","4","3","4","3","5","4","6","6","7","8","5","5","5","6","7","5","6","3","6","5","2","5","1","6","3","1","3","3","5","4","3","6","4","6","1","5","7","5","4","5","3","6","5","5","7","6","7","5","7","6","6","5","6","6","3","5","779745842755276801","陈","651","Male","[""好我"",""好他"",""坏他"",""坏我""]","[""强我"",""强他"",""弱他"",""弱我""]","","","","","","","","","","","","","","","","","","","","","","","","","","","","","","feedback_test","","","","","","","","",""
"831","","j","psychophysics","70","471979","0.0-8.0-0.0-1.0-0.0-0.30","5","4","5","6","3","4","3","5","4","5","4","0","-1","0","0","1","2","2","1","4","5","5","5","4","3","4","3","5","4","6","6","7","8","5","5","5","6","7","5","6","3","6","5","2","5","1","6","3","1","3","3","5","4","3","6","4","6","1","5","7","5","4","5","3","6","5","5","7","6","7","5","7","6","6","5","6","6","3","5","779745842755276801","陈","651","Male","[""好我"",""好他"",""坏他"",""坏我""]","[""强我"",""强他"",""弱他"",""弱我""]","","","","","","","","match","","","","","","","","","","key","j","16.654128440366865","640","356","j","true","match","img/pentagon.png","坏他","坏他","prac_ALT2_moral","practice_moral","","","","","","","","",""
"null","<span style='color:GreenYellow; font-size: 70px;'>正确! </span>","null","html-keyboard-response","71","472481","0.0-8.0-0.0-1.0-0.0-1.30","5","4","5","6","3","4","3","5","4","5","4","0","-1","0","0","1","2","2","1","4","5","5","5","4","3","4","3","5","4","6","6","7","8","5","5","5","6","7","5","6","3","6","5","2","5","1","6","3","1","3","3","5","4","3","6","4","6","1","5","7","5","4","5","3","6","5","5","7","6","7","5","7","6","6","5","6","6","3","5","779745842755276801","陈","651","Male","[""好我"",""好他"",""坏他"",""坏我""]","[""强我"",""强他"",""弱他"",""弱我""]","","","","","","","","","","","","","","","","","","","","","","","","","","","","","","feedback_test","","","","","","","","",""
"869","","f","psychophysics","72","474350","0.0-8.0-0.0-1.0-0.0-0.31","5","4","5","6","3","4","3","5","4","5","4","0","-1","0","0","1","2","2","1","4","5","5","5","4","3","4","3","5","4","6","6","7","8","5","5","5","6","7","5","6","3","6","5","2","5","1","6","3","1","3","3","5","4","3","6","4","6","1","5","7","5","4","5","3","6","5","5","7","6","7","5","7","6","6","5","6","6","3","5","779745842755276801","陈","651","Male","[""好我"",""好他"",""坏他"",""坏我""]","[""强我"",""强他"",""弱他"",""弱我""]","","","","","","","","nonmatch","","","","","","","","","","key","f","16.653153153153152","640","356","f","true","nonmatch","img/circle.png","坏我","好我","prac_ALT2_moral","practice_moral","","","","","","","","",""
"null","<span style='color:GreenYellow; font-size: 70px;'>正确! </span>","null","html-keyboard-response","73","474851","0.0-8.0-0.0-1.0-0.0-1.31","5","4","5","6","3","4","3","5","4","5","4","0","-1","0","0","1","2","2","1","4","5","5","5","4","3","4","3","5","4","6","6","7","8","5","5","5","6","7","5","6","3","6","5","2","5","1","6","3","1","3","3","5","4","3","6","4","6","1","5","7","5","4","5","3","6","5","5","7","6","7","5","7","6","6","5","6","6","3","5","779745842755276801","陈","651","Male","[""好我"",""好他"",""坏他"",""坏我""]","[""强我"",""强他"",""弱他"",""弱我""]","","","","","","","","","","","","","","","","","","","","","","","","","","","","","","feedback_test","","","","","","","","",""
"767","","j","psychophysics","74","476619","0.0-8.0-0.0-1.0-0.0-0.32","5","4","5","6","3","4","3","5","4","5","4","0","-1","0","0","1","2","2","1","4","5","5","5","4","3","4","3","5","4","6","6","7","8","5","5","5","6","7","5","6","3","6","5","2","5","1","6","3","1","3","3","5","4","3","6","4","6","1","5","7","5","4","5","3","6","5","5","7","6","7","5","7","6","6","5","6","6","3","5","779745842755276801","陈","651","Male","[""好我"",""好他"",""坏他"",""坏我""]","[""强我"",""强他"",""弱他"",""弱我""]","","","","","","","","match","","","","","","","","","","key","j","16.649523809523366","640","356","j","true","match","img/pentagon.png","坏他","坏他","prac_ALT2_moral","practice_moral","","","","","","","","",""
"null","<span style='color:GreenYellow; font-size: 70px;'>正确! </span>","null","html-keyboard-response","75","477120","0.0-8.0-0.0-1.0-0.0-1.32","5","4","5","6","3","4","3","5","4","5","4","0","-1","0","0","1","2","2","1","4","5","5","5","4","3","4","3","5","4","6","6","7","8","5","5","5","6","7","5","6","3","6","5","2","5","1","6","3","1","3","3","5","4","3","6","4","6","1","5","7","5","4","5","3","6","5","5","7","6","7","5","7","6","6","5","6","6","3","5","779745842755276801","陈","651","Male","[""好我"",""好他"",""坏他"",""坏我""]","[""强我"",""强他"",""弱他"",""弱我""]","","","","","","","","","","","","","","","","","","","","","","","","","","","","","","feedback_test","","","","","","","","",""
"1066","","j","psychophysics","76","479188","0.0-8.0-0.0-1.0-0.0-0.33","5","4","5","6","3","4","3","5","4","5","4","0","-1","0","0","1","2","2","1","4","5","5","5","4","3","4","3","5","4","6","6","7","8","5","5","5","6","7","5","6","3","6","5","2","5","1","6","3","1","3","3","5","4","3","6","4","6","1","5","7","5","4","5","3","6","5","5","7","6","7","5","7","6","6","5","6","6","3","5","779745842755276801","陈","651","Male","[""好我"",""好他"",""坏他"",""坏我""]","[""强我"",""强他"",""弱他"",""弱我""]","","","","","","","","match","","","","","","","","","","key","j","16.653658536585557","640","356","j","true","match","img/diamond.png","好他","好他","prac_ALT2_moral","practice_moral","","","","","","","","",""
"null","<span style='color:GreenYellow; font-size: 70px;'>正确! </span>","null","html-keyboard-response","77","479688","0.0-8.0-0.0-1.0-0.0-1.33","5","4","5","6","3","4","3","5","4","5","4","0","-1","0","0","1","2","2","1","4","5","5","5","4","3","4","3","5","4","6","6","7","8","5","5","5","6","7","5","6","3","6","5","2","5","1","6","3","1","3","3","5","4","3","6","4","6","1","5","7","5","4","5","3","6","5","5","7","6","7","5","7","6","6","5","6","6","3","5","779745842755276801","陈","651","Male","[""好我"",""好他"",""坏他"",""坏我""]","[""强我"",""强他"",""弱他"",""弱我""]","","","","","","","","","","","","","","","","","","","","","","","","","","","","","","feedback_test","","","","","","","","",""
"707","","j","psychophysics","78","481397","0.0-8.0-0.0-1.0-0.0-0.34","5","4","5","6","3","4","3","5","4","5","4","0","-1","0","0","1","2","2","1","4","5","5","5","4","3","4","3","5","4","6","6","7","8","5","5","5","6","7","5","6","3","6","5","2","5","1","6","3","1","3","3","5","4","3","6","4","6","1","5","7","5","4","5","3","6","5","5","7","6","7","5","7","6","6","5","6","6","3","5","779745842755276801","陈","651","Male","[""好我"",""好他"",""坏他"",""坏我""]","[""强我"",""强他"",""弱他"",""弱我""]","","","","","","","","match","","","","","","","","","","key","j","16.653465346534652","640","356","j","true","match","img/circle.png","好我","好我","prac_ALT2_moral","practice_moral","","","","","","","","",""
"null","<span style='color:GreenYellow; font-size: 70px;'>正确! </span>","null","html-keyboard-response","79","481897","0.0-8.0-0.0-1.0-0.0-1.34","5","4","5","6","3","4","3","5","4","5","4","0","-1","0","0","1","2","2","1","4","5","5","5","4","3","4","3","5","4","6","6","7","8","5","5","5","6","7","5","6","3","6","5","2","5","1","6","3","1","3","3","5","4","3","6","4","6","1","5","7","5","4","5","3","6","5","5","7","6","7","5","7","6","6","5","6","6","3","5","779745842755276801","陈","651","Male","[""好我"",""好他"",""坏他"",""坏我""]","[""强我"",""强他"",""弱他"",""弱我""]","","","","","","","","","","","","","","","","","","","","","","","","","","","","","","feedback_test","","","","","","","","",""
"704","","f","psychophysics","80","483603","0.0-8.0-0.0-1.0-0.0-0.35","5","4","5","6","3","4","3","5","4","5","4","0","-1","0","0","1","2","2","1","4","5","5","5","4","3","4","3","5","4","6","6","7","8","5","5","5","6","7","5","6","3","6","5","2","5","1","6","3","1","3","3","5","4","3","6","4","6","1","5","7","5","4","5","3","6","5","5","7","6","7","5","7","6","6","5","6","6","3","5","779745842755276801","陈","651","Male","[""好我"",""好他"",""坏他"",""坏我""]","[""强我"",""强他"",""弱他"",""弱我""]","","","","","","","","nonmatch","","","","","","","","","","key","f","16.653465346534652","640","356","f","true","nonmatch","img/pentagon.png","好我","坏他","prac_ALT2_moral","practice_moral","","","","","","","","",""
"null","<span style='color:GreenYellow; font-size: 70px;'>正确! </span>","null","html-keyboard-response","81","484105","0.0-8.0-0.0-1.0-0.0-1.35","5","4","5","6","3","4","3","5","4","5","4","0","-1","0","0","1","2","2","1","4","5","5","5","4","3","4","3","5","4","6","6","7","8","5","5","5","6","7","5","6","3","6","5","2","5","1","6","3","1","3","3","5","4","3","6","4","6","1","5","7","5","4","5","3","6","5","5","7","6","7","5","7","6","6","5","6","6","3","5","779745842755276801","陈","651","Male","[""好我"",""好他"",""坏他"",""坏我""]","[""强我"",""强他"",""弱他"",""弱我""]","","","","","","","","","","","","","","","","","","","","","","","","","","","","","","feedback_test","","","","","","","","",""
"788","","f","psychophysics","82","485894","0.0-8.0-0.0-1.0-0.0-0.36","5","4","5","6","3","4","3","5","4","5","4","0","-1","0","0","1","2","2","1","4","5","5","5","4","3","4","3","5","4","6","6","7","8","5","5","5","6","7","5","6","3","6","5","2","5","1","6","3","1","3","3","5","4","3","6","4","6","1","5","7","5","4","5","3","6","5","5","7","6","7","5","7","6","6","5","6","6","3","5","779745842755276801","陈","651","Male","[""好我"",""好他"",""坏他"",""坏我""]","[""强我"",""强他"",""弱他"",""弱我""]","","","","","","","","nonmatch","","","","","","","","","","key","f","16.652336448598565","640","356","f","true","nonmatch","img/circle.png","好他","好我","prac_ALT2_moral","practice_moral","","","","","","","","",""
"null","<span style='color:GreenYellow; font-size: 70px;'>正确! </span>","null","html-keyboard-response","83","486396","0.0-8.0-0.0-1.0-0.0-1.36","5","4","5","6","3","4","3","5","4","5","4","0","-1","0","0","1","2","2","1","4","5","5","5","4","3","4","3","5","4","6","6","7","8","5","5","5","6","7","5","6","3","6","5","2","5","1","6","3","1","3","3","5","4","3","6","4","6","1","5","7","5","4","5","3","6","5","5","7","6","7","5","7","6","6","5","6","6","3","5","779745842755276801","陈","651","Male","[""好我"",""好他"",""坏他"",""坏我""]","[""强我"",""强他"",""弱他"",""弱我""]","","","","","","","","","","","","","","","","","","","","","","","","","","","","","","feedback_test","","","","","","","","",""
"890","","j","psychophysics","84","488287","0.0-8.0-0.0-1.0-0.0-0.37","5","4","5","6","3","4","3","5","4","5","4","0","-1","0","0","1","2","2","1","4","5","5","5","4","3","4","3","5","4","6","6","7","8","5","5","5","6","7","5","6","3","6","5","2","5","1","6","3","1","3","3","5","4","3","6","4","6","1","5","7","5","4","5","3","6","5","5","7","6","7","5","7","6","6","5","6","6","3","5","779745842755276801","陈","651","Male","[""好我"",""好他"",""坏他"",""坏我""]","[""强我"",""强他"",""弱他"",""弱我""]","","","","","","","","match","","","","","","","","","","key","j","16.655357142856833","640","356","j","true","match","img/triangle.png","坏我","坏我","prac_ALT2_moral","practice_moral","","","","","","","","",""
"null","<span style='color:GreenYellow; font-size: 70px;'>正确! </span>","null","html-keyboard-response","85","488789","0.0-8.0-0.0-1.0-0.0-1.37","5","4","5","6","3","4","3","5","4","5","4","0","-1","0","0","1","2","2","1","4","5","5","5","4","3","4","3","5","4","6","6","7","8","5","5","5","6","7","5","6","3","6","5","2","5","1","6","3","1","3","3","5","4","3","6","4","6","1","5","7","5","4","5","3","6","5","5","7","6","7","5","7","6","6","5","6","6","3","5","779745842755276801","陈","651","Male","[""好我"",""好他"",""坏他"",""坏我""]","[""强我"",""强他"",""弱他"",""弱我""]","","","","","","","","","","","","","","","","","","","","","","","","","","","","","","feedback_test","","","","","","","","",""
"700","","f","psychophysics","86","490491","0.0-8.0-0.0-1.0-0.0-0.38","5","4","5","6","3","4","3","5","4","5","4","0","-1","0","0","1","2","2","1","4","5","5","5","4","3","4","3","5","4","6","6","7","8","5","5","5","6","7","5","6","3","6","5","2","5","1","6","3","1","3","3","5","4","3","6","4","6","1","5","7","5","4","5","3","6","5","5","7","6","7","5","7","6","6","5","6","6","3","5","779745842755276801","陈","651","Male","[""好我"",""好他"",""坏他"",""坏我""]","[""强我"",""强他"",""弱他"",""弱我""]","","","","","","","","nonmatch","","","","","","","","","","key","f","16.65294117647036","640","356","f","true","nonmatch","img/circle.png","坏他","好我","prac_ALT2_moral","practice_moral","","","","","","","","",""
"null","<span style='color:GreenYellow; font-size: 70px;'>正确! </span>","null","html-keyboard-response","87","490992","0.0-8.0-0.0-1.0-0.0-1.38","5","4","5","6","3","4","3","5","4","5","4","0","-1","0","0","1","2","2","1","4","5","5","5","4","3","4","3","5","4","6","6","7","8","5","5","5","6","7","5","6","3","6","5","2","5","1","6","3","1","3","3","5","4","3","6","4","6","1","5","7","5","4","5","3","6","5","5","7","6","7","5","7","6","6","5","6","6","3","5","779745842755276801","陈","651","Male","[""好我"",""好他"",""坏他"",""坏我""]","[""强我"",""强他"",""弱他"",""弱我""]","","","","","","","","","","","","","","","","","","","","","","","","","","","","","","feedback_test","","","","","","","","",""
"938","","f","psychophysics","88","492931","0.0-8.0-0.0-1.0-0.0-0.39","5","4","5","6","3","4","3","5","4","5","4","0","-1","0","0","1","2","2","1","4","5","5","5","4","3","4","3","5","4","6","6","7","8","5","5","5","6","7","5","6","3","6","5","2","5","1","6","3","1","3","3","5","4","3","6","4","6","1","5","7","5","4","5","3","6","5","5","7","6","7","5","7","6","6","5","6","6","3","5","779745842755276801","陈","651","Male","[""好我"",""好他"",""坏他"",""坏我""]","[""强我"",""强他"",""弱他"",""弱我""]","","","","","","","","nonmatch","","","","","","","","","","key","f","16.656521739130437","640","356","f","true","nonmatch","img/diamond.png","好我","好他","prac_ALT2_moral","practice_moral","","","","","","","","",""
"null","<span style='color:GreenYellow; font-size: 70px;'>正确! </span>","null","html-keyboard-response","89","493432","0.0-8.0-0.0-1.0-0.0-1.39","5","4","5","6","3","4","3","5","4","5","4","0","-1","0","0","1","2","2","1","4","5","5","5","4","3","4","3","5","4","6","6","7","8","5","5","5","6","7","5","6","3","6","5","2","5","1","6","3","1","3","3","5","4","3","6","4","6","1","5","7","5","4","5","3","6","5","5","7","6","7","5","7","6","6","5","6","6","3","5","779745842755276801","陈","651","Male","[""好我"",""好他"",""坏他"",""坏我""]","[""强我"",""强他"",""弱他"",""弱我""]","","","","","","","","","","","","","","","","","","","","","","","","","","","","","","feedback_test","","","","","","","","",""
"855","","f","psychophysics","90","495289","0.0-8.0-0.0-1.0-0.0-0.40","5","4","5","6","3","4","3","5","4","5","4","0","-1","0","0","1","2","2","1","4","5","5","5","4","3","4","3","5","4","6","6","7","8","5","5","5","6","7","5","6","3","6","5","2","5","1","6","3","1","3","3","5","4","3","6","4","6","1","5","7","5","4","5","3","6","5","5","7","6","7","5","7","6","6","5","6","6","3","5","779745842755276801","陈","651","Male","[""好我"",""好他"",""坏他"",""坏我""]","[""强我"",""强他"",""弱他"",""弱我""]","","","","","","","","nonmatch","","","","","","","","","","key","f","16.653153153153152","640","356","j","false","match","img/triangle.png","坏我","坏我","prac_ALT2_moral","practice_moral","","","","","","","","",""
"null","<span style='color:red; font-size: 70px;'>错误! </span>","null","html-keyboard-response","91","495790","0.0-8.0-0.0-1.0-0.0-1.40","5","4","5","6","3","4","3","5","4","5","4","0","-1","0","0","1","2","2","1","4","5","5","5","4","3","4","3","5","4","6","6","7","8","5","5","5","6","7","5","6","3","6","5","2","5","1","6","3","1","3","3","5","4","3","6","4","6","1","5","7","5","4","5","3","6","5","5","7","6","7","5","7","6","6","5","6","6","3","5","779745842755276801","陈","651","Male","[""好我"",""好他"",""坏他"",""坏我""]","[""强我"",""强他"",""弱他"",""弱我""]","","","","","","","","","","","","","","","","","","","","","","","","","","","","","","feedback_test","","","","","","","","",""
"663","","j","psychophysics","92","497454","0.0-8.0-0.0-1.0-0.0-0.41","5","4","5","6","3","4","3","5","4","5","4","0","-1","0","0","1","2","2","1","4","5","5","5","4","3","4","3","5","4","6","6","7","8","5","5","5","6","7","5","6","3","6","5","2","5","1","6","3","1","3","3","5","4","3","6","4","6","1","5","7","5","4","5","3","6","5","5","7","6","7","5","7","6","6","5","6","6","3","5","779745842755276801","陈","651","Male","[""好我"",""好他"",""坏他"",""坏我""]","[""强我"",""强他"",""弱他"",""弱我""]","","","","","","","","match","","","","","","","","","","key","j","16.655555555555203","640","356","j","true","match","img/circle.png","好我","好我","prac_ALT2_moral","practice_moral","","","","","","","","",""
"null","<span style='color:GreenYellow; font-size: 70px;'>正确! </span>","null","html-keyboard-response","93","497954","0.0-8.0-0.0-1.0-0.0-1.41","5","4","5","6","3","4","3","5","4","5","4","0","-1","0","0","1","2","2","1","4","5","5","5","4","3","4","3","5","4","6","6","7","8","5","5","5","6","7","5","6","3","6","5","2","5","1","6","3","1","3","3","5","4","3","6","4","6","1","5","7","5","4","5","3","6","5","5","7","6","7","5","7","6","6","5","6","6","3","5","779745842755276801","陈","651","Male","[""好我"",""好他"",""坏他"",""坏我""]","[""强我"",""强他"",""弱他"",""弱我""]","","","","","","","","","","","","","","","","","","","","","","","","","","","","","","feedback_test","","","","","","","","",""
"871","","f","psychophysics","94","499827","0.0-8.0-0.0-1.0-0.0-0.42","5","4","5","6","3","4","3","5","4","5","4","0","-1","0","0","1","2","2","1","4","5","5","5","4","3","4","3","5","4","6","6","7","8","5","5","5","6","7","5","6","3","6","5","2","5","1","6","3","1","3","3","5","4","3","6","4","6","1","5","7","5","4","5","3","6","5","5","7","6","7","5","7","6","6","5","6","6","3","5","779745842755276801","陈","651","Male","[""好我"",""好他"",""坏他"",""坏我""]","[""强我"",""强他"",""弱他"",""弱我""]","","","","","","","","nonmatch","","","","","","","","","","key","f","16.653153153153152","640","356","f","true","nonmatch","img/triangle.png","坏他","坏我","prac_ALT2_moral","practice_moral","","","","","","","","",""
"null","<span style='color:GreenYellow; font-size: 70px;'>正确! </span>","null","html-keyboard-response","95","500328","0.0-8.0-0.0-1.0-0.0-1.42","5","4","5","6","3","4","3","5","4","5","4","0","-1","0","0","1","2","2","1","4","5","5","5","4","3","4","3","5","4","6","6","7","8","5","5","5","6","7","5","6","3","6","5","2","5","1","6","3","1","3","3","5","4","3","6","4","6","1","5","7","5","4","5","3","6","5","5","7","6","7","5","7","6","6","5","6","6","3","5","779745842755276801","陈","651","Male","[""好我"",""好他"",""坏他"",""坏我""]","[""强我"",""强他"",""弱他"",""弱我""]","","","","","","","","","","","","","","","","","","","","","","","","","","","","","","feedback_test","","","","","","","","",""
"735","","j","psychophysics","96","502064","0.0-8.0-0.0-1.0-0.0-0.43","5","4","5","6","3","4","3","5","4","5","4","0","-1","0","0","1","2","2","1","4","5","5","5","4","3","4","3","5","4","6","6","7","8","5","5","5","6","7","5","6","3","6","5","2","5","1","6","3","1","3","3","5","4","3","6","4","6","1","5","7","5","4","5","3","6","5","5","7","6","7","5","7","6","6","5","6","6","3","5","779745842755276801","陈","651","Male","[""好我"",""好他"",""坏他"",""坏我""]","[""强我"",""强他"",""弱他"",""弱我""]","","","","","","","","match","","","","","","","","","","key","j","16.65480769230803","640","356","j","true","match","img/circle.png","好我","好我","prac_ALT2_moral","practice_moral","","","","","","","","",""
"null","<span style='color:GreenYellow; font-size: 70px;'>正确! </span>","null","html-keyboard-response","97","502565","0.0-8.0-0.0-1.0-0.0-1.43","5","4","5","6","3","4","3","5","4","5","4","0","-1","0","0","1","2","2","1","4","5","5","5","4","3","4","3","5","4","6","6","7","8","5","5","5","6","7","5","6","3","6","5","2","5","1","6","3","1","3","3","5","4","3","6","4","6","1","5","7","5","4","5","3","6","5","5","7","6","7","5","7","6","6","5","6","6","3","5","779745842755276801","陈","651","Male","[""好我"",""好他"",""坏他"",""坏我""]","[""强我"",""强他"",""弱他"",""弱我""]","","","","","","","","","","","","","","","","","","","","","","","","","","","","","","feedback_test","","","","","","","","",""
"1075","","f","psychophysics","98","504642","0.0-8.0-0.0-1.0-0.0-0.44","5","4","5","6","3","4","3","5","4","5","4","0","-1","0","0","1","2","2","1","4","5","5","5","4","3","4","3","5","4","6","6","7","8","5","5","5","6","7","5","6","3","6","5","2","5","1","6","3","1","3","3","5","4","3","6","4","6","1","5","7","5","4","5","3","6","5","5","7","6","7","5","7","6","6","5","6","6","3","5","779745842755276801","陈","651","Male","[""好我"",""好他"",""坏他"",""坏我""]","[""强我"",""强他"",""弱他"",""弱我""]","","","","","","","","nonmatch","","","","","","","","","","key","f","16.653658536585557","640","356","f","true","nonmatch","img/diamond.png","坏他","好他","prac_ALT2_moral","practice_moral","","","","","","","","",""
"null","<span style='color:GreenYellow; font-size: 70px;'>正确! </span>","null","html-keyboard-response","99","505143","0.0-8.0-0.0-1.0-0.0-1.44","5","4","5","6","3","4","3","5","4","5","4","0","-1","0","0","1","2","2","1","4","5","5","5","4","3","4","3","5","4","6","6","7","8","5","5","5","6","7","5","6","3","6","5","2","5","1","6","3","1","3","3","5","4","3","6","4","6","1","5","7","5","4","5","3","6","5","5","7","6","7","5","7","6","6","5","6","6","3","5","779745842755276801","陈","651","Male","[""好我"",""好他"",""坏他"",""坏我""]","[""强我"",""强他"",""弱他"",""弱我""]","","","","","","","","","","","","","","","","","","","","","","","","","","","","","","feedback_test","","","","","","","","",""
"null","","null","psychophysics","100","507346","0.0-8.0-0.0-1.0-0.0-0.45","5","4","5","6","3","4","3","5","4","5","4","0","-1","0","0","1","2","2","1","4","5","5","5","4","3","4","3","5","4","6","6","7","8","5","5","5","6","7","5","6","3","6","5","2","5","1","6","3","1","3","3","5","4","3","6","4","6","1","5","7","5","4","5","3","6","5","5","7","6","7","5","7","6","6","5","6","6","3","5","779745842755276801","陈","651","Male","[""好我"",""好他"",""坏他"",""坏我""]","[""强我"",""强他"",""弱他"",""弱我""]","","","","","","","","null","","","","","","","","","","key","null","16.653787878787792","640","356","f","false","nonmatch","img/triangle.png","好他","坏我","prac_ALT2_moral","practice_moral","","","","","","","","",""
"null","<span class='add_' style='color:yellow; font-size: 70px;'> 太慢! </span>","null","html-keyboard-response","101","507847","0.0-8.0-0.0-1.0-0.0-1.45","5","4","5","6","3","4","3","5","4","5","4","0","-1","0","0","1","2","2","1","4","5","5","5","4","3","4","3","5","4","6","6","7","8","5","5","5","6","7","5","6","3","6","5","2","5","1","6","3","1","3","3","5","4","3","6","4","6","1","5","7","5","4","5","3","6","5","5","7","6","7","5","7","6","6","5","6","6","3","5","779745842755276801","陈","651","Male","[""好我"",""好他"",""坏他"",""坏我""]","[""强我"",""强他"",""弱他"",""弱我""]","","","","","","","","","","","","","","","","","","","","","","","","","","","","","","feedback_test","","","","","","","","",""
"858","","j","psychophysics","102","509706","0.0-8.0-0.0-1.0-0.0-0.46","5","4","5","6","3","4","3","5","4","5","4","0","-1","0","0","1","2","2","1","4","5","5","5","4","3","4","3","5","4","6","6","7","8","5","5","5","6","7","5","6","3","6","5","2","5","1","6","3","1","3","3","5","4","3","6","4","6","1","5","7","5","4","5","3","6","5","5","7","6","7","5","7","6","6","5","6","6","3","5","779745842755276801","陈","651","Male","[""好我"",""好他"",""坏他"",""坏我""]","[""强我"",""强他"",""弱他"",""弱我""]","","","","","","","","match","","","","","","","","","","key","j","16.653636363636046","640","356","j","true","match","img/diamond.png","好他","好他","prac_ALT2_moral","practice_moral","","","","","","","","",""
"null","<span style='color:GreenYellow; font-size: 70px;'>正确! </span>","null","html-keyboard-response","103","510207","0.0-8.0-0.0-1.0-0.0-1.46","5","4","5","6","3","4","3","5","4","5","4","0","-1","0","0","1","2","2","1","4","5","5","5","4","3","4","3","5","4","6","6","7","8","5","5","5","6","7","5","6","3","6","5","2","5","1","6","3","1","3","3","5","4","3","6","4","6","1","5","7","5","4","5","3","6","5","5","7","6","7","5","7","6","6","5","6","6","3","5","779745842755276801","陈","651","Male","[""好我"",""好他"",""坏他"",""坏我""]","[""强我"",""强他"",""弱他"",""弱我""]","","","","","","","","","","","","","","","","","","","","","","","","","","","","","","feedback_test","","","","","","","","",""
"879","","j","psychophysics","104","512088","0.0-8.0-0.0-1.0-0.0-0.47","5","4","5","6","3","4","3","5","4","5","4","0","-1","0","0","1","2","2","1","4","5","5","5","4","3","4","3","5","4","6","6","7","8","5","5","5","6","7","5","6","3","6","5","2","5","1","6","3","1","3","3","5","4","3","6","4","6","1","5","7","5","4","5","3","6","5","5","7","6","7","5","7","6","6","5","6","6","3","5","779745842755276801","陈","651","Male","[""好我"",""好他"",""坏他"",""坏我""]","[""强我"",""强他"",""弱他"",""弱我""]","","","","","","","","match","","","","","","","","","","key","j","16.653153153153152","640","356","j","true","match","img/pentagon.png","坏他","坏他","prac_ALT2_moral","practice_moral","","","","","","","","",""
"null","<span style='color:GreenYellow; font-size: 70px;'>正确! </span>","null","html-keyboard-response","105","512590","0.0-8.0-0.0-1.0-0.0-1.47","5","4","5","6","3","4","3","5","4","5","4","0","-1","0","0","1","2","2","1","4","5","5","5","4","3","4","3","5","4","6","6","7","8","5","5","5","6","7","5","6","3","6","5","2","5","1","6","3","1","3","3","5","4","3","6","4","6","1","5","7","5","4","5","3","6","5","5","7","6","7","5","7","6","6","5","6","6","3","5","779745842755276801","陈","651","Male","[""好我"",""好他"",""坏他"",""坏我""]","[""强我"",""强他"",""弱他"",""弱我""]","","","","","","","","","","","","","","","","","","","","","","","","","","","","","","feedback_test","","","","","","","","",""
"14215","<style>.context{color:white; font-size: 35px; line-height:40px}</style>                            <div><p class='context'>您正确回答了79% 的试次。</p><p class='context'>您的平均反应时为862毫秒。</p><p class='context'>恭喜您完成练习。按空格键进入正式实验。</p><p class='footer' style='font-size: 35px; line-height:40px;'>请在进入正式实验实验之前将您的<span style='color: lightgreen;'>食指</span>放在电脑键盘的相应键位上进行按键。</p>"," ","html-keyboard-response","106","526807","0.0-8.0-0.0-2.0","5","4","5","6","3","4","3","5","4","5","4","0","-1","0","0","1","2","2","1","4","5","5","5","4","3","4","3","5","4","6","6","7","8","5","5","5","6","7","5","6","3","6","5","2","5","1","6","3","1","3","3","5","4","3","6","4","6","1","5","7","5","4","5","3","6","5","5","7","6","7","5","7","6","6","5","6","6","3","5","779745842755276801","陈","651","Male","[""好我"",""好他"",""坏他"",""坏我""]","[""强我"",""强他"",""弱他"",""弱我""]","","","","","","","","","","","","","","","","","","","","","","","","","","","","","","","","","","","","","","",""
"2122","
    <p style='color: white; font-size: 22px'>请您将手指放在按键上，准备进入正式的匹配任务。</p>
    <p> <div style = ""color: green""><按空格键进入下一阶段的匹配任务></div></p>
    "," ","html-keyboard-response","107","528930","0.0-8.0-0.0-3.0","5","4","5","6","3","4","3","5","4","5","4","0","-1","0","0","1","2","2","1","4","5","5","5","4","3","4","3","5","4","6","6","7","8","5","5","5","6","7","5","6","3","6","5","2","5","1","6","3","1","3","3","5","4","3","6","4","6","1","5","7","5","4","5","3","6","5","5","7","6","7","5","7","6","6","5","6","6","3","5","779745842755276801","陈","651","Male","[""好我"",""好他"",""坏他"",""坏我""]","[""强我"",""强他"",""弱他"",""弱我""]","","","","","","","","","","","","","","","","","","","","","","","","","","","","","","","","","","","","","","",""
"775","","j","psychophysics","108","530706","0.0-8.0-0.0-4.0-0.0-0.0","5","4","5","6","3","4","3","5","4","5","4","0","-1","0","0","1","2","2","1","4","5","5","5","4","3","4","3","5","4","6","6","7","8","5","5","5","6","7","5","6","3","6","5","2","5","1","6","3","1","3","3","5","4","3","6","4","6","1","5","7","5","4","5","3","6","5","5","7","6","7","5","7","6","6","5","6","6","3","5","779745842755276801","陈","651","Male","[""好我"",""好他"",""坏他"",""坏我""]","[""强我"",""强他"",""弱他"",""弱我""]","","","","","","","","match","","","","","","","","","","key","j","16.654285714285272","640","356","j","true","match","img/pentagon.png","坏他","坏他","ALT2","moral","","","","","","","","",""
"null","<span style='color:GreenYellow; font-size: 70px;'>正确! </span>","null","html-keyboard-response","109","531207","0.0-8.0-0.0-4.0-0.0-1.0","5","4","5","6","3","4","3","5","4","5","4","0","-1","0","0","1","2","2","1","4","5","5","5","4","3","4","3","5","4","6","6","7","8","5","5","5","6","7","5","6","3","6","5","2","5","1","6","3","1","3","3","5","4","3","6","4","6","1","5","7","5","4","5","3","6","5","5","7","6","7","5","7","6","6","5","6","6","3","5","779745842755276801","陈","651","Male","[""好我"",""好他"",""坏他"",""坏我""]","[""强我"",""强他"",""弱他"",""弱我""]","","","","","","","","","","","","","","","","","","","","","","","","","","","","","","feedback_test","","","","","","","","",""
"656","","f","psychophysics","110","532864","0.0-8.0-0.0-4.0-0.0-0.1","5","4","5","6","3","4","3","5","4","5","4","0","-1","0","0","1","2","2","1","4","5","5","5","4","3","4","3","5","4","6","6","7","8","5","5","5","6","7","5","6","3","6","5","2","5","1","6","3","1","3","3","5","4","3","6","4","6","1","5","7","5","4","5","3","6","5","5","7","6","7","5","7","6","6","5","6","6","3","5","779745842755276801","陈","651","Male","[""好我"",""好他"",""坏他"",""坏我""]","[""强我"",""强他"",""弱他"",""弱我""]","","","","","","","","nonmatch","","","","","","","","","","key","f","16.65612244897888","640","356","f","true","nonmatch","img/pentagon.png","好他","坏他","ALT2","moral","","","","","","","","",""
"null","<span style='color:GreenYellow; font-size: 70px;'>正确! </span>","null","html-keyboard-response","111","533365","0.0-8.0-0.0-4.0-0.0-1.1","5","4","5","6","3","4","3","5","4","5","4","0","-1","0","0","1","2","2","1","4","5","5","5","4","3","4","3","5","4","6","6","7","8","5","5","5","6","7","5","6","3","6","5","2","5","1","6","3","1","3","3","5","4","3","6","4","6","1","5","7","5","4","5","3","6","5","5","7","6","7","5","7","6","6","5","6","6","3","5","779745842755276801","陈","651","Male","[""好我"",""好他"",""坏他"",""坏我""]","[""强我"",""强他"",""弱他"",""弱我""]","","","","","","","","","","","","","","","","","","","","","","","","","","","","","","feedback_test","","","","","","","","",""
"572","","j","psychophysics","112","534939","0.0-8.0-0.0-4.0-0.0-0.2","5","4","5","6","3","4","3","5","4","5","4","0","-1","0","0","1","2","2","1","4","5","5","5","4","3","4","3","5","4","6","6","7","8","5","5","5","6","7","5","6","3","6","5","2","5","1","6","3","1","3","3","5","4","3","6","4","6","1","5","7","5","4","5","3","6","5","5","7","6","7","5","7","6","6","5","6","6","3","5","779745842755276801","陈","651","Male","[""好我"",""好他"",""坏他"",""坏我""]","[""强我"",""强他"",""弱他"",""弱我""]","","","","","","","","match","","","","","","","","","","key","j","16.655319148935924","640","356","j","true","match","img/circle.png","好我","好我","ALT2","moral","","","","","","","","",""
"null","<span style='color:GreenYellow; font-size: 70px;'>正确! </span>","null","html-keyboard-response","113","535439","0.0-8.0-0.0-4.0-0.0-1.2","5","4","5","6","3","4","3","5","4","5","4","0","-1","0","0","1","2","2","1","4","5","5","5","4","3","4","3","5","4","6","6","7","8","5","5","5","6","7","5","6","3","6","5","2","5","1","6","3","1","3","3","5","4","3","6","4","6","1","5","7","5","4","5","3","6","5","5","7","6","7","5","7","6","6","5","6","6","3","5","779745842755276801","陈","651","Male","[""好我"",""好他"",""坏他"",""坏我""]","[""强我"",""强他"",""弱他"",""弱我""]","","","","","","","","","","","","","","","","","","","","","","","","","","","","","","feedback_test","","","","","","","","",""
"712","","j","psychophysics","114","537153","0.0-8.0-0.0-4.0-0.0-0.3","5","4","5","6","3","4","3","5","4","5","4","0","-1","0","0","1","2","2","1","4","5","5","5","4","3","4","3","5","4","6","6","7","8","5","5","5","6","7","5","6","3","6","5","2","5","1","6","3","1","3","3","5","4","3","6","4","6","1","5","7","5","4","5","3","6","5","5","7","6","7","5","7","6","6","5","6","6","3","5","779745842755276801","陈","651","Male","[""好我"",""好他"",""坏他"",""坏我""]","[""强我"",""强他"",""弱他"",""弱我""]","","","","","","","","match","","","","","","","","","","key","j","16.65294117647036","640","356","j","true","match","img/pentagon.png","坏他","坏他","ALT2","moral","","","","","","","","",""
"null","<span style='color:GreenYellow; font-size: 70px;'>正确! </span>","null","html-keyboard-response","115","537655","0.0-8.0-0.0-4.0-0.0-1.3","5","4","5","6","3","4","3","5","4","5","4","0","-1","0","0","1","2","2","1","4","5","5","5","4","3","4","3","5","4","6","6","7","8","5","5","5","6","7","5","6","3","6","5","2","5","1","6","3","1","3","3","5","4","3","6","4","6","1","5","7","5","4","5","3","6","5","5","7","6","7","5","7","6","6","5","6","6","3","5","779745842755276801","陈","651","Male","[""好我"",""好他"",""坏他"",""坏我""]","[""强我"",""强他"",""弱他"",""弱我""]","","","","","","","","","","","","","","","","","","","","","","","","","","","","","","feedback_test","","","","","","","","",""
"824","","f","psychophysics","116","539481","0.0-8.0-0.0-4.0-0.0-0.4","5","4","5","6","3","4","3","5","4","5","4","0","-1","0","0","1","2","2","1","4","5","5","5","4","3","4","3","5","4","6","6","7","8","5","5","5","6","7","5","6","3","6","5","2","5","1","6","3","1","3","3","5","4","3","6","4","6","1","5","7","5","4","5","3","6","5","5","7","6","7","5","7","6","6","5","6","6","3","5","779745842755276801","陈","651","Male","[""好我"",""好他"",""坏他"",""坏我""]","[""强我"",""强他"",""弱他"",""弱我""]","","","","","","","","nonmatch","","","","","","","","","","key","f","16.654629629630275","640","356","f","true","nonmatch","img/triangle.png","好他","坏我","ALT2","moral","","","","","","","","",""
"null","<span style='color:GreenYellow; font-size: 70px;'>正确! </span>","null","html-keyboard-response","117","539982","0.0-8.0-0.0-4.0-0.0-1.4","5","4","5","6","3","4","3","5","4","5","4","0","-1","0","0","1","2","2","1","4","5","5","5","4","3","4","3","5","4","6","6","7","8","5","5","5","6","7","5","6","3","6","5","2","5","1","6","3","1","3","3","5","4","3","6","4","6","1","5","7","5","4","5","3","6","5","5","7","6","7","5","7","6","6","5","6","6","3","5","779745842755276801","陈","651","Male","[""好我"",""好他"",""坏他"",""坏我""]","[""强我"",""强他"",""弱他"",""弱我""]","","","","","","","","","","","","","","","","","","","","","","","","","","","","","","feedback_test","","","","","","","","",""
"785","","j","psychophysics","118","541768","0.0-8.0-0.0-4.0-0.0-0.5","5","4","5","6","3","4","3","5","4","5","4","0","-1","0","0","1","2","2","1","4","5","5","5","4","3","4","3","5","4","6","6","7","8","5","5","5","6","7","5","6","3","6","5","2","5","1","6","3","1","3","3","5","4","3","6","4","6","1","5","7","5","4","5","3","6","5","5","7","6","7","5","7","6","6","5","6","6","3","5","779745842755276801","陈","651","Male","[""好我"",""好他"",""坏他"",""坏我""]","[""强我"",""强他"",""弱他"",""弱我""]","","","","","","","","match","","","","","","","","","","key","j","16.652830188679904","640","356","j","true","match","img/triangle.png","坏我","坏我","ALT2","moral","","","","","","","","",""
"null","<span style='color:GreenYellow; font-size: 70px;'>正确! </span>","null","html-keyboard-response","119","542269","0.0-8.0-0.0-4.0-0.0-1.5","5","4","5","6","3","4","3","5","4","5","4","0","-1","0","0","1","2","2","1","4","5","5","5","4","3","4","3","5","4","6","6","7","8","5","5","5","6","7","5","6","3","6","5","2","5","1","6","3","1","3","3","5","4","3","6","4","6","1","5","7","5","4","5","3","6","5","5","7","6","7","5","7","6","6","5","6","6","3","5","779745842755276801","陈","651","Male","[""好我"",""好他"",""坏他"",""坏我""]","[""强我"",""强他"",""弱他"",""弱我""]","","","","","","","","","","","","","","","","","","","","","","","","","","","","","","feedback_test","","","","","","","","",""
"608","","j","psychophysics","120","543877","0.0-8.0-0.0-4.0-0.0-0.6","5","4","5","6","3","4","3","5","4","5","4","0","-1","0","0","1","2","2","1","4","5","5","5","4","3","4","3","5","4","6","6","7","8","5","5","5","6","7","5","6","3","6","5","2","5","1","6","3","1","3","3","5","4","3","6","4","6","1","5","7","5","4","5","3","6","5","5","7","6","7","5","7","6","6","5","6","6","3","5","779745842755276801","陈","651","Male","[""好我"",""好他"",""坏他"",""坏我""]","[""强我"",""强他"",""弱他"",""弱我""]","","","","","","","","match","","","","","","","","","","key","j","16.654736842105997","640","356","j","true","match","img/triangle.png","坏我","坏我","ALT2","moral","","","","","","","","",""
"null","<span style='color:GreenYellow; font-size: 70px;'>正确! </span>","null","html-keyboard-response","121","544378","0.0-8.0-0.0-4.0-0.0-1.6","5","4","5","6","3","4","3","5","4","5","4","0","-1","0","0","1","2","2","1","4","5","5","5","4","3","4","3","5","4","6","6","7","8","5","5","5","6","7","5","6","3","6","5","2","5","1","6","3","1","3","3","5","4","3","6","4","6","1","5","7","5","4","5","3","6","5","5","7","6","7","5","7","6","6","5","6","6","3","5","779745842755276801","陈","651","Male","[""好我"",""好他"",""坏他"",""坏我""]","[""强我"",""强他"",""弱他"",""弱我""]","","","","","","","","","","","","","","","","","","","","","","","","","","","","","","feedback_test","","","","","","","","",""
"693","","f","psychophysics","122","546072","0.0-8.0-0.0-4.0-0.0-0.7","5","4","5","6","3","4","3","5","4","5","4","0","-1","0","0","1","2","2","1","4","5","5","5","4","3","4","3","5","4","6","6","7","8","5","5","5","6","7","5","6","3","6","5","2","5","1","6","3","1","3","3","5","4","3","6","4","6","1","5","7","5","4","5","3","6","5","5","7","6","7","5","7","6","6","5","6","6","3","5","779745842755276801","陈","651","Male","[""好我"",""好他"",""坏他"",""坏我""]","[""强我"",""强他"",""弱他"",""弱我""]","","","","","","","","nonmatch","","","","","","","","","","key","f","16.649000000000232","640","356","f","true","nonmatch","img/circle.png","好他","好我","ALT2","moral","","","","","","","","",""
"null","<span style='color:GreenYellow; font-size: 70px;'>正确! </span>","null","html-keyboard-response","123","546573","0.0-8.0-0.0-4.0-0.0-1.7","5","4","5","6","3","4","3","5","4","5","4","0","-1","0","0","1","2","2","1","4","5","5","5","4","3","4","3","5","4","6","6","7","8","5","5","5","6","7","5","6","3","6","5","2","5","1","6","3","1","3","3","5","4","3","6","4","6","1","5","7","5","4","5","3","6","5","5","7","6","7","5","7","6","6","5","6","6","3","5","779745842755276801","陈","651","Male","[""好我"",""好他"",""坏他"",""坏我""]","[""强我"",""强他"",""弱他"",""弱我""]","","","","","","","","","","","","","","","","","","","","","","","","","","","","","","feedback_test","","","","","","","","",""
"948","","j","psychophysics","124","548523","0.0-8.0-0.0-4.0-0.0-0.8","5","4","5","6","3","4","3","5","4","5","4","0","-1","0","0","1","2","2","1","4","5","5","5","4","3","4","3","5","4","6","6","7","8","5","5","5","6","7","5","6","3","6","5","2","5","1","6","3","1","3","3","5","4","3","6","4","6","1","5","7","5","4","5","3","6","5","5","7","6","7","5","7","6","6","5","6","6","3","5","779745842755276801","陈","651","Male","[""好我"",""好他"",""坏他"",""坏我""]","[""强我"",""强他"",""弱他"",""弱我""]","","","","","","","","match","","","","","","","","","","key","j","16.65344827586247","640","356","j","true","match","img/diamond.png","好他","好他","ALT2","moral","","","","","","","","",""
"null","<span style='color:GreenYellow; font-size: 70px;'>正确! </span>","null","html-keyboard-response","125","549024","0.0-8.0-0.0-4.0-0.0-1.8","5","4","5","6","3","4","3","5","4","5","4","0","-1","0","0","1","2","2","1","4","5","5","5","4","3","4","3","5","4","6","6","7","8","5","5","5","6","7","5","6","3","6","5","2","5","1","6","3","1","3","3","5","4","3","6","4","6","1","5","7","5","4","5","3","6","5","5","7","6","7","5","7","6","6","5","6","6","3","5","779745842755276801","陈","651","Male","[""好我"",""好他"",""坏他"",""坏我""]","[""强我"",""强他"",""弱他"",""弱我""]","","","","","","","","","","","","","","","","","","","","","","","","","","","","","","feedback_test","","","","","","","","",""
"840","","f","psychophysics","126","550866","0.0-8.0-0.0-4.0-0.0-0.9","5","4","5","6","3","4","3","5","4","5","4","0","-1","0","0","1","2","2","1","4","5","5","5","4","3","4","3","5","4","6","6","7","8","5","5","5","6","7","5","6","3","6","5","2","5","1","6","3","1","3","3","5","4","3","6","4","6","1","5","7","5","4","5","3","6","5","5","7","6","7","5","7","6","6","5","6","6","3","5","779745842755276801","陈","651","Male","[""好我"",""好他"",""坏他"",""坏我""]","[""强我"",""强他"",""弱他"",""弱我""]","","","","","","","","nonmatch","","","","","","","","","","key","f","16.646788990825687","640","356","f","true","nonmatch","img/pentagon.png","坏我","坏他","ALT2","moral","","","","","","","","",""
"null","<span style='color:GreenYellow; font-size: 70px;'>正确! </span>","null","html-keyboard-response","127","551368","0.0-8.0-0.0-4.0-0.0-1.9","5","4","5","6","3","4","3","5","4","5","4","0","-1","0","0","1","2","2","1","4","5","5","5","4","3","4","3","5","4","6","6","7","8","5","5","5","6","7","5","6","3","6","5","2","5","1","6","3","1","3","3","5","4","3","6","4","6","1","5","7","5","4","5","3","6","5","5","7","6","7","5","7","6","6","5","6","6","3","5","779745842755276801","陈","651","Male","[""好我"",""好他"",""坏他"",""坏我""]","[""强我"",""强他"",""弱他"",""弱我""]","","","","","","","","","","","","","","","","","","","","","","","","","","","","","","feedback_test","","","","","","","","",""
"678","","j","psychophysics","128","553048","0.0-8.0-0.0-4.0-0.0-0.10","5","4","5","6","3","4","3","5","4","5","4","0","-1","0","0","1","2","2","1","4","5","5","5","4","3","4","3","5","4","6","6","7","8","5","5","5","6","7","5","6","3","6","5","2","5","1","6","3","1","3","3","5","4","3","6","4","6","1","5","7","5","4","5","3","6","5","5","7","6","7","5","7","6","6","5","6","6","3","5","779745842755276801","陈","651","Male","[""好我"",""好他"",""坏他"",""坏我""]","[""强我"",""强他"",""弱他"",""弱我""]","","","","","","","","match","","","","","","","","","","key","j","16.65399999999907","640","356","f","false","nonmatch","img/triangle.png","好我","坏我","ALT2","moral","","","","","","","","",""
"null","<span style='color:red; font-size: 70px;'>错误! </span>","null","html-keyboard-response","129","553549","0.0-8.0-0.0-4.0-0.0-1.10","5","4","5","6","3","4","3","5","4","5","4","0","-1","0","0","1","2","2","1","4","5","5","5","4","3","4","3","5","4","6","6","7","8","5","5","5","6","7","5","6","3","6","5","2","5","1","6","3","1","3","3","5","4","3","6","4","6","1","5","7","5","4","5","3","6","5","5","7","6","7","5","7","6","6","5","6","6","3","5","779745842755276801","陈","651","Male","[""好我"",""好他"",""坏他"",""坏我""]","[""强我"",""强他"",""弱他"",""弱我""]","","","","","","","","","","","","","","","","","","","","","","","","","","","","","","feedback_test","","","","","","","","",""
"724","","j","psychophysics","130","555275","0.0-8.0-0.0-4.0-0.0-0.11","5","4","5","6","3","4","3","5","4","5","4","0","-1","0","0","1","2","2","1","4","5","5","5","4","3","4","3","5","4","6","6","7","8","5","5","5","6","7","5","6","3","6","5","2","5","1","6","3","1","3","3","5","4","3","6","4","6","1","5","7","5","4","5","3","6","5","5","7","6","7","5","7","6","6","5","6","6","3","5","779745842755276801","陈","651","Male","[""好我"",""好他"",""坏他"",""坏我""]","[""强我"",""强他"",""弱他"",""弱我""]","","","","","","","","match","","","","","","","","","","key","j","16.652427184465566","640","356","j","true","match","img/diamond.png","好他","好他","ALT2","moral","","","","","","","","",""
"null","<span style='color:GreenYellow; font-size: 70px;'>正确! </span>","null","html-keyboard-response","131","555776","0.0-8.0-0.0-4.0-0.0-1.11","5","4","5","6","3","4","3","5","4","5","4","0","-1","0","0","1","2","2","1","4","5","5","5","4","3","4","3","5","4","6","6","7","8","5","5","5","6","7","5","6","3","6","5","2","5","1","6","3","1","3","3","5","4","3","6","4","6","1","5","7","5","4","5","3","6","5","5","7","6","7","5","7","6","6","5","6","6","3","5","779745842755276801","陈","651","Male","[""好我"",""好他"",""坏他"",""坏我""]","[""强我"",""强他"",""弱他"",""弱我""]","","","","","","","","","","","","","","","","","","","","","","","","","","","","","","feedback_test","","","","","","","","",""
"863","","f","psychophysics","132","557641","0.0-8.0-0.0-4.0-0.0-0.12","5","4","5","6","3","4","3","5","4","5","4","0","-1","0","0","1","2","2","1","4","5","5","5","4","3","4","3","5","4","6","6","7","8","5","5","5","6","7","5","6","3","6","5","2","5","1","6","3","1","3","3","5","4","3","6","4","6","1","5","7","5","4","5","3","6","5","5","7","6","7","5","7","6","6","5","6","6","3","5","779745842755276801","陈","651","Male","[""好我"",""好他"",""坏他"",""坏我""]","[""强我"",""强他"",""弱他"",""弱我""]","","","","","","","","nonmatch","","","","","","","","","","key","f","16.653153153153152","640","356","j","false","match","img/triangle.png","坏我","坏我","ALT2","moral","","","","","","","","",""
"null","<span style='color:red; font-size: 70px;'>错误! </span>","null","html-keyboard-response","133","558141","0.0-8.0-0.0-4.0-0.0-1.12","5","4","5","6","3","4","3","5","4","5","4","0","-1","0","0","1","2","2","1","4","5","5","5","4","3","4","3","5","4","6","6","7","8","5","5","5","6","7","5","6","3","6","5","2","5","1","6","3","1","3","3","5","4","3","6","4","6","1","5","7","5","4","5","3","6","5","5","7","6","7","5","7","6","6","5","6","6","3","5","779745842755276801","陈","651","Male","[""好我"",""好他"",""坏他"",""坏我""]","[""强我"",""强他"",""弱他"",""弱我""]","","","","","","","","","","","","","","","","","","","","","","","","","","","","","","feedback_test","","","","","","","","",""
"752","","f","psychophysics","134","559895","0.0-8.0-0.0-4.0-0.0-0.13","5","4","5","6","3","4","3","5","4","5","4","0","-1","0","0","1","2","2","1","4","5","5","5","4","3","4","3","5","4","6","6","7","8","5","5","5","6","7","5","6","3","6","5","2","5","1","6","3","1","3","3","5","4","3","6","4","6","1","5","7","5","4","5","3","6","5","5","7","6","7","5","7","6","6","5","6","6","3","5","779745842755276801","陈","651","Male","[""好我"",""好他"",""坏他"",""坏我""]","[""强我"",""强他"",""弱他"",""弱我""]","","","","","","","","nonmatch","","","","","","","","","","key","f","16.653846153846153","640","356","f","true","nonmatch","img/circle.png","坏我","好我","ALT2","moral","","","","","","","","",""
"null","<span style='color:GreenYellow; font-size: 70px;'>正确! </span>","null","html-keyboard-response","135","560395","0.0-8.0-0.0-4.0-0.0-1.13","5","4","5","6","3","4","3","5","4","5","4","0","-1","0","0","1","2","2","1","4","5","5","5","4","3","4","3","5","4","6","6","7","8","5","5","5","6","7","5","6","3","6","5","2","5","1","6","3","1","3","3","5","4","3","6","4","6","1","5","7","5","4","5","3","6","5","5","7","6","7","5","7","6","6","5","6","6","3","5","779745842755276801","陈","651","Male","[""好我"",""好他"",""坏他"",""坏我""]","[""强我"",""强他"",""弱他"",""弱我""]","","","","","","","","","","","","","","","","","","","","","","","","","","","","","","feedback_test","","","","","","","","",""
"920","","f","psychophysics","136","562320","0.0-8.0-0.0-4.0-0.0-0.14","5","4","5","6","3","4","3","5","4","5","4","0","-1","0","0","1","2","2","1","4","5","5","5","4","3","4","3","5","4","6","6","7","8","5","5","5","6","7","5","6","3","6","5","2","5","1","6","3","1","3","3","5","4","3","6","4","6","1","5","7","5","4","5","3","6","5","5","7","6","7","5","7","6","6","5","6","6","3","5","779745842755276801","陈","651","Male","[""好我"",""好他"",""坏他"",""坏我""]","[""强我"",""强他"",""弱他"",""弱我""]","","","","","","","","nonmatch","","","","","","","","","","key","f","16.654782608695044","640","356","f","true","nonmatch","img/diamond.png","好我","好他","ALT2","moral","","","","","","","","",""
"null","<span style='color:GreenYellow; font-size: 70px;'>正确! </span>","null","html-keyboard-response","137","562821","0.0-8.0-0.0-4.0-0.0-1.14","5","4","5","6","3","4","3","5","4","5","4","0","-1","0","0","1","2","2","1","4","5","5","5","4","3","4","3","5","4","6","6","7","8","5","5","5","6","7","5","6","3","6","5","2","5","1","6","3","1","3","3","5","4","3","6","4","6","1","5","7","5","4","5","3","6","5","5","7","6","7","5","7","6","6","5","6","6","3","5","779745842755276801","陈","651","Male","[""好我"",""好他"",""坏他"",""坏我""]","[""强我"",""强他"",""弱他"",""弱我""]","","","","","","","","","","","","","","","","","","","","","","","","","","","","","","feedback_test","","","","","","","","",""
"924","","f","psychophysics","138","564746","0.0-8.0-0.0-4.0-0.0-0.15","5","4","5","6","3","4","3","5","4","5","4","0","-1","0","0","1","2","2","1","4","5","5","5","4","3","4","3","5","4","6","6","7","8","5","5","5","6","7","5","6","3","6","5","2","5","1","6","3","1","3","3","5","4","3","6","4","6","1","5","7","5","4","5","3","6","5","5","7","6","7","5","7","6","6","5","6","6","3","5","779745842755276801","陈","651","Male","[""好我"",""好他"",""坏他"",""坏我""]","[""强我"",""强他"",""弱他"",""弱我""]","","","","","","","","nonmatch","","","","","","","","","","key","f","16.65526315789433","640","356","f","true","nonmatch","img/diamond.png","坏我","好他","ALT2","moral","","","","","","","","",""
