"rt","stimulus","response","trial_type","trial_index","time_elapsed","internal_node_id","swb_1","swb_2","swb_3","swb_4","swb_5","LOT_1","LOT_2","LOT_3","LOT_4","LOT_5","LOT_6","IPC_1","IPC_2","IPC_3","IPC_4","IPC_5","IPC_6","IPC_7","IPC_8","MorIden_1","MorIden_2","MorIden_3","MorIden_4","MorIden_5","MorIden_6","MorIden_7","MorIden_8","MorIden_9","MorIden_10","moralSeImag_1","moralSeImag_2","moralSeImag_3","moralSeImag_4","moralSeImag_5","moralSeImag_6","moralSeImag_7","moralSeImag_8","moralSeImag_9","sde_1","sde_2","sde_3","sde_4","sde_5","sde_6","sde_7","sde_8","sde_9","sde_10","trap2","sde_11","sde_12","sde_13","sde_14","sde_15","sde_16","sde_17","sde_18","sde_19","sde_20","IM_1","IM_2","IM_3","IM_4","IM_5","IM_6","IM_7","IM_8","IM_9","IM_10","IM_11","IM_12","IM_13","IM_14","IM_15","IM_16","IM_17","IM_18","IM_19","IM_20","subj_idx","friend_name","ParticipantID","Sex","Word","Word2","value","success","timeout","failed_images","failed_audio","failed_video","user_agent","responses","item_order","radio_event_ids","radio_event_times","key_event_times","mouse_event_times","straightlining","zigzagging","honeypot","task_id","screen_id","time_stamp","response_type","key_press","avg_frame_time","center_x","center_y","person","word","valence","domain","math","correct_response","correct","status","view_history","identity","duration","Image","condition","question_order","trap2_item"
"21187","
   <p><div style='color:white; font-size: 25px'>您好，欢迎参加本次实验。</div></p>
   <p><div style='color:white; font-size: 25px'>为充分保障您的权利，请确保您已经知晓并同意《参与实验同意书》以及《数据公开知情同意书》。</div></p>
   <p><div style='color:white; font-size: 25px'>如果您未见过上述内容，请咨询实验员。</div></p>
   <p style='color:white; font-size: 25px'>如果您选择继续实验，则表示您已经清楚两份知情同意书的内容并同意。</p>
   <p><div style = ""color: pink;font-size:30px;"">请确保您记得day0的实验编号，您将在本次实验输入该编号，若您忘记，请咨询实验员后作答。</div></p>
   <p><div style = ""color:lightblue;font-size:25px;"">请您尽可能认真地作答，我们将依据您在各问卷和按键任务中的作答质量发放报酬。</div></p>
   <p> <div style = ""color: green""><按空格键至下页></div> </p>
   "," ","html-keyboard-response","0","21188","0.0-0.0","7","6","7","6","6","5","4","5","5","5","5","2","2","2","1","1","2","2","2","5","4","5","5","4","5","4","4","4","4","7","6","7","6","6","5","6","7","7","7","7","7","7","7","6","7","1","7","7","1","6","5","7","7","6","6","7","7","7","7","7","7","7","6","6","7","6","7","7","7","7","6","7","7","7","7","7","7","5","7","738081261448597505","周","405","Male","[""坏他"",""坏我"",""好他"",""好我""]","[""弱他"",""弱我"",""强他"",""强我""]","","","","","","","","","","","","","","","","","","","","","","","","","","","","","","","","","","","","","","",""
"","","","call-function","1","21189","0.0-1.0-0.0","7","6","7","6","6","5","4","5","5","5","5","2","2","2","1","1","2","2","2","5","4","5","5","4","5","4","4","4","4","7","6","7","6","6","5","6","7","7","7","7","7","7","7","6","7","1","7","7","1","6","5","7","7","6","6","7","7","7","7","7","7","7","6","6","7","6","7","7","7","7","6","7","7","7","7","7","7","5","7","738081261448597505","周","405","Male","[""坏他"",""坏我"",""好他"",""好我""]","[""弱他"",""弱我"",""强他"",""强我""]","","","","","","","","","","","","","","","","","","","","","","","","","","","","","","","","","","","","","","",""
"26704","","[{""name"":""Sex"",""value"":""0""},{""name"":""friend_name"",""value"":""周""},{""name"":""ParticipantID"",""value"":""405""}]","survey-html-form","2","47893","0.0-1.0-1.0","7","6","7","6","6","5","4","5","5","5","5","2","2","2","1","1","2","2","2","5","4","5","5","4","5","4","4","4","4","7","6","7","6","6","5","6","7","7","7","7","7","7","7","6","7","1","7","7","1","6","5","7","7","6","6","7","7","7","7","7","7","7","6","6","7","6","7","7","7","7","6","7","7","7","7","7","7","5","7","738081261448597505","周","405","Male","[""坏他"",""坏我"",""好他"",""好我""]","[""弱他"",""弱我"",""强他"",""强我""]","","","","","","","","","","","","","","","","","","","","","","","","","","","","","","","","","","","","","","",""
"","","","preload","3","48219","0.0-2.0","7","6","7","6","6","5","4","5","5","5","5","2","2","2","1","1","2","2","2","5","4","5","5","4","5","4","4","4","4","7","6","7","6","6","5","6","7","7","7","7","7","7","7","6","7","1","7","7","1","6","5","7","7","6","6","7","7","7","7","7","7","7","6","6","7","6","7","7","7","7","6","7","7","7","7","7","7","5","7","738081261448597505","周","405","Male","[""坏他"",""坏我"",""好他"",""好我""]","[""弱他"",""弱我"",""强他"",""强我""]","","true","false","[]","[]","[]","","","","","","","","","","","","","","","","","","","","","","","","","","","","","","","","",""
"","","","fullscreen","4","49267","0.0-3.0","7","6","7","6","6","5","4","5","5","5","5","2","2","2","1","1","2","2","2","5","4","5","5","4","5","4","4","4","4","7","6","7","6","6","5","6","7","7","7","7","7","7","7","6","7","1","7","7","1","6","5","7","7","6","6","7","7","7","7","7","7","7","6","6","7","6","7","7","7","7","6","7","7","7","7","7","7","5","7","738081261448597505","周","405","Male","[""坏他"",""坏我"",""好他"",""好我""]","[""弱他"",""弱我"",""强他"",""强我""]","","true","","","","","{}","","","","","","","","","","","","","","","","","","","","","","","","","","","","","","","",""
"9439.30000114441","","{""Q01"":""7"",""Q02"":""6"",""Q03"":""7"",""Q04"":""6"",""Q05"":""6""}","survey-template","5","58708","0.0-4.0","7","6","7","6","6","5","4","5","5","5","5","2","2","2","1","1","2","2","2","5","4","5","5","4","5","4","4","4","4","7","6","7","6","6","5","6","7","7","7","7","7","7","7","6","7","1","7","7","1","6","5","7","7","6","6","7","7","7","7","7","7","7","6","6","7","6","7","7","7","7","6","7","7","7","7","7","7","5","7","738081261448597505","周","405","Male","[""坏他"",""坏我"",""好他"",""好我""]","[""弱他"",""弱我"",""强他"",""强我""]","","","","","","","","{""Q01"":""7"",""Q02"":""6"",""Q03"":""7"",""Q04"":""6"",""Q05"":""6""}","[0,1,2,3,4]","[""Q01"",""Q02"",""Q03"",""Q04"",""Q05""]","[2046.6000003814697,3150.800001144409,6174.60000038147,6862.60000038147,7678.5]","[]","[2046.6000003814697,3150.800001144409,6174.60000038147,6862.60000038147,7678.5,9438.60000038147]","0.6","0.75","0","","","","","","","","","","","","","","","","","","","","","","",""
"11597.29999923706","","{""Q01"":""5"",""Q02"":""4"",""Q03"":""5"",""Q04"":""5"",""Q05"":""5"",""Q06"":""5""}","survey-template","6","70309","0.0-5.0","7","6","7","6","6","5","4","5","5","5","5","2","2","2","1","1","2","2","2","5","4","5","5","4","5","4","4","4","4","7","6","7","6","6","5","6","7","7","7","7","7","7","7","6","7","1","7","7","1","6","5","7","7","6","6","7","7","7","7","7","7","7","6","6","7","6","7","7","7","7","6","7","7","7","7","7","7","5","7","738081261448597505","周","405","Male","[""坏他"",""坏我"",""好他"",""好我""]","[""弱他"",""弱我"",""强他"",""强我""]","","","","","","","","{""Q01"":""5"",""Q02"":""4"",""Q03"":""5"",""Q04"":""5"",""Q05"":""5"",""Q06"":""5""}","[0,1,2,3,4,5]","[""Q03"",""Q04"",""Q05"",""Q06"",""Q01"",""Q02""]","[2516.3999996185303,4124.60000038147,4908.5,6813.10000038147,8654.20000076294,10124.5]","[]","[2516.3999996185303,4124.60000038147,4908.5,6813.10000038147,8654.20000076294,10124.5,11596.70000076294]","0.5","0.4","0","","","","","","","","","","","","","","","","","","","","","","",""
"14142.70000076294","","{""Q01"":""2"",""Q02"":""2"",""Q03"":""2"",""Q04"":""1"",""Q05"":""1"",""Q06"":""2"",""Q07"":""2"",""Q08"":""2""}","survey-template","7","84454","0.0-6.0","7","6","7","6","6","5","4","5","5","5","5","2","2","2","1","1","2","2","2","5","4","5","5","4","5","4","4","4","4","7","6","7","6","6","5","6","7","7","7","7","7","7","7","6","7","1","7","7","1","6","5","7","7","6","6","7","7","7","7","7","7","7","6","6","7","6","7","7","7","7","6","7","7","7","7","7","7","5","7","738081261448597505","周","405","Male","[""坏他"",""坏我"",""好他"",""好我""]","[""弱他"",""弱我"",""强他"",""强我""]","","","","","","","","{""Q01"":""2"",""Q02"":""2"",""Q03"":""2"",""Q04"":""1"",""Q05"":""1"",""Q06"":""2"",""Q07"":""2"",""Q08"":""2""}","[0,1,2,3,4,5,6,7]","[""Q01"",""Q02"",""Q03"",""Q04"",""Q05"",""Q06"",""Q07"",""Q08""]","[1829.7000007629395,3029.300001144409,4853.60000038147,6037,7245.200000762939,8413.80000114441,10397.30000114441,11117.5]","[]","[1829.7000007629395,3029.300001144409,4853.60000038147,6037,7245.200000762939,8413.80000114441,10397.30000114441,11117.5,14141.60000038147]","0.75","0.2857142857142857","0","","","","","","","","","","","","","","","","","","","","","","",""
"56300","
    <p><div style='color:white;font-size:35px; line-height:20px;'>词汇评估任务</div></p><br>
    <p><div style='color:white;font-size:25px; line-height:20px;'>请再次回忆该亲密的朋友，你们至少2年前就认识了，并且最近2年经常见面。</div></p>
    <p><div style='color:white;font-size:25px; line-height:20px;'>在本实验中，您将会看到一些形容词。</div></p>
    <p><div style='color:yellow;font-size:25px; line-height:20px;'>您的任务是判断这些形容词是否符合对您自己或您的朋友的描述。</div></p><p style='font-size:35px'>符合按<span style=""color:lightgreen""> j 键</span>，不符合按<span style=""color:red""> f 键</span></p>","0","html-button-response","8","140756","0.0-7.0-0.0","7","6","7","6","6","5","4","5","5","5","5","2","2","2","1","1","2","2","2","5","4","5","5","4","5","4","4","4","4","7","6","7","6","6","5","6","7","7","7","7","7","7","7","6","7","1","7","7","1","6","5","7","7","6","6","7","7","7","7","7","7","7","6","6","7","6","7","7","7","7","6","7","7","7","7","7","7","5","7","738081261448597505","周","405","Male","[""坏他"",""坏我"",""好他"",""好我""]","[""弱他"",""弱我"",""强他"",""强我""]","","","","","","","","","","","","","","","","","SRET_EW","EW_instructions","Mon Dec 25 2023 15:59:50 GMT+0800 (中国标准时间)","","","","","","","","","","","","","","","","","","","",""
"966","","j","psychophysics","9","142725","0.0-7.0-1.0-0.0","7","6","7","6","6","5","4","5","5","5","5","2","2","2","1","1","2","2","2","5","4","5","5","4","5","4","4","4","4","7","6","7","6","6","5","6","7","7","7","7","7","7","7","6","7","1","7","7","1","6","5","7","7","6","6","7","7","7","7","7","7","7","6","6","7","6","7","7","7","7","6","7","7","7","7","7","7","5","7","738081261448597505","周","405","Male","[""坏他"",""坏我"",""好他"",""好我""]","[""弱他"",""弱我"",""强他"",""强我""]","","","","","","","","yes","","","","","","","","","SRET_EW","EW_practice","","key","j","16.650254237288223","768","428","朋友","忠实","Positive","morality","","","","","","","","","","",""
"965","","f","psychophysics","10","144692","0.0-7.0-1.0-0.1","7","6","7","6","6","5","4","5","5","5","5","2","2","2","1","1","2","2","2","5","4","5","5","4","5","4","4","4","4","7","6","7","6","6","5","6","7","7","7","7","7","7","7","6","7","1","7","7","1","6","5","7","7","6","6","7","7","7","7","7","7","7","6","6","7","6","7","7","7","7","6","7","7","7","7","7","7","5","7","738081261448597505","周","405","Male","[""坏他"",""坏我"",""好他"",""好我""]","[""弱他"",""弱我"",""强他"",""强我""]","","","","","","","","no","","","","","","","","","SRET_EW","EW_practice","","key","f","16.649649572649494","768","428","自己","刻板","Negative","ability","","","","","","","","","","",""
"886","","j","psychophysics","11","146580","0.0-7.0-1.0-0.2","7","6","7","6","6","5","4","5","5","5","5","2","2","2","1","1","2","2","2","5","4","5","5","4","5","4","4","4","4","7","6","7","6","6","5","6","7","7","7","7","7","7","7","6","7","1","7","7","1","6","5","7","7","6","6","7","7","7","7","7","7","7","6","6","7","6","7","7","7","7","6","7","7","7","7","7","7","5","7","738081261448597505","周","405","Male","[""坏他"",""坏我"",""好他"",""好我""]","[""弱他"",""弱我"",""强他"",""强我""]","","","","","","","","yes","","","","","","","","","SRET_EW","EW_practice","","key","j","16.65421428571426","768","428","自己","严谨","Positive","ability","","","","","","","","","","",""
"701","","f","psychophysics","12","148284","0.0-7.0-1.0-0.3","7","6","7","6","6","5","4","5","5","5","5","2","2","2","1","1","2","2","2","5","4","5","5","4","5","4","4","4","4","7","6","7","6","6","5","6","7","7","7","7","7","7","7","6","7","1","7","7","1","6","5","7","7","6","6","7","7","7","7","7","7","7","6","6","7","6","7","7","7","7","6","7","7","7","7","7","7","5","7","738081261448597505","周","405","Male","[""坏他"",""坏我"",""好他"",""好我""]","[""弱他"",""弱我"",""强他"",""强我""]","","","","","","","","no","","","","","","","","","SRET_EW","EW_practice","","key","f","16.652794117647264","768","428","朋友","徇私","Negative","morality","","","","","","","","","","",""
"3968","
    <p><div style='color:white;font-size:35px; line-height:20px;'>请您再次阅读实验要求</div></p><br>
    <p><div style='color:white;font-size:25px; line-height:20px;'>请回忆某一个亲密的朋友，你们至少2年前就认识了，并且最近2年经常见面。</div></p>
    <p><div style='color:white;font-size:25px; line-height:20px;'>在本实验中，您将会看到一些形容词。</div></p>
    <p><div style='color:yellow;font-size:25px; line-height:20px;'>您的任务是判断这些形容词是否符合对您自己或您的朋友的描述。</div></p>
    <p><div class='footer' style='font-size:25px; line-height:20px;'>如果对本实验还有不清楚之处，请立即向实验员咨询。</p><p style='font-size:25px; line-height:20px;'>如果您明白了规则：</p><p style='font-size:22px; line-height:20px;'>请按 继续 进入正式实验</p>
    </div>
    <p style='font-size:35px'>符合按<span style=""color:lightgreen""> j 键</span>，不符合按<span style=""color:red""> f 键</span></p>","0","html-button-response","13","152252","0.0-7.0-2.0","7","6","7","6","6","5","4","5","5","5","5","2","2","2","1","1","2","2","2","5","4","5","5","4","5","4","4","4","4","7","6","7","6","6","5","6","7","7","7","7","7","7","7","6","7","1","7","7","1","6","5","7","7","6","6","7","7","7","7","7","7","7","6","6","7","6","7","7","7","7","6","7","7","7","7","7","7","5","7","738081261448597505","周","405","Male","[""坏他"",""坏我"",""好他"",""好我""]","[""弱他"",""弱我"",""强他"",""强我""]","","","","","","","","","","","","","","","","","SRET_EW","prac_instructions","Mon Dec 25 2023 15:59:50 GMT+0800 (中国标准时间)","","","","","","","","","","","","","","","","","","","",""
"1215","","f","psychophysics","14","154468","0.0-7.0-3.0-0.0","7","6","7","6","6","5","4","5","5","5","5","2","2","2","1","1","2","2","2","5","4","5","5","4","5","4","4","4","4","7","6","7","6","6","5","6","7","7","7","7","7","7","7","6","7","1","7","7","1","6","5","7","7","6","6","7","7","7","7","7","7","7","6","6","7","6","7","7","7","7","6","7","7","7","7","7","7","5","7","738081261448597505","周","405","Male","[""坏他"",""坏我"",""好他"",""好我""]","[""弱他"",""弱我"",""强他"",""强我""]","","","","","","","","no","","","","","","","","","SRET","EW_formal","","key","f","16.649390977443655","768","428","朋友","迷糊","Negative","ability","","","","","","","","","","",""
"783","","j","psychophysics","15","156252","0.0-7.0-3.0-0.1","7","6","7","6","6","5","4","5","5","5","5","2","2","2","1","1","2","2","2","5","4","5","5","4","5","4","4","4","4","7","6","7","6","6","5","6","7","7","7","7","7","7","7","6","7","1","7","7","1","6","5","7","7","6","6","7","7","7","7","7","7","7","6","6","7","6","7","7","7","7","6","7","7","7","7","7","7","5","7","738081261448597505","周","405","Male","[""坏他"",""坏我"",""好他"",""好我""]","[""弱他"",""弱我"",""强他"",""强我""]","","","","","","","","yes","","","","","","","","","SRET","EW_formal","","key","j","16.65061320754714","768","428","自己","坚贞","Positive","morality","","","","","","","","","","",""
"1312","","j","psychophysics","16","158564","0.0-7.0-3.0-0.2","7","6","7","6","6","5","4","5","5","5","5","2","2","2","1","1","2","2","2","5","4","5","5","4","5","4","4","4","4","7","6","7","6","6","5","6","7","7","7","7","7","7","7","6","7","1","7","7","1","6","5","7","7","6","6","7","7","7","7","7","7","7","6","6","7","6","7","7","7","7","6","7","7","7","7","7","7","5","7","738081261448597505","周","405","Male","[""坏他"",""坏我"",""好他"",""好我""]","[""弱他"",""弱我"",""强他"",""强我""]","","","","","","","","yes","","","","","","","","","SRET","EW_formal","","key","j","16.653615942028935","768","428","朋友","务实","Positive","ability","","","","","","","","","","",""
"783","","f","psychophysics","17","160348","0.0-7.0-3.0-0.3","7","6","7","6","6","5","4","5","5","5","5","2","2","2","1","1","2","2","2","5","4","5","5","4","5","4","4","4","4","7","6","7","6","6","5","6","7","7","7","7","7","7","7","6","7","1","7","7","1","6","5","7","7","6","6","7","7","7","7","7","7","7","6","6","7","6","7","7","7","7","6","7","7","7","7","7","7","5","7","738081261448597505","周","405","Male","[""坏他"",""坏我"",""好他"",""好我""]","[""弱他"",""弱我"",""强他"",""强我""]","","","","","","","","no","","","","","","","","","SRET","EW_formal","","key","f","16.650122641509437","768","428","自己","说谎","Negative","morality","","","","","","","","","","",""
"1086","","f","psychophysics","18","162436","0.0-7.0-3.0-0.4","7","6","7","6","6","5","4","5","5","5","5","2","2","2","1","1","2","2","2","5","4","5","5","4","5","4","4","4","4","7","6","7","6","6","5","6","7","7","7","7","7","7","7","6","7","1","7","7","1","6","5","7","7","6","6","7","7","7","7","7","7","7","6","6","7","6","7","7","7","7","6","7","7","7","7","7","7","5","7","738081261448597505","周","405","Male","[""坏他"",""坏我"",""好他"",""好我""]","[""弱他"",""弱我"",""强他"",""强我""]","","","","","","","","no","","","","","","","","","SRET","EW_formal","","key","f","16.651576000000116","768","428","朋友","奸险","Negative","morality","","","","","","","","","","",""
"846","","f","psychophysics","19","164284","0.0-7.0-3.0-0.5","7","6","7","6","6","5","4","5","5","5","5","2","2","2","1","1","2","2","2","5","4","5","5","4","5","4","4","4","4","7","6","7","6","6","5","6","7","7","7","7","7","7","7","6","7","1","7","7","1","6","5","7","7","6","6","7","7","7","7","7","7","7","6","6","7","6","7","7","7","7","6","7","7","7","7","7","7","5","7","738081261448597505","周","405","Male","[""坏他"",""坏我"",""好他"",""好我""]","[""弱他"",""弱我"",""强他"",""强我""]","","","","","","","","no","","","","","","","","","SRET","EW_formal","","key","f","16.649254545454326","768","428","朋友","卑鄙","Negative","morality","","","","","","","","","","",""
"783","","j","psychophysics","20","166068","0.0-7.0-3.0-0.6","7","6","7","6","6","5","4","5","5","5","5","2","2","2","1","1","2","2","2","5","4","5","5","4","5","4","4","4","4","7","6","7","6","6","5","6","7","7","7","7","7","7","7","6","7","1","7","7","1","6","5","7","7","6","6","7","7","7","7","7","7","7","6","6","7","6","7","7","7","7","6","7","7","7","7","7","7","5","7","738081261448597505","周","405","Male","[""坏他"",""坏我"",""好他"",""好我""]","[""弱他"",""弱我"",""强他"",""强我""]","","","","","","","","yes","","","","","","","","","SRET","EW_formal","","key","j","16.647311320754902","768","428","朋友","好心","Positive","morality","","","","","","","","","","",""
"753","","f","psychophysics","21","167822","0.0-7.0-3.0-0.7","7","6","7","6","6","5","4","5","5","5","5","2","2","2","1","1","2","2","2","5","4","5","5","4","5","4","4","4","4","7","6","7","6","6","5","6","7","7","7","7","7","7","7","6","7","1","7","7","1","6","5","7","7","6","6","7","7","7","7","7","7","7","6","6","7","6","7","7","7","7","6","7","7","7","7","7","7","5","7","738081261448597505","周","405","Male","[""坏他"",""坏我"",""好他"",""好我""]","[""弱他"",""弱我"",""强他"",""强我""]","","","","","","","","no","","","","","","","","","SRET","EW_formal","","key","f","16.651076923076918","768","428","自己","恶劣","Negative","morality","","","","","","","","","","",""
"1254","","f","psychophysics","22","170077","0.0-7.0-3.0-0.8","7","6","7","6","6","5","4","5","5","5","5","2","2","2","1","1","2","2","2","5","4","5","5","4","5","4","4","4","4","7","6","7","6","6","5","6","7","7","7","7","7","7","7","6","7","1","7","7","1","6","5","7","7","6","6","7","7","7","7","7","7","7","6","6","7","6","7","7","7","7","6","7","7","7","7","7","7","5","7","738081261448597505","周","405","Male","[""坏他"",""坏我"",""好他"",""好我""]","[""弱他"",""弱我"",""强他"",""强我""]","","","","","","","","no","","","","","","","","","SRET","EW_formal","","key","f","16.651977611940445","768","428","自己","无为","Negative","ability","","","","","","","","","","",""
"749","","j","psychophysics","23","171828","0.0-7.0-3.0-0.9","7","6","7","6","6","5","4","5","5","5","5","2","2","2","1","1","2","2","2","5","4","5","5","4","5","4","4","4","4","7","6","7","6","6","5","6","7","7","7","7","7","7","7","6","7","1","7","7","1","6","5","7","7","6","6","7","7","7","7","7","7","7","6","6","7","6","7","7","7","7","6","7","7","7","7","7","7","5","7","738081261448597505","周","405","Male","[""坏他"",""坏我"",""好他"",""好我""]","[""弱他"",""弱我"",""强他"",""强我""]","","","","","","","","yes","","","","","","","","","SRET","EW_formal","","key","j","16.650961904762134","768","428","朋友","自律","Positive","ability","","","","","","","","","","",""
"903","","f","psychophysics","24","173733","0.0-7.0-3.0-0.10","7","6","7","6","6","5","4","5","5","5","5","2","2","2","1","1","2","2","2","5","4","5","5","4","5","4","4","4","4","7","6","7","6","6","5","6","7","7","7","7","7","7","7","6","7","1","7","7","1","6","5","7","7","6","6","7","7","7","7","7","7","7","6","6","7","6","7","7","7","7","6","7","7","7","7","7","7","5","7","738081261448597505","周","405","Male","[""坏他"",""坏我"",""好他"",""好我""]","[""弱他"",""弱我"",""强他"",""强我""]","","","","","","","","no","","","","","","","","","SRET","EW_formal","","key","f","16.649929203539912","768","428","自己","阴毒","Negative","morality","","","","","","","","","","",""
"999","","j","psychophysics","25","175734","0.0-7.0-3.0-0.11","7","6","7","6","6","5","4","5","5","5","5","2","2","2","1","1","2","2","2","5","4","5","5","4","5","4","4","4","4","7","6","7","6","6","5","6","7","7","7","7","7","7","7","6","7","1","7","7","1","6","5","7","7","6","6","7","7","7","7","7","7","7","6","6","7","6","7","7","7","7","6","7","7","7","7","7","7","5","7","738081261448597505","周","405","Male","[""坏他"",""坏我"",""好他"",""好我""]","[""弱他"",""弱我"",""强他"",""强我""]","","","","","","","","yes","","","","","","","","","SRET","EW_formal","","key","j","16.650941176470585","768","428","朋友","善良","Positive","morality","","","","","","","","","","",""
"781","","f","psychophysics","26","177516","0.0-7.0-3.0-0.12","7","6","7","6","6","5","4","5","5","5","5","2","2","2","1","1","2","2","2","5","4","5","5","4","5","4","4","4","4","7","6","7","6","6","5","6","7","7","7","7","7","7","7","6","7","1","7","7","1","6","5","7","7","6","6","7","7","7","7","7","7","7","6","6","7","6","7","7","7","7","6","7","7","7","7","7","7","5","7","738081261448597505","周","405","Male","[""坏他"",""坏我"",""好他"",""好我""]","[""弱他"",""弱我"",""强他"",""强我""]","","","","","","","","no","","","","","","","","","SRET","EW_formal","","key","f","16.648933962263982","768","428","朋友","怠惰","Negative","ability","","","","","","","","","","",""
"1471","","f","psychophysics","27","179988","0.0-7.0-3.0-0.13","7","6","7","6","6","5","4","5","5","5","5","2","2","2","1","1","2","2","2","5","4","5","5","4","5","4","4","4","4","7","6","7","6","6","5","6","7","7","7","7","7","7","7","6","7","1","7","7","1","6","5","7","7","6","6","7","7","7","7","7","7","7","6","6","7","6","7","7","7","7","6","7","7","7","7","7","7","5","7","738081261448597505","周","405","Male","[""坏他"",""坏我"",""好他"",""好我""]","[""弱他"",""弱我"",""强他"",""强我""]","","","","","","","","no","","","","","","","","","SRET","EW_formal","","key","f","16.651337837837943","768","428","自己","偏私","Negative","morality","","","","","","","","","","",""
"1222","","j","psychophysics","28","182212","0.0-7.0-3.0-0.14","7","6","7","6","6","5","4","5","5","5","5","2","2","2","1","1","2","2","2","5","4","5","5","4","5","4","4","4","4","7","6","7","6","6","5","6","7","7","7","7","7","7","7","6","7","1","7","7","1","6","5","7","7","6","6","7","7","7","7","7","7","7","6","6","7","6","7","7","7","7","6","7","7","7","7","7","7","5","7","738081261448597505","周","405","Male","[""坏他"",""坏我"",""好他"",""好我""]","[""弱他"",""弱我"",""强他"",""强我""]","","","","","","","","yes","","","","","","","","","SRET","EW_formal","","key","j","16.64736363636378","768","428","自己","廉正","Positive","morality","","","","","","","","","","",""
"1023","","f","psychophysics","29","184236","0.0-7.0-3.0-0.15","7","6","7","6","6","5","4","5","5","5","5","2","2","2","1","1","2","2","2","5","4","5","5","4","5","4","4","4","4","7","6","7","6","6","5","6","7","7","7","7","7","7","7","6","7","1","7","7","1","6","5","7","7","6","6","7","7","7","7","7","7","7","6","6","7","6","7","7","7","7","6","7","7","7","7","7","7","5","7","738081261448597505","周","405","Male","[""坏他"",""坏我"",""好他"",""好我""]","[""弱他"",""弱我"",""强他"",""强我""]","","","","","","","","no","","","","","","","","","SRET","EW_formal","","key","f","16.652033057851305","768","428","朋友","马虎","Negative","ability","","","","","","","","","","",""
"1046","","j","psychophysics","30","186284","0.0-7.0-3.0-0.16","7","6","7","6","6","5","4","5","5","5","5","2","2","2","1","1","2","2","2","5","4","5","5","4","5","4","4","4","4","7","6","7","6","6","5","6","7","7","7","7","7","7","7","6","7","1","7","7","1","6","5","7","7","6","6","7","7","7","7","7","7","7","6","6","7","6","7","7","7","7","6","7","7","7","7","7","7","5","7","738081261448597505","周","405","Male","[""坏他"",""坏我"",""好他"",""好我""]","[""弱他"",""弱我"",""强他"",""强我""]","","","","","","","","yes","","","","","","","","","SRET","EW_formal","","key","j","16.650729508196687","768","428","自己","淡泊","Positive","morality","","","","","","","","","","",""
"1622","","f","psychophysics","31","188908","0.0-7.0-3.0-0.17","7","6","7","6","6","5","4","5","5","5","5","2","2","2","1","1","2","2","2","5","4","5","5","4","5","4","4","4","4","7","6","7","6","6","5","6","7","7","7","7","7","7","7","6","7","1","7","7","1","6","5","7","7","6","6","7","7","7","7","7","7","7","6","6","7","6","7","7","7","7","6","7","7","7","7","7","7","5","7","738081261448597505","周","405","Male","[""坏他"",""坏我"",""好他"",""好我""]","[""弱他"",""弱我"",""强他"",""强我""]","","","","","","","","no","","","","","","","","","SRET","EW_formal","","key","f","16.651275641025748","768","428","朋友","贪腐","Negative","morality","","","","","","","","","","",""
"775","","j","psychophysics","32","190684","0.0-7.0-3.0-0.18","7","6","7","6","6","5","4","5","5","5","5","2","2","2","1","1","2","2","2","5","4","5","5","4","5","4","4","4","4","7","6","7","6","6","5","6","7","7","7","7","7","7","7","6","7","1","7","7","1","6","5","7","7","6","6","7","7","7","7","7","7","7","6","6","7","6","7","7","7","7","6","7","7","7","7","7","7","5","7","738081261448597505","周","405","Male","[""坏他"",""坏我"",""好他"",""好我""]","[""弱他"",""弱我"",""强他"",""强我""]","","","","","","","","yes","","","","","","","","","SRET","EW_formal","","key","j","16.652358490565984","768","428","朋友","聪明","Positive","ability","","","","","","","","","","",""
"1206","","f","psychophysics","33","192892","0.0-7.0-3.0-0.19","7","6","7","6","6","5","4","5","5","5","5","2","2","2","1","1","2","2","2","5","4","5","5","4","5","4","4","4","4","7","6","7","6","6","5","6","7","7","7","7","7","7","7","6","7","1","7","7","1","6","5","7","7","6","6","7","7","7","7","7","7","7","6","6","7","6","7","7","7","7","6","7","7","7","7","7","7","5","7","738081261448597505","周","405","Male","[""坏他"",""坏我"",""好他"",""好我""]","[""弱他"",""弱我"",""强他"",""强我""]","","","","","","","","no","","","","","","","","","SRET","EW_formal","","key","f","16.64915909090919","768","428","朋友","粗心","Negative","ability","","","","","","","","","","",""
"688","","f","psychophysics","34","194581","0.0-7.0-3.0-0.20","7","6","7","6","6","5","4","5","5","5","5","2","2","2","1","1","2","2","2","5","4","5","5","4","5","4","4","4","4","7","6","7","6","6","5","6","7","7","7","7","7","7","7","6","7","1","7","7","1","6","5","7","7","6","6","7","7","7","7","7","7","7","6","6","7","6","7","7","7","7","6","7","7","7","7","7","7","5","7","738081261448597505","周","405","Male","[""坏他"",""坏我"",""好他"",""好我""]","[""弱他"",""弱我"",""强他"",""强我""]","","","","","","","","no","","","","","","","","","SRET","EW_formal","","key","f","16.655050000000045","768","428","朋友","拙笨","Negative","ability","","","","","","","","","","",""
"749","","f","psychophysics","35","196332","0.0-7.0-3.0-0.21","7","6","7","6","6","5","4","5","5","5","5","2","2","2","1","1","2","2","2","5","4","5","5","4","5","4","4","4","4","7","6","7","6","6","5","6","7","7","7","7","7","7","7","6","7","1","7","7","1","6","5","7","7","6","6","7","7","7","7","7","7","7","6","6","7","6","7","7","7","7","6","7","7","7","7","7","7","5","7","738081261448597505","周","405","Male","[""坏他"",""坏我"",""好他"",""好我""]","[""弱他"",""弱我"",""强他"",""强我""]","","","","","","","","no","","","","","","","","","SRET","EW_formal","","key","f","16.64649038461525","768","428","自己","弱智","Negative","ability","","","","","","","","","","",""
"695","","j","psychophysics","36","198028","0.0-7.0-3.0-0.22","7","6","7","6","6","5","4","5","5","5","5","2","2","2","1","1","2","2","2","5","4","5","5","4","5","4","4","4","4","7","6","7","6","6","5","6","7","7","7","7","7","7","7","6","7","1","7","7","1","6","5","7","7","6","6","7","7","7","7","7","7","7","6","6","7","6","7","7","7","7","6","7","7","7","7","7","7","5","7","738081261448597505","周","405","Male","[""坏他"",""坏我"",""好他"",""好我""]","[""弱他"",""弱我"",""强他"",""强我""]","","","","","","","","yes","","","","","","","","","SRET","EW_formal","","key","j","16.653782178217888","768","428","自己","精干","Positive","ability","","","","","","","","","","",""
"702","","j","psychophysics","37","199732","0.0-7.0-3.0-0.23","7","6","7","6","6","5","4","5","5","5","5","2","2","2","1","1","2","2","2","5","4","5","5","4","5","4","4","4","4","7","6","7","6","6","5","6","7","7","7","7","7","7","7","6","7","1","7","7","1","6","5","7","7","6","6","7","7","7","7","7","7","7","6","6","7","6","7","7","7","7","6","7","7","7","7","7","7","5","7","738081261448597505","周","405","Male","[""坏他"",""坏我"",""好他"",""好我""]","[""弱他"",""弱我"",""强他"",""强我""]","","","","","","","","yes","","","","","","","","","SRET","EW_formal","","key","j","16.65413861386138","768","428","朋友","忠义","Positive","morality","","","","","","","","","","",""
"656","","j","psychophysics","38","201389","0.0-7.0-3.0-0.24","7","6","7","6","6","5","4","5","5","5","5","2","2","2","1","1","2","2","2","5","4","5","5","4","5","4","4","4","4","7","6","7","6","6","5","6","7","7","7","7","7","7","7","6","7","1","7","7","1","6","5","7","7","6","6","7","7","7","7","7","7","7","6","6","7","6","7","7","7","7","6","7","7","7","7","7","7","5","7","738081261448597505","周","405","Male","[""坏他"",""坏我"",""好他"",""好我""]","[""弱他"",""弱我"",""强他"",""强我""]","","","","","","","","yes","","","","","","","","","SRET","EW_formal","","key","j","16.65492929292918","768","428","朋友","君子","Positive","morality","","","","","","","","","","",""
"654","","j","psychophysics","39","203044","0.0-7.0-3.0-0.25","7","6","7","6","6","5","4","5","5","5","5","2","2","2","1","1","2","2","2","5","4","5","5","4","5","4","4","4","4","7","6","7","6","6","5","6","7","7","7","7","7","7","7","6","7","1","7","7","1","6","5","7","7","6","6","7","7","7","7","7","7","7","6","6","7","6","7","7","7","7","6","7","7","7","7","7","7","5","7","738081261448597505","周","405","Male","[""坏他"",""坏我"",""好他"",""好我""]","[""弱他"",""弱我"",""强他"",""强我""]","","","","","","","","yes","","","","","","","","","SRET","EW_formal","","key","j","16.652020408163423","768","428","朋友","忠诚","Positive","morality","","","","","","","","","","",""
"591","","j","psychophysics","40","204636","0.0-7.0-3.0-0.26","7","6","7","6","6","5","4","5","5","5","5","2","2","2","1","1","2","2","2","5","4","5","5","4","5","4","4","4","4","7","6","7","6","6","5","6","7","7","7","7","7","7","7","6","7","1","7","7","1","6","5","7","7","6","6","7","7","7","7","7","7","7","6","6","7","6","7","7","7","7","6","7","7","7","7","7","7","5","7","738081261448597505","周","405","Male","[""坏他"",""坏我"",""好他"",""好我""]","[""弱他"",""弱我"",""强他"",""强我""]","","","","","","","","yes","","","","","","","","","SRET","EW_formal","","key","j","16.65757894736843","768","428","朋友","守信","Positive","morality","","","","","","","","","","",""
"862","","f","psychophysics","41","206500","0.0-7.0-3.0-0.27","7","6","7","6","6","5","4","5","5","5","5","2","2","2","1","1","2","2","2","5","4","5","5","4","5","4","4","4","4","7","6","7","6","6","5","6","7","7","7","7","7","7","7","6","7","1","7","7","1","6","5","7","7","6","6","7","7","7","7","7","7","7","6","6","7","6","7","7","7","7","6","7","7","7","7","7","7","5","7","738081261448597505","周","405","Male","[""坏他"",""坏我"",""好他"",""好我""]","[""弱他"",""弱我"",""强他"",""强我""]","","","","","","","","no","","","","","","","","","SRET","EW_formal","","key","f","16.651801801801856","768","428","自己","拜金","Negative","morality","","","","","","","","","","",""
"1183","","j","psychophysics","42","208684","0.0-7.0-3.0-0.28","7","6","7","6","6","5","4","5","5","5","5","2","2","2","1","1","2","2","2","5","4","5","5","4","5","4","4","4","4","7","6","7","6","6","5","6","7","7","7","7","7","7","7","6","7","1","7","7","1","6","5","7","7","6","6","7","7","7","7","7","7","7","6","6","7","6","7","7","7","7","6","7","7","7","7","7","7","5","7","738081261448597505","周","405","Male","[""坏他"",""坏我"",""好他"",""好我""]","[""弱他"",""弱我"",""强他"",""强我""]","","","","","","","","yes","","","","","","","","","SRET","EW_formal","","key","j","16.65399230769231","768","428","自己","利落","Positive","ability","","","","","","","","","","",""
"759","","j","psychophysics","43","210445","0.0-7.0-3.0-0.29","7","6","7","6","6","5","4","5","5","5","5","2","2","2","1","1","2","2","2","5","4","5","5","4","5","4","4","4","4","7","6","7","6","6","5","6","7","7","7","7","7","7","7","6","7","1","7","7","1","6","5","7","7","6","6","7","7","7","7","7","7","7","6","6","7","6","7","7","7","7","6","7","7","7","7","7","7","5","7","738081261448597505","周","405","Male","[""坏他"",""坏我"",""好他"",""好我""]","[""弱他"",""弱我"",""强他"",""强我""]","","","","","","","","yes","","","","","","","","","SRET","EW_formal","","key","j","16.64901904761902","768","428","自己","博学","Positive","ability","","","","","","","","","","",""
"758","","f","psychophysics","44","212204","0.0-7.0-3.0-0.30","7","6","7","6","6","5","4","5","5","5","5","2","2","2","1","1","2","2","2","5","4","5","5","4","5","4","4","4","4","7","6","7","6","6","5","6","7","7","7","7","7","7","7","6","7","1","7","7","1","6","5","7","7","6","6","7","7","7","7","7","7","7","6","6","7","6","7","7","7","7","6","7","7","7","7","7","7","5","7","738081261448597505","周","405","Male","[""坏他"",""坏我"",""好他"",""好我""]","[""弱他"",""弱我"",""强他"",""强我""]","","","","","","","","no","","","","","","","","","SRET","EW_formal","","key","f","16.651855769230817","768","428","自己","愚钝","Negative","ability","","","","","","","","","","",""
"856","","f","psychophysics","45","214060","0.0-7.0-3.0-0.31","7","6","7","6","6","5","4","5","5","5","5","2","2","2","1","1","2","2","2","5","4","5","5","4","5","4","4","4","4","7","6","7","6","6","5","6","7","7","7","7","7","7","7","6","7","1","7","7","1","6","5","7","7","6","6","7","7","7","7","7","7","7","6","6","7","6","7","7","7","7","6","7","7","7","7","7","7","5","7","738081261448597505","周","405","Male","[""坏他"",""坏我"",""好他"",""好我""]","[""弱他"",""弱我"",""强他"",""强我""]","","","","","","","","no","","","","","","","","","SRET","EW_formal","","key","f","16.651855855855853","768","428","朋友","奸诈","Negative","morality","","","","","","","","","","",""
"774","","f","psychophysics","46","215836","0.0-7.0-3.0-0.32","7","6","7","6","6","5","4","5","5","5","5","2","2","2","1","1","2","2","2","5","4","5","5","4","5","4","4","4","4","7","6","7","6","6","5","6","7","7","7","7","7","7","7","6","7","1","7","7","1","6","5","7","7","6","6","7","7","7","7","7","7","7","6","6","7","6","7","7","7","7","6","7","7","7","7","7","7","5","7","738081261448597505","周","405","Male","[""坏他"",""坏我"",""好他"",""好我""]","[""弱他"",""弱我"",""强他"",""强我""]","","","","","","","","no","","","","","","","","","SRET","EW_formal","","key","f","16.6511509433962","768","428","自己","窝囊","Negative","ability","","","","","","","","","","",""
"830","","f","psychophysics","47","217668","0.0-7.0-3.0-0.33","7","6","7","6","6","5","4","5","5","5","5","2","2","2","1","1","2","2","2","5","4","5","5","4","5","4","4","4","4","7","6","7","6","6","5","6","7","7","7","7","7","7","7","6","7","1","7","7","1","6","5","7","7","6","6","7","7","7","7","7","7","7","6","6","7","6","7","7","7","7","6","7","7","7","7","7","7","5","7","738081261448597505","周","405","Male","[""坏他"",""坏我"",""好他"",""好我""]","[""弱他"",""弱我"",""强他"",""强我""]","","","","","","","","no","","","","","","","","","SRET","EW_formal","","key","f","16.654889908256894","768","428","朋友","诡诈","Negative","morality","","","","","","","","","","",""
"807","","f","psychophysics","48","219476","0.0-7.0-3.0-0.34","7","6","7","6","6","5","4","5","5","5","5","2","2","2","1","1","2","2","2","5","4","5","5","4","5","4","4","4","4","7","6","7","6","6","5","6","7","7","7","7","7","7","7","6","7","1","7","7","1","6","5","7","7","6","6","7","7","7","7","7","7","7","6","6","7","6","7","7","7","7","6","7","7","7","7","7","7","5","7","738081261448597505","周","405","Male","[""坏他"",""坏我"",""好他"",""好我""]","[""弱他"",""弱我"",""强他"",""强我""]","","","","","","","","no","","","","","","","","","SRET","EW_formal","","key","f","16.652514018691754","768","428","朋友","龌龊","Negative","morality","","","","","","","","","","",""
"735","","f","psychophysics","49","221212","0.0-7.0-3.0-0.35","7","6","7","6","6","5","4","5","5","5","5","2","2","2","1","1","2","2","2","5","4","5","5","4","5","4","4","4","4","7","6","7","6","6","5","6","7","7","7","7","7","7","7","6","7","1","7","7","1","6","5","7","7","6","6","7","7","7","7","7","7","7","6","6","7","6","7","7","7","7","6","7","7","7","7","7","7","5","7","738081261448597505","周","405","Male","[""坏他"",""坏我"",""好他"",""好我""]","[""弱他"",""弱我"",""强他"",""强我""]","","","","","","","","no","","","","","","","","","SRET","EW_formal","","key","f","16.651582524271962","768","428","朋友","无知","Negative","ability","","","","","","","","","","",""
"775","","j","psychophysics","50","222988","0.0-7.0-3.0-0.36","7","6","7","6","6","5","4","5","5","5","5","2","2","2","1","1","2","2","2","5","4","5","5","4","5","4","4","4","4","7","6","7","6","6","5","6","7","7","7","7","7","7","7","6","7","1","7","7","1","6","5","7","7","6","6","7","7","7","7","7","7","7","6","6","7","6","7","7","7","7","6","7","7","7","7","7","7","5","7","738081261448597505","周","405","Male","[""坏他"",""坏我"",""好他"",""好我""]","[""弱他"",""弱我"",""强他"",""强我""]","","","","","","","","yes","","","","","","","","","SRET","EW_formal","","key","j","16.65333018867949","768","428","朋友","文明","Positive","morality","","","","","","","","","","",""
"607","","f","psychophysics","51","224596","0.0-7.0-3.0-0.37","7","6","7","6","6","5","4","5","5","5","5","2","2","2","1","1","2","2","2","5","4","5","5","4","5","4","4","4","4","7","6","7","6","6","5","6","7","7","7","7","7","7","7","6","7","1","7","7","1","6","5","7","7","6","6","7","7","7","7","7","7","7","6","6","7","6","7","7","7","7","6","7","7","7","7","7","7","5","7","738081261448597505","周","405","Male","[""坏他"",""坏我"",""好他"",""好我""]","[""弱他"",""弱我"",""强他"",""强我""]","","","","","","","","no","","","","","","","","","SRET","EW_formal","","key","f","16.649374999999964","768","428","自己","畏难","Negative","ability","","","","","","","","","","",""
"1054","","f","psychophysics","52","226652","0.0-7.0-3.0-0.38","7","6","7","6","6","5","4","5","5","5","5","2","2","2","1","1","2","2","2","5","4","5","5","4","5","4","4","4","4","7","6","7","6","6","5","6","7","7","7","7","7","7","7","6","7","1","7","7","1","6","5","7","7","6","6","7","7","7","7","7","7","7","6","6","7","6","7","7","7","7","6","7","7","7","7","7","7","5","7","738081261448597505","周","405","Male","[""坏他"",""坏我"",""好他"",""好我""]","[""弱他"",""弱我"",""强他"",""强我""]","","","","","","","","no","","","","","","","","","SRET","EW_formal","","key","f","16.649434426229508","768","428","自己","变通","Positive","ability","","","","","","","","","","",""
"1167","","f","psychophysics","53","228820","0.0-7.0-3.0-0.39","7","6","7","6","6","5","4","5","5","5","5","2","2","2","1","1","2","2","2","5","4","5","5","4","5","4","4","4","4","7","6","7","6","6","5","6","7","7","7","7","7","7","7","6","7","1","7","7","1","6","5","7","7","6","6","7","7","7","7","7","7","7","6","6","7","6","7","7","7","7","6","7","7","7","7","7","7","5","7","738081261448597505","周","405","Male","[""坏他"",""坏我"",""好他"",""好我""]","[""弱他"",""弱我"",""强他"",""强我""]","","","","","","","","no","","","","","","","","","SRET","EW_formal","","key","f","16.653968992248014","768","428","自己","虚伪","Negative","morality","","","","","","","","","","",""
"782","","j","psychophysics","54","230604","0.0-7.0-3.0-0.40","7","6","7","6","6","5","4","5","5","5","5","2","2","2","1","1","2","2","2","5","4","5","5","4","5","4","4","4","4","7","6","7","6","6","5","6","7","7","7","7","7","7","7","6","7","1","7","7","1","6","5","7","7","6","6","7","7","7","7","7","7","7","6","6","7","6","7","7","7","7","6","7","7","7","7","7","7","5","7","738081261448597505","周","405","Male","[""坏他"",""坏我"",""好他"",""好我""]","[""弱他"",""弱我"",""强他"",""强我""]","","","","","","","","yes","","","","","","","","","SRET","EW_formal","","key","j","16.651811320754756","768","428","朋友","高效","Positive","ability","","","","","","","","","","",""
"736","","j","psychophysics","55","232340","0.0-7.0-3.0-0.41","7","6","7","6","6","5","4","5","5","5","5","2","2","2","1","1","2","2","2","5","4","5","5","4","5","4","4","4","4","7","6","7","6","6","5","6","7","7","7","7","7","7","7","6","7","1","7","7","1","6","5","7","7","6","6","7","7","7","7","7","7","7","6","6","7","6","7","7","7","7","6","7","7","7","7","7","7","5","7","738081261448597505","周","405","Male","[""坏他"",""坏我"",""好他"",""好我""]","[""弱他"",""弱我"",""强他"",""强我""]","","","","","","","","yes","","","","","","","","","SRET","EW_formal","","key","j","16.65169230769243","768","428","自己","仁爱","Positive","morality","","","","","","","","","","",""
"654","","j","psychophysics","56","233996","0.0-7.0-3.0-0.42","7","6","7","6","6","5","4","5","5","5","5","2","2","2","1","1","2","2","2","5","4","5","5","4","5","4","4","4","4","7","6","7","6","6","5","6","7","7","7","7","7","7","7","6","7","1","7","7","1","6","5","7","7","6","6","7","7","7","7","7","7","7","6","6","7","6","7","7","7","7","6","7","7","7","7","7","7","5","7","738081261448597505","周","405","Male","[""坏他"",""坏我"",""好他"",""好我""]","[""弱他"",""弱我"",""强他"",""强我""]","","","","","","","","yes","","","","","","","","","SRET","EW_formal","","key","j","16.649571428571385","768","428","自己","刚正","Positive","morality","","","","","","","","","","",""
"775","","f","psychophysics","57","235774","0.0-7.0-3.0-0.43","7","6","7","6","6","5","4","5","5","5","5","2","2","2","1","1","2","2","2","5","4","5","5","4","5","4","4","4","4","7","6","7","6","6","5","6","7","7","7","7","7","7","7","6","7","1","7","7","1","6","5","7","7","6","6","7","7","7","7","7","7","7","6","6","7","6","7","7","7","7","6","7","7","7","7","7","7","5","7","738081261448597505","周","405","Male","[""坏他"",""坏我"",""好他"",""好我""]","[""弱他"",""弱我"",""强他"",""强我""]","","","","","","","","no","","","","","","","","","SRET","EW_formal","","key","f","16.655273584905686","768","428","自己","无助","Negative","ability","","","","","","","","","","",""
"900","","f","psychophysics","58","237676","0.0-7.0-3.0-0.44","7","6","7","6","6","5","4","5","5","5","5","2","2","2","1","1","2","2","2","5","4","5","5","4","5","4","4","4","4","7","6","7","6","6","5","6","7","7","7","7","7","7","7","6","7","1","7","7","1","6","5","7","7","6","6","7","7","7","7","7","7","7","6","6","7","6","7","7","7","7","6","7","7","7","7","7","7","5","7","738081261448597505","周","405","Male","[""坏他"",""坏我"",""好他"",""好我""]","[""弱他"",""弱我"",""强他"",""强我""]","","","","","","","","no","","","","","","","","","SRET","EW_formal","","key","f","16.651238938053066","768","428","自己","义气","Positive","morality","","","","","","","","","","",""
"1471","","f","psychophysics","59","240148","0.0-7.0-3.0-0.45","7","6","7","6","6","5","4","5","5","5","5","2","2","2","1","1","2","2","2","5","4","5","5","4","5","4","4","4","4","7","6","7","6","6","5","6","7","7","7","7","7","7","7","6","7","1","7","7","1","6","5","7","7","6","6","7","7","7","7","7","7","7","6","6","7","6","7","7","7","7","6","7","7","7","7","7","7","5","7","738081261448597505","周","405","Male","[""坏他"",""坏我"",""好他"",""好我""]","[""弱他"",""弱我"",""强他"",""强我""]","","","","","","","","no","","","","","","","","","SRET","EW_formal","","key","f","16.651891891891765","768","428","朋友","无耻","Negative","morality","","","","","","","","","","",""
"982","","j","psychophysics","60","242132","0.0-7.0-3.0-0.46","7","6","7","6","6","5","4","5","5","5","5","2","2","2","1","1","2","2","2","5","4","5","5","4","5","4","4","4","4","7","6","7","6","6","5","6","7","7","7","7","7","7","7","6","7","1","7","7","1","6","5","7","7","6","6","7","7","7","7","7","7","7","6","6","7","6","7","7","7","7","6","7","7","7","7","7","7","5","7","738081261448597505","周","405","Male","[""坏他"",""坏我"",""好他"",""好我""]","[""弱他"",""弱我"",""强他"",""强我""]","","","","","","","","yes","","","","","","","","","SRET","EW_formal","","key","j","16.65031355932198","768","428","朋友","敏捷","Positive","ability","","","","","","","","","","",""
"577","","j","psychophysics","61","243710","0.0-7.0-3.0-0.47","7","6","7","6","6","5","4","5","5","5","5","2","2","2","1","1","2","2","2","5","4","5","5","4","5","4","4","4","4","7","6","7","6","6","5","6","7","7","7","7","7","7","7","6","7","1","7","7","1","6","5","7","7","6","6","7","7","7","7","7","7","7","6","6","7","6","7","7","7","7","6","7","7","7","7","7","7","5","7","738081261448597505","周","405","Male","[""坏他"",""坏我"",""好他"",""好我""]","[""弱他"",""弱我"",""强他"",""强我""]","","","","","","","","yes","","","","","","","","","SRET","EW_formal","","key","j","16.645297872340382","768","428","朋友","坚持","Positive","ability","","","","","","","","","","",""
"1245","","f","psychophysics","62","245956","0.0-7.0-3.0-0.48","7","6","7","6","6","5","4","5","5","5","5","2","2","2","1","1","2","2","2","5","4","5","5","4","5","4","4","4","4","7","6","7","6","6","5","6","7","7","7","7","7","7","7","6","7","1","7","7","1","6","5","7","7","6","6","7","7","7","7","7","7","7","6","6","7","6","7","7","7","7","6","7","7","7","7","7","7","5","7","738081261448597505","周","405","Male","[""坏他"",""坏我"",""好他"",""好我""]","[""弱他"",""弱我"",""强他"",""强我""]","","","","","","","","no","","","","","","","","","SRET","EW_formal","","key","f","16.651203007518692","768","428","朋友","短浅","Negative","ability","","","","","","","","","","",""
"1247","","f","psychophysics","63","248204","0.0-7.0-3.0-0.49","7","6","7","6","6","5","4","5","5","5","5","2","2","2","1","1","2","2","2","5","4","5","5","4","5","4","4","4","4","7","6","7","6","6","5","6","7","7","7","7","7","7","7","6","7","1","7","7","1","6","5","7","7","6","6","7","7","7","7","7","7","7","6","6","7","6","7","7","7","7","6","7","7","7","7","7","7","5","7","738081261448597505","周","405","Male","[""坏他"",""坏我"",""好他"",""好我""]","[""弱他"",""弱我"",""强他"",""强我""]","","","","","","","","no","","","","","","","","","SRET","EW_formal","","key","f","16.651231343283687","768","428","自己","庸碌","Negative","ability","","","","","","","","","","",""
"816","","f","psychophysics","64","250021","0.0-7.0-3.0-0.50","7","6","7","6","6","5","4","5","5","5","5","2","2","2","1","1","2","2","2","5","4","5","5","4","5","4","4","4","4","7","6","7","6","6","5","6","7","7","7","7","7","7","7","6","7","1","7","7","1","6","5","7","7","6","6","7","7","7","7","7","7","7","6","6","7","6","7","7","7","7","6","7","7","7","7","7","7","5","7","738081261448597505","周","405","Male","[""坏他"",""坏我"",""好他"",""好我""]","[""弱他"",""弱我"",""强他"",""强我""]","","","","","","","","no","","","","","","","","","SRET","EW_formal","","key","f","16.651155963302976","768","428","朋友","差生","Negative","ability","","","","","","","","","","",""
"861","","j","psychophysics","65","251884","0.0-7.0-3.0-0.51","7","6","7","6","6","5","4","5","5","5","5","2","2","2","1","1","2","2","2","5","4","5","5","4","5","4","4","4","4","7","6","7","6","6","5","6","7","7","7","7","7","7","7","6","7","1","7","7","1","6","5","7","7","6","6","7","7","7","7","7","7","7","6","6","7","6","7","7","7","7","6","7","7","7","7","7","7","5","7","738081261448597505","周","405","Male","[""坏他"",""坏我"",""好他"",""好我""]","[""弱他"",""弱我"",""强他"",""强我""]","","","","","","","","yes","","","","","","","","","SRET","EW_formal","","key","j","16.652009090908738","768","428","自己","稳健","Positive","ability","","","","","","","","","","",""
"1063","","j","psychophysics","66","253948","0.0-7.0-3.0-0.52","7","6","7","6","6","5","4","5","5","5","5","2","2","2","1","1","2","2","2","5","4","5","5","4","5","4","4","4","4","7","6","7","6","6","5","6","7","7","7","7","7","7","7","6","7","1","7","7","1","6","5","7","7","6","6","7","7","7","7","7","7","7","6","6","7","6","7","7","7","7","6","7","7","7","7","7","7","5","7","738081261448597505","周","405","Male","[""坏他"",""坏我"",""好他"",""好我""]","[""弱他"",""弱我"",""强他"",""强我""]","","","","","","","","yes","","","","","","","","","SRET","EW_formal","","key","j","16.65177235772362","768","428","自己","仗义","Positive","morality","","","","","","","","","","",""
"799","","j","psychophysics","67","255748","0.0-7.0-3.0-0.53","7","6","7","6","6","5","4","5","5","5","5","2","2","2","1","1","2","2","2","5","4","5","5","4","5","4","4","4","4","7","6","7","6","6","5","6","7","7","7","7","7","7","7","6","7","1","7","7","1","6","5","7","7","6","6","7","7","7","7","7","7","7","6","6","7","6","7","7","7","7","6","7","7","7","7","7","7","5","7","738081261448597505","周","405","Male","[""坏他"",""坏我"",""好他"",""好我""]","[""弱他"",""弱我"",""强他"",""强我""]","","","","","","","","yes","","","","","","","","","SRET","EW_formal","","key","j","16.65569158878545","768","428","朋友","周到","Positive","ability","","","","","","","","","","",""
"1143","","f","psychophysics","68","257892","0.0-7.0-3.0-0.54","7","6","7","6","6","5","4","5","5","5","5","2","2","2","1","1","2","2","2","5","4","5","5","4","5","4","4","4","4","7","6","7","6","6","5","6","7","7","7","7","7","7","7","6","7","1","7","7","1","6","5","7","7","6","6","7","7","7","7","7","7","7","6","6","7","6","7","7","7","7","6","7","7","7","7","7","7","5","7","738081261448597505","周","405","Male","[""坏他"",""坏我"",""好他"",""好我""]","[""弱他"",""弱我"",""强他"",""强我""]","","","","","","","","no","","","","","","","","","SRET","EW_formal","","key","f","16.655109375000393","768","428","朋友","拖拉","Negative","ability","","","","","","","","","","",""
"679","","f","psychophysics","69","259572","0.0-7.0-3.0-0.55","7","6","7","6","6","5","4","5","5","5","5","2","2","2","1","1","2","2","2","5","4","5","5","4","5","4","4","4","4","7","6","7","6","6","5","6","7","7","7","7","7","7","7","6","7","1","7","7","1","6","5","7","7","6","6","7","7","7","7","7","7","7","6","6","7","6","7","7","7","7","6","7","7","7","7","7","7","5","7","738081261448597505","周","405","Male","[""坏他"",""坏我"",""好他"",""好我""]","[""弱他"",""弱我"",""强他"",""强我""]","","","","","","","","no","","","","","","","","","SRET","EW_formal","","key","f","16.651489999999757","768","428","自己","不端","Negative","morality","","","","","","","","","","",""
"1199","","f","psychophysics","70","261772","0.0-7.0-3.0-0.56","7","6","7","6","6","5","4","5","5","5","5","2","2","2","1","1","2","2","2","5","4","5","5","4","5","4","4","4","4","7","6","7","6","6","5","6","7","7","7","7","7","7","7","6","7","1","7","7","1","6","5","7","7","6","6","7","7","7","7","7","7","7","6","6","7","6","7","7","7","7","6","7","7","7","7","7","7","5","7","738081261448597505","周","405","Male","[""坏他"",""坏我"",""好他"",""好我""]","[""弱他"",""弱我"",""强他"",""强我""]","","","","","","","","no","","","","","","","","","SRET","EW_formal","","key","f","16.65496183206098","768","428","自己","狡诈","Negative","morality","","","","","","","","","","",""
"758","","j","psychophysics","71","263532","0.0-7.0-3.0-0.57","7","6","7","6","6","5","4","5","5","5","5","2","2","2","1","1","2","2","2","5","4","5","5","4","5","4","4","4","4","7","6","7","6","6","5","6","7","7","7","7","7","7","7","6","7","1","7","7","1","6","5","7","7","6","6","7","7","7","7","7","7","7","6","6","7","6","7","7","7","7","6","7","7","7","7","7","7","5","7","738081261448597505","周","405","Male","[""坏他"",""坏我"",""好他"",""好我""]","[""弱他"",""弱我"",""强他"",""强我""]","","","","","","","","yes","","","","","","","","","SRET","EW_formal","","key","j","16.65190476190432","768","428","自己","细心","Positive","ability","","","","","","","","","","",""
"694","","j","psychophysics","72","265228","0.0-7.0-3.0-0.58","7","6","7","6","6","5","4","5","5","5","5","2","2","2","1","1","2","2","2","5","4","5","5","4","5","4","4","4","4","7","6","7","6","6","5","6","7","7","7","7","7","7","7","6","7","1","7","7","1","6","5","7","7","6","6","7","7","7","7","7","7","7","6","6","7","6","7","7","7","7","6","7","7","7","7","7","7","5","7","738081261448597505","周","405","Male","[""坏他"",""坏我"",""好他"",""好我""]","[""弱他"",""弱我"",""强他"",""强我""]","","","","","","","","yes","","","","","","","","","SRET","EW_formal","","key","j","16.65353465346518","768","428","自己","扎实","Positive","ability","","","","","","","","","","",""
"798","","j","psychophysics","73","267028","0.0-7.0-3.0-0.59","7","6","7","6","6","5","4","5","5","5","5","2","2","2","1","1","2","2","2","5","4","5","5","4","5","4","4","4","4","7","6","7","6","6","5","6","7","7","7","7","7","7","7","6","7","1","7","7","1","6","5","7","7","6","6","7","7","7","7","7","7","7","6","6","7","6","7","7","7","7","6","7","7","7","7","7","7","5","7","738081261448597505","周","405","Male","[""坏他"",""坏我"",""好他"",""好我""]","[""弱他"",""弱我"",""强他"",""强我""]","","","","","","","","yes","","","","","","","","","SRET","EW_formal","","key","j","16.649850467289582","768","428","朋友","慷慨","Positive","morality","","","","","","","","","","",""
"872","","j","psychophysics","74","268900","0.0-7.0-3.0-0.60","7","6","7","6","6","5","4","5","5","5","5","2","2","2","1","1","2","2","2","5","4","5","5","4","5","4","4","4","4","7","6","7","6","6","5","6","7","7","7","7","7","7","7","6","7","1","7","7","1","6","5","7","7","6","6","7","7","7","7","7","7","7","6","6","7","6","7","7","7","7","6","7","7","7","7","7","7","5","7","738081261448597505","周","405","Male","[""坏他"",""坏我"",""好他"",""好我""]","[""弱他"",""弱我"",""强他"",""强我""]","","","","","","","","yes","","","","","","","","","SRET","EW_formal","","key","j","16.6472342342347","768","428","自己","诚信","Positive","morality","","","","","","","","","","",""
"1120","","j","psychophysics","75","271021","0.0-7.0-3.0-0.61","7","6","7","6","6","5","4","5","5","5","5","2","2","2","1","1","2","2","2","5","4","5","5","4","5","4","4","4","4","7","6","7","6","6","5","6","7","7","7","7","7","7","7","6","7","1","7","7","1","6","5","7","7","6","6","7","7","7","7","7","7","7","6","6","7","6","7","7","7","7","6","7","7","7","7","7","7","5","7","738081261448597505","周","405","Male","[""坏他"",""坏我"",""好他"",""好我""]","[""弱他"",""弱我"",""强他"",""强我""]","","","","","","","","yes","","","","","","","","","SRET","EW_formal","","key","j","16.653196850393744","768","428","朋友","果断","Positive","ability","","","","","","","","","","",""
"660","","j","psychophysics","76","272684","0.0-7.0-3.0-0.62","7","6","7","6","6","5","4","5","5","5","5","2","2","2","1","1","2","2","2","5","4","5","5","4","5","4","4","4","4","7","6","7","6","6","5","6","7","7","7","7","7","7","7","6","7","1","7","7","1","6","5","7","7","6","6","7","7","7","7","7","7","7","6","6","7","6","7","7","7","7","6","7","7","7","7","7","7","5","7","738081261448597505","周","405","Male","[""坏他"",""坏我"",""好他"",""好我""]","[""弱他"",""弱我"",""强他"",""强我""]","","","","","","","","yes","","","","","","","","","SRET","EW_formal","","key","j","16.647111111111244","768","428","朋友","专注","Positive","ability","","","","","","","","","","",""
"791","","j","psychophysics","77","274476","0.0-7.0-3.0-0.63","7","6","7","6","6","5","4","5","5","5","5","2","2","2","1","1","2","2","2","5","4","5","5","4","5","4","4","4","4","7","6","7","6","6","5","6","7","7","7","7","7","7","7","6","7","1","7","7","1","6","5","7","7","6","6","7","7","7","7","7","7","7","6","6","7","6","7","7","7","7","6","7","7","7","7","7","7","5","7","738081261448597505","周","405","Male","[""坏他"",""坏我"",""好他"",""好我""]","[""弱他"",""弱我"",""强他"",""强我""]","","","","","","","","yes","","","","","","","","","SRET","EW_formal","","key","j","16.65236792452842","768","428","自己","仁厚","Positive","morality","","","","","","","","","","",""
"863","","f","psychophysics","78","276340","0.0-7.0-3.0-0.64","7","6","7","6","6","5","4","5","5","5","5","2","2","2","1","1","2","2","2","5","4","5","5","4","5","4","4","4","4","7","6","7","6","6","5","6","7","7","7","7","7","7","7","6","7","1","7","7","1","6","5","7","7","6","6","7","7","7","7","7","7","7","6","6","7","6","7","7","7","7","6","7","7","7","7","7","7","5","7","738081261448597505","周","405","Male","[""坏他"",""坏我"",""好他"",""好我""]","[""弱他"",""弱我"",""强他"",""强我""]","","","","","","","","no","","","","","","","","","SRET","EW_formal","","key","f","16.651108108107987","768","428","自己","势利","Negative","morality","","","","","","","","","","",""
"895","","j","psychophysics","79","278236","0.0-7.0-3.0-0.65","7","6","7","6","6","5","4","5","5","5","5","2","2","2","1","1","2","2","2","5","4","5","5","4","5","4","4","4","4","7","6","7","6","6","5","6","7","7","7","7","7","7","7","6","7","1","7","7","1","6","5","7","7","6","6","7","7","7","7","7","7","7","6","6","7","6","7","7","7","7","6","7","7","7","7","7","7","5","7","738081261448597505","周","405","Male","[""坏他"",""坏我"",""好他"",""好我""]","[""弱他"",""弱我"",""强他"",""强我""]","","","","","","","","yes","","","","","","","","","SRET","EW_formal","","key","j","16.6553185840706","768","428","朋友","勤恳","Positive","morality","","","","","","","","","","",""
"878","","j","psychophysics","80","280116","0.0-7.0-3.0-0.66","7","6","7","6","6","5","4","5","5","5","5","2","2","2","1","1","2","2","2","5","4","5","5","4","5","4","4","4","4","7","6","7","6","6","5","6","7","7","7","7","7","7","7","6","7","1","7","7","1","6","5","7","7","6","6","7","7","7","7","7","7","7","6","6","7","6","7","7","7","7","6","7","7","7","7","7","7","5","7","738081261448597505","周","405","Male","[""坏他"",""坏我"",""好他"",""好我""]","[""弱他"",""弱我"",""强他"",""强我""]","","","","","","","","yes","","","","","","","","","SRET","EW_formal","","key","j","16.650232142857153","768","428","自己","守法","Positive","morality","","","","","","","","","","",""
"864","","j","psychophysics","81","281981","0.0-7.0-3.0-0.67","7","6","7","6","6","5","4","5","5","5","5","2","2","2","1","1","2","2","2","5","4","5","5","4","5","4","4","4","4","7","6","7","6","6","5","6","7","7","7","7","7","7","7","6","7","1","7","7","1","6","5","7","7","6","6","7","7","7","7","7","7","7","6","6","7","6","7","7","7","7","6","7","7","7","7","7","7","5","7","738081261448597505","周","405","Male","[""坏他"",""坏我"",""好他"",""好我""]","[""弱他"",""弱我"",""强他"",""强我""]","","","","","","","","yes","","","","","","","","","SRET","EW_formal","","key","j","16.650207207207295","768","428","朋友","热心","Positive","morality","","","","","","","","","","",""
"614","","j","psychophysics","82","283596","0.0-7.0-3.0-0.68","7","6","7","6","6","5","4","5","5","5","5","2","2","2","1","1","2","2","2","5","4","5","5","4","5","4","4","4","4","7","6","7","6","6","5","6","7","7","7","7","7","7","7","6","7","1","7","7","1","6","5","7","7","6","6","7","7","7","7","7","7","7","6","6","7","6","7","7","7","7","6","7","7","7","7","7","7","5","7","738081261448597505","周","405","Male","[""坏他"",""坏我"",""好他"",""好我""]","[""弱他"",""弱我"",""强他"",""强我""]","","","","","","","","yes","","","","","","","","","SRET","EW_formal","","key","j","16.65271875000023","768","428","朋友","有力","Positive","ability","","","","","","","","","","",""
"774","","f","psychophysics","83","285372","0.0-7.0-3.0-0.69","7","6","7","6","6","5","4","5","5","5","5","2","2","2","1","1","2","2","2","5","4","5","5","4","5","4","4","4","4","7","6","7","6","6","5","6","7","7","7","7","7","7","7","6","7","1","7","7","1","6","5","7","7","6","6","7","7","7","7","7","7","7","6","6","7","6","7","7","7","7","6","7","7","7","7","7","7","5","7","738081261448597505","周","405","Male","[""坏他"",""坏我"",""好他"",""好我""]","[""弱他"",""弱我"",""强他"",""强我""]","","","","","","","","no","","","","","","","","","SRET","EW_formal","","key","f","16.64783018867964","768","428","朋友","愚痴","Negative","ability","","","","","","","","","","",""
"790","","j","psychophysics","84","287164","0.0-7.0-3.0-0.70","7","6","7","6","6","5","4","5","5","5","5","2","2","2","1","1","2","2","2","5","4","5","5","4","5","4","4","4","4","7","6","7","6","6","5","6","7","7","7","7","7","7","7","6","7","1","7","7","1","6","5","7","7","6","6","7","7","7","7","7","7","7","6","6","7","6","7","7","7","7","6","7","7","7","7","7","7","5","7","738081261448597505","周","405","Male","[""坏他"",""坏我"",""好他"",""好我""]","[""弱他"",""弱我"",""强他"",""强我""]","","","","","","","","yes","","","","","","","","","SRET","EW_formal","","key","j","16.65345283018871","768","428","自己","中用","Positive","ability","","","","","","","","","","",""
"840","","j","psychophysics","85","289004","0.0-7.0-3.0-0.71","7","6","7","6","6","5","4","5","5","5","5","2","2","2","1","1","2","2","2","5","4","5","5","4","5","4","4","4","4","7","6","7","6","6","5","6","7","7","7","7","7","7","7","6","7","1","7","7","1","6","5","7","7","6","6","7","7","7","7","7","7","7","6","6","7","6","7","7","7","7","6","7","7","7","7","7","7","5","7","738081261448597505","周","405","Male","[""坏他"",""坏我"",""好他"",""好我""]","[""弱他"",""弱我"",""强他"",""强我""]","","","","","","","","yes","","","","","","","","","SRET","EW_formal","","key","j","16.65448181818197","768","428","自己","学霸","Positive","ability","","","","","","","","","","",""
"717","","f","psychophysics","86","290724","0.0-7.0-3.0-0.72","7","6","7","6","6","5","4","5","5","5","5","2","2","2","1","1","2","2","2","5","4","5","5","4","5","4","4","4","4","7","6","7","6","6","5","6","7","7","7","7","7","7","7","6","7","1","7","7","1","6","5","7","7","6","6","7","7","7","7","7","7","7","6","6","7","6","7","7","7","7","6","7","7","7","7","7","7","5","7","738081261448597505","周","405","Male","[""坏他"",""坏我"",""好他"",""好我""]","[""弱他"",""弱我"",""强他"",""强我""]","","","","","","","","no","","","","","","","","","SRET","EW_formal","","key","f","16.646764705882077","768","428","朋友","腐败","Negative","morality","","","","","","","","","","",""
"639","","j","psychophysics","87","292364","0.0-7.0-3.0-0.73","7","6","7","6","6","5","4","5","5","5","5","2","2","2","1","1","2","2","2","5","4","5","5","4","5","4","4","4","4","7","6","7","6","6","5","6","7","7","7","7","7","7","7","6","7","1","7","7","1","6","5","7","7","6","6","7","7","7","7","7","7","7","6","6","7","6","7","7","7","7","6","7","7","7","7","7","7","5","7","738081261448597505","周","405","Male","[""坏他"",""坏我"",""好他"",""好我""]","[""弱他"",""弱我"",""强他"",""强我""]","","","","","","","","yes","","","","","","","","","SRET","EW_formal","","key","j","16.647010309278446","768","428","自己","自私","Negative","morality","","","","","","","","","","",""
"1462","","f","psychophysics","88","294829","0.0-7.0-3.0-0.74","7","6","7","6","6","5","4","5","5","5","5","2","2","2","1","1","2","2","2","5","4","5","5","4","5","4","4","4","4","7","6","7","6","6","5","6","7","7","7","7","7","7","7","6","7","1","7","7","1","6","5","7","7","6","6","7","7","7","7","7","7","7","6","6","7","6","7","7","7","7","6","7","7","7","7","7","7","5","7","738081261448597505","周","405","Male","[""坏他"",""坏我"",""好他"",""好我""]","[""弱他"",""弱我"",""强他"",""强我""]","","","","","","","","no","","","","","","","","","SRET","EW_formal","","key","f","16.650966216216172","768","428","自己","拖延","Negative","ability","","","","","","","","","","",""
"1198","","f","psychophysics","89","297028","0.0-7.0-3.0-0.75","7","6","7","6","6","5","4","5","5","5","5","2","2","2","1","1","2","2","2","5","4","5","5","4","5","4","4","4","4","7","6","7","6","6","5","6","7","7","7","7","7","7","7","6","7","1","7","7","1","6","5","7","7","6","6","7","7","7","7","7","7","7","6","6","7","6","7","7","7","7","6","7","7","7","7","7","7","5","7","738081261448597505","周","405","Male","[""坏他"",""坏我"",""好他"",""好我""]","[""弱他"",""弱我"",""强他"",""强我""]","","","","","","","","no","","","","","","","","","SRET","EW_formal","","key","f","16.64968702290074","768","428","朋友","昏庸","Negative","ability","","","","","","","","","","",""
"822","","f","psychophysics","90","298853","0.0-7.0-3.0-0.76","7","6","7","6","6","5","4","5","5","5","5","2","2","2","1","1","2","2","2","5","4","5","5","4","5","4","4","4","4","7","6","7","6","6","5","6","7","7","7","7","7","7","7","6","7","1","7","7","1","6","5","7","7","6","6","7","7","7","7","7","7","7","6","6","7","6","7","7","7","7","6","7","7","7","7","7","7","5","7","738081261448597505","周","405","Male","[""坏他"",""坏我"",""好他"",""好我""]","[""弱他"",""弱我"",""强他"",""强我""]","","","","","","","","no","","","","","","","","","SRET","EW_formal","","key","f","16.649972222222626","768","428","朋友","伪善","Negative","morality","","","","","","","","","","",""
"1132","","f","psychophysics","91","300988","0.0-7.0-3.0-0.77","7","6","7","6","6","5","4","5","5","5","5","2","2","2","1","1","2","2","2","5","4","5","5","4","5","4","4","4","4","7","6","7","6","6","5","6","7","7","7","7","7","7","7","6","7","1","7","7","1","6","5","7","7","6","6","7","7","7","7","7","7","7","6","6","7","6","7","7","7","7","6","7","7","7","7","7","7","5","7","738081261448597505","周","405","Male","[""坏他"",""坏我"",""好他"",""好我""]","[""弱他"",""弱我"",""强他"",""强我""]","","","","","","","","no","","","","","","","","","SRET","EW_formal","","key","f","16.654496062992006","768","428","自己","草率","Negative","ability","","","","","","","","","","",""
"639","","f","psychophysics","92","302628","0.0-7.0-3.0-0.78","7","6","7","6","6","5","4","5","5","5","5","2","2","2","1","1","2","2","2","5","4","5","5","4","5","4","4","4","4","7","6","7","6","6","5","6","7","7","7","7","7","7","7","6","7","1","7","7","1","6","5","7","7","6","6","7","7","7","7","7","7","7","6","6","7","6","7","7","7","7","6","7","7","7","7","7","7","5","7","738081261448597505","周","405","Male","[""坏他"",""坏我"",""好他"",""好我""]","[""弱他"",""弱我"",""强他"",""强我""]","","","","","","","","no","","","","","","","","","SRET","EW_formal","","key","f","16.651255102041155","768","428","自己","无赖","Negative","morality","","","","","","","","","","",""
"607","","j","psychophysics","93","304236","0.0-7.0-3.0-0.79","7","6","7","6","6","5","4","5","5","5","5","2","2","2","1","1","2","2","2","5","4","5","5","4","5","4","4","4","4","7","6","7","6","6","5","6","7","7","7","7","7","7","7","6","7","1","7","7","1","6","5","7","7","6","6","7","7","7","7","7","7","7","6","6","7","6","7","7","7","7","6","7","7","7","7","7","7","5","7","738081261448597505","周","405","Male","[""坏他"",""坏我"",""好他"",""好我""]","[""弱他"",""弱我"",""强他"",""强我""]","","","","","","","","yes","","","","","","","","","SRET","EW_formal","","key","j","16.64810526315797","768","428","自己","忠勇","Positive","morality","","","","","","","","","","",""
"695","","f","psychophysics","94","305932","0.0-7.0-3.0-0.80","7","6","7","6","6","5","4","5","5","5","5","2","2","2","1","1","2","2","2","5","4","5","5","4","5","4","4","4","4","7","6","7","6","6","5","6","7","7","7","7","7","7","7","6","7","1","7","7","1","6","5","7","7","6","6","7","7","7","7","7","7","7","6","6","7","6","7","7","7","7","6","7","7","7","7","7","7","5","7","738081261448597505","周","405","Male","[""坏他"",""坏我"",""好他"",""好我""]","[""弱他"",""弱我"",""强他"",""强我""]","","","","","","","","no","","","","","","","","","SRET","EW_formal","","key","f","16.654396039604364","768","428","自己","迂拙","Negative","ability","","","","","","","","","","",""
"1263","","j","psychophysics","95","308197","0.0-7.0-3.0-0.81","7","6","7","6","6","5","4","5","5","5","5","2","2","2","1","1","2","2","2","5","4","5","5","4","5","4","4","4","4","7","6","7","6","6","5","6","7","7","7","7","7","7","7","6","7","1","7","7","1","6","5","7","7","6","6","7","7","7","7","7","7","7","6","6","7","6","7","7","7","7","6","7","7","7","7","7","7","5","7","738081261448597505","周","405","Male","[""坏他"",""坏我"",""好他"",""好我""]","[""弱他"",""弱我"",""强他"",""强我""]","","","","","","","","yes","","","","","","","","","SRET","EW_formal","","key","j","16.651533333333294","768","428","朋友","骁勇","Positive","ability","","","","","","","","","","",""
"709","","f","psychophysics","96","309908","0.0-7.0-3.0-0.82","7","6","7","6","6","5","4","5","5","5","5","2","2","2","1","1","2","2","2","5","4","5","5","4","5","4","4","4","4","7","6","7","6","6","5","6","7","7","7","7","7","7","7","6","7","1","7","7","1","6","5","7","7","6","6","7","7","7","7","7","7","7","6","6","7","6","7","7","7","7","6","7","7","7","7","7","7","5","7","738081261448597505","周","405","Male","[""坏他"",""坏我"",""好他"",""好我""]","[""弱他"",""弱我"",""强他"",""强我""]","","","","","","","","no","","","","","","","","","SRET","EW_formal","","key","f","16.650696078431793","768","428","朋友","混账","Negative","morality","","","","","","","","","","",""
"1263","","f","psychophysics","97","312172","0.0-7.0-3.0-0.83","7","6","7","6","6","5","4","5","5","5","5","2","2","2","1","1","2","2","2","5","4","5","5","4","5","4","4","4","4","7","6","7","6","6","5","6","7","7","7","7","7","7","7","6","7","1","7","7","1","6","5","7","7","6","6","7","7","7","7","7","7","7","6","6","7","6","7","7","7","7","6","7","7","7","7","7","7","5","7","738081261448597505","周","405","Male","[""坏他"",""坏我"",""好他"",""好我""]","[""弱他"",""弱我"",""强他"",""强我""]","","","","","","","","no","","","","","","","","","SRET","EW_formal","","key","f","16.651807407407453","768","428","自己","无敌","Positive","ability","","","","","","","","","","",""
"1206","","f","psychophysics","98","314381","0.0-7.0-3.0-0.84","7","6","7","6","6","5","4","5","5","5","5","2","2","2","1","1","2","2","2","5","4","5","5","4","5","4","4","4","4","7","6","7","6","6","5","6","7","7","7","7","7","7","7","6","7","1","7","7","1","6","5","7","7","6","6","7","7","7","7","7","7","7","6","6","7","6","7","7","7","7","6","7","7","7","7","7","7","5","7","738081261448597505","周","405","Male","[""坏他"",""坏我"",""好他"",""好我""]","[""弱他"",""弱我"",""强他"",""强我""]","","","","","","","","no","","","","","","","","","SRET","EW_formal","","key","f","16.65154545454557","768","428","朋友","低俗","Negative","morality","","","","","","","","","","",""
"1310","","f","psychophysics","99","316692","0.0-7.0-3.0-0.85","7","6","7","6","6","5","4","5","5","5","5","2","2","2","1","1","2","2","2","5","4","5","5","4","5","4","4","4","4","7","6","7","6","6","5","6","7","7","7","7","7","7","7","6","7","1","7","7","1","6","5","7","7","6","6","7","7","7","7","7","7","7","6","6","7","6","7","7","7","7","6","7","7","7","7","7","7","5","7","738081261448597505","周","405","Male","[""坏他"",""坏我"",""好他"",""好我""]","[""弱他"",""弱我"",""强他"",""强我""]","","","","","","","","no","","","","","","","","","SRET","EW_formal","","key","f","16.65024637681157","768","428","自己","缓慢","Negative","ability","","","","","","","","","","",""
"695","","j","psychophysics","100","318388","0.0-7.0-3.0-0.86","7","6","7","6","6","5","4","5","5","5","5","2","2","2","1","1","2","2","2","5","4","5","5","4","5","4","4","4","4","7","6","7","6","6","5","6","7","7","7","7","7","7","7","6","7","1","7","7","1","6","5","7","7","6","6","7","7","7","7","7","7","7","6","6","7","6","7","7","7","7","6","7","7","7","7","7","7","5","7","738081261448597505","周","405","Male","[""坏他"",""坏我"",""好他"",""好我""]","[""弱他"",""弱我"",""强他"",""强我""]","","","","","","","","yes","","","","","","","","","SRET","EW_formal","","key","j","16.65313000000024","768","428","朋友","素养","Positive","morality","","","","","","","","","","",""
"1055","","j","psychophysics","101","320444","0.0-7.0-3.0-0.87","7","6","7","6","6","5","4","5","5","5","5","2","2","2","1","1","2","2","2","5","4","5","5","4","5","4","4","4","4","7","6","7","6","6","5","6","7","7","7","7","7","7","7","6","7","1","7","7","1","6","5","7","7","6","6","7","7","7","7","7","7","7","6","6","7","6","7","7","7","7","6","7","7","7","7","7","7","5","7","738081261448597505","周","405","Male","[""坏他"",""坏我"",""好他"",""好我""]","[""弱他"",""弱我"",""强他"",""强我""]","","","","","","","","yes","","","","","","","","","SRET","EW_formal","","key","j","16.65097560975568","768","428","自己","主见","Positive","ability","","","","","","","","","","",""
"5055","
    <p><div style='color:white;font-size:35px; line-height:20px;'>计算任务</div></p><br>
    <p><div style='color:red;font-size:25px; line-height:20px;'>接下来，您将看到一些四则运算题，<b>请从键盘选择 0-9 进行反应。</b></div></p>
    <p><div style='color:red;font-size:25px; line-height:20px;'>请尽可能快地进行计算，计算的速度和正确率将影响报酬的发放。</div></p>
    <p><div class='footer' style='color:white;font-size:25px; line-height:20px;'>如果对本实验还有不清楚之处，请立即向实验员咨询。</p><p style='color:white;font-size:25px; line-height:20px;'>如果您明白了规则：</p><p style='color:white;font-size:22px; line-height:20px;'>请按 继续 进入练习</p>
    </div>
    ","0","html-button-response","102","325500","0.0-7.0-4.0","7","6","7","6","6","5","4","5","5","5","5","2","2","2","1","1","2","2","2","5","4","5","5","4","5","4","4","4","4","7","6","7","6","6","5","6","7","7","7","7","7","7","7","6","7","1","7","7","1","6","5","7","7","6","6","7","7","7","7","7","7","7","6","6","7","6","7","7","7","7","6","7","7","7","7","7","7","5","7","738081261448597505","周","405","Male","[""坏他"",""坏我"",""好他"",""好我""]","[""弱他"",""弱我"",""强他"",""强我""]","","","","","","","","","","","","","","","","","SRET_math","math_instructions","Mon Dec 25 2023 15:59:50 GMT+0800 (中国标准时间)","","","","","","","","","","","","","","","","","","","",""
"1861","","9","psychophysics","103","327363","0.0-7.0-5.0-0.0","7","6","7","6","6","5","4","5","5","5","5","2","2","2","1","1","2","2","2","5","4","5","5","4","5","4","4","4","4","7","6","7","6","6","5","6","7","7","7","7","7","7","7","6","7","1","7","7","1","6","5","7","7","6","6","7","7","7","7","7","7","7","6","6","7","6","7","7","7","7","6","7","7","7","7","7","7","5","7","738081261448597505","周","405","Male","[""坏他"",""坏我"",""好他"",""好我""]","[""弱他"",""弱我"",""强他"",""强我""]","","","","","","","","9","","","","","","","","","SRET","SRET_math_calculate","","key","9","16.650792792792902","768","428","","","","","4+5= ?","9","1","","","","","","","",""
"1742","","7","psychophysics","104","329107","0.0-7.0-5.0-0.1","7","6","7","6","6","5","4","5","5","5","5","2","2","2","1","1","2","2","2","5","4","5","5","4","5","4","4","4","4","7","6","7","6","6","5","6","7","7","7","7","7","7","7","6","7","1","7","7","1","6","5","7","7","6","6","7","7","7","7","7","7","7","6","6","7","6","7","7","7","7","6","7","7","7","7","7","7","5","7","738081261448597505","周","405","Male","[""坏他"",""坏我"",""好他"",""好我""]","[""弱他"",""弱我"",""强他"",""强我""]","","","","","","","","7","","","","","","","","","SRET","SRET_math_calculate","","key","7","16.652653846153743","768","428","","","","","6+1= ?","7","1","","","","","","","",""
"1951","","4","psychophysics","105","331059","0.0-7.0-5.0-0.2","7","6","7","6","6","5","4","5","5","5","5","2","2","2","1","1","2","2","2","5","4","5","5","4","5","4","4","4","4","7","6","7","6","6","5","6","7","7","7","7","7","7","7","6","7","1","7","7","1","6","5","7","7","6","6","7","7","7","7","7","7","7","6","6","7","6","7","7","7","7","6","7","7","7","7","7","7","5","7","738081261448597505","周","405","Male","[""坏他"",""坏我"",""好他"",""好我""]","[""弱他"",""弱我"",""强他"",""强我""]","","","","","","","","4","","","","","","","","","SRET","SRET_math_calculate","","key","4","16.651051724137908","768","428","","","","","8-4= ?","4","1","","","","","","","",""
"1847","","7","psychophysics","106","332907","0.0-7.0-5.0-0.3","7","6","7","6","6","5","4","5","5","5","5","2","2","2","1","1","2","2","2","5","4","5","5","4","5","4","4","4","4","7","6","7","6","6","5","6","7","7","7","7","7","7","7","6","7","1","7","7","1","6","5","7","7","6","6","7","7","7","7","7","7","7","6","6","7","6","7","7","7","7","6","7","7","7","7","7","7","5","7","738081261448597505","周","405","Male","[""坏他"",""坏我"",""好他"",""好我""]","[""弱他"",""弱我"",""强他"",""强我""]","","","","","","","","7","","","","","","","","","SRET","SRET_math_calculate","","key","7","16.651836363636274","768","428","","","","","12-5= ?","7","1","","","","","","","",""
"1920","","0","psychophysics","107","334828","0.0-7.0-5.0-0.4","7","6","7","6","6","5","4","5","5","5","5","2","2","2","1","1","2","2","2","5","4","5","5","4","5","4","4","4","4","7","6","7","6","6","5","6","7","7","7","7","7","7","7","6","7","1","7","7","1","6","5","7","7","6","6","7","7","7","7","7","7","7","6","6","7","6","7","7","7","7","6","7","7","7","7","7","7","5","7","738081261448597505","周","405","Male","[""坏他"",""坏我"",""好他"",""好我""]","[""弱他"",""弱我"",""强他"",""强我""]","","","","","","","","0","","","","","","","","","SRET","SRET_math_calculate","","key","0","16.651721739130217","768","428","","","","","12-12= ?","0","1","","","","","","","",""
"1926","","6","psychophysics","108","336756","0.0-7.0-5.0-0.5","7","6","7","6","6","5","4","5","5","5","5","2","2","2","1","1","2","2","2","5","4","5","5","4","5","4","4","4","4","7","6","7","6","6","5","6","7","7","7","7","7","7","7","6","7","1","7","7","1","6","5","7","7","6","6","7","7","7","7","7","7","7","6","6","7","6","7","7","7","7","6","7","7","7","7","7","7","5","7","738081261448597505","周","405","Male","[""坏他"",""坏我"",""好他"",""好我""]","[""弱他"",""弱我"",""强他"",""强我""]","","","","","","","","6","","","","","","","","","SRET","SRET_math_calculate","","key","6","16.65101739130408","768","428","","","","","4+2= ?","6","1","","","","","","","",""
"1935","","5","psychophysics","109","338691","0.0-7.0-5.0-0.6","7","6","7","6","6","5","4","5","5","5","5","2","2","2","1","1","2","2","2","5","4","5","5","4","5","4","4","4","4","7","6","7","6","6","5","6","7","7","7","7","7","7","7","6","7","1","7","7","1","6","5","7","7","6","6","7","7","7","7","7","7","7","6","6","7","6","7","7","7","7","6","7","7","7","7","7","7","5","7","738081261448597505","周","405","Male","[""坏他"",""坏我"",""好他"",""好我""]","[""弱他"",""弱我"",""强他"",""强我""]","","","","","","","","5","","","","","","","","","SRET","SRET_math_calculate","","key","5","16.651347826086692","768","428","","","","","4+1= ?","5","1","","","","","","","",""
"1943","","8","psychophysics","110","340635","0.0-7.0-5.0-0.7","7","6","7","6","6","5","4","5","5","5","5","2","2","2","1","1","2","2","2","5","4","5","5","4","5","4","4","4","4","7","6","7","6","6","5","6","7","7","7","7","7","7","7","6","7","1","7","7","1","6","5","7","7","6","6","7","7","7","7","7","7","7","6","6","7","6","7","7","7","7","6","7","7","7","7","7","7","5","7","738081261448597505","周","405","Male","[""坏他"",""坏我"",""好他"",""好我""]","[""弱他"",""弱我"",""强他"",""强我""]","","","","","","","","8","","","","","","","","","SRET","SRET_math_calculate","","key","8","16.650362068965855","768","428","","","","","7+1= ?","8","1","","","","","","","",""
"1895","","3","psychophysics","111","342532","0.0-7.0-5.0-0.8","7","6","7","6","6","5","4","5","5","5","5","2","2","2","1","1","2","2","2","5","4","5","5","4","5","4","4","4","4","7","6","7","6","6","5","6","7","7","7","7","7","7","7","6","7","1","7","7","1","6","5","7","7","6","6","7","7","7","7","7","7","7","6","6","7","6","7","7","7","7","6","7","7","7","7","7","7","5","7","738081261448597505","周","405","Male","[""坏他"",""坏我"",""好他"",""好我""]","[""弱他"",""弱我"",""强他"",""强我""]","","","","","","","","3","","","","","","","","","SRET","SRET_math_calculate","","key","3","16.65387499999997","768","428","","","","","11-8= ?","3","1","","","","","","","",""
"2767","","7","psychophysics","112","345299","0.0-7.0-5.0-0.9","7","6","7","6","6","5","4","5","5","5","5","2","2","2","1","1","2","2","2","5","4","5","5","4","5","4","4","4","4","7","6","7","6","6","5","6","7","7","7","7","7","7","7","6","7","1","7","7","1","6","5","7","7","6","6","7","7","7","7","7","7","7","6","6","7","6","7","7","7","7","6","7","7","7","7","7","7","5","7","738081261448597505","周","405","Male","[""坏他"",""坏我"",""好他"",""好我""]","[""弱他"",""弱我"",""强他"",""强我""]","","","","","","","","7","","","","","","","","","SRET","SRET_math_calculate","","key","7","16.651090361445817","768","428","","","","","11-4= ?","7","1","","","","","","","",""
"2039","","8","psychophysics","113","347339","0.0-7.0-5.0-0.10","7","6","7","6","6","5","4","5","5","5","5","2","2","2","1","1","2","2","2","5","4","5","5","4","5","4","4","4","4","7","6","7","6","6","5","6","7","7","7","7","7","7","7","6","7","1","7","7","1","6","5","7","7","6","6","7","7","7","7","7","7","7","6","6","7","6","7","7","7","7","6","7","7","7","7","7","7","5","7","738081261448597505","周","405","Male","[""坏他"",""坏我"",""好他"",""好我""]","[""弱他"",""弱我"",""强他"",""强我""]","","","","","","","","8","","","","","","","","","SRET","SRET_math_calculate","","key","8","16.651933884297204","768","428","","","","","8*1= ?","8","1","","","","","","","",""
"1921","","6","psychophysics","114","349261","0.0-7.0-5.0-0.11","7","6","7","6","6","5","4","5","5","5","5","2","2","2","1","1","2","2","2","5","4","5","5","4","5","4","4","4","4","7","6","7","6","6","5","6","7","7","7","7","7","7","7","6","7","1","7","7","1","6","5","7","7","6","6","7","7","7","7","7","7","7","6","6","7","6","7","7","7","7","6","7","7","7","7","7","7","5","7","738081261448597505","周","405","Male","[""坏他"",""坏我"",""好他"",""好我""]","[""弱他"",""弱我"",""强他"",""强我""]","","","","","","","","6","","","","","","","","","SRET","SRET_math_calculate","","key","6","16.651347826086692","768","428","","","","","8-2= ?","6","1","","","","","","","",""
"1774","","3","psychophysics","115","351035","0.0-7.0-5.0-0.12","7","6","7","6","6","5","4","5","5","5","5","2","2","2","1","1","2","2","2","5","4","5","5","4","5","4","4","4","4","7","6","7","6","6","5","6","7","7","7","7","7","7","7","6","7","1","7","7","1","6","5","7","7","6","6","7","7","7","7","7","7","7","6","6","7","6","7","7","7","7","6","7","7","7","7","7","7","5","7","738081261448597505","周","405","Male","[""坏他"",""坏我"",""好他"",""好我""]","[""弱他"",""弱我"",""强他"",""强我""]","","","","","","","","3","","","","","","","","","SRET","SRET_math_calculate","","key","3","16.655495238095146","768","428","","","","","9-6= ?","3","1","","","","","","","",""
"1960","","1","psychophysics","116","352997","0.0-7.0-5.0-0.13","7","6","7","6","6","5","4","5","5","5","5","2","2","2","1","1","2","2","2","5","4","5","5","4","5","4","4","4","4","7","6","7","6","6","5","6","7","7","7","7","7","7","7","6","7","1","7","7","1","6","5","7","7","6","6","7","7","7","7","7","7","7","6","6","7","6","7","7","7","7","6","7","7","7","7","7","7","5","7","738081261448597505","周","405","Male","[""坏他"",""坏我"",""好他"",""好我""]","[""弱他"",""弱我"",""强他"",""强我""]","","","","","","","","1","","","","","","","","","SRET","SRET_math_calculate","","key","1","16.65249572649576","768","428","","","","","9-8= ?","1","1","","","","","","","",""
"1843","","9","psychophysics","117","354844","0.0-7.0-5.0-0.14","7","6","7","6","6","5","4","5","5","5","5","2","2","2","1","1","2","2","2","5","4","5","5","4","5","4","4","4","4","7","6","7","6","6","5","6","7","7","7","7","7","7","7","6","7","1","7","7","1","6","5","7","7","6","6","7","7","7","7","7","7","7","6","6","7","6","7","7","7","7","6","7","7","7","7","7","7","5","7","738081261448597505","周","405","Male","[""坏他"",""坏我"",""好他"",""好我""]","[""弱他"",""弱我"",""强他"",""强我""]","","","","","","","","9","","","","","","","","","SRET","SRET_math_calculate","","key","9","16.65064545454542","768","428","","","","","8+1= ?","9","1","","","","","","","",""
"2735","","8","psychophysics","118","357579","0.0-7.0-5.0-0.15","7","6","7","6","6","5","4","5","5","5","5","2","2","2","1","1","2","2","2","5","4","5","5","4","5","4","4","4","4","7","6","7","6","6","5","6","7","7","7","7","7","7","7","6","7","1","7","7","1","6","5","7","7","6","6","7","7","7","7","7","7","7","6","6","7","6","7","7","7","7","6","7","7","7","7","7","7","5","7","738081261448597505","周","405","Male","[""坏他"",""坏我"",""好他"",""好我""]","[""弱他"",""弱我"",""强他"",""强我""]","","","","","","","","8","","","","","","","","","SRET","SRET_math_calculate","","key","8","16.65091411042937","768","428","","","","","56/7= ?","8","1","","","","","","","",""
"1775","","8","psychophysics","119","359355","0.0-7.0-5.0-0.16","7","6","7","6","6","5","4","5","5","5","5","2","2","2","1","1","2","2","2","5","4","5","5","4","5","4","4","4","4","7","6","7","6","6","5","6","7","7","7","7","7","7","7","6","7","1","7","7","1","6","5","7","7","6","6","7","7","7","7","7","7","7","6","6","7","6","7","7","7","7","6","7","7","7","7","7","7","5","7","738081261448597505","周","405","Male","[""坏他"",""坏我"",""好他"",""好我""]","[""弱他"",""弱我"",""强他"",""强我""]","","","","","","","","8","","","","","","","","","SRET","SRET_math_calculate","","key","8","16.64961320754714","768","428","","","","","6+2= ?","8","1","","","","","","","",""
"1735","","0","psychophysics","120","361091","0.0-7.0-5.0-0.17","7","6","7","6","6","5","4","5","5","5","5","2","2","2","1","1","2","2","2","5","4","5","5","4","5","4","4","4","4","7","6","7","6","6","5","6","7","7","7","7","7","7","7","6","7","1","7","7","1","6","5","7","7","6","6","7","7","7","7","7","7","7","6","6","7","6","7","7","7","7","6","7","7","7","7","7","7","5","7","738081261448597505","周","405","Male","[""坏他"",""坏我"",""好他"",""好我""]","[""弱他"",""弱我"",""强他"",""强我""]","","","","","","","","0","","","","","","","","","SRET","SRET_math_calculate","","key","0","16.651262135922487","768","428","","","","","7*0= ?","0","1","","","","","","","",""
"1807","","6","psychophysics","121","362899","0.0-7.0-5.0-0.18","7","6","7","6","6","5","4","5","5","5","5","2","2","2","1","1","2","2","2","5","4","5","5","4","5","4","4","4","4","7","6","7","6","6","5","6","7","7","7","7","7","7","7","6","7","1","7","7","1","6","5","7","7","6","6","7","7","7","7","7","7","7","6","6","7","6","7","7","7","7","6","7","7","7","7","7","7","5","7","738081261448597505","周","405","Male","[""坏他"",""坏我"",""好他"",""好我""]","[""弱他"",""弱我"",""强他"",""强我""]","","","","","","","","6","","","","","","","","","SRET","SRET_math_calculate","","key","6","16.651268518518513","768","428","","","","","11-5= ?","6","1","","","","","","","",""
"1624","","4","psychophysics","122","364525","0.0-7.0-5.0-0.19","7","6","7","6","6","5","4","5","5","5","5","2","2","2","1","1","2","2","2","5","4","5","5","4","5","4","4","4","4","7","6","7","6","6","5","6","7","7","7","7","7","7","7","6","7","1","7","7","1","6","5","7","7","6","6","7","7","7","7","7","7","7","6","6","7","6","7","7","7","7","6","7","7","7","7","7","7","5","7","738081261448597505","周","405","Male","[""坏他"",""坏我"",""好他"",""好我""]","[""弱他"",""弱我"",""强他"",""强我""]","","","","","","","","4","","","","","","","","","SRET","SRET_math_calculate","","key","4","16.64881249999962","768","428","","","","","2+2= ?","4","1","","","","","","","",""
"1654","","6","psychophysics","123","366179","0.0-7.0-5.0-0.20","7","6","7","6","6","5","4","5","5","5","5","2","2","2","1","1","2","2","2","5","4","5","5","4","5","4","4","4","4","7","6","7","6","6","5","6","7","7","7","7","7","7","7","6","7","1","7","7","1","6","5","7","7","6","6","7","7","7","7","7","7","7","6","6","7","6","7","7","7","7","6","7","7","7","7","7","7","5","7","738081261448597505","周","405","Male","[""坏他"",""坏我"",""好他"",""好我""]","[""弱他"",""弱我"",""强他"",""强我""]","","","","","","","","6","","","","","","","","","SRET","SRET_math_calculate","","key","6","16.654717171716978","768","428","","","","","3+3= ?","6","1","","","","","","","",""
"1943","","1","psychophysics","124","368123","0.0-7.0-5.0-0.21","7","6","7","6","6","5","4","5","5","5","5","2","2","2","1","1","2","2","2","5","4","5","5","4","5","4","4","4","4","7","6","7","6","6","5","6","7","7","7","7","7","7","7","6","7","1","7","7","1","6","5","7","7","6","6","7","7","7","7","7","7","7","6","6","7","6","7","7","7","7","6","7","7","7","7","7","7","5","7","738081261448597505","周","405","Male","[""坏他"",""坏我"",""好他"",""好我""]","[""弱他"",""弱我"",""强他"",""强我""]","","","","","","","","1","","","","","","","","","SRET","SRET_math_calculate","","key","1","16.653886956521614","768","428","","","","","12/12= ?","1","1","","","","","","","",""
"1968","","9","psychophysics","125","370091","0.0-7.0-5.0-0.22","7","6","7","6","6","5","4","5","5","5","5","2","2","2","1","1","2","2","2","5","4","5","5","4","5","4","4","4","4","7","6","7","6","6","5","6","7","7","7","7","7","7","7","6","7","1","7","7","1","6","5","7","7","6","6","7","7","7","7","7","7","7","6","6","7","6","7","7","7","7","6","7","7","7","7","7","7","5","7","738081261448597505","周","405","Male","[""坏他"",""坏我"",""好他"",""好我""]","[""弱他"",""弱我"",""强他"",""强我""]","","","","","","","","9","","","","","","","","","SRET","SRET_math_calculate","","key","9","16.6512627118643","768","428","","","","","7+2= ?","9","1","","","","","","","",""
"2255","","5","psychophysics","126","372347","0.0-7.0-5.0-0.23","7","6","7","6","6","5","4","5","5","5","5","2","2","2","1","1","2","2","2","5","4","5","5","4","5","4","4","4","4","7","6","7","6","6","5","6","7","7","7","7","7","7","7","6","7","1","7","7","1","6","5","7","7","6","6","7","7","7","7","7","7","7","6","6","7","6","7","7","7","7","6","7","7","7","7","7","7","5","7","738081261448597505","周","405","Male","[""坏他"",""坏我"",""好他"",""好我""]","[""弱他"",""弱我"",""强他"",""强我""]","","","","","","","","5","","","","","","","","","SRET","SRET_math_calculate","","key","5","16.652559701492315","768","428","","","","","3+2= ?","5","1","","","","","","","",""
"1872","","9","psychophysics","127","374220","0.0-7.0-5.0-0.24","7","6","7","6","6","5","4","5","5","5","5","2","2","2","1","1","2","2","2","5","4","5","5","4","5","4","4","4","4","7","6","7","6","6","5","6","7","7","7","7","7","7","7","6","7","1","7","7","1","6","5","7","7","6","6","7","7","7","7","7","7","7","6","6","7","6","7","7","7","7","6","7","7","7","7","7","7","5","7","738081261448597505","周","405","Male","[""坏他"",""坏我"",""好他"",""好我""]","[""弱他"",""弱我"",""强他"",""强我""]","","","","","","","","9","","","","","","","","","SRET","SRET_math_calculate","","key","9","16.65500900900906","768","428","","","","","18/2= ?","9","1","","","","","","","",""
"1710","","5","psychophysics","128","375932","0.0-7.0-5.0-0.25","7","6","7","6","6","5","4","5","5","5","5","2","2","2","1","1","2","2","2","5","4","5","5","4","5","4","4","4","4","7","6","7","6","6","5","6","7","7","7","7","7","7","7","6","7","1","7","7","1","6","5","7","7","6","6","7","7","7","7","7","7","7","6","6","7","6","7","7","7","7","6","7","7","7","7","7","7","5","7","738081261448597505","周","405","Male","[""坏他"",""坏我"",""好他"",""好我""]","[""弱他"",""弱我"",""强他"",""强我""]","","","","","","","","5","","","","","","","","","SRET","SRET_math_calculate","","key","5","16.651754901961276","768","428","","","","","2+3= ?","5","1","","","","","","","",""
"1727","","7","psychophysics","129","377659","0.0-7.0-5.0-0.26","7","6","7","6","6","5","4","5","5","5","5","2","2","2","1","1","2","2","2","5","4","5","5","4","5","4","4","4","4","7","6","7","6","6","5","6","7","7","7","7","7","7","7","6","7","1","7","7","1","6","5","7","7","6","6","7","7","7","7","7","7","7","6","6","7","6","7","7","7","7","6","7","7","7","7","7","7","5","7","738081261448597505","周","405","Male","[""坏他"",""坏我"",""好他"",""好我""]","[""弱他"",""弱我"",""强他"",""强我""]","","","","","","","","7","","","","","","","","","SRET","SRET_math_calculate","","key","7","16.65333009708743","768","428","","","","","49/7 = ?","7","1","","","","","","","",""
"1840","","7","psychophysics","130","379500","0.0-7.0-5.0-0.27","7","6","7","6","6","5","4","5","5","5","5","2","2","2","1","1","2","2","2","5","4","5","5","4","5","4","4","4","4","7","6","7","6","6","5","6","7","7","7","7","7","7","7","6","7","1","7","7","1","6","5","7","7","6","6","7","7","7","7","7","7","7","6","6","7","6","7","7","7","7","6","7","7","7","7","7","7","5","7","738081261448597505","周","405","Male","[""坏他"",""坏我"",""好他"",""好我""]","[""弱他"",""弱我"",""强他"",""强我""]","","","","","","","","7","","","","","","","","","SRET","SRET_math_calculate","","key","7","16.653472727272575","768","428","","","","","8-1= ?","7","1","","","","","","","",""
"3503","","9","psychophysics","131","383004","0.0-7.0-5.0-0.28","7","6","7","6","6","5","4","5","5","5","5","2","2","2","1","1","2","2","2","5","4","5","5","4","5","4","4","4","4","7","6","7","6","6","5","6","7","7","7","7","7","7","7","6","7","1","7","7","1","6","5","7","7","6","6","7","7","7","7","7","7","7","6","6","7","6","7","7","7","7","6","7","7","7","7","7","7","5","7","738081261448597505","周","405","Male","[""坏他"",""坏我"",""好他"",""好我""]","[""弱他"",""弱我"",""强他"",""强我""]","","","","","","","","9","","","","","","","","","SRET","SRET_math_calculate","","key","9","16.65140191387579","768","428","","","","","43-34= ?","9","1","","","","","","","",""
"1751","","9","psychophysics","132","384755","0.0-7.0-5.0-0.29","7","6","7","6","6","5","4","5","5","5","5","2","2","2","1","1","2","2","2","5","4","5","5","4","5","4","4","4","4","7","6","7","6","6","5","6","7","7","7","7","7","7","7","6","7","1","7","7","1","6","5","7","7","6","6","7","7","7","7","7","7","7","6","6","7","6","7","7","7","7","6","7","7","7","7","7","7","5","7","738081261448597505","周","405","Male","[""坏他"",""坏我"",""好他"",""好我""]","[""弱他"",""弱我"",""强他"",""强我""]","","","","","","","","9","","","","","","","","","SRET","SRET_math_calculate","","key","9","16.65182692307728","768","428","","","","","1*9= ?","9","1","","","","","","","",""
"1703","","2","psychophysics","133","386459","0.0-7.0-5.0-0.30","7","6","7","6","6","5","4","5","5","5","5","2","2","2","1","1","2","2","2","5","4","5","5","4","5","4","4","4","4","7","6","7","6","6","5","6","7","7","7","7","7","7","7","6","7","1","7","7","1","6","5","7","7","6","6","7","7","7","7","7","7","7","6","6","7","6","7","7","7","7","6","7","7","7","7","7","7","5","7","738081261448597505","周","405","Male","[""坏他"",""坏我"",""好他"",""好我""]","[""弱他"",""弱我"",""强他"",""强我""]","","","","","","","","2","","","","","","","","","SRET","SRET_math_calculate","","key","2","16.651303921568815","768","428","","","","","29-27= ?","2","1","","","","","","","",""
"1975","","5","psychophysics","134","388436","0.0-7.0-5.0-0.31","7","6","7","6","6","5","4","5","5","5","5","2","2","2","1","1","2","2","2","5","4","5","5","4","5","4","4","4","4","7","6","7","6","6","5","6","7","7","7","7","7","7","7","6","7","1","7","7","1","6","5","7","7","6","6","7","7","7","7","7","7","7","6","6","7","6","7","7","7","7","6","7","7","7","7","7","7","5","7","738081261448597505","周","405","Male","[""坏他"",""坏我"",""好他"",""好我""]","[""弱他"",""弱我"",""强他"",""强我""]","","","","","","","","5","","","","","","","","","SRET","SRET_math_calculate","","key","5","16.65237606837639","768","428","","","","","14-9= ?","5","1","","","","","","","",""
"1623","","7","psychophysics","135","390060","0.0-7.0-5.0-0.32","7","6","7","6","6","5","4","5","5","5","5","2","2","2","1","1","2","2","2","5","4","5","5","4","5","4","4","4","4","7","6","7","6","6","5","6","7","7","7","7","7","7","7","6","7","1","7","7","1","6","5","7","7","6","6","7","7","7","7","7","7","7","6","6","7","6","7","7","7","7","6","7","7","7","7","7","7","5","7","738081261448597505","周","405","Male","[""坏他"",""坏我"",""好他"",""好我""]","[""弱他"",""弱我"",""强他"",""强我""]","","","","","","","","7","","","","","","","","","SRET","SRET_math_calculate","","key","7","16.653731958763","768","428","","","","","5+2= ?","7","1","","","","","","","",""
"1711","","5","psychophysics","136","391771","0.0-7.0-5.0-0.33","7","6","7","6","6","5","4","5","5","5","5","2","2","2","1","1","2","2","2","5","4","5","5","4","5","4","4","4","4","7","6","7","6","6","5","6","7","7","7","7","7","7","7","6","7","1","7","7","1","6","5","7","7","6","6","7","7","7","7","7","7","7","6","6","7","6","7","7","7","7","6","7","7","7","7","7","7","5","7","738081261448597505","周","405","Male","[""坏他"",""坏我"",""好他"",""好我""]","[""弱他"",""弱我"",""强他"",""强我""]","","","","","","","","5","","","","","","","","","SRET","SRET_math_calculate","","key","5","16.65046078431381","768","428","","","","","15-10= ?","5","1","","","","","","","",""
"1735","","5","psychophysics","137","393508","0.0-7.0-5.0-0.34","7","6","7","6","6","5","4","5","5","5","5","2","2","2","1","1","2","2","2","5","4","5","5","4","5","4","4","4","4","7","6","7","6","6","5","6","7","7","7","7","7","7","7","6","7","1","7","7","1","6","5","7","7","6","6","7","7","7","7","7","7","7","6","6","7","6","7","7","7","7","6","7","7","7","7","7","7","5","7","738081261448597505","周","405","Male","[""坏他"",""坏我"",""好他"",""好我""]","[""弱他"",""弱我"",""强他"",""强我""]","","","","","","","","5","","","","","","","","","SRET","SRET_math_calculate","","key","5","16.652300970873554","768","428","","","","","5/1= ?","5","1","","","","","","","",""
"1719","","3","psychophysics","138","395228","0.0-7.0-5.0-0.35","7","6","7","6","6","5","4","5","5","5","5","2","2","2","1","1","2","2","2","5","4","5","5","4","5","4","4","4","4","7","6","7","6","6","5","6","7","7","7","7","7","7","7","6","7","1","7","7","1","6","5","7","7","6","6","7","7","7","7","7","7","7","6","6","7","6","7","7","7","7","6","7","7","7","7","7","7","5","7","738081261448597505","周","405","Male","[""坏他"",""坏我"",""好他"",""好我""]","[""弱他"",""弱我"",""强他"",""强我""]","","","","","","","","3","","","","","","","","","SRET","SRET_math_calculate","","key","3","16.656068627450924","768","428","","","","","6/2= ?","3","1","","","","","","","",""
"1687","","5","psychophysics","139","396915","0.0-7.0-5.0-0.36","7","6","7","6","6","5","4","5","5","5","5","2","2","2","1","1","2","2","2","5","4","5","5","4","5","4","4","4","4","7","6","7","6","6","5","6","7","7","7","7","7","7","7","6","7","1","7","7","1","6","5","7","7","6","6","7","7","7","7","7","7","7","6","6","7","6","7","7","7","7","6","7","7","7","7","7","7","5","7","738081261448597505","周","405","Male","[""坏他"",""坏我"",""好他"",""好我""]","[""弱他"",""弱我"",""强他"",""强我""]","","","","","","","","5","","","","","","","","","SRET","SRET_math_calculate","","key","5","16.64957999999984","768","428","","","","","12-7= ?","5","1","","","","","","","",""
"1679","","8","psychophysics","140","398596","0.0-7.0-5.0-0.37","7","6","7","6","6","5","4","5","5","5","5","2","2","2","1","1","2","2","2","5","4","5","5","4","5","4","4","4","4","7","6","7","6","6","5","6","7","7","7","7","7","7","7","6","7","1","7","7","1","6","5","7","7","6","6","7","7","7","7","7","7","7","6","6","7","6","7","7","7","7","6","7","7","7","7","7","7","5","7","738081261448597505","周","405","Male","[""坏他"",""坏我"",""好他"",""好我""]","[""弱他"",""弱我"",""强他"",""强我""]","","","","","","","","8","","","","","","","","","SRET","SRET_math_calculate","","key","8","16.655430000000052","768","428","","","","","13-5= ?","8","1","","","","","","","",""
"1767","","1","psychophysics","141","400364","0.0-7.0-5.0-0.38","7","6","7","6","6","5","4","5","5","5","5","2","2","2","1","1","2","2","2","5","4","5","5","4","5","4","4","4","4","7","6","7","6","6","5","6","7","7","7","7","7","7","7","6","7","1","7","7","1","6","5","7","7","6","6","7","7","7","7","7","7","7","6","6","7","6","7","7","7","7","6","7","7","7","7","7","7","5","7","738081261448597505","周","405","Male","[""坏他"",""坏我"",""好他"",""好我""]","[""弱他"",""弱我"",""强他"",""强我""]","","","","","","","","1","","","","","","","","","SRET","SRET_math_calculate","","key","1","16.651094339622674","768","428","","","","","10-9= ?","1","1","","","","","","","",""
"1775","","4","psychophysics","142","402139","0.0-7.0-5.0-0.39","7","6","7","6","6","5","4","5","5","5","5","2","2","2","1","1","2","2","2","5","4","5","5","4","5","4","4","4","4","7","6","7","6","6","5","6","7","7","7","7","7","7","7","6","7","1","7","7","1","6","5","7","7","6","6","7","7","7","7","7","7","7","6","6","7","6","7","7","7","7","6","7","7","7","7","7","7","5","7","738081261448597505","周","405","Male","[""坏他"",""坏我"",""好他"",""好我""]","[""弱他"",""弱我"",""强他"",""强我""]","","","","","","","","4","","","","","","","","","SRET","SRET_math_calculate","","key","4","16.65324761904776","768","428","","","","","20/5= ?","4","1","","","","","","","",""
"1735","","2","psychophysics","143","403876","0.0-7.0-5.0-0.40","7","6","7","6","6","5","4","5","5","5","5","2","2","2","1","1","2","2","2","5","4","5","5","4","5","4","4","4","4","7","6","7","6","6","5","6","7","7","7","7","7","7","7","6","7","1","7","7","1","6","5","7","7","6","6","7","7","7","7","7","7","7","6","6","7","6","7","7","7","7","6","7","7","7","7","7","7","5","7","738081261448597505","周","405","Male","[""坏他"",""坏我"",""好他"",""好我""]","[""弱他"",""弱我"",""强他"",""强我""]","","","","","","","","2","","","","","","","","","SRET","SRET_math_calculate","","key","2","16.652786407767213","768","428","","","","","18/9= ?","2","1","","","","","","","",""
