"rt","stimulus","response","trial_type","trial_index","time_elapsed","internal_node_id","swb_1","swb_2","swb_3","swb_4","swb_5","LOT_1","LOT_2","LOT_3","LOT_4","LOT_5","LOT_6","IPC_1","IPC_2","IPC_3","IPC_4","IPC_5","IPC_6","IPC_7","IPC_8","MorIden_1","MorIden_2","MorIden_3","MorIden_4","MorIden_5","MorIden_6","MorIden_7","MorIden_8","MorIden_9","MorIden_10","moralSeImag_1","moralSeImag_2","moralSeImag_3","moralSeImag_4","moralSeImag_5","moralSeImag_6","moralSeImag_7","moralSeImag_8","moralSeImag_9","sde_1","sde_2","sde_3","sde_4","sde_5","sde_6","sde_7","sde_8","sde_9","sde_10","trap2","sde_11","sde_12","sde_13","sde_14","sde_15","sde_16","sde_17","sde_18","sde_19","sde_20","IM_1","IM_2","IM_3","IM_4","IM_5","IM_6","IM_7","IM_8","IM_9","IM_10","IM_11","IM_12","IM_13","IM_14","IM_15","IM_16","IM_17","IM_18","IM_19","IM_20","subj_idx","friend_name","ParticipantID","Sex","Word","Word2","value","success","timeout","failed_images","failed_audio","failed_video","user_agent","responses","item_order","radio_event_ids","radio_event_times","key_event_times","mouse_event_times","straightlining","zigzagging","honeypot","task_id","screen_id","time_stamp","response_type","key_press","avg_frame_time","center_x","center_y","person","word","valence","domain","math","correct_response","correct","status","view_history","identity","duration","Image","condition","question_order","trap2_item"
"16640","
   <p><div style='color:white; font-size: 25px'>您好，欢迎参加本次实验。</div></p>
   <p><div style='color:white; font-size: 25px'>为充分保障您的权利，请确保您已经知晓并同意《参与实验同意书》以及《数据公开知情同意书》。</div></p>
   <p><div style='color:white; font-size: 25px'>如果您未见过上述内容，请咨询实验员。</div></p>
   <p style='color:white; font-size: 25px'>如果您选择继续实验，则表示您已经清楚两份知情同意书的内容并同意。</p>
   <p><div style = ""color: pink;font-size:30px;"">请确保您记得day0的实验编号，您将在本次实验输入该编号，若您忘记，请咨询实验员后作答。</div></p>
   <p><div style = ""color:lightblue;font-size:25px;"">请您尽可能认真地作答，我们将依据您在各问卷和按键任务中的作答质量发放报酬。</div></p>
   <p> <div style = ""color: green""><按空格键至下页></div> </p>
   "," ","html-keyboard-response","0","16643","0.0-0.0","6","5","7","6","4","4","4","4","5","5","4","1","0","0","-1","0","2","2","2","5","5","5","5","3","4","4","4","4","5","5","6","5","6","4","6","7","6","6","4","7","3","7","6","4","6","1","7","7","1","5","5","6","6","4","5","4","7","5","4","7","5","3","6","5","6","7","7","7","7","7","7","6","7","7","7","7","7","7","6","757367705316888578","张","139","Female","[""坏她"",""好我"",""好她"",""坏我""]","[""弱她"",""强我"",""强她"",""弱我""]","","","","","","","","","","","","","","","","","","","","","","","","","","","","","","","","","","","","","","",""
"","","","call-function","1","16644","0.0-1.0-0.0","6","5","7","6","4","4","4","4","5","5","4","1","0","0","-1","0","2","2","2","5","5","5","5","3","4","4","4","4","5","5","6","5","6","4","6","7","6","6","4","7","3","7","6","4","6","1","7","7","1","5","5","6","6","4","5","4","7","5","4","7","5","3","6","5","6","7","7","7","7","7","7","6","7","7","7","7","7","7","6","757367705316888578","张","139","Female","[""坏她"",""好我"",""好她"",""坏我""]","[""弱她"",""强我"",""强她"",""弱我""]","","","","","","","","","","","","","","","","","","","","","","","","","","","","","","","","","","","","","","",""
"17072","","[{""name"":""Sex"",""value"":""1""},{""name"":""friend_name"",""value"":""张""},{""name"":""ParticipantID"",""value"":""139""}]","survey-html-form","2","33718","0.0-1.0-1.0","6","5","7","6","4","4","4","4","5","5","4","1","0","0","-1","0","2","2","2","5","5","5","5","3","4","4","4","4","5","5","6","5","6","4","6","7","6","6","4","7","3","7","6","4","6","1","7","7","1","5","5","6","6","4","5","4","7","5","4","7","5","3","6","5","6","7","7","7","7","7","7","6","7","7","7","7","7","7","6","757367705316888578","张","139","Female","[""坏她"",""好我"",""好她"",""坏我""]","[""弱她"",""强我"",""强她"",""弱我""]","","","","","","","","","","","","","","","","","","","","","","","","","","","","","","","","","","","","","","",""
"","","","preload","3","34580","0.0-2.0","6","5","7","6","4","4","4","4","5","5","4","1","0","0","-1","0","2","2","2","5","5","5","5","3","4","4","4","4","5","5","6","5","6","4","6","7","6","6","4","7","3","7","6","4","6","1","7","7","1","5","5","6","6","4","5","4","7","5","4","7","5","3","6","5","6","7","7","7","7","7","7","6","7","7","7","7","7","7","6","757367705316888578","张","139","Female","[""坏她"",""好我"",""好她"",""坏我""]","[""弱她"",""强我"",""强她"",""弱我""]","","true","false","[]","[]","[]","","","","","","","","","","","","","","","","","","","","","","","","","","","","","","","","",""
"","","","fullscreen","4","36765","0.0-3.0","6","5","7","6","4","4","4","4","5","5","4","1","0","0","-1","0","2","2","2","5","5","5","5","3","4","4","4","4","5","5","6","5","6","4","6","7","6","6","4","7","3","7","6","4","6","1","7","7","1","5","5","6","6","4","5","4","7","5","4","7","5","3","6","5","6","7","7","7","7","7","7","6","7","7","7","7","7","7","6","757367705316888578","张","139","Female","[""坏她"",""好我"",""好她"",""坏我""]","[""弱她"",""强我"",""强她"",""弱我""]","","true","","","","","{}","","","","","","","","","","","","","","","","","","","","","","","","","","","","","","","",""
"11216.299999952316","","{""Q01"":""6"",""Q02"":""5"",""Q03"":""7"",""Q04"":""6"",""Q05"":""4""}","survey-template","5","47985","0.0-4.0","6","5","7","6","4","4","4","4","5","5","4","1","0","0","-1","0","2","2","2","5","5","5","5","3","4","4","4","4","5","5","6","5","6","4","6","7","6","6","4","7","3","7","6","4","6","1","7","7","1","5","5","6","6","4","5","4","7","5","4","7","5","3","6","5","6","7","7","7","7","7","7","6","7","7","7","7","7","7","6","757367705316888578","张","139","Female","[""坏她"",""好我"",""好她"",""坏我""]","[""弱她"",""强我"",""强她"",""弱我""]","","","","","","","","{""Q01"":""6"",""Q02"":""5"",""Q03"":""7"",""Q04"":""6"",""Q05"":""4""}","[0,1,2,3,4]","[""Q01"",""Q02"",""Q03"",""Q04"",""Q05""]","[4070.0999999046326,5114.699999809265,6256.599999904633,8425.199999809265,10120]","[]","[3002.0999999046326,4070.0999999046326,5114.699999809265,6256.599999904633,8425.199999809265,10120,11214.899999856949]","0.4","0.5","0","","","","","","","","","","","","","","","","","","","","","","",""
"16925.39999985695","","{""Q01"":""4"",""Q02"":""4"",""Q03"":""4"",""Q04"":""5"",""Q05"":""5"",""Q06"":""4""}","survey-template","6","64916","0.0-5.0","6","5","7","6","4","4","4","4","5","5","4","1","0","0","-1","0","2","2","2","5","5","5","5","3","4","4","4","4","5","5","6","5","6","4","6","7","6","6","4","7","3","7","6","4","6","1","7","7","1","5","5","6","6","4","5","4","7","5","4","7","5","3","6","5","6","7","7","7","7","7","7","6","7","7","7","7","7","7","6","757367705316888578","张","139","Female","[""坏她"",""好我"",""好她"",""坏我""]","[""弱她"",""强我"",""强她"",""弱我""]","","","","","","","","{""Q01"":""4"",""Q02"":""4"",""Q03"":""4"",""Q04"":""5"",""Q05"":""5"",""Q06"":""4""}","[0,1,2,3,4,5]","[""Q01"",""Q02"",""Q03"",""Q04"",""Q04"",""Q05"",""Q06""]","[2835.0999999046326,5713.599999904633,7376,11188.199999809265,12458.099999904633,13545,16027.299999952316]","[]","[2835.0999999046326,5713.599999904633,7376,11188.199999809265,12458.099999904633,13545,16027.299999952316,16924.5]","0.5","0","0","","","","","","","","","","","","","","","","","","","","","","",""
"20408.300000190735","","{""Q01"":""1"",""Q02"":""0"",""Q03"":""0"",""Q04"":""-1"",""Q05"":""0"",""Q06"":""2"",""Q07"":""2"",""Q08"":""2""}","survey-template","7","85328","0.0-6.0","6","5","7","6","4","4","4","4","5","5","4","1","0","0","-1","0","2","2","2","5","5","5","5","3","4","4","4","4","5","5","6","5","6","4","6","7","6","6","4","7","3","7","6","4","6","1","7","7","1","5","5","6","6","4","5","4","7","5","4","7","5","3","6","5","6","7","7","7","7","7","7","6","7","7","7","7","7","7","6","757367705316888578","张","139","Female","[""坏她"",""好我"",""好她"",""坏我""]","[""弱她"",""强我"",""强她"",""弱我""]","","","","","","","","{""Q01"":""1"",""Q02"":""0"",""Q03"":""0"",""Q04"":""-1"",""Q05"":""0"",""Q06"":""2"",""Q07"":""2"",""Q08"":""2""}","[0,1,2,3,4,5,6,7]","[""Q01"",""Q02"",""Q03"",""Q04"",""Q05"",""Q06"",""Q07"",""Q08""]","[2582.9000000953674,5115.700000047684,7305.900000095367,10866.400000095367,12632.900000095367,13958.700000047684,16052,19715.300000190735]","[]","[2582.9000000953674,5115.700000047684,7305.900000095367,9050.900000095367,10866.400000095367,12632.900000095367,13958.700000047684,16052,18318.5,19715.300000190735,20406.400000095367]","0.375","0.42857142857142855","0","","","","","","","","","","","","","","","","","","","","","","",""
"11297","
    <p><div style='color:white;font-size:35px; line-height:20px;'>词汇评估任务</div></p><br>
    <p><div style='color:white;font-size:25px; line-height:20px;'>请再次回忆该亲密的朋友，你们至少2年前就认识了，并且最近2年经常见面。</div></p>
    <p><div style='color:white;font-size:25px; line-height:20px;'>在本实验中，您将会看到一些形容词。</div></p>
    <p><div style='color:yellow;font-size:25px; line-height:20px;'>您的任务是判断这些形容词是否符合对您自己或您的朋友的描述。</div></p><p style='font-size:35px'>符合按<span style=""color:lightgreen""> j 键</span>，不符合按<span style=""color:red""> f 键</span></p>","0","html-button-response","8","96629","0.0-7.0-0.0","6","5","7","6","4","4","4","4","5","5","4","1","0","0","-1","0","2","2","2","5","5","5","5","3","4","4","4","4","5","5","6","5","6","4","6","7","6","6","4","7","3","7","6","4","6","1","7","7","1","5","5","6","6","4","5","4","7","5","4","7","5","3","6","5","6","7","7","7","7","7","7","6","7","7","7","7","7","7","6","757367705316888578","张","139","Female","[""坏她"",""好我"",""好她"",""坏我""]","[""弱她"",""强我"",""强她"",""弱我""]","","","","","","","","","","","","","","","","","SRET_EW","EW_instructions","Mon Dec 25 2023 20:51:33 GMT+0800 (中国标准时间)","","","","","","","","","","","","","","","","","","","",""
"null","","null","psychophysics","9","99644","0.0-7.0-1.0-0.0","6","5","7","6","4","4","4","4","5","5","4","1","0","0","-1","0","2","2","2","5","5","5","5","3","4","4","4","4","5","5","6","5","6","4","6","7","6","6","4","7","3","7","6","4","6","1","7","7","1","5","5","6","6","4","5","4","7","5","4","7","5","3","6","5","6","7","7","7","7","7","7","6","7","7","7","7","7","7","6","757367705316888578","张","139","Female","[""坏她"",""好我"",""好她"",""坏我""]","[""弱她"",""强我"",""强她"",""弱我""]","","","","","","","","","","","","","","","","","SRET_EW","EW_practice","","key","null","16.66589502762432","768","428","朋友","徇私","Negative","morality","","","","","","","","","","",""
"null","","null","psychophysics","10","102648","0.0-7.0-1.0-0.1","6","5","7","6","4","4","4","4","5","5","4","1","0","0","-1","0","2","2","2","5","5","5","5","3","4","4","4","4","5","5","6","5","6","4","6","7","6","6","4","7","3","7","6","4","6","1","7","7","1","5","5","6","6","4","5","4","7","5","4","7","5","3","6","5","6","7","7","7","7","7","7","6","7","7","7","7","7","7","6","757367705316888578","张","139","Female","[""坏她"",""好我"",""好她"",""坏我""]","[""弱她"",""强我"",""强她"",""弱我""]","","","","","","","","","","","","","","","","","SRET_EW","EW_practice","","key","null","16.66655865921787","768","428","自己","刻板","Negative","ability","","","","","","","","","","",""
"1932","","j","psychophysics","11","105582","0.0-7.0-1.0-0.2","6","5","7","6","4","4","4","4","5","5","4","1","0","0","-1","0","2","2","2","5","5","5","5","3","4","4","4","4","5","5","6","5","6","4","6","7","6","6","4","7","3","7","6","4","6","1","7","7","1","5","5","6","6","4","5","4","7","5","4","7","5","3","6","5","6","7","7","7","7","7","7","6","7","7","7","7","7","7","6","757367705316888578","张","139","Female","[""坏她"",""好我"",""好她"",""坏我""]","[""弱她"",""强我"",""强她"",""弱我""]","","","","","","","","yes","","","","","","","","","SRET_EW","EW_practice","","key","j","16.66680571428575","768","428","自己","严谨","Positive","ability","","","","","","","","","","",""
"1902","","j","psychophysics","12","108486","0.0-7.0-1.0-0.3","6","5","7","6","4","4","4","4","5","5","4","1","0","0","-1","0","2","2","2","5","5","5","5","3","4","4","4","4","5","5","6","5","6","4","6","7","6","6","4","7","3","7","6","4","6","1","7","7","1","5","5","6","6","4","5","4","7","5","4","7","5","3","6","5","6","7","7","7","7","7","7","6","7","7","7","7","7","7","6","757367705316888578","张","139","Female","[""坏她"",""好我"",""好她"",""坏我""]","[""弱她"",""强我"",""强她"",""弱我""]","","","","","","","","yes","","","","","","","","","SRET_EW","EW_practice","","key","j","16.666780346820826","768","428","朋友","忠实","Positive","morality","","","","","","","","","","",""
"5242","
    <p><div style='color:white;font-size:35px; line-height:20px;'>请您再次阅读实验要求</div></p><br>
    <p><div style='color:white;font-size:25px; line-height:20px;'>请回忆某一个亲密的朋友，你们至少2年前就认识了，并且最近2年经常见面。</div></p>
    <p><div style='color:white;font-size:25px; line-height:20px;'>在本实验中，您将会看到一些形容词。</div></p>
    <p><div style='color:yellow;font-size:25px; line-height:20px;'>您的任务是判断这些形容词是否符合对您自己或您的朋友的描述。</div></p>
    <p><div class='footer' style='font-size:25px; line-height:20px;'>如果对本实验还有不清楚之处，请立即向实验员咨询。</p><p style='font-size:25px; line-height:20px;'>如果您明白了规则：</p><p style='font-size:22px; line-height:20px;'>请按 继续 进入正式实验</p>
    </div>
    <p style='font-size:35px'>符合按<span style=""color:lightgreen""> j 键</span>，不符合按<span style=""color:red""> f 键</span></p>","0","html-button-response","13","113729","0.0-7.0-2.0","6","5","7","6","4","4","4","4","5","5","4","1","0","0","-1","0","2","2","2","5","5","5","5","3","4","4","4","4","5","5","6","5","6","4","6","7","6","6","4","7","3","7","6","4","6","1","7","7","1","5","5","6","6","4","5","4","7","5","4","7","5","3","6","5","6","7","7","7","7","7","7","6","7","7","7","7","7","7","6","757367705316888578","张","139","Female","[""坏她"",""好我"",""好她"",""坏我""]","[""弱她"",""强我"",""强她"",""弱我""]","","","","","","","","","","","","","","","","","SRET_EW","prac_instructions","Mon Dec 25 2023 20:51:33 GMT+0800 (中国标准时间)","","","","","","","","","","","","","","","","","","","",""
"557","","j","psychophysics","14","115288","0.0-7.0-3.0-0.0","6","5","7","6","4","4","4","4","5","5","4","1","0","0","-1","0","2","2","2","5","5","5","5","3","4","4","4","4","5","5","6","5","6","4","6","7","6","6","4","7","3","7","6","4","6","1","7","7","1","5","5","6","6","4","5","4","7","5","4","7","5","3","6","5","6","7","7","7","7","7","7","6","7","7","7","7","7","7","6","757367705316888578","张","139","Female","[""坏她"",""好我"",""好她"",""坏我""]","[""弱她"",""强我"",""强她"",""弱我""]","","","","","","","","yes","","","","","","","","","SRET","EW_formal","","key","j","16.66786021505381","768","428","自己","坚贞","Positive","morality","","","","","","","","","","",""
"568","","j","psychophysics","15","116858","0.0-7.0-3.0-0.1","6","5","7","6","4","4","4","4","5","5","4","1","0","0","-1","0","2","2","2","5","5","5","5","3","4","4","4","4","5","5","6","5","6","4","6","7","6","6","4","7","3","7","6","4","6","1","7","7","1","5","5","6","6","4","5","4","7","5","4","7","5","3","6","5","6","7","7","7","7","7","7","6","7","7","7","7","7","7","6","757367705316888578","张","139","Female","[""坏她"",""好我"",""好她"",""坏我""]","[""弱她"",""强我"",""强她"",""弱我""]","","","","","","","","yes","","","","","","","","","SRET","EW_formal","","key","j","16.66643617021281","768","428","朋友","务实","Positive","ability","","","","","","","","","","",""
"656","","f","psychophysics","16","118515","0.0-7.0-3.0-0.2","6","5","7","6","4","4","4","4","5","5","4","1","0","0","-1","0","2","2","2","5","5","5","5","3","4","4","4","4","5","5","6","5","6","4","6","7","6","6","4","7","3","7","6","4","6","1","7","7","1","5","5","6","6","4","5","4","7","5","4","7","5","3","6","5","6","7","7","7","7","7","7","6","7","7","7","7","7","7","6","757367705316888578","张","139","Female","[""坏她"",""好我"",""好她"",""坏我""]","[""弱她"",""强我"",""强她"",""弱我""]","","","","","","","","no","","","","","","","","","SRET","EW_formal","","key","f","16.667765306122362","768","428","朋友","迷糊","Negative","ability","","","","","","","","","","",""
"513","","f","psychophysics","17","120030","0.0-7.0-3.0-0.3","6","5","7","6","4","4","4","4","5","5","4","1","0","0","-1","0","2","2","2","5","5","5","5","3","4","4","4","4","5","5","6","5","6","4","6","7","6","6","4","7","3","7","6","4","6","1","7","7","1","5","5","6","6","4","5","4","7","5","4","7","5","3","6","5","6","7","7","7","7","7","7","6","7","7","7","7","7","7","6","757367705316888578","张","139","Female","[""坏她"",""好我"",""好她"",""坏我""]","[""弱她"",""强我"",""强她"",""弱我""]","","","","","","","","no","","","","","","","","","SRET","EW_formal","","key","f","16.671899999999894","768","428","自己","说谎","Negative","morality","","","","","","","","","","",""
"549","","f","psychophysics","18","121581","0.0-7.0-3.0-0.4","6","5","7","6","4","4","4","4","5","5","4","1","0","0","-1","0","2","2","2","5","5","5","5","3","4","4","4","4","5","5","6","5","6","4","6","7","6","6","4","7","3","7","6","4","6","1","7","7","1","5","5","6","6","4","5","4","7","5","4","7","5","3","6","5","6","7","7","7","7","7","7","6","7","7","7","7","7","7","6","757367705316888578","张","139","Female","[""坏她"",""好我"",""好她"",""坏我""]","[""弱她"",""强我"",""强她"",""弱我""]","","","","","","","","no","","","","","","","","","SRET","EW_formal","","key","f","16.66866304347818","768","428","自己","龌龊","Negative","morality","","","","","","","","","","",""
"433","","f","psychophysics","19","123015","0.0-7.0-3.0-0.5","6","5","7","6","4","4","4","4","5","5","4","1","0","0","-1","0","2","2","2","5","5","5","5","3","4","4","4","4","5","5","6","5","6","4","6","7","6","6","4","7","3","7","6","4","6","1","7","7","1","5","5","6","6","4","5","4","7","5","4","7","5","3","6","5","6","7","7","7","7","7","7","6","7","7","7","7","7","7","6","757367705316888578","张","139","Female","[""坏她"",""好我"",""好她"",""坏我""]","[""弱她"",""强我"",""强她"",""弱我""]","","","","","","","","no","","","","","","","","","SRET","EW_formal","","key","f","16.667305882353","768","428","朋友","混账","Negative","morality","","","","","","","","","","",""
"506","","j","psychophysics","20","124522","0.0-7.0-3.0-0.6","6","5","7","6","4","4","4","4","5","5","4","1","0","0","-1","0","2","2","2","5","5","5","5","3","4","4","4","4","5","5","6","5","6","4","6","7","6","6","4","7","3","7","6","4","6","1","7","7","1","5","5","6","6","4","5","4","7","5","4","7","5","3","6","5","6","7","7","7","7","7","7","6","7","7","7","7","7","7","6","757367705316888578","张","139","Female","[""坏她"",""好我"",""好她"",""坏我""]","[""弱她"",""强我"",""强她"",""弱我""]","","","","","","","","yes","","","","","","","","","SRET","EW_formal","","key","j","16.665415730337177","768","428","朋友","敬业","Positive","morality","","","","","","","","","","",""
"643","","f","psychophysics","21","126168","0.0-7.0-3.0-0.7","6","5","7","6","4","4","4","4","5","5","4","1","0","0","-1","0","2","2","2","5","5","5","5","3","4","4","4","4","5","5","6","5","6","4","6","7","6","6","4","7","3","7","6","4","6","1","7","7","1","5","5","6","6","4","5","4","7","5","4","7","5","3","6","5","6","7","7","7","7","7","7","6","7","7","7","7","7","7","6","757367705316888578","张","139","Female","[""坏她"",""好我"",""好她"",""坏我""]","[""弱她"",""强我"",""强她"",""弱我""]","","","","","","","","no","","","","","","","","","SRET","EW_formal","","key","f","16.666387755102008","768","428","自己","马虎","Negative","ability","","","","","","","","","","",""
"445","","j","psychophysics","22","127614","0.0-7.0-3.0-0.8","6","5","7","6","4","4","4","4","5","5","4","1","0","0","-1","0","2","2","2","5","5","5","5","3","4","4","4","4","5","5","6","5","6","4","6","7","6","6","4","7","3","7","6","4","6","1","7","7","1","5","5","6","6","4","5","4","7","5","4","7","5","3","6","5","6","7","7","7","7","7","7","6","7","7","7","7","7","7","6","757367705316888578","张","139","Female","[""坏她"",""好我"",""好她"",""坏我""]","[""弱她"",""强我"",""强她"",""弱我""]","","","","","","","","yes","","","","","","","","","SRET","EW_formal","","key","j","16.667558139534925","768","428","自己","智慧","Positive","ability","","","","","","","","","","",""
"616","","j","psychophysics","23","129232","0.0-7.0-3.0-0.9","6","5","7","6","4","4","4","4","5","5","4","1","0","0","-1","0","2","2","2","5","5","5","5","3","4","4","4","4","5","5","6","5","6","4","6","7","6","6","4","7","3","7","6","4","6","1","7","7","1","5","5","6","6","4","5","4","7","5","4","7","5","3","6","5","6","7","7","7","7","7","7","6","7","7","7","7","7","7","6","757367705316888578","张","139","Female","[""坏她"",""好我"",""好她"",""坏我""]","[""弱她"",""强我"",""强她"",""弱我""]","","","","","","","","yes","","","","","","","","","SRET","EW_formal","","key","j","16.667364583333438","768","428","自己","义气","Positive","morality","","","","","","","","","","",""
"526","","j","psychophysics","24","130759","0.0-7.0-3.0-0.10","6","5","7","6","4","4","4","4","5","5","4","1","0","0","-1","0","2","2","2","5","5","5","5","3","4","4","4","4","5","5","6","5","6","4","6","7","6","6","4","7","3","7","6","4","6","1","7","7","1","5","5","6","6","4","5","4","7","5","4","7","5","3","6","5","6","7","7","7","7","7","7","6","7","7","7","7","7","7","6","757367705316888578","张","139","Female","[""坏她"",""好我"",""好她"",""坏我""]","[""弱她"",""强我"",""强她"",""弱我""]","","","","","","","","yes","","","","","","","","","SRET","EW_formal","","key","j","16.66858241758226","768","428","朋友","顶事","Positive","ability","","","","","","","","","","",""
"564","","j","psychophysics","25","132323","0.0-7.0-3.0-0.11","6","5","7","6","4","4","4","4","5","5","4","1","0","0","-1","0","2","2","2","5","5","5","5","3","4","4","4","4","5","5","6","5","6","4","6","7","6","6","4","7","3","7","6","4","6","1","7","7","1","5","5","6","6","4","5","4","7","5","4","7","5","3","6","5","6","7","7","7","7","7","7","6","7","7","7","7","7","7","6","757367705316888578","张","139","Female","[""坏她"",""好我"",""好她"",""坏我""]","[""弱她"",""强我"",""强她"",""弱我""]","","","","","","","","yes","","","","","","","","","SRET","EW_formal","","key","j","16.666365591397632","768","428","朋友","守信","Positive","morality","","","","","","","","","","",""
"482","","j","psychophysics","26","133807","0.0-7.0-3.0-0.12","6","5","7","6","4","4","4","4","5","5","4","1","0","0","-1","0","2","2","2","5","5","5","5","3","4","4","4","4","5","5","6","5","6","4","6","7","6","6","4","7","3","7","6","4","6","1","7","7","1","5","5","6","6","4","5","4","7","5","4","7","5","3","6","5","6","7","7","7","7","7","7","6","7","7","7","7","7","7","6","757367705316888578","张","139","Female","[""坏她"",""好我"",""好她"",""坏我""]","[""弱她"",""强我"",""强她"",""弱我""]","","","","","","","","yes","","","","","","","","","SRET","EW_formal","","key","j","16.667613636363637","768","428","朋友","仁厚","Positive","morality","","","","","","","","","","",""
"574","","f","psychophysics","27","135384","0.0-7.0-3.0-0.13","6","5","7","6","4","4","4","4","5","5","4","1","0","0","-1","0","2","2","2","5","5","5","5","3","4","4","4","4","5","5","6","5","6","4","6","7","6","6","4","7","3","7","6","4","6","1","7","7","1","5","5","6","6","4","5","4","7","5","4","7","5","3","6","5","6","7","7","7","7","7","7","6","7","7","7","7","7","7","6","757367705316888578","张","139","Female","[""坏她"",""好我"",""好她"",""坏我""]","[""弱她"",""强我"",""强她"",""弱我""]","","","","","","","","no","","","","","","","","","SRET","EW_formal","","key","f","16.6666021505377","768","428","朋友","差生","Negative","ability","","","","","","","","","","",""
"497","","f","psychophysics","28","136883","0.0-7.0-3.0-0.14","6","5","7","6","4","4","4","4","5","5","4","1","0","0","-1","0","2","2","2","5","5","5","5","3","4","4","4","4","5","5","6","5","6","4","6","7","6","6","4","7","3","7","6","4","6","1","7","7","1","5","5","6","6","4","5","4","7","5","4","7","5","3","6","5","6","7","7","7","7","7","7","6","7","7","7","7","7","7","6","757367705316888578","张","139","Female","[""坏她"",""好我"",""好她"",""坏我""]","[""弱她"",""强我"",""强她"",""弱我""]","","","","","","","","no","","","","","","","","","SRET","EW_formal","","key","f","16.668910112359505","768","428","朋友","草率","Negative","ability","","","","","","","","","","",""
"1027","","j","psychophysics","29","138911","0.0-7.0-3.0-0.15","6","5","7","6","4","4","4","4","5","5","4","1","0","0","-1","0","2","2","2","5","5","5","5","3","4","4","4","4","5","5","6","5","6","4","6","7","6","6","4","7","3","7","6","4","6","1","7","7","1","5","5","6","6","4","5","4","7","5","4","7","5","3","6","5","6","7","7","7","7","7","7","6","7","7","7","7","7","7","6","757367705316888578","张","139","Female","[""坏她"",""好我"",""好她"",""坏我""]","[""弱她"",""强我"",""强她"",""弱我""]","","","","","","","","yes","","","","","","","","","SRET","EW_formal","","key","j","16.667727272727138","768","428","自己","勤恳","Positive","morality","","","","","","","","","","",""
"895","","f","psychophysics","30","140807","0.0-7.0-3.0-0.16","6","5","7","6","4","4","4","4","5","5","4","1","0","0","-1","0","2","2","2","5","5","5","5","3","4","4","4","4","5","5","6","5","6","4","6","7","6","6","4","7","3","7","6","4","6","1","7","7","1","5","5","6","6","4","5","4","7","5","4","7","5","3","6","5","6","7","7","7","7","7","7","6","7","7","7","7","7","7","6","757367705316888578","张","139","Female","[""坏她"",""好我"",""好她"",""坏我""]","[""弱她"",""强我"",""强她"",""弱我""]","","","","","","","","no","","","","","","","","","SRET","EW_formal","","key","f","16.66976991150424","768","428","朋友","狡狯","Negative","morality","","","","","","","","","","",""
"939","","f","psychophysics","31","142749","0.0-7.0-3.0-0.17","6","5","7","6","4","4","4","4","5","5","4","1","0","0","-1","0","2","2","2","5","5","5","5","3","4","4","4","4","5","5","6","5","6","4","6","7","6","6","4","7","3","7","6","4","6","1","7","7","1","5","5","6","6","4","5","4","7","5","4","7","5","3","6","5","6","7","7","7","7","7","7","6","7","7","7","7","7","7","6","757367705316888578","张","139","Female","[""坏她"",""好我"",""好她"",""坏我""]","[""弱她"",""强我"",""强她"",""弱我""]","","","","","","","","no","","","","","","","","","SRET","EW_formal","","key","f","16.665956521739314","768","428","自己","黑心","Negative","morality","","","","","","","","","","",""
"1556","","j","psychophysics","32","145307","0.0-7.0-3.0-0.18","6","5","7","6","4","4","4","4","5","5","4","1","0","0","-1","0","2","2","2","5","5","5","5","3","4","4","4","4","5","5","6","5","6","4","6","7","6","6","4","7","3","7","6","4","6","1","7","7","1","5","5","6","6","4","5","4","7","5","4","7","5","3","6","5","6","7","7","7","7","7","7","6","7","7","7","7","7","7","6","757367705316888578","张","139","Female","[""坏她"",""好我"",""好她"",""坏我""]","[""弱她"",""强我"",""强她"",""弱我""]","","","","","","","","yes","","","","","","","","","SRET","EW_formal","","key","j","16.66675816993461","768","428","朋友","变通","Positive","ability","","","","","","","","","","",""
"583","","f","psychophysics","33","146891","0.0-7.0-3.0-0.19","6","5","7","6","4","4","4","4","5","5","4","1","0","0","-1","0","2","2","2","5","5","5","5","3","4","4","4","4","5","5","6","5","6","4","6","7","6","6","4","7","3","7","6","4","6","1","7","7","1","5","5","6","6","4","5","4","7","5","4","7","5","3","6","5","6","7","7","7","7","7","7","6","7","7","7","7","7","7","6","757367705316888578","张","139","Female","[""坏她"",""好我"",""好她"",""坏我""]","[""弱她"",""强我"",""强她"",""弱我""]","","","","","","","","no","","","","","","","","","SRET","EW_formal","","key","f","16.669202127659563","768","428","朋友","贪污","Negative","morality","","","","","","","","","","",""
"648","","j","psychophysics","34","148543","0.0-7.0-3.0-0.20","6","5","7","6","4","4","4","4","5","5","4","1","0","0","-1","0","2","2","2","5","5","5","5","3","4","4","4","4","5","5","6","5","6","4","6","7","6","6","4","7","3","7","6","4","6","1","7","7","1","5","5","6","6","4","5","4","7","5","4","7","5","3","6","5","6","7","7","7","7","7","7","6","7","7","7","7","7","7","6","757367705316888578","张","139","Female","[""坏她"",""好我"",""好她"",""坏我""]","[""弱她"",""强我"",""强她"",""弱我""]","","","","","","","","yes","","","","","","","","","SRET","EW_formal","","key","j","16.664030612245018","768","428","朋友","全才","Positive","ability","","","","","","","","","","",""
"553","","j","psychophysics","35","150097","0.0-7.0-3.0-0.21","6","5","7","6","4","4","4","4","5","5","4","1","0","0","-1","0","2","2","2","5","5","5","5","3","4","4","4","4","5","5","6","5","6","4","6","7","6","6","4","7","3","7","6","4","6","1","7","7","1","5","5","6","6","4","5","4","7","5","4","7","5","3","6","5","6","7","7","7","7","7","7","6","7","7","7","7","7","7","6","757367705316888578","张","139","Female","[""坏她"",""好我"",""好她"",""坏我""]","[""弱她"",""强我"",""强她"",""弱我""]","","","","","","","","yes","","","","","","","","","SRET","EW_formal","","key","j","16.668554347825904","768","428","朋友","善良","Positive","morality","","","","","","","","","","",""
"918","","f","psychophysics","36","152017","0.0-7.0-3.0-0.22","6","5","7","6","4","4","4","4","5","5","4","1","0","0","-1","0","2","2","2","5","5","5","5","3","4","4","4","4","5","5","6","5","6","4","6","7","6","6","4","7","3","7","6","4","6","1","7","7","1","5","5","6","6","4","5","4","7","5","4","7","5","3","6","5","6","7","7","7","7","7","7","6","7","7","7","7","7","7","6","757367705316888578","张","139","Female","[""坏她"",""好我"",""好她"",""坏我""]","[""弱她"",""强我"",""强她"",""弱我""]","","","","","","","","no","","","","","","","","","SRET","EW_formal","","key","f","16.66640350877194","768","428","朋友","拜金","Negative","morality","","","","","","","","","","",""
"null","","null","psychophysics","37","155021","0.0-7.0-3.0-0.23","6","5","7","6","4","4","4","4","5","5","4","1","0","0","-1","0","2","2","2","5","5","5","5","3","4","4","4","4","5","5","6","5","6","4","6","7","6","6","4","7","3","7","6","4","6","1","7","7","1","5","5","6","6","4","5","4","7","5","4","7","5","3","6","5","6","7","7","7","7","7","7","6","7","7","7","7","7","7","6","757367705316888578","张","139","Female","[""坏她"",""好我"",""好她"",""坏我""]","[""弱她"",""强我"",""强她"",""弱我""]","","","","","","","","","","","","","","","","","SRET","EW_formal","","key","null","16.66694413407822","768","428","朋友","聪明","Positive","ability","","","","","","","","","","",""
"1466","","f","psychophysics","38","157489","0.0-7.0-3.0-0.24","6","5","7","6","4","4","4","4","5","5","4","1","0","0","-1","0","2","2","2","5","5","5","5","3","4","4","4","4","5","5","6","5","6","4","6","7","6","6","4","7","3","7","6","4","6","1","7","7","1","5","5","6","6","4","5","4","7","5","4","7","5","3","6","5","6","7","7","7","7","7","7","6","7","7","7","7","7","7","6","757367705316888578","张","139","Female","[""坏她"",""好我"",""好她"",""坏我""]","[""弱她"",""强我"",""强她"",""弱我""]","","","","","","","","no","","","","","","","","","SRET","EW_formal","","key","f","16.66746938775502","768","428","朋友","缺德","Negative","morality","","","","","","","","","","",""
"590","","f","psychophysics","39","159082","0.0-7.0-3.0-0.25","6","5","7","6","4","4","4","4","5","5","4","1","0","0","-1","0","2","2","2","5","5","5","5","3","4","4","4","4","5","5","6","5","6","4","6","7","6","6","4","7","3","7","6","4","6","1","7","7","1","5","5","6","6","4","5","4","7","5","4","7","5","3","6","5","6","7","7","7","7","7","7","6","7","7","7","7","7","7","6","757367705316888578","张","139","Female","[""坏她"",""好我"",""好她"",""坏我""]","[""弱她"",""强我"",""强她"",""弱我""]","","","","","","","","no","","","","","","","","","SRET","EW_formal","","key","f","16.66647368421055","768","428","朋友","粗心","Negative","ability","","","","","","","","","","",""
"914","","j","psychophysics","40","160997","0.0-7.0-3.0-0.26","6","5","7","6","4","4","4","4","5","5","4","1","0","0","-1","0","2","2","2","5","5","5","5","3","4","4","4","4","5","5","6","5","6","4","6","7","6","6","4","7","3","7","6","4","6","1","7","7","1","5","5","6","6","4","5","4","7","5","4","7","5","3","6","5","6","7","7","7","7","7","7","6","7","7","7","7","7","7","6","757367705316888578","张","139","Female","[""坏她"",""好我"",""好她"",""坏我""]","[""弱她"",""强我"",""强她"",""弱我""]","","","","","","","","yes","","","","","","","","","SRET","EW_formal","","key","j","16.667701754386112","768","428","朋友","爱国","Positive","morality","","","","","","","","","","",""
"1227","","j","psychophysics","41","163226","0.0-7.0-3.0-0.27","6","5","7","6","4","4","4","4","5","5","4","1","0","0","-1","0","2","2","2","5","5","5","5","3","4","4","4","4","5","5","6","5","6","4","6","7","6","6","4","7","3","7","6","4","6","1","7","7","1","5","5","6","6","4","5","4","7","5","4","7","5","3","6","5","6","7","7","7","7","7","7","6","7","7","7","7","7","7","6","757367705316888578","张","139","Female","[""坏她"",""好我"",""好她"",""坏我""]","[""弱她"",""强我"",""强她"",""弱我""]","","","","","","","","yes","","","","","","","","","SRET","EW_formal","","key","j","16.667045112781988","768","428","自己","忠勇","Positive","morality","","","","","","","","","","",""
"707","","f","psychophysics","42","164934","0.0-7.0-3.0-0.28","6","5","7","6","4","4","4","4","5","5","4","1","0","0","-1","0","2","2","2","5","5","5","5","3","4","4","4","4","5","5","6","5","6","4","6","7","6","6","4","7","3","7","6","4","6","1","7","7","1","5","5","6","6","4","5","4","7","5","4","7","5","3","6","5","6","7","7","7","7","7","7","6","7","7","7","7","7","7","6","757367705316888578","张","139","Female","[""坏她"",""好我"",""好她"",""坏我""]","[""弱她"",""强我"",""强她"",""弱我""]","","","","","","","","no","","","","","","","","","SRET","EW_formal","","key","f","16.667118811881053","768","428","朋友","侠义","Positive","morality","","","","","","","","","","",""
"854","","f","psychophysics","43","166791","0.0-7.0-3.0-0.29","6","5","7","6","4","4","4","4","5","5","4","1","0","0","-1","0","2","2","2","5","5","5","5","3","4","4","4","4","5","5","6","5","6","4","6","7","6","6","4","7","3","7","6","4","6","1","7","7","1","5","5","6","6","4","5","4","7","5","4","7","5","3","6","5","6","7","7","7","7","7","7","6","7","7","7","7","7","7","6","757367705316888578","张","139","Female","[""坏她"",""好我"",""好她"",""坏我""]","[""弱她"",""强我"",""强她"",""弱我""]","","","","","","","","no","","","","","","","","","SRET","EW_formal","","key","f","16.668801801801745","768","428","自己","怠惰","Negative","ability","","","","","","","","","","",""
"516","","f","psychophysics","44","168308","0.0-7.0-3.0-0.30","6","5","7","6","4","4","4","4","5","5","4","1","0","0","-1","0","2","2","2","5","5","5","5","3","4","4","4","4","5","5","6","5","6","4","6","7","6","6","4","7","3","7","6","4","6","1","7","7","1","5","5","6","6","4","5","4","7","5","4","7","5","3","6","5","6","7","7","7","7","7","7","6","7","7","7","7","7","7","6","757367705316888578","张","139","Female","[""坏她"",""好我"",""好她"",""坏我""]","[""弱她"",""强我"",""强她"",""弱我""]","","","","","","","","no","","","","","","","","","SRET","EW_formal","","key","f","16.666855555555472","768","428","自己","愚钝","Negative","ability","","","","","","","","","","",""
"525","","f","psychophysics","45","169834","0.0-7.0-3.0-0.31","6","5","7","6","4","4","4","4","5","5","4","1","0","0","-1","0","2","2","2","5","5","5","5","3","4","4","4","4","5","5","6","5","6","4","6","7","6","6","4","7","3","7","6","4","6","1","7","7","1","5","5","6","6","4","5","4","7","5","4","7","5","3","6","5","6","7","7","7","7","7","7","6","7","7","7","7","7","7","6","757367705316888578","张","139","Female","[""坏她"",""好我"",""好她"",""坏我""]","[""弱她"",""强我"",""强她"",""弱我""]","","","","","","","","no","","","","","","","","","SRET","EW_formal","","key","f","16.667099999999888","768","428","朋友","奸诈","Negative","morality","","","","","","","","","","",""
"1080","","j","psychophysics","46","171915","0.0-7.0-3.0-0.32","6","5","7","6","4","4","4","4","5","5","4","1","0","0","-1","0","2","2","2","5","5","5","5","3","4","4","4","4","5","5","6","5","6","4","6","7","6","6","4","7","3","7","6","4","6","1","7","7","1","5","5","6","6","4","5","4","7","5","4","7","5","3","6","5","6","7","7","7","7","7","7","6","7","7","7","7","7","7","6","757367705316888578","张","139","Female","[""坏她"",""好我"",""好她"",""坏我""]","[""弱她"",""强我"",""强她"",""弱我""]","","","","","","","","yes","","","","","","","","","SRET","EW_formal","","key","j","16.666870967741783","768","428","朋友","守法","Positive","morality","","","","","","","","","","",""
"1325","","j","psychophysics","47","174242","0.0-7.0-3.0-0.33","6","5","7","6","4","4","4","4","5","5","4","1","0","0","-1","0","2","2","2","5","5","5","5","3","4","4","4","4","5","5","6","5","6","4","6","7","6","6","4","7","3","7","6","4","6","1","7","7","1","5","5","6","6","4","5","4","7","5","4","7","5","3","6","5","6","7","7","7","7","7","7","6","7","7","7","7","7","7","6","757367705316888578","张","139","Female","[""坏她"",""好我"",""好她"",""坏我""]","[""弱她"",""强我"",""强她"",""弱我""]","","","","","","","","yes","","","","","","","","","SRET","EW_formal","","key","j","16.6674388489209","768","428","自己","利落","Positive","ability","","","","","","","","","","",""
"711","","f","psychophysics","48","175956","0.0-7.0-3.0-0.34","6","5","7","6","4","4","4","4","5","5","4","1","0","0","-1","0","2","2","2","5","5","5","5","3","4","4","4","4","5","5","6","5","6","4","6","7","6","6","4","7","3","7","6","4","6","1","7","7","1","5","5","6","6","4","5","4","7","5","4","7","5","3","6","5","6","7","7","7","7","7","7","6","7","7","7","7","7","7","6","757367705316888578","张","139","Female","[""坏她"",""好我"",""好她"",""坏我""]","[""弱她"",""强我"",""强她"",""弱我""]","","","","","","","","no","","","","","","","","","SRET","EW_formal","","key","f","16.66719801980186","768","428","朋友","自私","Negative","morality","","","","","","","","","","",""
"537","","f","psychophysics","49","177496","0.0-7.0-3.0-0.35","6","5","7","6","4","4","4","4","5","5","4","1","0","0","-1","0","2","2","2","5","5","5","5","3","4","4","4","4","5","5","6","5","6","4","6","7","6","6","4","7","3","7","6","4","6","1","7","7","1","5","5","6","6","4","5","4","7","5","4","7","5","3","6","5","6","7","7","7","7","7","7","6","7","7","7","7","7","7","6","757367705316888578","张","139","Female","[""坏她"",""好我"",""好她"",""坏我""]","[""弱她"",""强我"",""强她"",""弱我""]","","","","","","","","no","","","","","","","","","SRET","EW_formal","","key","f","16.666304347826276","768","428","朋友","邪恶","Negative","morality","","","","","","","","","","",""
"1313","","f","psychophysics","50","179810","0.0-7.0-3.0-0.36","6","5","7","6","4","4","4","4","5","5","4","1","0","0","-1","0","2","2","2","5","5","5","5","3","4","4","4","4","5","5","6","5","6","4","6","7","6","6","4","7","3","7","6","4","6","1","7","7","1","5","5","6","6","4","5","4","7","5","4","7","5","3","6","5","6","7","7","7","7","7","7","6","7","7","7","7","7","7","6","757367705316888578","张","139","Female","[""坏她"",""好我"",""好她"",""坏我""]","[""弱她"",""强我"",""强她"",""弱我""]","","","","","","","","no","","","","","","","","","SRET","EW_formal","","key","f","16.66626811594208","768","428","自己","懂行","Positive","ability","","","","","","","","","","",""
"539","","f","psychophysics","51","181351","0.0-7.0-3.0-0.37","6","5","7","6","4","4","4","4","5","5","4","1","0","0","-1","0","2","2","2","5","5","5","5","3","4","4","4","4","5","5","6","5","6","4","6","7","6","6","4","7","3","7","6","4","6","1","7","7","1","5","5","6","6","4","5","4","7","5","4","7","5","3","6","5","6","7","7","7","7","7","7","6","7","7","7","7","7","7","6","757367705316888578","张","139","Female","[""坏她"",""好我"",""好她"",""坏我""]","[""弱她"",""强我"",""强她"",""弱我""]","","","","","","","","no","","","","","","","","","SRET","EW_formal","","key","f","16.66654945054932","768","428","朋友","笨蛋","Negative","ability","","","","","","","","","","",""
"744","","j","psychophysics","52","183096","0.0-7.0-3.0-0.38","6","5","7","6","4","4","4","4","5","5","4","1","0","0","-1","0","2","2","2","5","5","5","5","3","4","4","4","4","5","5","6","5","6","4","6","7","6","6","4","7","3","7","6","4","6","1","7","7","1","5","5","6","6","4","5","4","7","5","4","7","5","3","6","5","6","7","7","7","7","7","7","6","7","7","7","7","7","7","6","757367705316888578","张","139","Female","[""坏她"",""好我"",""好她"",""坏我""]","[""弱她"",""强我"",""强她"",""弱我""]","","","","","","","","yes","","","","","","","","","SRET","EW_formal","","key","j","16.669480769230667","768","428","自己","上进","Positive","ability","","","","","","","","","","",""
"711","","j","psychophysics","53","184809","0.0-7.0-3.0-0.39","6","5","7","6","4","4","4","4","5","5","4","1","0","0","-1","0","2","2","2","5","5","5","5","3","4","4","4","4","5","5","6","5","6","4","6","7","6","6","4","7","3","7","6","4","6","1","7","7","1","5","5","6","6","4","5","4","7","5","4","7","5","3","6","5","6","7","7","7","7","7","7","6","7","7","7","7","7","7","6","757367705316888578","张","139","Female","[""坏她"",""好我"",""好她"",""坏我""]","[""弱她"",""强我"",""强她"",""弱我""]","","","","","","","","yes","","","","","","","","","SRET","EW_formal","","key","j","16.668892156862594","768","428","朋友","果断","Positive","ability","","","","","","","","","","",""
"689","","f","psychophysics","54","186500","0.0-7.0-3.0-0.40","6","5","7","6","4","4","4","4","5","5","4","1","0","0","-1","0","2","2","2","5","5","5","5","3","4","4","4","4","5","5","6","5","6","4","6","7","6","6","4","7","3","7","6","4","6","1","7","7","1","5","5","6","6","4","5","4","7","5","4","7","5","3","6","5","6","7","7","7","7","7","7","6","7","7","7","7","7","7","6","757367705316888578","张","139","Female","[""坏她"",""好我"",""好她"",""坏我""]","[""弱她"",""强我"",""强她"",""弱我""]","","","","","","","","no","","","","","","","","","SRET","EW_formal","","key","f","16.668289999999978","768","428","自己","外行","Negative","ability","","","","","","","","","","",""
"629","","f","psychophysics","55","188131","0.0-7.0-3.0-0.41","6","5","7","6","4","4","4","4","5","5","4","1","0","0","-1","0","2","2","2","5","5","5","5","3","4","4","4","4","5","5","6","5","6","4","6","7","6","6","4","7","3","7","6","4","6","1","7","7","1","5","5","6","6","4","5","4","7","5","4","7","5","3","6","5","6","7","7","7","7","7","7","6","7","7","7","7","7","7","6","757367705316888578","张","139","Female","[""坏她"",""好我"",""好她"",""坏我""]","[""弱她"",""强我"",""强她"",""弱我""]","","","","","","","","no","","","","","","","","","SRET","EW_formal","","key","f","16.668206185566923","768","428","自己","不孝","Negative","morality","","","","","","","","","","",""
"539","","f","psychophysics","56","189672","0.0-7.0-3.0-0.42","6","5","7","6","4","4","4","4","5","5","4","1","0","0","-1","0","2","2","2","5","5","5","5","3","4","4","4","4","5","5","6","5","6","4","6","7","6","6","4","7","3","7","6","4","6","1","7","7","1","5","5","6","6","4","5","4","7","5","4","7","5","3","6","5","6","7","7","7","7","7","7","6","7","7","7","7","7","7","6","757367705316888578","张","139","Female","[""坏她"",""好我"",""好她"",""坏我""]","[""弱她"",""强我"",""强她"",""弱我""]","","","","","","","","no","","","","","","","","","SRET","EW_formal","","key","f","16.672571428571406","768","428","朋友","不良","Negative","morality","","","","","","","","","","",""
"547","","j","psychophysics","57","191222","0.0-7.0-3.0-0.43","6","5","7","6","4","4","4","4","5","5","4","1","0","0","-1","0","2","2","2","5","5","5","5","3","4","4","4","4","5","5","6","5","6","4","6","7","6","6","4","7","3","7","6","4","6","1","7","7","1","5","5","6","6","4","5","4","7","5","4","7","5","3","6","5","6","7","7","7","7","7","7","6","7","7","7","7","7","7","6","757367705316888578","张","139","Female","[""坏她"",""好我"",""好她"",""坏我""]","[""弱她"",""强我"",""强她"",""弱我""]","","","","","","","","yes","","","","","","","","","SRET","EW_formal","","key","j","16.67058695652193","768","428","自己","精干","Positive","ability","","","","","","","","","","",""
"774","","f","psychophysics","58","192997","0.0-7.0-3.0-0.44","6","5","7","6","4","4","4","4","5","5","4","1","0","0","-1","0","2","2","2","5","5","5","5","3","4","4","4","4","5","5","6","5","6","4","6","7","6","6","4","7","3","7","6","4","6","1","7","7","1","5","5","6","6","4","5","4","7","5","4","7","5","3","6","5","6","7","7","7","7","7","7","6","7","7","7","7","7","7","6","757367705316888578","张","139","Female","[""坏她"",""好我"",""好她"",""坏我""]","[""弱她"",""强我"",""强她"",""弱我""]","","","","","","","","no","","","","","","","","","SRET","EW_formal","","key","f","16.668066037735873","768","428","自己","诡诈","Negative","morality","","","","","","","","","","",""
"586","","j","psychophysics","59","194584","0.0-7.0-3.0-0.45","6","5","7","6","4","4","4","4","5","5","4","1","0","0","-1","0","2","2","2","5","5","5","5","3","4","4","4","4","5","5","6","5","6","4","6","7","6","6","4","7","3","7","6","4","6","1","7","7","1","5","5","6","6","4","5","4","7","5","4","7","5","3","6","5","6","7","7","7","7","7","7","6","7","7","7","7","7","7","6","757367705316888578","张","139","Female","[""坏她"",""好我"",""好她"",""坏我""]","[""弱她"",""强我"",""强她"",""弱我""]","","","","","","","","yes","","","","","","","","","SRET","EW_formal","","key","j","16.667765957447006","768","428","自己","热心","Positive","morality","","","","","","","","","","",""
"1244","","f","psychophysics","60","196829","0.0-7.0-3.0-0.46","6","5","7","6","4","4","4","4","5","5","4","1","0","0","-1","0","2","2","2","5","5","5","5","3","4","4","4","4","5","5","6","5","6","4","6","7","6","6","4","7","3","7","6","4","6","1","7","7","1","5","5","6","6","4","5","4","7","5","4","7","5","3","6","5","6","7","7","7","7","7","7","6","7","7","7","7","7","7","6","757367705316888578","张","139","Female","[""坏她"",""好我"",""好她"",""坏我""]","[""弱她"",""强我"",""强她"",""弱我""]","","","","","","","","no","","","","","","","","","SRET","EW_formal","","key","f","16.667141791044756","768","428","朋友","业余","Negative","ability","","","","","","","","","","",""
"null","","null","psychophysics","61","199832","0.0-7.0-3.0-0.47","6","5","7","6","4","4","4","4","5","5","4","1","0","0","-1","0","2","2","2","5","5","5","5","3","4","4","4","4","5","5","6","5","6","4","6","7","6","6","4","7","3","7","6","4","6","1","7","7","1","5","5","6","6","4","5","4","7","5","4","7","5","3","6","5","6","7","7","7","7","7","7","6","7","7","7","7","7","7","6","757367705316888578","张","139","Female","[""坏她"",""好我"",""好她"",""坏我""]","[""弱她"",""强我"",""强她"",""弱我""]","","","","","","","","","","","","","","","","","SRET","EW_formal","","key","null","16.667938547486123","768","428","自己","盲目","Negative","ability","","","","","","","","","","",""
"1091","","j","psychophysics","62","201924","0.0-7.0-3.0-0.48","6","5","7","6","4","4","4","4","5","5","4","1","0","0","-1","0","2","2","2","5","5","5","5","3","4","4","4","4","5","5","6","5","6","4","6","7","6","6","4","7","3","7","6","4","6","1","7","7","1","5","5","6","6","4","5","4","7","5","4","7","5","3","6","5","6","7","7","7","7","7","7","6","7","7","7","7","7","7","6","757367705316888578","张","139","Female","[""坏她"",""好我"",""好她"",""坏我""]","[""弱她"",""强我"",""强她"",""弱我""]","","","","","","","","yes","","","","","","","","","SRET","EW_formal","","key","j","16.666888000000036","768","428","自己","慷慨","Positive","morality","","","","","","","","","","",""
"593","","f","psychophysics","63","203518","0.0-7.0-3.0-0.49","6","5","7","6","4","4","4","4","5","5","4","1","0","0","-1","0","2","2","2","5","5","5","5","3","4","4","4","4","5","5","6","5","6","4","6","7","6","6","4","7","3","7","6","4","6","1","7","7","1","5","5","6","6","4","5","4","7","5","4","7","5","3","6","5","6","7","7","7","7","7","7","6","7","7","7","7","7","7","6","757367705316888578","张","139","Female","[""坏她"",""好我"",""好她"",""坏我""]","[""弱她"",""强我"",""强她"",""弱我""]","","","","","","","","no","","","","","","","","","SRET","EW_formal","","key","f","16.665755319148996","768","428","自己","腐败","Negative","morality","","","","","","","","","","",""
"887","","f","psychophysics","64","205407","0.0-7.0-3.0-0.50","6","5","7","6","4","4","4","4","5","5","4","1","0","0","-1","0","2","2","2","5","5","5","5","3","4","4","4","4","5","5","6","5","6","4","6","7","6","6","4","7","3","7","6","4","6","1","7","7","1","5","5","6","6","4","5","4","7","5","4","7","5","3","6","5","6","7","7","7","7","7","7","6","7","7","7","7","7","7","6","757367705316888578","张","139","Female","[""坏她"",""好我"",""好她"",""坏我""]","[""弱她"",""强我"",""强她"",""弱我""]","","","","","","","","no","","","","","","","","","SRET","EW_formal","","key","f","16.66732743362828","768","428","朋友","逞强","Negative","ability","","","","","","","","","","",""
"1340","","f","psychophysics","65","207749","0.0-7.0-3.0-0.51","6","5","7","6","4","4","4","4","5","5","4","1","0","0","-1","0","2","2","2","5","5","5","5","3","4","4","4","4","5","5","6","5","6","4","6","7","6","6","4","7","3","7","6","4","6","1","7","7","1","5","5","6","6","4","5","4","7","5","4","7","5","3","6","5","6","7","7","7","7","7","7","6","7","7","7","7","7","7","6","757367705316888578","张","139","Female","[""坏她"",""好我"",""好她"",""坏我""]","[""弱她"",""强我"",""强她"",""弱我""]","","","","","","","","no","","","","","","","","","SRET","EW_formal","","key","f","16.66682733812938","768","428","自己","高洁","Positive","morality","","","","","","","","","","",""
"1090","","j","psychophysics","66","209841","0.0-7.0-3.0-0.52","6","5","7","6","4","4","4","4","5","5","4","1","0","0","-1","0","2","2","2","5","5","5","5","3","4","4","4","4","5","5","6","5","6","4","6","7","6","6","4","7","3","7","6","4","6","1","7","7","1","5","5","6","6","4","5","4","7","5","4","7","5","3","6","5","6","7","7","7","7","7","7","6","7","7","7","7","7","7","6","757367705316888578","张","139","Female","[""坏她"",""好我"",""好她"",""坏我""]","[""弱她"",""强我"",""强她"",""弱我""]","","","","","","","","yes","","","","","","","","","SRET","EW_formal","","key","j","16.66776000000001","768","428","朋友","稳健","Positive","ability","","","","","","","","","","",""
"951","","j","psychophysics","67","211794","0.0-7.0-3.0-0.53","6","5","7","6","4","4","4","4","5","5","4","1","0","0","-1","0","2","2","2","5","5","5","5","3","4","4","4","4","5","5","6","5","6","4","6","7","6","6","4","7","3","7","6","4","6","1","7","7","1","5","5","6","6","4","5","4","7","5","4","7","5","3","6","5","6","7","7","7","7","7","7","6","7","7","7","7","7","7","6","757367705316888578","张","139","Female","[""坏她"",""好我"",""好她"",""坏我""]","[""弱她"",""强我"",""强她"",""弱我""]","","","","","","","","yes","","","","","","","","","SRET","EW_formal","","key","j","16.667568965517447","768","428","自己","毅力","Positive","ability","","","","","","","","","","",""
"936","","f","psychophysics","68","213731","0.0-7.0-3.0-0.54","6","5","7","6","4","4","4","4","5","5","4","1","0","0","-1","0","2","2","2","5","5","5","5","3","4","4","4","4","5","5","6","5","6","4","6","7","6","6","4","7","3","7","6","4","6","1","7","7","1","5","5","6","6","4","5","4","7","5","4","7","5","3","6","5","6","7","7","7","7","7","7","6","7","7","7","7","7","7","6","757367705316888578","张","139","Female","[""坏她"",""好我"",""好她"",""坏我""]","[""弱她"",""强我"",""强她"",""弱我""]","","","","","","","","no","","","","","","","","","SRET","EW_formal","","key","f","16.66905217391297","768","428","自己","博学","Positive","ability","","","","","","","","","","",""
"1429","","j","psychophysics","69","216161","0.0-7.0-3.0-0.55","6","5","7","6","4","4","4","4","5","5","4","1","0","0","-1","0","2","2","2","5","5","5","5","3","4","4","4","4","5","5","6","5","6","4","6","7","6","6","4","7","3","7","6","4","6","1","7","7","1","5","5","6","6","4","5","4","7","5","4","7","5","3","6","5","6","7","7","7","7","7","7","6","7","7","7","7","7","7","6","757367705316888578","张","139","Female","[""坏她"",""好我"",""好她"",""坏我""]","[""弱她"",""强我"",""强她"",""弱我""]","","","","","","","","yes","","","","","","","","","SRET","EW_formal","","key","j","16.667137931034386","768","428","朋友","宽容","Positive","morality","","","","","","","","","","",""
"728","","j","psychophysics","70","217891","0.0-7.0-3.0-0.56","6","5","7","6","4","4","4","4","5","5","4","1","0","0","-1","0","2","2","2","5","5","5","5","3","4","4","4","4","5","5","6","5","6","4","6","7","6","6","4","7","3","7","6","4","6","1","7","7","1","5","5","6","6","4","5","4","7","5","4","7","5","3","6","5","6","7","7","7","7","7","7","6","7","7","7","7","7","7","6","757367705316888578","张","139","Female","[""坏她"",""好我"",""好她"",""坏我""]","[""弱她"",""强我"",""强她"",""弱我""]","","","","","","","","yes","","","","","","","","","SRET","EW_formal","","key","j","16.6693495145631","768","428","朋友","扎实","Positive","ability","","","","","","","","","","",""
"775","","j","psychophysics","71","219667","0.0-7.0-3.0-0.57","6","5","7","6","4","4","4","4","5","5","4","1","0","0","-1","0","2","2","2","5","5","5","5","3","4","4","4","4","5","5","6","5","6","4","6","7","6","6","4","7","3","7","6","4","6","1","7","7","1","5","5","6","6","4","5","4","7","5","4","7","5","3","6","5","6","7","7","7","7","7","7","6","7","7","7","7","7","7","6","757367705316888578","张","139","Female","[""坏她"",""好我"",""好她"",""坏我""]","[""弱她"",""强我"",""强她"",""弱我""]","","","","","","","","yes","","","","","","","","","SRET","EW_formal","","key","j","16.66287619047604","768","428","朋友","君子","Positive","morality","","","","","","","","","","",""
"455","","j","psychophysics","72","221124","0.0-7.0-3.0-0.58","6","5","7","6","4","4","4","4","5","5","4","1","0","0","-1","0","2","2","2","5","5","5","5","3","4","4","4","4","5","5","6","5","6","4","6","7","6","6","4","7","3","7","6","4","6","1","7","7","1","5","5","6","6","4","5","4","7","5","4","7","5","3","6","5","6","7","7","7","7","7","7","6","7","7","7","7","7","7","6","757367705316888578","张","139","Female","[""坏她"",""好我"",""好她"",""坏我""]","[""弱她"",""强我"",""强她"",""弱我""]","","","","","","","","yes","","","","","","","","","SRET","EW_formal","","key","j","16.666758620689674","768","428","自己","仁爱","Positive","morality","","","","","","","","","","",""
"1163","","j","psychophysics","73","223288","0.0-7.0-3.0-0.59","6","5","7","6","4","4","4","4","5","5","4","1","0","0","-1","0","2","2","2","5","5","5","5","3","4","4","4","4","5","5","6","5","6","4","6","7","6","6","4","7","3","7","6","4","6","1","7","7","1","5","5","6","6","4","5","4","7","5","4","7","5","3","6","5","6","7","7","7","7","7","7","6","7","7","7","7","7","7","6","757367705316888578","张","139","Female","[""坏她"",""好我"",""好她"",""坏我""]","[""弱她"",""强我"",""强她"",""弱我""]","","","","","","","","yes","","","","","","","","","SRET","EW_formal","","key","j","16.669187500000135","768","428","朋友","依靠","Negative","ability","","","","","","","","","","",""
"538","","f","psychophysics","74","224828","0.0-7.0-3.0-0.60","6","5","7","6","4","4","4","4","5","5","4","1","0","0","-1","0","2","2","2","5","5","5","5","3","4","4","4","4","5","5","6","5","6","4","6","7","6","6","4","7","3","7","6","4","6","1","7","7","1","5","5","6","6","4","5","4","7","5","4","7","5","3","6","5","6","7","7","7","7","7","7","6","7","7","7","7","7","7","6","757367705316888578","张","139","Female","[""坏她"",""好我"",""好她"",""坏我""]","[""弱她"",""强我"",""强她"",""弱我""]","","","","","","","","no","","","","","","","","","SRET","EW_formal","","key","f","16.667250000000184","768","428","自己","愚痴","Negative","ability","","","","","","","","","","",""
"786","","j","psychophysics","75","226615","0.0-7.0-3.0-0.61","6","5","7","6","4","4","4","4","5","5","4","1","0","0","-1","0","2","2","2","5","5","5","5","3","4","4","4","4","5","5","6","5","6","4","6","7","6","6","4","7","3","7","6","4","6","1","7","7","1","5","5","6","6","4","5","4","7","5","4","7","5","3","6","5","6","7","7","7","7","7","7","6","7","7","7","7","7","7","6","757367705316888578","张","139","Female","[""坏她"",""好我"",""好她"",""坏我""]","[""弱她"",""强我"",""强她"",""弱我""]","","","","","","","","yes","","","","","","","","","SRET","EW_formal","","key","j","16.667179245282927","768","428","朋友","清廉","Positive","morality","","","","","","","","","","",""
"618","","j","psychophysics","76","228235","0.0-7.0-3.0-0.62","6","5","7","6","4","4","4","4","5","5","4","1","0","0","-1","0","2","2","2","5","5","5","5","3","4","4","4","4","5","5","6","5","6","4","6","7","6","6","4","7","3","7","6","4","6","1","7","7","1","5","5","6","6","4","5","4","7","5","4","7","5","3","6","5","6","7","7","7","7","7","7","6","7","7","7","7","7","7","6","757367705316888578","张","139","Female","[""坏她"",""好我"",""好她"",""坏我""]","[""弱她"",""强我"",""强她"",""弱我""]","","","","","","","","yes","","","","","","","","","SRET","EW_formal","","key","j","16.669322916666413","768","428","朋友","周到","Positive","ability","","","","","","","","","","",""
"519","","f","psychophysics","77","229755","0.0-7.0-3.0-0.63","6","5","7","6","4","4","4","4","5","5","4","1","0","0","-1","0","2","2","2","5","5","5","5","3","4","4","4","4","5","5","6","5","6","4","6","7","6","6","4","7","3","7","6","4","6","1","7","7","1","5","5","6","6","4","5","4","7","5","4","7","5","3","6","5","6","7","7","7","7","7","7","6","7","7","7","7","7","7","6","757367705316888578","张","139","Female","[""坏她"",""好我"",""好她"",""坏我""]","[""弱她"",""强我"",""强她"",""弱我""]","","","","","","","","no","","","","","","","","","SRET","EW_formal","","key","f","16.66969999999985","768","428","朋友","无赖","Negative","morality","","","","","","","","","","",""
"636","","j","psychophysics","78","231392","0.0-7.0-3.0-0.64","6","5","7","6","4","4","4","4","5","5","4","1","0","0","-1","0","2","2","2","5","5","5","5","3","4","4","4","4","5","5","6","5","6","4","6","7","6","6","4","7","3","7","6","4","6","1","7","7","1","5","5","6","6","4","5","4","7","5","4","7","5","3","6","5","6","7","7","7","7","7","7","6","7","7","7","7","7","7","6","757367705316888578","张","139","Female","[""坏她"",""好我"",""好她"",""坏我""]","[""弱她"",""强我"",""强她"",""弱我""]","","","","","","","","yes","","","","","","","","","SRET","EW_formal","","key","j","16.66671428571417","768","428","自己","专注","Positive","ability","","","","","","","","","","",""
"771","","f","psychophysics","79","233164","0.0-7.0-3.0-0.65","6","5","7","6","4","4","4","4","5","5","4","1","0","0","-1","0","2","2","2","5","5","5","5","3","4","4","4","4","5","5","6","5","6","4","6","7","6","6","4","7","3","7","6","4","6","1","7","7","1","5","5","6","6","4","5","4","7","5","4","7","5","3","6","5","6","7","7","7","7","7","7","6","7","7","7","7","7","7","6","757367705316888578","张","139","Female","[""坏她"",""好我"",""好她"",""坏我""]","[""弱她"",""强我"",""强她"",""弱我""]","","","","","","","","no","","","","","","","","","SRET","EW_formal","","key","f","16.665009523809534","768","428","自己","伪善","Negative","morality","","","","","","","","","","",""
"522","","f","psychophysics","80","234689","0.0-7.0-3.0-0.66","6","5","7","6","4","4","4","4","5","5","4","1","0","0","-1","0","2","2","2","5","5","5","5","3","4","4","4","4","5","5","6","5","6","4","6","7","6","6","4","7","3","7","6","4","6","1","7","7","1","5","5","6","6","4","5","4","7","5","4","7","5","3","6","5","6","7","7","7","7","7","7","6","7","7","7","7","7","7","6","757367705316888578","张","139","Female","[""坏她"",""好我"",""好她"",""坏我""]","[""弱她"",""强我"",""强她"",""弱我""]","","","","","","","","no","","","","","","","","","SRET","EW_formal","","key","f","16.668111111111163","768","428","自己","愚蠢","Negative","ability","","","","","","","","","","",""
"656","","j","psychophysics","81","236346","0.0-7.0-3.0-0.67","6","5","7","6","4","4","4","4","5","5","4","1","0","0","-1","0","2","2","2","5","5","5","5","3","4","4","4","4","5","5","6","5","6","4","6","7","6","6","4","7","3","7","6","4","6","1","7","7","1","5","5","6","6","4","5","4","7","5","4","7","5","3","6","5","6","7","7","7","7","7","7","6","7","7","7","7","7","7","6","757367705316888578","张","139","Female","[""坏她"",""好我"",""好她"",""坏我""]","[""弱她"",""强我"",""强她"",""弱我""]","","","","","","","","yes","","","","","","","","","SRET","EW_formal","","key","j","16.668727272727253","768","428","自己","仗义","Positive","morality","","","","","","","","","","",""
"574","","f","psychophysics","82","237922","0.0-7.0-3.0-0.68","6","5","7","6","4","4","4","4","5","5","4","1","0","0","-1","0","2","2","2","5","5","5","5","3","4","4","4","4","5","5","6","5","6","4","6","7","6","6","4","7","3","7","6","4","6","1","7","7","1","5","5","6","6","4","5","4","7","5","4","7","5","3","6","5","6","7","7","7","7","7","7","6","7","7","7","7","7","7","6","757367705316888578","张","139","Female","[""坏她"",""好我"",""好她"",""坏我""]","[""弱她"",""强我"",""强她"",""弱我""]","","","","","","","","no","","","","","","","","","SRET","EW_formal","","key","f","16.666870967741627","768","428","自己","虚伪","Negative","morality","","","","","","","","","","",""
"509","","f","psychophysics","83","239433","0.0-7.0-3.0-0.69","6","5","7","6","4","4","4","4","5","5","4","1","0","0","-1","0","2","2","2","5","5","5","5","3","4","4","4","4","5","5","6","5","6","4","6","7","6","6","4","7","3","7","6","4","6","1","7","7","1","5","5","6","6","4","5","4","7","5","4","7","5","3","6","5","6","7","7","7","7","7","7","6","7","7","7","7","7","7","6","757367705316888578","张","139","Female","[""坏她"",""好我"",""好她"",""坏我""]","[""弱她"",""强我"",""强她"",""弱我""]","","","","","","","","no","","","","","","","","","SRET","EW_formal","","key","f","16.6672444444444","768","428","自己","贪腐","Negative","morality","","","","","","","","","","",""
"714","","j","psychophysics","84","241148","0.0-7.0-3.0-0.70","6","5","7","6","4","4","4","4","5","5","4","1","0","0","-1","0","2","2","2","5","5","5","5","3","4","4","4","4","5","5","6","5","6","4","6","7","6","6","4","7","3","7","6","4","6","1","7","7","1","5","5","6","6","4","5","4","7","5","4","7","5","3","6","5","6","7","7","7","7","7","7","6","7","7","7","7","7","7","6","757367705316888578","张","139","Female","[""坏她"",""好我"",""好她"",""坏我""]","[""弱她"",""强我"",""强她"",""弱我""]","","","","","","","","yes","","","","","","","","","SRET","EW_formal","","key","j","16.66765686274505","768","428","自己","善心","Positive","morality","","","","","","","","","","",""
"942","","j","psychophysics","85","243092","0.0-7.0-3.0-0.71","6","5","7","6","4","4","4","4","5","5","4","1","0","0","-1","0","2","2","2","5","5","5","5","3","4","4","4","4","5","5","6","5","6","4","6","7","6","6","4","7","3","7","6","4","6","1","7","7","1","5","5","6","6","4","5","4","7","5","4","7","5","3","6","5","6","7","7","7","7","7","7","6","7","7","7","7","7","7","6","757367705316888578","张","139","Female","[""坏她"",""好我"",""好她"",""坏我""]","[""弱她"",""强我"",""强她"",""弱我""]","","","","","","","","yes","","","","","","","","","SRET","EW_formal","","key","j","16.669551724137975","768","428","自己","骁勇","Positive","ability","","","","","","","","","","",""
"1454","","j","psychophysics","86","245548","0.0-7.0-3.0-0.72","6","5","7","6","4","4","4","4","5","5","4","1","0","0","-1","0","2","2","2","5","5","5","5","3","4","4","4","4","5","5","6","5","6","4","6","7","6","6","4","7","3","7","6","4","6","1","7","7","1","5","5","6","6","4","5","4","7","5","4","7","5","3","6","5","6","7","7","7","7","7","7","6","7","7","7","7","7","7","6","757367705316888578","张","139","Female","[""坏她"",""好我"",""好她"",""坏我""]","[""弱她"",""强我"",""强她"",""弱我""]","","","","","","","","yes","","","","","","","","","SRET","EW_formal","","key","j","16.66767808219178","768","428","朋友","努力","Positive","ability","","","","","","","","","","",""
"1930","","f","psychophysics","87","248479","0.0-7.0-3.0-0.73","6","5","7","6","4","4","4","4","5","5","4","1","0","0","-1","0","2","2","2","5","5","5","5","3","4","4","4","4","5","5","6","5","6","4","6","7","6","6","4","7","3","7","6","4","6","1","7","7","1","5","5","6","6","4","5","4","7","5","4","7","5","3","6","5","6","7","7","7","7","7","7","6","7","7","7","7","7","7","6","757367705316888578","张","139","Female","[""坏她"",""好我"",""好她"",""坏我""]","[""弱她"",""强我"",""强她"",""弱我""]","","","","","","","","no","","","","","","","","","SRET","EW_formal","","key","f","16.66679428571436","768","428","自己","驽钝","Negative","ability","","","","","","","","","","",""
"811","","f","psychophysics","88","250291","0.0-7.0-3.0-0.74","6","5","7","6","4","4","4","4","5","5","4","1","0","0","-1","0","2","2","2","5","5","5","5","3","4","4","4","4","5","5","6","5","6","4","6","7","6","6","4","7","3","7","6","4","6","1","7","7","1","5","5","6","6","4","5","4","7","5","4","7","5","3","6","5","6","7","7","7","7","7","7","6","7","7","7","7","7","7","6","757367705316888578","张","139","Female","[""坏她"",""好我"",""好她"",""坏我""]","[""弱她"",""强我"",""强她"",""弱我""]","","","","","","","","no","","","","","","","","","SRET","EW_formal","","key","f","16.669370370370515","768","428","自己","屈才","Negative","ability","","","","","","","","","","",""
"528","","f","psychophysics","89","251821","0.0-7.0-3.0-0.75","6","5","7","6","4","4","4","4","5","5","4","1","0","0","-1","0","2","2","2","5","5","5","5","3","4","4","4","4","5","5","6","5","6","4","6","7","6","6","4","7","3","7","6","4","6","1","7","7","1","5","5","6","6","4","5","4","7","5","4","7","5","3","6","5","6","7","7","7","7","7","7","6","7","7","7","7","7","7","6","757367705316888578","张","139","Female","[""坏她"",""好我"",""好她"",""坏我""]","[""弱她"",""强我"",""强她"",""弱我""]","","","","","","","","no","","","","","","","","","SRET","EW_formal","","key","f","16.670533333333314","768","428","自己","奸险","Negative","morality","","","","","","","","","","",""
"null","","null","psychophysics","90","254825","0.0-7.0-3.0-0.76","6","5","7","6","4","4","4","4","5","5","4","1","0","0","-1","0","2","2","2","5","5","5","5","3","4","4","4","4","5","5","6","5","6","4","6","7","6","6","4","7","3","7","6","4","6","1","7","7","1","5","5","6","6","4","5","4","7","5","4","7","5","3","6","5","6","7","7","7","7","7","7","6","7","7","7","7","7","7","6","757367705316888578","张","139","Female","[""坏她"",""好我"",""好她"",""坏我""]","[""弱她"",""强我"",""强她"",""弱我""]","","","","","","","","","","","","","","","","","SRET","EW_formal","","key","null","16.667288888888855","768","428","自己","新手","Negative","ability","","","","","","","","","","",""
"585","","f","psychophysics","91","256412","0.0-7.0-3.0-0.77","6","5","7","6","4","4","4","4","5","5","4","1","0","0","-1","0","2","2","2","5","5","5","5","3","4","4","4","4","5","5","6","5","6","4","6","7","6","6","4","7","3","7","6","4","6","1","7","7","1","5","5","6","6","4","5","4","7","5","4","7","5","3","6","5","6","7","7","7","7","7","7","6","7","7","7","7","7","7","6","757367705316888578","张","139","Female","[""坏她"",""好我"",""好她"",""坏我""]","[""弱她"",""强我"",""强她"",""弱我""]","","","","","","","","no","","","","","","","","","SRET","EW_formal","","key","f","16.67013829787221","768","428","朋友","拖拉","Negative","ability","","","","","","","","","","",""
"545","","f","psychophysics","92","257958","0.0-7.0-3.0-0.78","6","5","7","6","4","4","4","4","5","5","4","1","0","0","-1","0","2","2","2","5","5","5","5","3","4","4","4","4","5","5","6","5","6","4","6","7","6","6","4","7","3","7","6","4","6","1","7","7","1","5","5","6","6","4","5","4","7","5","4","7","5","3","6","5","6","7","7","7","7","7","7","6","7","7","7","7","7","7","6","757367705316888578","张","139","Female","[""坏她"",""好我"",""好她"",""坏我""]","[""弱她"",""强我"",""强她"",""弱我""]","","","","","","","","no","","","","","","","","","SRET","EW_formal","","key","f","16.667065217391254","768","428","自己","无耻","Negative","morality","","","","","","","","","","",""
"658","","j","psychophysics","93","259618","0.0-7.0-3.0-0.79","6","5","7","6","4","4","4","4","5","5","4","1","0","0","-1","0","2","2","2","5","5","5","5","3","4","4","4","4","5","5","6","5","6","4","6","7","6","6","4","7","3","7","6","4","6","1","7","7","1","5","5","6","6","4","5","4","7","5","4","7","5","3","6","5","6","7","7","7","7","7","7","6","7","7","7","7","7","7","6","757367705316888578","张","139","Female","[""坏她"",""好我"",""好她"",""坏我""]","[""弱她"",""强我"",""强她"",""弱我""]","","","","","","","","yes","","","","","","","","","SRET","EW_formal","","key","j","16.667153061224724","768","428","朋友","独立","Positive","ability","","","","","","","","","","",""
"690","","j","psychophysics","94","261309","0.0-7.0-3.0-0.80","6","5","7","6","4","4","4","4","5","5","4","1","0","0","-1","0","2","2","2","5","5","5","5","3","4","4","4","4","5","5","6","5","6","4","6","7","6","6","4","7","3","7","6","4","6","1","7","7","1","5","5","6","6","4","5","4","7","5","4","7","5","3","6","5","6","7","7","7","7","7","7","6","7","7","7","7","7","7","6","757367705316888578","张","139","Female","[""坏她"",""好我"",""好她"",""坏我""]","[""弱她"",""强我"",""强她"",""弱我""]","","","","","","","","yes","","","","","","","","","SRET","EW_formal","","key","j","16.66677227722784","768","428","自己","敏捷","Positive","ability","","","","","","","","","","",""
"636","","f","psychophysics","95","262946","0.0-7.0-3.0-0.81","6","5","7","6","4","4","4","4","5","5","4","1","0","0","-1","0","2","2","2","5","5","5","5","3","4","4","4","4","5","5","6","5","6","4","6","7","6","6","4","7","3","7","6","4","6","1","7","7","1","5","5","6","6","4","5","4","7","5","4","7","5","3","6","5","6","7","7","7","7","7","7","6","7","7","7","7","7","7","6","757367705316888578","张","139","Female","[""坏她"",""好我"",""好她"",""坏我""]","[""弱她"",""强我"",""强她"",""弱我""]","","","","","","","","no","","","","","","","","","SRET","EW_formal","","key","f","16.667731958763078","768","428","朋友","短浅","Negative","ability","","","","","","","","","","",""
"566","","j","psychophysics","96","264513","0.0-7.0-3.0-0.82","6","5","7","6","4","4","4","4","5","5","4","1","0","0","-1","0","2","2","2","5","5","5","5","3","4","4","4","4","5","5","6","5","6","4","6","7","6","6","4","7","3","7","6","4","6","1","7","7","1","5","5","6","6","4","5","4","7","5","4","7","5","3","6","5","6","7","7","7","7","7","7","6","7","7","7","7","7","7","6","757367705316888578","张","139","Female","[""坏她"",""好我"",""好她"",""坏我""]","[""弱她"",""强我"",""强她"",""弱我""]","","","","","","","","yes","","","","","","","","","SRET","EW_formal","","key","j","16.666860215053568","768","428","自己","高尚","Positive","morality","","","","","","","","","","",""
"527","","f","psychophysics","97","266041","0.0-7.0-3.0-0.83","6","5","7","6","4","4","4","4","5","5","4","1","0","0","-1","0","2","2","2","5","5","5","5","3","4","4","4","4","5","5","6","5","6","4","6","7","6","6","4","7","3","7","6","4","6","1","7","7","1","5","5","6","6","4","5","4","7","5","4","7","5","3","6","5","6","7","7","7","7","7","7","6","7","7","7","7","7","7","6","757367705316888578","张","139","Female","[""坏她"",""好我"",""好她"",""坏我""]","[""弱她"",""强我"",""强她"",""弱我""]","","","","","","","","no","","","","","","","","","SRET","EW_formal","","key","f","16.670340659340543","768","428","朋友","窝囊","Negative","ability","","","","","","","","","","",""
"550","","f","psychophysics","98","267593","0.0-7.0-3.0-0.84","6","5","7","6","4","4","4","4","5","5","4","1","0","0","-1","0","2","2","2","5","5","5","5","3","4","4","4","4","5","5","6","5","6","4","6","7","6","6","4","7","3","7","6","4","6","1","7","7","1","5","5","6","6","4","5","4","7","5","4","7","5","3","6","5","6","7","7","7","7","7","7","6","7","7","7","7","7","7","6","757367705316888578","张","139","Female","[""坏她"",""好我"",""好她"",""坏我""]","[""弱她"",""强我"",""强她"",""弱我""]","","","","","","","","no","","","","","","","","","SRET","EW_formal","","key","f","16.669902173912977","768","428","自己","缓慢","Negative","ability","","","","","","","","","","",""
"741","","j","psychophysics","99","269336","0.0-7.0-3.0-0.85","6","5","7","6","4","4","4","4","5","5","4","1","0","0","-1","0","2","2","2","5","5","5","5","3","4","4","4","4","5","5","6","5","6","4","6","7","6","6","4","7","3","7","6","4","6","1","7","7","1","5","5","6","6","4","5","4","7","5","4","7","5","3","6","5","6","7","7","7","7","7","7","6","7","7","7","7","7","7","6","757367705316888578","张","139","Female","[""坏她"",""好我"",""好她"",""坏我""]","[""弱她"",""强我"",""强她"",""弱我""]","","","","","","","","yes","","","","","","","","","SRET","EW_formal","","key","j","16.666475728155312","768","428","自己","主见","Positive","ability","","","","","","","","","","",""
"804","","j","psychophysics","100","271141","0.0-7.0-3.0-0.86","6","5","7","6","4","4","4","4","5","5","4","1","0","0","-1","0","2","2","2","5","5","5","5","3","4","4","4","4","5","5","6","5","6","4","6","7","6","6","4","7","3","7","6","4","6","1","7","7","1","5","5","6","6","4","5","4","7","5","4","7","5","3","6","5","6","7","7","7","7","7","7","6","7","7","7","7","7","7","6","757367705316888578","张","139","Female","[""坏她"",""好我"",""好她"",""坏我""]","[""弱她"",""强我"",""强她"",""弱我""]","","","","","","","","yes","","","","","","","","","SRET","EW_formal","","key","j","16.667740740740555","768","428","朋友","素养","Positive","morality","","","","","","","","","","",""
"606","","f","psychophysics","101","272748","0.0-7.0-3.0-0.87","6","5","7","6","4","4","4","4","5","5","4","1","0","0","-1","0","2","2","2","5","5","5","5","3","4","4","4","4","5","5","6","5","6","4","6","7","6","6","4","7","3","7","6","4","6","1","7","7","1","5","5","6","6","4","5","4","7","5","4","7","5","3","6","5","6","7","7","7","7","7","7","6","7","7","7","7","7","7","6","757367705316888578","张","139","Female","[""坏她"",""好我"",""好她"",""坏我""]","[""弱她"",""强我"",""强她"",""弱我""]","","","","","","","","no","","","","","","","","","SRET","EW_formal","","key","f","16.667863157894583","768","428","朋友","低俗","Negative","morality","","","","","","","","","","",""
"7206","
    <p><div style='color:white;font-size:35px; line-height:20px;'>计算任务</div></p><br>
    <p><div style='color:red;font-size:25px; line-height:20px;'>接下来，您将看到一些四则运算题，<b>请从键盘选择 0-9 进行反应。</b></div></p>
    <p><div style='color:red;font-size:25px; line-height:20px;'>请尽可能快地进行计算，计算的速度和正确率将影响报酬的发放。</div></p>
    <p><div class='footer' style='color:white;font-size:25px; line-height:20px;'>如果对本实验还有不清楚之处，请立即向实验员咨询。</p><p style='color:white;font-size:25px; line-height:20px;'>如果您明白了规则：</p><p style='color:white;font-size:22px; line-height:20px;'>请按 继续 进入练习</p>
    </div>
    ","0","html-button-response","102","279956","0.0-7.0-4.0","6","5","7","6","4","4","4","4","5","5","4","1","0","0","-1","0","2","2","2","5","5","5","5","3","4","4","4","4","5","5","6","5","6","4","6","7","6","6","4","7","3","7","6","4","6","1","7","7","1","5","5","6","6","4","5","4","7","5","4","7","5","3","6","5","6","7","7","7","7","7","7","6","7","7","7","7","7","7","6","757367705316888578","张","139","Female","[""坏她"",""好我"",""好她"",""坏我""]","[""弱她"",""强我"",""强她"",""弱我""]","","","","","","","","","","","","","","","","","SRET_math","math_instructions","Mon Dec 25 2023 20:51:33 GMT+0800 (中国标准时间)","","","","","","","","","","","","","","","","","","","",""
"2412","","7","psychophysics","103","282372","0.0-7.0-5.0-0.0","6","5","7","6","4","4","4","4","5","5","4","1","0","0","-1","0","2","2","2","5","5","5","5","3","4","4","4","4","5","5","6","5","6","4","6","7","6","6","4","7","3","7","6","4","6","1","7","7","1","5","5","6","6","4","5","4","7","5","4","7","5","3","6","5","6","7","7","7","7","7","7","6","7","7","7","7","7","7","6","757367705316888578","张","139","Female","[""坏她"",""好我"",""好她"",""坏我""]","[""弱她"",""强我"",""强她"",""弱我""]","","","","","","","","7","","","","","","","","","SRET","SRET_math_calculate","","key","7","16.782208333333173","768","428","","","","","21/3= ? ","7","1","","","","","","","",""
"2203","","6","psychophysics","104","284579","0.0-7.0-5.0-0.1","6","5","7","6","4","4","4","4","5","5","4","1","0","0","-1","0","2","2","2","5","5","5","5","3","4","4","4","4","5","5","6","5","6","4","6","7","6","6","4","7","3","7","6","4","6","1","7","7","1","5","5","6","6","4","5","4","7","5","4","7","5","3","6","5","6","7","7","7","7","7","7","6","7","7","7","7","7","7","6","757367705316888578","张","139","Female","[""坏她"",""好我"",""好她"",""坏我""]","[""弱她"",""强我"",""强她"",""弱我""]","","","","","","","","6","","","","","","","","","SRET","SRET_math_calculate","","key","6","16.670863636363663","768","428","","","","","8-2= ?","6","1","","","","","","","",""
"2588","","8","psychophysics","105","287169","0.0-7.0-5.0-0.2","6","5","7","6","4","4","4","4","5","5","4","1","0","0","-1","0","2","2","2","5","5","5","5","3","4","4","4","4","5","5","6","5","6","4","6","7","6","6","4","7","3","7","6","4","6","1","7","7","1","5","5","6","6","4","5","4","7","5","4","7","5","3","6","5","6","7","7","7","7","7","7","6","7","7","7","7","7","7","6","757367705316888578","张","139","Female","[""坏她"",""好我"",""好她"",""坏我""]","[""弱她"",""强我"",""强她"",""弱我""]","","","","","","","","8","","","","","","","","","SRET","SRET_math_calculate","","key","8","16.66662337662321","768","428","","","","","4+4= ?","8","1","","","","","","","",""
"2769","","0","psychophysics","106","289940","0.0-7.0-5.0-0.3","6","5","7","6","4","4","4","4","5","5","4","1","0","0","-1","0","2","2","2","5","5","5","5","3","4","4","4","4","5","5","6","5","6","4","6","7","6","6","4","7","3","7","6","4","6","1","7","7","1","5","5","6","6","4","5","4","7","5","4","7","5","3","6","5","6","7","7","7","7","7","7","6","7","7","7","7","7","7","6","757367705316888578","张","139","Female","[""坏她"",""好我"",""好她"",""坏我""]","[""弱她"",""强我"",""强她"",""弱我""]","","","","","","","","0","","","","","","","","","SRET","SRET_math_calculate","","key","0","16.668493975903445","768","428","","","","","32-32= ?","0","1","","","","","","","",""
"2642","","6","psychophysics","107","292584","0.0-7.0-5.0-0.4","6","5","7","6","4","4","4","4","5","5","4","1","0","0","-1","0","2","2","2","5","5","5","5","3","4","4","4","4","5","5","6","5","6","4","6","7","6","6","4","7","3","7","6","4","6","1","7","7","1","5","5","6","6","4","5","4","7","5","4","7","5","3","6","5","6","7","7","7","7","7","7","6","7","7","7","7","7","7","6","757367705316888578","张","139","Female","[""坏她"",""好我"",""好她"",""坏我""]","[""弱她"",""强我"",""强她"",""弱我""]","","","","","","","","6","","","","","","","","","SRET","SRET_math_calculate","","key","6","16.66554777070088","768","428","","","","","11-5= ?","6","1","","","","","","","",""
"2277","","2","psychophysics","108","294863","0.0-7.0-5.0-0.5","6","5","7","6","4","4","4","4","5","5","4","1","0","0","-1","0","2","2","2","5","5","5","5","3","4","4","4","4","5","5","6","5","6","4","6","7","6","6","4","7","3","7","6","4","6","1","7","7","1","5","5","6","6","4","5","4","7","5","4","7","5","3","6","5","6","7","7","7","7","7","7","6","7","7","7","7","7","7","6","757367705316888578","张","139","Female","[""坏她"",""好我"",""好她"",""坏我""]","[""弱她"",""强我"",""强她"",""弱我""]","","","","","","","","2","","","","","","","","","SRET","SRET_math_calculate","","key","2","16.667235294117692","768","428","","","","","18/9= ?","2","1","","","","","","","",""
"2301","","9","psychophysics","109","297166","0.0-7.0-5.0-0.6","6","5","7","6","4","4","4","4","5","5","4","1","0","0","-1","0","2","2","2","5","5","5","5","3","4","4","4","4","5","5","6","5","6","4","6","7","6","6","4","7","3","7","6","4","6","1","7","7","1","5","5","6","6","4","5","4","7","5","4","7","5","3","6","5","6","7","7","7","7","7","7","6","7","7","7","7","7","7","6","757367705316888578","张","139","Female","[""坏她"",""好我"",""好她"",""坏我""]","[""弱她"",""强我"",""强她"",""弱我""]","","","","","","","","9","","","","","","","","","SRET","SRET_math_calculate","","key","9","16.666160583941785","768","428","","","","","2+7= ?","9","1","","","","","","","",""
"2016","","5","psychophysics","110","299183","0.0-7.0-5.0-0.7","6","5","7","6","4","4","4","4","5","5","4","1","0","0","-1","0","2","2","2","5","5","5","5","3","4","4","4","4","5","5","6","5","6","4","6","7","6","6","4","7","3","7","6","4","6","1","7","7","1","5","5","6","6","4","5","4","7","5","4","7","5","3","6","5","6","7","7","7","7","7","7","6","7","7","7","7","7","7","6","757367705316888578","张","139","Female","[""坏她"",""好我"",""好她"",""坏我""]","[""弱她"",""强我"",""强她"",""弱我""]","","","","","","","","5","","","","","","","","","SRET","SRET_math_calculate","","key","5","16.666349999999998","768","428","","","","","15-10= ?","5","1","","","","","","","",""
"2696","","5","psychophysics","111","301882","0.0-7.0-5.0-0.8","6","5","7","6","4","4","4","4","5","5","4","1","0","0","-1","0","2","2","2","5","5","5","5","3","4","4","4","4","5","5","6","5","6","4","6","7","6","6","4","7","3","7","6","4","6","1","7","7","1","5","5","6","6","4","5","4","7","5","4","7","5","3","6","5","6","7","7","7","7","7","7","6","7","7","7","7","7","7","6","757367705316888578","张","139","Female","[""坏她"",""好我"",""好她"",""坏我""]","[""弱她"",""强我"",""强她"",""弱我""]","","","","","","","","5","","","","","","","","","SRET","SRET_math_calculate","","key","5","16.666838509316616","768","428","","","","","12-7= ?","5","1","","","","","","","",""
"2278","","3","psychophysics","112","304162","0.0-7.0-5.0-0.9","6","5","7","6","4","4","4","4","5","5","4","1","0","0","-1","0","2","2","2","5","5","5","5","3","4","4","4","4","5","5","6","5","6","4","6","7","6","6","4","7","3","7","6","4","6","1","7","7","1","5","5","6","6","4","5","4","7","5","4","7","5","3","6","5","6","7","7","7","7","7","7","6","7","7","7","7","7","7","6","757367705316888578","张","139","Female","[""坏她"",""好我"",""好她"",""坏我""]","[""弱她"",""强我"",""强她"",""弱我""]","","","","","","","","3","","","","","","","","","SRET","SRET_math_calculate","","key","3","16.665536764705713","768","428","","","","","12/4= ?","3","1","","","","","","","",""
"2111","","0","psychophysics","113","306274","0.0-7.0-5.0-0.10","6","5","7","6","4","4","4","4","5","5","4","1","0","0","-1","0","2","2","2","5","5","5","5","3","4","4","4","4","5","5","6","5","6","4","6","7","6","6","4","7","3","7","6","4","6","1","7","7","1","5","5","6","6","4","5","4","7","5","4","7","5","3","6","5","6","7","7","7","7","7","7","6","7","7","7","7","7","7","6","757367705316888578","张","139","Female","[""坏她"",""好我"",""好她"",""坏我""]","[""弱她"",""强我"",""强她"",""弱我""]","","","","","","","","0","","","","","","","","","SRET","SRET_math_calculate","","key","0","16.666531746031804","768","428","","","","","7*0= ?","0","1","","","","","","","",""
"2798","","6","psychophysics","114","309074","0.0-7.0-5.0-0.11","6","5","7","6","4","4","4","4","5","5","4","1","0","0","-1","0","2","2","2","5","5","5","5","3","4","4","4","4","5","5","6","5","6","4","6","7","6","6","4","7","3","7","6","4","6","1","7","7","1","5","5","6","6","4","5","4","7","5","4","7","5","3","6","5","6","7","7","7","7","7","7","6","7","7","7","7","7","7","6","757367705316888578","张","139","Female","[""坏她"",""好我"",""好她"",""坏我""]","[""弱她"",""强我"",""强她"",""弱我""]","","","","","","","","6","","","","","","","","","SRET","SRET_math_calculate","","key","6","16.666443113772292","768","428","","","","","3*2= ?","6","1","","","","","","","",""
"1828","","0","psychophysics","115","310903","0.0-7.0-5.0-0.12","6","5","7","6","4","4","4","4","5","5","4","1","0","0","-1","0","2","2","2","5","5","5","5","3","4","4","4","4","5","5","6","5","6","4","6","7","6","6","4","7","3","7","6","4","6","1","7","7","1","5","5","6","6","4","5","4","7","5","4","7","5","3","6","5","6","7","7","7","7","7","7","6","7","7","7","7","7","7","6","757367705316888578","张","139","Female","[""坏她"",""好我"",""好她"",""坏我""]","[""弱她"",""强我"",""强她"",""弱我""]","","","","","","","","0","","","","","","","","","SRET","SRET_math_calculate","","key","0","16.66706481481486","768","428","","","","","6*0= ?","0","1","","","","","","","",""
"2436","","7","psychophysics","116","313341","0.0-7.0-5.0-0.13","6","5","7","6","4","4","4","4","5","5","4","1","0","0","-1","0","2","2","2","5","5","5","5","3","4","4","4","4","5","5","6","5","6","4","6","7","6","6","4","7","3","7","6","4","6","1","7","7","1","5","5","6","6","4","5","4","7","5","4","7","5","3","6","5","6","7","7","7","7","7","7","6","7","7","7","7","7","7","6","757367705316888578","张","139","Female","[""坏她"",""好我"",""好她"",""坏我""]","[""弱她"",""强我"",""强她"",""弱我""]","","","","","","","","7","","","","","","","","","SRET","SRET_math_calculate","","key","7","16.667486301369724","768","428","","","","","7*1=  ?","7","1","","","","","","","",""
"1965","","4","psychophysics","117","315308","0.0-7.0-5.0-0.14","6","5","7","6","4","4","4","4","5","5","4","1","0","0","-1","0","2","2","2","5","5","5","5","3","4","4","4","4","5","5","6","5","6","4","6","7","6","6","4","7","3","7","6","4","6","1","7","7","1","5","5","6","6","4","5","4","7","5","4","7","5","3","6","5","6","7","7","7","7","7","7","6","7","7","7","7","7","7","6","757367705316888578","张","139","Female","[""坏她"",""好我"",""好她"",""坏我""]","[""弱她"",""强我"",""强她"",""弱我""]","","","","","","","","4","","","","","","","","","SRET","SRET_math_calculate","","key","4","16.66664957264926","768","428","","","","","8-4= ?","4","1","","","","","","","",""
"2067","","6","psychophysics","118","317377","0.0-7.0-5.0-0.15","6","5","7","6","4","4","4","4","5","5","4","1","0","0","-1","0","2","2","2","5","5","5","5","3","4","4","4","4","5","5","6","5","6","4","6","7","6","6","4","7","3","7","6","4","6","1","7","7","1","5","5","6","6","4","5","4","7","5","4","7","5","3","6","5","6","7","7","7","7","7","7","6","7","7","7","7","7","7","6","757367705316888578","张","139","Female","[""坏她"",""好我"",""好她"",""坏我""]","[""弱她"",""强我"",""强她"",""弱我""]","","","","","","","","6","","","","","","","","","SRET","SRET_math_calculate","","key","6","16.668764227642054","768","428","","","","","4+2= ?","6","1","","","","","","","",""
"1946","","5","psychophysics","119","319325","0.0-7.0-5.0-0.16","6","5","7","6","4","4","4","4","5","5","4","1","0","0","-1","0","2","2","2","5","5","5","5","3","4","4","4","4","5","5","6","5","6","4","6","7","6","6","4","7","3","7","6","4","6","1","7","7","1","5","5","6","6","4","5","4","7","5","4","7","5","3","6","5","6","7","7","7","7","7","7","6","7","7","7","7","7","7","6","757367705316888578","张","139","Female","[""坏她"",""好我"",""好她"",""坏我""]","[""弱她"",""强我"",""强她"",""弱我""]","","","","","","","","5","","","","","","","","","SRET","SRET_math_calculate","","key","5","16.959824561403366","768","428","","","","","2+3= ?","5","1","","","","","","","",""
"2001","","5","psychophysics","120","321328","0.0-7.0-5.0-0.17","6","5","7","6","4","4","4","4","5","5","4","1","0","0","-1","0","2","2","2","5","5","5","5","3","4","4","4","4","5","5","6","5","6","4","6","7","6","6","4","7","3","7","6","4","6","1","7","7","1","5","5","6","6","4","5","4","7","5","4","7","5","3","6","5","6","7","7","7","7","7","7","6","7","7","7","7","7","7","6","757367705316888578","张","139","Female","[""坏她"",""好我"",""好她"",""坏我""]","[""弱她"",""强我"",""强她"",""弱我""]","","","","","","","","5","","","","","","","","","SRET","SRET_math_calculate","","key","5","16.667260504201515","768","428","","","","","17-12= ? ","5","1","","","","","","","",""
"1985","","3","psychophysics","121","323316","0.0-7.0-5.0-0.18","6","5","7","6","4","4","4","4","5","5","4","1","0","0","-1","0","2","2","2","5","5","5","5","3","4","4","4","4","5","5","6","5","6","4","6","7","6","6","4","7","3","7","6","4","6","1","7","7","1","5","5","6","6","4","5","4","7","5","4","7","5","3","6","5","6","7","7","7","7","7","7","6","7","7","7","7","7","7","6","757367705316888578","张","139","Female","[""坏她"",""好我"",""好她"",""坏我""]","[""弱她"",""强我"",""强她"",""弱我""]","","","","","","","","3","","","","","","","","","SRET","SRET_math_calculate","","key","3","16.669881355931974","768","428","","","","","1+2= ?","3","1","","","","","","","",""
"1938","","5","psychophysics","122","325255","0.0-7.0-5.0-0.19","6","5","7","6","4","4","4","4","5","5","4","1","0","0","-1","0","2","2","2","5","5","5","5","3","4","4","4","4","5","5","6","5","6","4","6","7","6","6","4","7","3","7","6","4","6","1","7","7","1","5","5","6","6","4","5","4","7","5","4","7","5","3","6","5","6","7","7","7","7","7","7","6","7","7","7","7","7","7","6","757367705316888578","张","139","Female","[""坏她"",""好我"",""好她"",""坏我""]","[""弱她"",""强我"",""强她"",""弱我""]","","","","","","","","5","","","","","","","","","SRET","SRET_math_calculate","","key","5","16.66919130434778","768","428","","","","","4+1= ?","5","1","","","","","","","",""
"2196","","9","psychophysics","123","327457","0.0-7.0-5.0-0.20","6","5","7","6","4","4","4","4","5","5","4","1","0","0","-1","0","2","2","2","5","5","5","5","3","4","4","4","4","5","5","6","5","6","4","6","7","6","6","4","7","3","7","6","4","6","1","7","7","1","5","5","6","6","4","5","4","7","5","4","7","5","3","6","5","6","7","7","7","7","7","7","6","7","7","7","7","7","7","6","757367705316888578","张","139","Female","[""坏她"",""好我"",""好她"",""坏我""]","[""弱她"",""强我"",""强她"",""弱我""]","","","","","","","","9","","","","","","","","","SRET","SRET_math_calculate","","key","9","16.66632575757544","768","428","","","","","81/9= ?","9","1","","","","","","","",""
"1965","","7","psychophysics","124","329424","0.0-7.0-5.0-0.21","6","5","7","6","4","4","4","4","5","5","4","1","0","0","-1","0","2","2","2","5","5","5","5","3","4","4","4","4","5","5","6","5","6","4","6","7","6","6","4","7","3","7","6","4","6","1","7","7","1","5","5","6","6","4","5","4","7","5","4","7","5","3","6","5","6","7","7","7","7","7","7","6","7","7","7","7","7","7","6","757367705316888578","张","139","Female","[""坏她"",""好我"",""好她"",""坏我""]","[""弱她"",""强我"",""强她"",""弱我""]","","","","","","","","7","","","","","","","","","SRET","SRET_math_calculate","","key","7","16.66559829059829","768","428","","","","","12-5= ?","7","1","","","","","","","",""
"2283","","2","psychophysics","125","331709","0.0-7.0-5.0-0.22","6","5","7","6","4","4","4","4","5","5","4","1","0","0","-1","0","2","2","2","5","5","5","5","3","4","4","4","4","5","5","6","5","6","4","6","7","6","6","4","7","3","7","6","4","6","1","7","7","1","5","5","6","6","4","5","4","7","5","4","7","5","3","6","5","6","7","7","7","7","7","7","6","7","7","7","7","7","7","6","757367705316888578","张","139","Female","[""坏她"",""好我"",""好她"",""坏我""]","[""弱她"",""强我"",""强她"",""弱我""]","","","","","","","","2","","","","","","","","","SRET","SRET_math_calculate","","key","2","16.666507352941313","768","428","","","","","8/4= ?","2","1","","","","","","","",""
"3002","","4","psychophysics","126","334712","0.0-7.0-5.0-0.23","6","5","7","6","4","4","4","4","5","5","4","1","0","0","-1","0","2","2","2","5","5","5","5","3","4","4","4","4","5","5","6","5","6","4","6","7","6","6","4","7","3","7","6","4","6","1","7","7","1","5","5","6","6","4","5","4","7","5","4","7","5","3","6","5","6","7","7","7","7","7","7","6","7","7","7","7","7","7","6","757367705316888578","张","139","Female","[""坏她"",""好我"",""好她"",""坏我""]","[""弱她"",""强我"",""强她"",""弱我""]","","","","","","","","4","","","","","","","","","SRET","SRET_math_calculate","","key","4","16.66655865921795","768","428","","","","","13-9= ?","4","1","","","","","","","",""
"1764","","3","psychophysics","127","336478","0.0-7.0-5.0-0.24","6","5","7","6","4","4","4","4","5","5","4","1","0","0","-1","0","2","2","2","5","5","5","5","3","4","4","4","4","5","5","6","5","6","4","6","7","6","6","4","7","3","7","6","4","6","1","7","7","1","5","5","6","6","4","5","4","7","5","4","7","5","3","6","5","6","7","7","7","7","7","7","6","7","7","7","7","7","7","6","757367705316888578","张","139","Female","[""坏她"",""好我"",""好她"",""坏我""]","[""弱她"",""强我"",""强她"",""弱我""]","","","","","","","","3","","","","","","","","","SRET","SRET_math_calculate","","key","3","16.666942857142672","768","428","","","","","5-3= ?","2","0","","","","","","","",""
"2376","","4","psychophysics","128","338855","0.0-7.0-5.0-0.25","6","5","7","6","4","4","4","4","5","5","4","1","0","0","-1","0","2","2","2","5","5","5","5","3","4","4","4","4","5","5","6","5","6","4","6","7","6","6","4","7","3","7","6","4","6","1","7","7","1","5","5","6","6","4","5","4","7","5","4","7","5","3","6","5","6","7","7","7","7","7","7","6","7","7","7","7","7","7","6","757367705316888578","张","139","Female","[""坏她"",""好我"",""好她"",""坏我""]","[""弱她"",""强我"",""强她"",""弱我""]","","","","","","","","4","","","","","","","","","SRET","SRET_math_calculate","","key","4","16.666929078014263","768","428","","","","","20/5= ?","4","1","","","","","","","",""
"2019","","4","psychophysics","129","340878","0.0-7.0-5.0-0.26","6","5","7","6","4","4","4","4","5","5","4","1","0","0","-1","0","2","2","2","5","5","5","5","3","4","4","4","4","5","5","6","5","6","4","6","7","6","6","4","7","3","7","6","4","6","1","7","7","1","5","5","6","6","4","5","4","7","5","4","7","5","3","6","5","6","7","7","7","7","7","7","6","7","7","7","7","7","7","6","757367705316888578","张","139","Female","[""坏她"",""好我"",""好她"",""坏我""]","[""弱她"",""强我"",""强她"",""弱我""]","","","","","","","","4","","","","","","","","","SRET","SRET_math_calculate","","key","4","16.670057851239587","768","428","","","","","2+2= ?","4","1","","","","","","","",""
"2416","","6","psychophysics","130","343296","0.0-7.0-5.0-0.27","6","5","7","6","4","4","4","4","5","5","4","1","0","0","-1","0","2","2","2","5","5","5","5","3","4","4","4","4","5","5","6","5","6","4","6","7","6","6","4","7","3","7","6","4","6","1","7","7","1","5","5","6","6","4","5","4","7","5","4","7","5","3","6","5","6","7","7","7","7","7","7","6","7","7","7","7","7","7","6","757367705316888578","张","139","Female","[""坏她"",""好我"",""好她"",""坏我""]","[""弱她"",""强我"",""强她"",""弱我""]","","","","","","","","6","","","","","","","","","SRET","SRET_math_calculate","","key","6","16.664076388889143","768","428","","","","","2*3= ?","6","1","","","","","","","",""
"2072","","0","psychophysics","131","345370","0.0-7.0-5.0-0.28","6","5","7","6","4","4","4","4","5","5","4","1","0","0","-1","0","2","2","2","5","5","5","5","3","4","4","4","4","5","5","6","5","6","4","6","7","6","6","4","7","3","7","6","4","6","1","7","7","1","5","5","6","6","4","5","4","7","5","4","7","5","3","6","5","6","7","7","7","7","7","7","6","7","7","7","7","7","7","6","757367705316888578","张","139","Female","[""坏她"",""好我"",""好她"",""坏我""]","[""弱她"",""强我"",""强她"",""弱我""]","","","","","","","","0","","","","","","","","","SRET","SRET_math_calculate","","key","0","16.667495934959458","768","428","","","","","32-23= ?","9","0","","","","","","","",""
"1675","","0","psychophysics","132","347048","0.0-7.0-5.0-0.29","6","5","7","6","4","4","4","4","5","5","4","1","0","0","-1","0","2","2","2","5","5","5","5","3","4","4","4","4","5","5","6","5","6","4","6","7","6","6","4","7","3","7","6","4","6","1","7","7","1","5","5","6","6","4","5","4","7","5","4","7","5","3","6","5","6","7","7","7","7","7","7","6","7","7","7","7","7","7","6","757367705316888578","张","139","Female","[""坏她"",""好我"",""好她"",""坏我""]","[""弱她"",""强我"",""强她"",""弱我""]","","","","","","","","0","","","","","","","","","SRET","SRET_math_calculate","","key","0","16.66658999999985","768","428","","","","","22-22= ?","0","1","","","","","","","",""
"2705","","7","psychophysics","133","349754","0.0-7.0-5.0-0.30","6","5","7","6","4","4","4","4","5","5","4","1","0","0","-1","0","2","2","2","5","5","5","5","3","4","4","4","4","5","5","6","5","6","4","6","7","6","6","4","7","3","7","6","4","6","1","7","7","1","5","5","6","6","4","5","4","7","5","4","7","5","3","6","5","6","7","7","7","7","7","7","6","7","7","7","7","7","7","6","757367705316888578","张","139","Female","[""坏她"",""好我"",""好她"",""坏我""]","[""弱她"",""强我"",""强她"",""弱我""]","","","","","","","","7","","","","","","","","","SRET","SRET_math_calculate","","key","7","16.666888198757803","768","428","","","","","13-6= ?","7","1","","","","","","","",""
"4242","","3","psychophysics","134","354002","0.0-7.0-5.0-0.31","6","5","7","6","4","4","4","4","5","5","4","1","0","0","-1","0","2","2","2","5","5","5","5","3","4","4","4","4","5","5","6","5","6","4","6","7","6","6","4","7","3","7","6","4","6","1","7","7","1","5","5","6","6","4","5","4","7","5","4","7","5","3","6","5","6","7","7","7","7","7","7","6","7","7","7","7","7","7","6","757367705316888578","张","139","Female","[""坏她"",""好我"",""好她"",""坏我""]","[""弱她"",""强我"",""强她"",""弱我""]","","","","","","","","3","","","","","","","","","SRET","SRET_math_calculate","","key","3","16.668039370078628","768","428","","","","","8-5= ?","3","1","","","","","","","",""
"2497","","8","psychophysics","135","356501","0.0-7.0-5.0-0.32","6","5","7","6","4","4","4","4","5","5","4","1","0","0","-1","0","2","2","2","5","5","5","5","3","4","4","4","4","5","5","6","5","6","4","6","7","6","6","4","7","3","7","6","4","6","1","7","7","1","5","5","6","6","4","5","4","7","5","4","7","5","3","6","5","6","7","7","7","7","7","7","6","7","7","7","7","7","7","6","757367705316888578","张","139","Female","[""坏她"",""好我"",""好她"",""坏我""]","[""弱她"",""强我"",""强她"",""弱我""]","","","","","","","","8","","","","","","","","","SRET","SRET_math_calculate","","key","8","16.667161073825547","768","428","","","","","4*2= ?","8","1","","","","","","","",""
"2173","","5","psychophysics","136","358675","0.0-7.0-5.0-0.33","6","5","7","6","4","4","4","4","5","5","4","1","0","0","-1","0","2","2","2","5","5","5","5","3","4","4","4","4","5","5","6","5","6","4","6","7","6","6","4","7","3","7","6","4","6","1","7","7","1","5","5","6","6","4","5","4","7","5","4","7","5","3","6","5","6","7","7","7","7","7","7","6","7","7","7","7","7","7","6","757367705316888578","张","139","Female","[""坏她"",""好我"",""好她"",""坏我""]","[""弱她"",""强我"",""强她"",""弱我""]","","","","","","","","5","","","","","","","","","SRET","SRET_math_calculate","","key","5","16.66956153846158","768","428","","","","","16-11= ?","5","1","","","","","","","",""
"2364","","4","psychophysics","137","361042","0.0-7.0-5.0-0.34","6","5","7","6","4","4","4","4","5","5","4","1","0","0","-1","0","2","2","2","5","5","5","5","3","4","4","4","4","5","5","6","5","6","4","6","7","6","6","4","7","3","7","6","4","6","1","7","7","1","5","5","6","6","4","5","4","7","5","4","7","5","3","6","5","6","7","7","7","7","7","7","6","7","7","7","7","7","7","6","757367705316888578","张","139","Female","[""坏她"",""好我"",""好她"",""坏我""]","[""弱她"",""强我"",""强她"",""弱我""]","","","","","","","","4","","","","","","","","","SRET","SRET_math_calculate","","key","4","16.665085106382993","768","428","","","","","9-5= ?","4","1","","","","","","","",""
"2162","","9","psychophysics","138","363205","0.0-7.0-5.0-0.35","6","5","7","6","4","4","4","4","5","5","4","1","0","0","-1","0","2","2","2","5","5","5","5","3","4","4","4","4","5","5","6","5","6","4","6","7","6","6","4","7","3","7","6","4","6","1","7","7","1","5","5","6","6","4","5","4","7","5","4","7","5","3","6","5","6","7","7","7","7","7","7","6","7","7","7","7","7","7","6","757367705316888578","张","139","Female","[""坏她"",""好我"",""好她"",""坏我""]","[""弱她"",""强我"",""强她"",""弱我""]","","","","","","","","9","","","","","","","","","SRET","SRET_math_calculate","","key","9","16.669242187500004","768","428","","","","","6+3= ?","9","1","","","","","","","",""
"2098","","8","psychophysics","139","365306","0.0-7.0-5.0-0.36","6","5","7","6","4","4","4","4","5","5","4","1","0","0","-1","0","2","2","2","5","5","5","5","3","4","4","4","4","5","5","6","5","6","4","6","7","6","6","4","7","3","7","6","4","6","1","7","7","1","5","5","6","6","4","5","4","7","5","4","7","5","3","6","5","6","7","7","7","7","7","7","6","7","7","7","7","7","7","6","757367705316888578","张","139","Female","[""坏她"",""好我"",""好她"",""坏我""]","[""弱她"",""强我"",""强她"",""弱我""]","","","","","","","","8","","","","","","","","","SRET","SRET_math_calculate","","key","8","16.670311999999917","768","428","","","","","7+1= ?","8","1","","","","","","","",""
"2125","","8","psychophysics","140","367435","0.0-7.0-5.0-0.37","6","5","7","6","4","4","4","4","5","5","4","1","0","0","-1","0","2","2","2","5","5","5","5","3","4","4","4","4","5","5","6","5","6","4","6","7","6","6","4","7","3","7","6","4","6","1","7","7","1","5","5","6","6","4","5","4","7","5","4","7","5","3","6","5","6","7","7","7","7","7","7","6","7","7","7","7","7","7","6","757367705316888578","张","139","Female","[""坏她"",""好我"",""好她"",""坏我""]","[""弱她"",""强我"",""强她"",""弱我""]","","","","","","","","8","","","","","","","","","SRET","SRET_math_calculate","","key","8","16.670700787401604","768","428","","","","","6+2= ?","8","1","","","","","","","",""
"2524","","1","psychophysics","141","369960","0.0-7.0-5.0-0.38","6","5","7","6","4","4","4","4","5","5","4","1","0","0","-1","0","2","2","2","5","5","5","5","3","4","4","4","4","5","5","6","5","6","4","6","7","6","6","4","7","3","7","6","4","6","1","7","7","1","5","5","6","6","4","5","4","7","5","4","7","5","3","6","5","6","7","7","7","7","7","7","6","7","7","7","7","7","7","6","757367705316888578","张","139","Female","[""坏她"",""好我"",""好她"",""坏我""]","[""弱她"",""强我"",""强她"",""弱我""]","","","","","","","","1","","","","","","","","","SRET","SRET_math_calculate","","key","1","16.66880132450332","768","428","","","","","4/4= ?","1","1","","","","","","","",""
"2267","","7","psychophysics","142","372230","0.0-7.0-5.0-0.39","6","5","7","6","4","4","4","4","5","5","4","1","0","0","-1","0","2","2","2","5","5","5","5","3","4","4","4","4","5","5","6","5","6","4","6","7","6","6","4","7","3","7","6","4","6","1","7","7","1","5","5","6","6","4","5","4","7","5","4","7","5","3","6","5","6","7","7","7","7","7","7","6","7","7","7","7","7","7","6","757367705316888578","张","139","Female","[""坏她"",""好我"",""好她"",""坏我""]","[""弱她"",""强我"",""强她"",""弱我""]","","","","","","","","7","","","","","","","","","SRET","SRET_math_calculate","","key","7","16.665859259259282","768","428","","","","","9-2= ?","7","1","","","","","","","",""
