"rt","stimulus","response","trial_type","trial_index","time_elapsed","internal_node_id","swb_1","swb_2","swb_3","swb_4","swb_5","LOT_1","LOT_2","LOT_3","LOT_4","LOT_5","LOT_6","IPC_1","IPC_2","IPC_3","IPC_4","IPC_5","IPC_6","IPC_7","IPC_8","MorIden_1","MorIden_2","MorIden_3","MorIden_4","MorIden_5","MorIden_6","MorIden_7","MorIden_8","MorIden_9","MorIden_10","moralSeImag_1","moralSeImag_2","moralSeImag_3","moralSeImag_4","moralSeImag_5","moralSeImag_6","moralSeImag_7","moralSeImag_8","moralSeImag_9","sde_1","sde_2","sde_3","sde_4","sde_5","sde_6","sde_7","sde_8","sde_9","sde_10","trap2","sde_11","sde_12","sde_13","sde_14","sde_15","sde_16","sde_17","sde_18","sde_19","sde_20","IM_1","IM_2","IM_3","IM_4","IM_5","IM_6","IM_7","IM_8","IM_9","IM_10","IM_11","IM_12","IM_13","IM_14","IM_15","IM_16","IM_17","IM_18","IM_19","IM_20","subj_idx","friend_name","ParticipantID","Sex","Word","Word2","value","success","timeout","failed_images","failed_audio","failed_video","user_agent","responses","item_order","radio_event_ids","radio_event_times","key_event_times","mouse_event_times","straightlining","zigzagging","honeypot","task_id","screen_id","time_stamp","response_type","key_press","avg_frame_time","center_x","center_y","person","word","valence","domain","math","correct_response","correct","status","view_history","identity","duration","Image","condition","question_order","trap2_item"
"3305","
   <p><div style='color:white; font-size: 25px'>您好，欢迎参加本次实验。</div></p>
   <p><div style='color:white; font-size: 25px'>为充分保障您的权利，请确保您已经知晓并同意《参与实验同意书》以及《数据公开知情同意书》。</div></p>
   <p><div style='color:white; font-size: 25px'>如果您未见过上述内容，请咨询实验员。</div></p>
   <p style='color:white; font-size: 25px'>如果您选择继续实验，则表示您已经清楚两份知情同意书的内容并同意。</p>
   <p><div style = ""color: pink;font-size:30px;"">请确保您记得day0的实验编号，您将在本次实验输入该编号，若您忘记，请咨询实验员后作答。</div></p>
   <p><div style = ""color:lightblue;font-size:25px;"">请您尽可能认真地作答，我们将依据您在各问卷和按键任务中的作答质量发放报酬。</div></p>
   <p> <div style = ""color: green""><按空格键至下页></div> </p>
   "," ","html-keyboard-response","0","3307","0.0-0.0","7","6","7","7","6","5","5","5","5","5","5","2","1","1","2","1","2","2","2","5","5","5","5","4","5","4","4","4","5","6","6","5","7","6","5","6","6","6","6","7","6","7","7","7","5","1","6","7","1","6","6","7","6","7","6","6","7","6","7","6","7","7","6","6","7","7","7","7","7","7","6","7","7","7","7","7","7","6","6","598867196789129216","郭","361","Male","[""好我"",""坏我"",""坏他"",""好他""]","[""强我"",""弱我"",""弱他"",""强他""]","","","","","","","","","","","","","","","","","","","","","","","","","","","","","","","","","","","","","","",""
"","","","call-function","1","3308","0.0-1.0-0.0","7","6","7","7","6","5","5","5","5","5","5","2","1","1","2","1","2","2","2","5","5","5","5","4","5","4","4","4","5","6","6","5","7","6","5","6","6","6","6","7","6","7","7","7","5","1","6","7","1","6","6","7","6","7","6","6","7","6","7","6","7","7","6","6","7","7","7","7","7","7","6","7","7","7","7","7","7","6","6","598867196789129216","郭","361","Male","[""好我"",""坏我"",""坏他"",""好他""]","[""强我"",""弱我"",""弱他"",""强他""]","","","","","","","","","","","","","","","","","","","","","","","","","","","","","","","","","","","","","","",""
"16959","","[{""name"":""Sex"",""value"":""0""},{""name"":""friend_name"",""value"":""郭""},{""name"":""ParticipantID"",""value"":""361""}]","survey-html-form","2","20267","0.0-1.0-1.0","7","6","7","7","6","5","5","5","5","5","5","2","1","1","2","1","2","2","2","5","5","5","5","4","5","4","4","4","5","6","6","5","7","6","5","6","6","6","6","7","6","7","7","7","5","1","6","7","1","6","6","7","6","7","6","6","7","6","7","6","7","7","6","6","7","7","7","7","7","7","6","7","7","7","7","7","7","6","6","598867196789129216","郭","361","Male","[""好我"",""坏我"",""坏他"",""好他""]","[""强我"",""弱我"",""弱他"",""强他""]","","","","","","","","","","","","","","","","","","","","","","","","","","","","","","","","","","","","","","",""
"","","","preload","3","20651","0.0-2.0","7","6","7","7","6","5","5","5","5","5","5","2","1","1","2","1","2","2","2","5","5","5","5","4","5","4","4","4","5","6","6","5","7","6","5","6","6","6","6","7","6","7","7","7","5","1","6","7","1","6","6","7","6","7","6","6","7","6","7","6","7","7","6","6","7","7","7","7","7","7","6","7","7","7","7","7","7","6","6","598867196789129216","郭","361","Male","[""好我"",""坏我"",""坏他"",""好他""]","[""强我"",""弱我"",""弱他"",""强他""]","","true","false","[]","[]","[]","","","","","","","","","","","","","","","","","","","","","","","","","","","","","","","","",""
"","","","fullscreen","4","21887","0.0-3.0","7","6","7","7","6","5","5","5","5","5","5","2","1","1","2","1","2","2","2","5","5","5","5","4","5","4","4","4","5","6","6","5","7","6","5","6","6","6","6","7","6","7","7","7","5","1","6","7","1","6","6","7","6","7","6","6","7","6","7","6","7","7","6","6","7","7","7","7","7","7","6","7","7","7","7","7","7","6","6","598867196789129216","郭","361","Male","[""好我"",""坏我"",""坏他"",""好他""]","[""强我"",""弱我"",""弱他"",""强他""]","","true","","","","","{}","","","","","","","","","","","","","","","","","","","","","","","","","","","","","","","",""
"8852.400000095367","","{""Q01"":""7"",""Q02"":""6"",""Q03"":""7"",""Q04"":""7"",""Q05"":""6""}","survey-template","5","30741","0.0-4.0","7","6","7","7","6","5","5","5","5","5","5","2","1","1","2","1","2","2","2","5","5","5","5","4","5","4","4","4","5","6","6","5","7","6","5","6","6","6","6","7","6","7","7","7","5","1","6","7","1","6","6","7","6","7","6","6","7","6","7","6","7","7","6","6","7","7","7","7","7","7","6","7","7","7","7","7","7","6","6","598867196789129216","郭","361","Male","[""好我"",""坏我"",""坏他"",""好他""]","[""强我"",""弱我"",""弱他"",""强他""]","","","","","","","","{""Q01"":""7"",""Q02"":""6"",""Q03"":""7"",""Q04"":""7"",""Q05"":""6""}","[0,1,2,3,4]","[""Q01"",""Q02"",""Q03"",""Q04"",""Q05""]","[1851.3000000715256,2875.3000000715256,4891.300000071526,5923.300000071526,6691.200000047684]","[]","[1851.3000000715256,2875.3000000715256,3843.2000000476837,4891.300000071526,5923.300000071526,6691.200000047684,8851.600000023842]","0.6","0.75","0","","","","","","","","","","","","","","","","","","","","","","",""
"10564.599999904633","","{""Q01"":""5"",""Q02"":""5"",""Q03"":""5"",""Q04"":""5"",""Q05"":""5"",""Q06"":""5""}","survey-template","6","41309","0.0-5.0","7","6","7","7","6","5","5","5","5","5","5","2","1","1","2","1","2","2","2","5","5","5","5","4","5","4","4","4","5","6","6","5","7","6","5","6","6","6","6","7","6","7","7","7","5","1","6","7","1","6","6","7","6","7","6","6","7","6","7","6","7","7","6","6","7","7","7","7","7","7","6","7","7","7","7","7","7","6","6","598867196789129216","郭","361","Male","[""好我"",""坏我"",""坏他"",""好他""]","[""强我"",""弱我"",""弱他"",""强他""]","","","","","","","","{""Q01"":""5"",""Q02"":""5"",""Q03"":""5"",""Q04"":""5"",""Q05"":""5"",""Q06"":""5""}","[0,1,2,3,4,5]","[""Q01"",""Q02"",""Q03"",""Q04"",""Q05"",""Q06""]","[2035.8999999761581,4420,5563.899999976158,7027.799999952316,7963.799999952316,9475.899999976158]","[]","[2035.8999999761581,4420,5563.899999976158,7027.799999952316,7963.799999952316,9475.899999976158,10563.799999952316]","0.5","0.8","0","","","","","","","","","","","","","","","","","","","","","","",""
"14654.299999952316","","{""Q01"":""2"",""Q02"":""1"",""Q03"":""1"",""Q04"":""2"",""Q05"":""1"",""Q06"":""2"",""Q07"":""2"",""Q08"":""2""}","survey-template","7","55966","0.0-6.0","7","6","7","7","6","5","5","5","5","5","5","2","1","1","2","1","2","2","2","5","5","5","5","4","5","4","4","4","5","6","6","5","7","6","5","6","6","6","6","7","6","7","7","7","5","1","6","7","1","6","6","7","6","7","6","6","7","6","7","6","7","7","6","6","7","7","7","7","7","7","6","7","7","7","7","7","7","6","6","598867196789129216","郭","361","Male","[""好我"",""坏我"",""坏他"",""好他""]","[""强我"",""弱我"",""弱他"",""强他""]","","","","","","","","{""Q01"":""2"",""Q02"":""1"",""Q03"":""1"",""Q04"":""2"",""Q05"":""1"",""Q06"":""2"",""Q07"":""2"",""Q08"":""2""}","[0,1,2,3,4,5,6,7]","[""Q01"",""Q02"",""Q03"",""Q04"",""Q05"",""Q06"",""Q07"",""Q08""]","[3749.100000023842,4741.199999928474,5885,8413,9924.899999976158,11220.699999928474,12772.899999976158,13773]","[]","[2669,3333,3749.100000023842,4741.199999928474,5885,8413,9924.899999976158,11220.699999928474,12772.899999976158,13773,14653.100000023842]","0.625","0.5714285714285714","0","","","","","","","","","","","","","","","","","","","","","","",""
"53180","
    <p><div style='color:white;font-size:35px; line-height:20px;'>词汇评估任务</div></p><br>
    <p><div style='color:white;font-size:25px; line-height:20px;'>请再次回忆该亲密的朋友，你们至少2年前就认识了，并且最近2年经常见面。</div></p>
    <p><div style='color:white;font-size:25px; line-height:20px;'>在本实验中，您将会看到一些形容词。</div></p>
    <p><div style='color:yellow;font-size:25px; line-height:20px;'>您的任务是判断这些形容词是否符合对您自己或您的朋友的描述。</div></p><p style='font-size:35px'>符合按<span style=""color:lightgreen""> j 键</span>，不符合按<span style=""color:red""> f 键</span></p>","0","html-button-response","8","109148","0.0-7.0-0.0","7","6","7","7","6","5","5","5","5","5","5","2","1","1","2","1","2","2","2","5","5","5","5","4","5","4","4","4","5","6","6","5","7","6","5","6","6","6","6","7","6","7","7","7","5","1","6","7","1","6","6","7","6","7","6","6","7","6","7","6","7","7","6","6","7","7","7","7","7","7","6","7","7","7","7","7","7","6","6","598867196789129216","郭","361","Male","[""好我"",""坏我"",""坏他"",""好他""]","[""强我"",""弱我"",""弱他"",""强他""]","","","","","","","","","","","","","","","","","SRET_EW","EW_instructions","Mon Dec 25 2023 10:42:15 GMT+0800 (中国标准时间)","","","","","","","","","","","","","","","","","","","",""
"837","","f","psychophysics","9","110988","0.0-7.0-1.0-0.0","7","6","7","7","6","5","5","5","5","5","5","2","1","1","2","1","2","2","2","5","5","5","5","4","5","4","4","4","5","6","6","5","7","6","5","6","6","6","6","7","6","7","7","7","5","1","6","7","1","6","6","7","6","7","6","6","7","6","7","6","7","7","6","6","7","7","7","7","7","7","6","7","7","7","7","7","7","6","6","598867196789129216","郭","361","Male","[""好我"",""坏我"",""坏他"",""好他""]","[""强我"",""弱我"",""弱他"",""强他""]","","","","","","","","no","","","","","","","","","SRET_EW","EW_practice","","key","f","16.663636363636364","768","428","朋友","徇私","Negative","morality","","","","","","","","","","",""
"1318","","f","psychophysics","10","113307","0.0-7.0-1.0-0.1","7","6","7","7","6","5","5","5","5","5","5","2","1","1","2","1","2","2","2","5","5","5","5","4","5","4","4","4","5","6","6","5","7","6","5","6","6","6","6","7","6","7","7","7","5","1","6","7","1","6","6","7","6","7","6","6","7","6","7","6","7","7","6","6","7","7","7","7","7","7","6","7","7","7","7","7","7","6","6","598867196789129216","郭","361","Male","[""好我"",""坏我"",""坏他"",""好他""]","[""强我"",""弱我"",""弱他"",""强他""]","","","","","","","","no","","","","","","","","","SRET_EW","EW_practice","","key","f","16.66521739130437","768","428","自己","刻板","Negative","ability","","","","","","","","","","",""
"871","","j","psychophysics","11","115180","0.0-7.0-1.0-0.2","7","6","7","7","6","5","5","5","5","5","5","2","1","1","2","1","2","2","2","5","5","5","5","4","5","4","4","4","5","6","6","5","7","6","5","6","6","6","6","7","6","7","7","7","5","1","6","7","1","6","6","7","6","7","6","6","7","6","7","6","7","7","6","6","7","7","7","7","7","7","6","7","7","7","7","7","7","6","6","598867196789129216","郭","361","Male","[""好我"",""坏我"",""坏他"",""好他""]","[""强我"",""弱我"",""弱他"",""强他""]","","","","","","","","yes","","","","","","","","","SRET_EW","EW_practice","","key","j","16.66428571428566","768","428","朋友","忠实","Positive","morality","","","","","","","","","","",""
"735","","j","psychophysics","12","116915","0.0-7.0-1.0-0.3","7","6","7","7","6","5","5","5","5","5","5","2","1","1","2","1","2","2","2","5","5","5","5","4","5","4","4","4","5","6","6","5","7","6","5","6","6","6","6","7","6","7","7","7","5","1","6","7","1","6","6","7","6","7","6","6","7","6","7","6","7","7","6","6","7","7","7","7","7","7","6","7","7","7","7","7","7","6","6","598867196789129216","郭","361","Male","[""好我"",""坏我"",""坏他"",""好他""]","[""强我"",""弱我"",""弱他"",""强他""]","","","","","","","","yes","","","","","","","","","SRET_EW","EW_practice","","key","j","16.664077669902856","768","428","自己","严谨","Positive","ability","","","","","","","","","","",""
"21608","
    <p><div style='color:white;font-size:35px; line-height:20px;'>请您再次阅读实验要求</div></p><br>
    <p><div style='color:white;font-size:25px; line-height:20px;'>请回忆某一个亲密的朋友，你们至少2年前就认识了，并且最近2年经常见面。</div></p>
    <p><div style='color:white;font-size:25px; line-height:20px;'>在本实验中，您将会看到一些形容词。</div></p>
    <p><div style='color:yellow;font-size:25px; line-height:20px;'>您的任务是判断这些形容词是否符合对您自己或您的朋友的描述。</div></p>
    <p><div class='footer' style='font-size:25px; line-height:20px;'>如果对本实验还有不清楚之处，请立即向实验员咨询。</p><p style='font-size:25px; line-height:20px;'>如果您明白了规则：</p><p style='font-size:22px; line-height:20px;'>请按 继续 进入正式实验</p>
    </div>
    <p style='font-size:35px'>符合按<span style=""color:lightgreen""> j 键</span>，不符合按<span style=""color:red""> f 键</span></p>","0","html-button-response","13","138524","0.0-7.0-2.0","7","6","7","7","6","5","5","5","5","5","5","2","1","1","2","1","2","2","2","5","5","5","5","4","5","4","4","4","5","6","6","5","7","6","5","6","6","6","6","7","6","7","7","7","5","1","6","7","1","6","6","7","6","7","6","6","7","6","7","6","7","7","6","6","7","7","7","7","7","7","6","7","7","7","7","7","7","6","6","598867196789129216","郭","361","Male","[""好我"",""坏我"",""坏他"",""好他""]","[""强我"",""弱我"",""弱他"",""强他""]","","","","","","","","","","","","","","","","","SRET_EW","prac_instructions","Mon Dec 25 2023 10:42:15 GMT+0800 (中国标准时间)","","","","","","","","","","","","","","","","","","","",""
"808","","f","psychophysics","14","140333","0.0-7.0-3.0-0.0","7","6","7","7","6","5","5","5","5","5","5","2","1","1","2","1","2","2","2","5","5","5","5","4","5","4","4","4","5","6","6","5","7","6","5","6","6","6","6","7","6","7","7","7","5","1","6","7","1","6","6","7","6","7","6","6","7","6","7","6","7","7","6","6","7","7","7","7","7","7","6","7","7","7","7","7","7","6","6","598867196789129216","郭","361","Male","[""好我"",""坏我"",""坏他"",""好他""]","[""强我"",""弱我"",""弱他"",""强他""]","","","","","","","","no","","","","","","","","","SRET","EW_formal","","key","f","16.661111111111058","768","428","朋友","迷糊","Negative","ability","","","","","","","","","","",""
"733","","f","psychophysics","15","142068","0.0-7.0-3.0-0.1","7","6","7","7","6","5","5","5","5","5","5","2","1","1","2","1","2","2","2","5","5","5","5","4","5","4","4","4","5","6","6","5","7","6","5","6","6","6","6","7","6","7","7","7","5","1","6","7","1","6","6","7","6","7","6","6","7","6","7","6","7","7","6","6","7","7","7","7","7","7","6","7","7","7","7","7","7","6","6","598867196789129216","郭","361","Male","[""好我"",""坏我"",""坏他"",""好他""]","[""强我"",""弱我"",""弱他"",""强他""]","","","","","","","","no","","","","","","","","","SRET","EW_formal","","key","f","16.664077669902856","768","428","自己","说谎","Negative","morality","","","","","","","","","","",""
"918","","j","psychophysics","16","143987","0.0-7.0-3.0-0.2","7","6","7","7","6","5","5","5","5","5","5","2","1","1","2","1","2","2","2","5","5","5","5","4","5","4","4","4","5","6","6","5","7","6","5","6","6","6","6","7","6","7","7","7","5","1","6","7","1","6","6","7","6","7","6","6","7","6","7","6","7","7","6","6","7","7","7","7","7","7","6","7","7","7","7","7","7","6","6","598867196789129216","郭","361","Male","[""好我"",""坏我"",""坏他"",""好他""]","[""强我"",""弱我"",""弱他"",""强他""]","","","","","","","","yes","","","","","","","","","SRET","EW_formal","","key","j","16.66491228070191","768","428","朋友","务实","Positive","ability","","","","","","","","","","",""
"1047","","j","psychophysics","17","146036","0.0-7.0-3.0-0.3","7","6","7","7","6","5","5","5","5","5","5","2","1","1","2","1","2","2","2","5","5","5","5","4","5","4","4","4","5","6","6","5","7","6","5","6","6","6","6","7","6","7","7","7","5","1","6","7","1","6","6","7","6","7","6","6","7","6","7","6","7","7","6","6","7","7","7","7","7","7","6","7","7","7","7","7","7","6","6","598867196789129216","郭","361","Male","[""好我"",""坏我"",""坏他"",""好他""]","[""强我"",""弱我"",""弱他"",""强他""]","","","","","","","","yes","","","","","","","","","SRET","EW_formal","","key","j","16.66557377049166","768","428","自己","坚贞","Positive","morality","","","","","","","","","","",""
"759","","j","psychophysics","18","147795","0.0-7.0-3.0-0.4","7","6","7","7","6","5","5","5","5","5","5","2","1","1","2","1","2","2","2","5","5","5","5","4","5","4","4","4","5","6","6","5","7","6","5","6","6","6","6","7","6","7","7","7","5","1","6","7","1","6","6","7","6","7","6","6","7","6","7","6","7","7","6","6","7","7","7","7","7","7","6","7","7","7","7","7","7","6","6","598867196789129216","郭","361","Male","[""好我"",""坏我"",""坏他"",""好他""]","[""强我"",""弱我"",""弱他"",""强他""]","","","","","","","","yes","","","","","","","","","SRET","EW_formal","","key","j","16.663809523809636","768","428","自己","廉正","Positive","morality","","","","","","","","","","",""
"726","","f","psychophysics","19","149524","0.0-7.0-3.0-0.5","7","6","7","7","6","5","5","5","5","5","5","2","1","1","2","1","2","2","2","5","5","5","5","4","5","4","4","4","5","6","6","5","7","6","5","6","6","6","6","7","6","7","7","7","5","1","6","7","1","6","6","7","6","7","6","6","7","6","7","6","7","7","6","6","7","7","7","7","7","7","6","7","7","7","7","7","7","6","6","598867196789129216","郭","361","Male","[""好我"",""坏我"",""坏他"",""好他""]","[""强我"",""弱我"",""弱他"",""强他""]","","","","","","","","no","","","","","","","","","SRET","EW_formal","","key","f","16.664077669902856","768","428","朋友","无知","Negative","ability","","","","","","","","","","",""
"1031","","j","psychophysics","20","151556","0.0-7.0-3.0-0.6","7","6","7","7","6","5","5","5","5","5","5","2","1","1","2","1","2","2","2","5","5","5","5","4","5","4","4","4","5","6","6","5","7","6","5","6","6","6","6","7","6","7","7","7","5","1","6","7","1","6","6","7","6","7","6","6","7","6","7","6","7","7","6","6","7","7","7","7","7","7","6","7","7","7","7","7","7","6","6","598867196789129216","郭","361","Male","[""好我"",""坏我"",""坏他"",""好他""]","[""强我"",""弱我"",""弱他"",""强他""]","","","","","","","","yes","","","","","","","","","SRET","EW_formal","","key","j","16.666115702479388","768","428","自己","无私","Positive","morality","","","","","","","","","","",""
"759","","j","psychophysics","21","153316","0.0-7.0-3.0-0.7","7","6","7","7","6","5","5","5","5","5","5","2","1","1","2","1","2","2","2","5","5","5","5","4","5","4","4","4","5","6","6","5","7","6","5","6","6","6","6","7","6","7","7","7","5","1","6","7","1","6","6","7","6","7","6","6","7","6","7","6","7","7","6","6","7","7","7","7","7","7","6","7","7","7","7","7","7","6","6","598867196789129216","郭","361","Male","[""好我"",""坏我"",""坏他"",""好他""]","[""强我"",""弱我"",""弱他"",""强他""]","","","","","","","","yes","","","","","","","","","SRET","EW_formal","","key","j","16.664423076923132","768","428","自己","敏捷","Positive","ability","","","","","","","","","","",""
"982","","j","psychophysics","22","155300","0.0-7.0-3.0-0.8","7","6","7","7","6","5","5","5","5","5","5","2","1","1","2","1","2","2","2","5","5","5","5","4","5","4","4","4","5","6","6","5","7","6","5","6","6","6","6","7","6","7","7","7","5","1","6","7","1","6","6","7","6","7","6","6","7","6","7","6","7","7","6","6","7","7","7","7","7","7","6","7","7","7","7","7","7","6","6","598867196789129216","郭","361","Male","[""好我"",""坏我"",""坏他"",""好他""]","[""强我"",""弱我"",""弱他"",""强他""]","","","","","","","","yes","","","","","","","","","SRET","EW_formal","","key","j","16.66440677966097","768","428","朋友","坦荡","Positive","morality","","","","","","","","","","",""
"646","","j","psychophysics","23","156947","0.0-7.0-3.0-0.9","7","6","7","7","6","5","5","5","5","5","5","2","1","1","2","1","2","2","2","5","5","5","5","4","5","4","4","4","5","6","6","5","7","6","5","6","6","6","6","7","6","7","7","7","5","1","6","7","1","6","6","7","6","7","6","6","7","6","7","6","7","7","6","6","7","7","7","7","7","7","6","7","7","7","7","7","7","6","6","598867196789129216","郭","361","Male","[""好我"",""坏我"",""坏他"",""好他""]","[""强我"",""弱我"",""弱他"",""强他""]","","","","","","","","yes","","","","","","","","","SRET","EW_formal","","key","j","16.664285714285775","768","428","自己","爱国","Positive","morality","","","","","","","","","","",""
"774","","j","psychophysics","24","158724","0.0-7.0-3.0-0.10","7","6","7","7","6","5","5","5","5","5","5","2","1","1","2","1","2","2","2","5","5","5","5","4","5","4","4","4","5","6","6","5","7","6","5","6","6","6","6","7","6","7","7","7","5","1","6","7","1","6","6","7","6","7","6","6","7","6","7","6","7","7","6","6","7","7","7","7","7","7","6","7","7","7","7","7","7","6","6","598867196789129216","郭","361","Male","[""好我"",""坏我"",""坏他"",""好他""]","[""强我"",""弱我"",""弱他"",""强他""]","","","","","","","","yes","","","","","","","","","SRET","EW_formal","","key","j","16.662264150943507","768","428","自己","正气","Positive","morality","","","","","","","","","","",""
"727","","f","psychophysics","25","160452","0.0-7.0-3.0-0.11","7","6","7","7","6","5","5","5","5","5","5","2","1","1","2","1","2","2","2","5","5","5","5","4","5","4","4","4","5","6","6","5","7","6","5","6","6","6","6","7","6","7","7","7","5","1","6","7","1","6","6","7","6","7","6","6","7","6","7","6","7","7","6","6","7","7","7","7","7","7","6","7","7","7","7","7","7","6","6","598867196789129216","郭","361","Male","[""好我"",""坏我"",""坏他"",""好他""]","[""强我"",""弱我"",""弱他"",""强他""]","","","","","","","","no","","","","","","","","","SRET","EW_formal","","key","f","16.664705882352827","768","428","朋友","迂拙","Negative","ability","","","","","","","","","","",""
"616","","j","psychophysics","26","162068","0.0-7.0-3.0-0.12","7","6","7","7","6","5","5","5","5","5","5","2","1","1","2","1","2","2","2","5","5","5","5","4","5","4","4","4","5","6","6","5","7","6","5","6","6","6","6","7","6","7","7","7","5","1","6","7","1","6","6","7","6","7","6","6","7","6","7","6","7","7","6","6","7","7","7","7","7","7","6","7","7","7","7","7","7","6","6","598867196789129216","郭","361","Male","[""好我"",""坏我"",""坏他"",""好他""]","[""强我"",""弱我"",""弱他"",""强他""]","","","","","","","","yes","","","","","","","","","SRET","EW_formal","","key","j","16.663541666666486","768","428","自己","有力","Positive","ability","","","","","","","","","","",""
"1087","","f","psychophysics","27","164156","0.0-7.0-3.0-0.13","7","6","7","7","6","5","5","5","5","5","5","2","1","1","2","1","2","2","2","5","5","5","5","4","5","4","4","4","5","6","6","5","7","6","5","6","6","6","6","7","6","7","7","7","5","1","6","7","1","6","6","7","6","7","6","6","7","6","7","6","7","7","6","6","7","7","7","7","7","7","6","7","7","7","7","7","7","6","6","598867196789129216","郭","361","Male","[""好我"",""坏我"",""坏他"",""好他""]","[""强我"",""弱我"",""弱他"",""强他""]","","","","","","","","no","","","","","","","","","SRET","EW_formal","","key","f","16.664800000000046","768","428","朋友","新手","Negative","ability","","","","","","","","","","",""
"574","","f","psychophysics","28","165731","0.0-7.0-3.0-0.14","7","6","7","7","6","5","5","5","5","5","5","2","1","1","2","1","2","2","2","5","5","5","5","4","5","4","4","4","5","6","6","5","7","6","5","6","6","6","6","7","6","7","7","7","5","1","6","7","1","6","6","7","6","7","6","6","7","6","7","6","7","7","6","6","7","7","7","7","7","7","6","7","7","7","7","7","7","6","6","598867196789129216","郭","361","Male","[""好我"",""坏我"",""坏他"",""好他""]","[""强我"",""弱我"",""弱他"",""强他""]","","","","","","","","no","","","","","","","","","SRET","EW_formal","","key","f","16.66344086021518","768","428","朋友","黑心","Negative","morality","","","","","","","","","","",""
"839","","j","psychophysics","29","167572","0.0-7.0-3.0-0.15","7","6","7","7","6","5","5","5","5","5","5","2","1","1","2","1","2","2","2","5","5","5","5","4","5","4","4","4","5","6","6","5","7","6","5","6","6","6","6","7","6","7","7","7","5","1","6","7","1","6","6","7","6","7","6","6","7","6","7","6","7","7","6","6","7","7","7","7","7","7","6","7","7","7","7","7","7","6","6","598867196789129216","郭","361","Male","[""好我"",""坏我"",""坏他"",""好他""]","[""强我"",""弱我"",""弱他"",""强他""]","","","","","","","","yes","","","","","","","","","SRET","EW_formal","","key","j","16.665454545454388","768","428","朋友","全才","Positive","ability","","","","","","","","","","",""
"630","","j","psychophysics","30","169204","0.0-7.0-3.0-0.16","7","6","7","7","6","5","5","5","5","5","5","2","1","1","2","1","2","2","2","5","5","5","5","4","5","4","4","4","5","6","6","5","7","6","5","6","6","6","6","7","6","7","7","7","5","1","6","7","1","6","6","7","6","7","6","6","7","6","7","6","7","7","6","6","7","7","7","7","7","7","6","7","7","7","7","7","7","6","6","598867196789129216","郭","361","Male","[""好我"",""坏我"",""坏他"",""好他""]","[""强我"",""弱我"",""弱他"",""强他""]","","","","","","","","yes","","","","","","","","","SRET","EW_formal","","key","j","16.66597938144336","768","428","自己","努力","Positive","ability","","","","","","","","","","",""
"607","","j","psychophysics","31","170812","0.0-7.0-3.0-0.17","7","6","7","7","6","5","5","5","5","5","5","2","1","1","2","1","2","2","2","5","5","5","5","4","5","4","4","4","5","6","6","5","7","6","5","6","6","6","6","7","6","7","7","7","5","1","6","7","1","6","6","7","6","7","6","6","7","6","7","6","7","7","6","6","7","7","7","7","7","7","6","7","7","7","7","7","7","6","6","598867196789129216","郭","361","Male","[""好我"",""坏我"",""坏他"",""好他""]","[""强我"",""弱我"",""弱他"",""强他""]","","","","","","","","yes","","","","","","","","","SRET","EW_formal","","key","j","16.66631578947356","768","428","朋友","专注","Positive","ability","","","","","","","","","","",""
"694","","f","psychophysics","32","172508","0.0-7.0-3.0-0.18","7","6","7","7","6","5","5","5","5","5","5","2","1","1","2","1","2","2","2","5","5","5","5","4","5","4","4","4","5","6","6","5","7","6","5","6","6","6","6","7","6","7","7","7","5","1","6","7","1","6","6","7","6","7","6","6","7","6","7","6","7","7","6","6","7","7","7","7","7","7","6","7","7","7","7","7","7","6","6","598867196789129216","郭","361","Male","[""好我"",""坏我"",""坏他"",""好他""]","[""强我"",""弱我"",""弱他"",""强他""]","","","","","","","","no","","","","","","","","","SRET","EW_formal","","key","f","16.664356435643622","768","428","自己","拖延","Negative","ability","","","","","","","","","","",""
"672","","f","psychophysics","33","174182","0.0-7.0-3.0-0.19","7","6","7","7","6","5","5","5","5","5","5","2","1","1","2","1","2","2","2","5","5","5","5","4","5","4","4","4","5","6","6","5","7","6","5","6","6","6","6","7","6","7","7","7","5","1","6","7","1","6","6","7","6","7","6","6","7","6","7","6","7","7","6","6","7","7","7","7","7","7","6","7","7","7","7","7","7","6","6","598867196789129216","郭","361","Male","[""好我"",""坏我"",""坏他"",""好他""]","[""强我"",""弱我"",""弱他"",""强他""]","","","","","","","","no","","","","","","","","","SRET","EW_formal","","key","f","16.66464646464664","768","428","自己","贪污","Negative","morality","","","","","","","","","","",""
"981","","f","psychophysics","34","176164","0.0-7.0-3.0-0.20","7","6","7","7","6","5","5","5","5","5","5","2","1","1","2","1","2","2","2","5","5","5","5","4","5","4","4","4","5","6","6","5","7","6","5","6","6","6","6","7","6","7","7","7","5","1","6","7","1","6","6","7","6","7","6","6","7","6","7","6","7","7","6","6","7","7","7","7","7","7","6","7","7","7","7","7","7","6","6","598867196789129216","郭","361","Male","[""好我"",""坏我"",""坏他"",""好他""]","[""强我"",""弱我"",""弱他"",""强他""]","","","","","","","","no","","","","","","","","","SRET","EW_formal","","key","f","16.66440677966097","768","428","自己","自私","Negative","morality","","","","","","","","","","",""
"663","","j","psychophysics","35","177829","0.0-7.0-3.0-0.21","7","6","7","7","6","5","5","5","5","5","5","2","1","1","2","1","2","2","2","5","5","5","5","4","5","4","4","4","5","6","6","5","7","6","5","6","6","6","6","7","6","7","7","7","5","1","6","7","1","6","6","7","6","7","6","6","7","6","7","6","7","7","6","6","7","7","7","7","7","7","6","7","7","7","7","7","7","6","6","598867196789129216","郭","361","Male","[""好我"",""坏我"",""坏他"",""好他""]","[""强我"",""弱我"",""弱他"",""强他""]","","","","","","","","yes","","","","","","","","","SRET","EW_formal","","key","j","16.666666666666668","768","428","自己","博学","Positive","ability","","","","","","","","","","",""
"773","","f","psychophysics","36","179604","0.0-7.0-3.0-0.22","7","6","7","7","6","5","5","5","5","5","5","2","1","1","2","1","2","2","2","5","5","5","5","4","5","4","4","4","5","6","6","5","7","6","5","6","6","6","6","7","6","7","7","7","5","1","6","7","1","6","6","7","6","7","6","6","7","6","7","6","7","7","6","6","7","7","7","7","7","7","6","7","7","7","7","7","7","6","6","598867196789129216","郭","361","Male","[""好我"",""坏我"",""坏他"",""好他""]","[""强我"",""弱我"",""弱他"",""强他""]","","","","","","","","no","","","","","","","","","SRET","EW_formal","","key","f","16.66509433962264","768","428","朋友","虚假","Negative","morality","","","","","","","","","","",""
"822","","j","psychophysics","37","181428","0.0-7.0-3.0-0.23","7","6","7","7","6","5","5","5","5","5","5","2","1","1","2","1","2","2","2","5","5","5","5","4","5","4","4","4","5","6","6","5","7","6","5","6","6","6","6","7","6","7","7","7","5","1","6","7","1","6","6","7","6","7","6","6","7","6","7","6","7","7","6","6","7","7","7","7","7","7","6","7","7","7","7","7","7","6","6","598867196789129216","郭","361","Male","[""好我"",""坏我"",""坏他"",""好他""]","[""强我"",""弱我"",""弱他"",""强他""]","","","","","","","","yes","","","","","","","","","SRET","EW_formal","","key","j","16.664814814814708","768","428","自己","清廉","Positive","morality","","","","","","","","","","",""
"663","","j","psychophysics","38","183092","0.0-7.0-3.0-0.24","7","6","7","7","6","5","5","5","5","5","5","2","1","1","2","1","2","2","2","5","5","5","5","4","5","4","4","4","5","6","6","5","7","6","5","6","6","6","6","7","6","7","7","7","5","1","6","7","1","6","6","7","6","7","6","6","7","6","7","6","7","7","6","6","7","7","7","7","7","7","6","7","7","7","7","7","7","6","6","598867196789129216","郭","361","Male","[""好我"",""坏我"",""坏他"",""好他""]","[""强我"",""弱我"",""弱他"",""强他""]","","","","","","","","yes","","","","","","","","","SRET","EW_formal","","key","j","16.666666666666668","768","428","自己","干练","Positive","ability","","","","","","","","","","",""
"631","","f","psychophysics","39","184724","0.0-7.0-3.0-0.25","7","6","7","7","6","5","5","5","5","5","5","2","1","1","2","1","2","2","2","5","5","5","5","4","5","4","4","4","5","6","6","5","7","6","5","6","6","6","6","7","6","7","7","7","5","1","6","7","1","6","6","7","6","7","6","6","7","6","7","6","7","7","6","6","7","7","7","7","7","7","6","7","7","7","7","7","7","6","6","598867196789129216","郭","361","Male","[""好我"",""坏我"",""坏他"",""好他""]","[""强我"",""弱我"",""弱他"",""强他""]","","","","","","","","no","","","","","","","","","SRET","EW_formal","","key","f","16.663917525773137","768","428","自己","无助","Negative","ability","","","","","","","","","","",""
"799","","j","psychophysics","40","186524","0.0-7.0-3.0-0.26","7","6","7","7","6","5","5","5","5","5","5","2","1","1","2","1","2","2","2","5","5","5","5","4","5","4","4","4","5","6","6","5","7","6","5","6","6","6","6","7","6","7","7","7","5","1","6","7","1","6","6","7","6","7","6","6","7","6","7","6","7","7","6","6","7","7","7","7","7","7","6","7","7","7","7","7","7","6","6","598867196789129216","郭","361","Male","[""好我"",""坏我"",""坏他"",""好他""]","[""强我"",""弱我"",""弱他"",""强他""]","","","","","","","","yes","","","","","","","","","SRET","EW_formal","","key","j","16.665420560747773","768","428","自己","善心","Positive","morality","","","","","","","","","","",""
"632","","f","psychophysics","41","188157","0.0-7.0-3.0-0.27","7","6","7","7","6","5","5","5","5","5","5","2","1","1","2","1","2","2","2","5","5","5","5","4","5","4","4","4","5","6","6","5","7","6","5","6","6","6","6","7","6","7","7","7","5","1","6","7","1","6","6","7","6","7","6","6","7","6","7","6","7","7","6","6","7","7","7","7","7","7","6","7","7","7","7","7","7","6","6","598867196789129216","郭","361","Male","[""好我"",""坏我"",""坏他"",""好他""]","[""强我"",""弱我"",""弱他"",""强他""]","","","","","","","","no","","","","","","","","","SRET","EW_formal","","key","f","16.663917525773137","768","428","朋友","龌龊","Negative","morality","","","","","","","","","","",""
"654","","j","psychophysics","42","189812","0.0-7.0-3.0-0.28","7","6","7","7","6","5","5","5","5","5","5","2","1","1","2","1","2","2","2","5","5","5","5","4","5","4","4","4","5","6","6","5","7","6","5","6","6","6","6","7","6","7","7","7","5","1","6","7","1","6","6","7","6","7","6","6","7","6","7","6","7","7","6","6","7","7","7","7","7","7","6","7","7","7","7","7","7","6","6","598867196789129216","郭","361","Male","[""好我"",""坏我"",""坏他"",""好他""]","[""强我"",""弱我"",""弱他"",""强他""]","","","","","","","","yes","","","","","","","","","SRET","EW_formal","","key","j","16.6653061224491","768","428","自己","博识","Positive","ability","","","","","","","","","","",""
"575","","j","psychophysics","43","191388","0.0-7.0-3.0-0.29","7","6","7","7","6","5","5","5","5","5","5","2","1","1","2","1","2","2","2","5","5","5","5","4","5","4","4","4","5","6","6","5","7","6","5","6","6","6","6","7","6","7","7","7","5","1","6","7","1","6","6","7","6","7","6","6","7","6","7","6","7","7","6","6","7","7","7","7","7","7","6","7","7","7","7","7","7","6","6","598867196789129216","郭","361","Male","[""好我"",""坏我"",""坏他"",""好他""]","[""强我"",""弱我"",""弱他"",""强他""]","","","","","","","","yes","","","","","","","","","SRET","EW_formal","","key","j","16.664893617021278","768","428","朋友","厚道","Positive","morality","","","","","","","","","","",""
"864","","j","psychophysics","44","193253","0.0-7.0-3.0-0.30","7","6","7","7","6","5","5","5","5","5","5","2","1","1","2","1","2","2","2","5","5","5","5","4","5","4","4","4","5","6","6","5","7","6","5","6","6","6","6","7","6","7","7","7","5","1","6","7","1","6","6","7","6","7","6","6","7","6","7","6","7","7","6","6","7","7","7","7","7","7","6","7","7","7","7","7","7","6","6","598867196789129216","郭","361","Male","[""好我"",""坏我"",""坏他"",""好他""]","[""强我"",""弱我"",""弱他"",""强他""]","","","","","","","","yes","","","","","","","","","SRET","EW_formal","","key","j","16.666666666666668","768","428","朋友","骁勇","Positive","ability","","","","","","","","","","",""
"630","","j","psychophysics","45","194884","0.0-7.0-3.0-0.31","7","6","7","7","6","5","5","5","5","5","5","2","1","1","2","1","2","2","2","5","5","5","5","4","5","4","4","4","5","6","6","5","7","6","5","6","6","6","6","7","6","7","7","7","5","1","6","7","1","6","6","7","6","7","6","6","7","6","7","6","7","7","6","6","7","7","7","7","7","7","6","7","7","7","7","7","7","6","6","598867196789129216","郭","361","Male","[""好我"",""坏我"",""坏他"",""好他""]","[""强我"",""弱我"",""弱他"",""强他""]","","","","","","","","yes","","","","","","","","","SRET","EW_formal","","key","j","16.663917525773137","768","428","朋友","顶事","Positive","ability","","","","","","","","","","",""
"576","","f","psychophysics","46","196460","0.0-7.0-3.0-0.32","7","6","7","7","6","5","5","5","5","5","5","2","1","1","2","1","2","2","2","5","5","5","5","4","5","4","4","4","5","6","6","5","7","6","5","6","6","6","6","7","6","7","7","7","5","1","6","7","1","6","6","7","6","7","6","6","7","6","7","6","7","7","6","6","7","7","7","7","7","7","6","7","7","7","7","7","7","6","6","598867196789129216","郭","361","Male","[""好我"",""坏我"",""坏他"",""好他""]","[""强我"",""弱我"",""弱他"",""强他""]","","","","","","","","no","","","","","","","","","SRET","EW_formal","","key","f","16.663440860214866","768","428","朋友","犹豫","Negative","ability","","","","","","","","","","",""
"695","","f","psychophysics","47","198156","0.0-7.0-3.0-0.33","7","6","7","7","6","5","5","5","5","5","5","2","1","1","2","1","2","2","2","5","5","5","5","4","5","4","4","4","5","6","6","5","7","6","5","6","6","6","6","7","6","7","7","7","5","1","6","7","1","6","6","7","6","7","6","6","7","6","7","6","7","7","6","6","7","7","7","7","7","7","6","7","7","7","7","7","7","6","6","598867196789129216","郭","361","Male","[""好我"",""坏我"",""坏他"",""好他""]","[""强我"",""弱我"",""弱他"",""强他""]","","","","","","","","no","","","","","","","","","SRET","EW_formal","","key","f","16.665346534653292","768","428","自己","草率","Negative","ability","","","","","","","","","","",""
"511","","j","psychophysics","48","199668","0.0-7.0-3.0-0.34","7","6","7","7","6","5","5","5","5","5","5","2","1","1","2","1","2","2","2","5","5","5","5","4","5","4","4","4","5","6","6","5","7","6","5","6","6","6","6","7","6","7","7","7","5","1","6","7","1","6","6","7","6","7","6","6","7","6","7","6","7","7","6","6","7","7","7","7","7","7","6","7","7","7","7","7","7","6","6","598867196789129216","郭","361","Male","[""好我"",""坏我"",""坏他"",""好他""]","[""强我"",""弱我"",""弱他"",""强他""]","","","","","","","","yes","","","","","","","","","SRET","EW_formal","","key","j","16.665555555555816","768","428","朋友","势利","Negative","morality","","","","","","","","","","",""
"942","","j","psychophysics","49","201612","0.0-7.0-3.0-0.35","7","6","7","7","6","5","5","5","5","5","5","2","1","1","2","1","2","2","2","5","5","5","5","4","5","4","4","4","5","6","6","5","7","6","5","6","6","6","6","7","6","7","7","7","5","1","6","7","1","6","6","7","6","7","6","6","7","6","7","6","7","7","6","6","7","7","7","7","7","7","6","7","7","7","7","7","7","6","6","598867196789129216","郭","361","Male","[""好我"",""坏我"",""坏他"",""好他""]","[""强我"",""弱我"",""弱他"",""强他""]","","","","","","","","yes","","","","","","","","","SRET","EW_formal","","key","j","16.66521739130435","768","428","自己","依靠","Negative","ability","","","","","","","","","","",""
"566","","j","psychophysics","50","203180","0.0-7.0-3.0-0.36","7","6","7","7","6","5","5","5","5","5","5","2","1","1","2","1","2","2","2","5","5","5","5","4","5","4","4","4","5","6","6","5","7","6","5","6","6","6","6","7","6","7","7","7","5","1","6","7","1","6","6","7","6","7","6","6","7","6","7","6","7","7","6","6","7","7","7","7","7","7","6","7","7","7","7","7","7","6","6","598867196789129216","郭","361","Male","[""好我"",""坏我"",""坏他"",""好他""]","[""强我"",""弱我"",""弱他"",""强他""]","","","","","","","","yes","","","","","","","","","SRET","EW_formal","","key","j","16.664516129032133","768","428","自己","稳健","Positive","ability","","","","","","","","","","",""
"687","","j","psychophysics","51","204868","0.0-7.0-3.0-0.37","7","6","7","7","6","5","5","5","5","5","5","2","1","1","2","1","2","2","2","5","5","5","5","4","5","4","4","4","5","6","6","5","7","6","5","6","6","6","6","7","6","7","7","7","5","1","6","7","1","6","6","7","6","7","6","6","7","6","7","6","7","7","6","6","7","7","7","7","7","7","6","7","7","7","7","7","7","6","6","598867196789129216","郭","361","Male","[""好我"",""坏我"",""坏他"",""好他""]","[""强我"",""弱我"",""弱他"",""强他""]","","","","","","","","yes","","","","","","","","","SRET","EW_formal","","key","j","16.66534653465358","768","428","自己","娴熟","Positive","ability","","","","","","","","","","",""
"615","","f","psychophysics","52","206484","0.0-7.0-3.0-0.38","7","6","7","7","6","5","5","5","5","5","5","2","1","1","2","1","2","2","2","5","5","5","5","4","5","4","4","4","5","6","6","5","7","6","5","6","6","6","6","7","6","7","7","7","5","1","6","7","1","6","6","7","6","7","6","6","7","6","7","6","7","7","6","6","7","7","7","7","7","7","6","7","7","7","7","7","7","6","6","598867196789129216","郭","361","Male","[""好我"",""坏我"",""坏他"",""好他""]","[""强我"",""弱我"",""弱他"",""强他""]","","","","","","","","no","","","","","","","","","SRET","EW_formal","","key","f","16.664583333333514","768","428","朋友","腐败","Negative","morality","","","","","","","","","","",""
"582","","j","psychophysics","53","208068","0.0-7.0-3.0-0.39","7","6","7","7","6","5","5","5","5","5","5","2","1","1","2","1","2","2","2","5","5","5","5","4","5","4","4","4","5","6","6","5","7","6","5","6","6","6","6","7","6","7","7","7","5","1","6","7","1","6","6","7","6","7","6","6","7","6","7","6","7","7","6","6","7","7","7","7","7","7","6","7","7","7","7","7","7","6","6","598867196789129216","郭","361","Male","[""好我"",""坏我"",""坏他"",""好他""]","[""强我"",""弱我"",""弱他"",""强他""]","","","","","","","","yes","","","","","","","","","SRET","EW_formal","","key","j","16.66702127659556","768","428","自己","好心","Positive","morality","","","","","","","","","","",""
"559","","j","psychophysics","54","209628","0.0-7.0-3.0-0.40","7","6","7","7","6","5","5","5","5","5","5","2","1","1","2","1","2","2","2","5","5","5","5","4","5","4","4","4","5","6","6","5","7","6","5","6","6","6","6","7","6","7","7","7","5","1","6","7","1","6","6","7","6","7","6","6","7","6","7","6","7","7","6","6","7","7","7","7","7","7","6","7","7","7","7","7","7","6","6","598867196789129216","郭","361","Male","[""好我"",""坏我"",""坏他"",""好他""]","[""强我"",""弱我"",""弱他"",""强他""]","","","","","","","","yes","","","","","","","","","SRET","EW_formal","","key","j","16.665217391304473","768","428","朋友","学霸","Positive","ability","","","","","","","","","","",""
"590","","j","psychophysics","55","211220","0.0-7.0-3.0-0.41","7","6","7","7","6","5","5","5","5","5","5","2","1","1","2","1","2","2","2","5","5","5","5","4","5","4","4","4","5","6","6","5","7","6","5","6","6","6","6","7","6","7","7","7","5","1","6","7","1","6","6","7","6","7","6","6","7","6","7","6","7","7","6","6","7","7","7","7","7","7","6","7","7","7","7","7","7","6","6","598867196789129216","郭","361","Male","[""好我"",""坏我"",""坏他"",""好他""]","[""强我"",""弱我"",""弱他"",""强他""]","","","","","","","","yes","","","","","","","","","SRET","EW_formal","","key","j","16.66315789473684","768","428","朋友","肯干","Positive","ability","","","","","","","","","","",""
"719","","f","psychophysics","56","212940","0.0-7.0-3.0-0.42","7","6","7","7","6","5","5","5","5","5","5","2","1","1","2","1","2","2","2","5","5","5","5","4","5","4","4","4","5","6","6","5","7","6","5","6","6","6","6","7","6","7","7","7","5","1","6","7","1","6","6","7","6","7","6","6","7","6","7","6","7","7","6","6","7","7","7","7","7","7","6","7","7","7","7","7","7","6","6","598867196789129216","郭","361","Male","[""好我"",""坏我"",""坏他"",""好他""]","[""强我"",""弱我"",""弱他"",""强他""]","","","","","","","","no","","","","","","","","","SRET","EW_formal","","key","f","16.663725490195908","768","428","朋友","奸险","Negative","morality","","","","","","","","","","",""
"672","","j","psychophysics","57","214612","0.0-7.0-3.0-0.43","7","6","7","7","6","5","5","5","5","5","5","2","1","1","2","1","2","2","2","5","5","5","5","4","5","4","4","4","5","6","6","5","7","6","5","6","6","6","6","7","6","7","7","7","5","1","6","7","1","6","6","7","6","7","6","6","7","6","7","6","7","7","6","6","7","7","7","7","7","7","6","7","7","7","7","7","7","6","6","598867196789129216","郭","361","Male","[""好我"",""坏我"",""坏他"",""好他""]","[""强我"",""弱我"",""弱他"",""强他""]","","","","","","","","yes","","","","","","","","","SRET","EW_formal","","key","j","16.66565656565651","768","428","自己","上进","Positive","ability","","","","","","","","","","",""
"1247","","j","psychophysics","58","216860","0.0-7.0-3.0-0.44","7","6","7","7","6","5","5","5","5","5","5","2","1","1","2","1","2","2","2","5","5","5","5","4","5","4","4","4","5","6","6","5","7","6","5","6","6","6","6","7","6","7","7","7","5","1","6","7","1","6","6","7","6","7","6","6","7","6","7","6","7","7","6","6","7","7","7","7","7","7","6","7","7","7","7","7","7","6","6","598867196789129216","郭","361","Male","[""好我"",""坏我"",""坏他"",""好他""]","[""强我"",""弱我"",""弱他"",""强他""]","","","","","","","","yes","","","","","","","","","SRET","EW_formal","","key","j","16.66417910447761","768","428","自己","慈悲","Positive","morality","","","","","","","","","","",""
"527","","j","psychophysics","59","218388","0.0-7.0-3.0-0.45","7","6","7","7","6","5","5","5","5","5","5","2","1","1","2","1","2","2","2","5","5","5","5","4","5","4","4","4","5","6","6","5","7","6","5","6","6","6","6","7","6","7","7","7","5","1","6","7","1","6","6","7","6","7","6","6","7","6","7","6","7","7","6","6","7","7","7","7","7","7","6","7","7","7","7","7","7","6","6","598867196789129216","郭","361","Male","[""好我"",""坏我"",""坏他"",""好他""]","[""强我"",""弱我"",""弱他"",""强他""]","","","","","","","","yes","","","","","","","","","SRET","EW_formal","","key","j","16.664835164835164","768","428","朋友","君子","Positive","morality","","","","","","","","","","",""
"663","","f","psychophysics","60","220052","0.0-7.0-3.0-0.46","7","6","7","7","6","5","5","5","5","5","5","2","1","1","2","1","2","2","2","5","5","5","5","4","5","4","4","4","5","6","6","5","7","6","5","6","6","6","6","7","6","7","7","7","5","1","6","7","1","6","6","7","6","7","6","6","7","6","7","6","7","7","6","6","7","7","7","7","7","7","6","7","7","7","7","7","7","6","6","598867196789129216","郭","361","Male","[""好我"",""坏我"",""坏他"",""好他""]","[""强我"",""弱我"",""弱他"",""强他""]","","","","","","","","no","","","","","","","","","SRET","EW_formal","","key","f","16.663636363636186","768","428","自己","逞能","Negative","ability","","","","","","","","","","",""
"558","","f","psychophysics","61","221612","0.0-7.0-3.0-0.47","7","6","7","7","6","5","5","5","5","5","5","2","1","1","2","1","2","2","2","5","5","5","5","4","5","4","4","4","5","6","6","5","7","6","5","6","6","6","6","7","6","7","7","7","5","1","6","7","1","6","6","7","6","7","6","6","7","6","7","6","7","7","6","6","7","7","7","7","7","7","6","7","7","7","7","7","7","6","6","598867196789129216","郭","361","Male","[""好我"",""坏我"",""坏他"",""好他""]","[""强我"",""弱我"",""弱他"",""强他""]","","","","","","","","no","","","","","","","","","SRET","EW_formal","","key","f","16.66413043478267","768","428","朋友","笨蛋","Negative","ability","","","","","","","","","","",""
"895","","f","psychophysics","62","223508","0.0-7.0-3.0-0.48","7","6","7","7","6","5","5","5","5","5","5","2","1","1","2","1","2","2","2","5","5","5","5","4","5","4","4","4","5","6","6","5","7","6","5","6","6","6","6","7","6","7","7","7","5","1","6","7","1","6","6","7","6","7","6","6","7","6","7","6","7","7","6","6","7","7","7","7","7","7","6","7","7","7","7","7","7","6","6","598867196789129216","郭","361","Male","[""好我"",""坏我"",""坏他"",""好他""]","[""强我"",""弱我"",""弱他"",""强他""]","","","","","","","","no","","","","","","","","","SRET","EW_formal","","key","f","16.664601769911556","768","428","朋友","庸碌","Negative","ability","","","","","","","","","","",""
"574","","j","psychophysics","63","225084","0.0-7.0-3.0-0.49","7","6","7","7","6","5","5","5","5","5","5","2","1","1","2","1","2","2","2","5","5","5","5","4","5","4","4","4","5","6","6","5","7","6","5","6","6","6","6","7","6","7","7","7","5","1","6","7","1","6","6","7","6","7","6","6","7","6","7","6","7","7","6","6","7","7","7","7","7","7","6","7","7","7","7","7","7","6","6","598867196789129216","郭","361","Male","[""好我"",""坏我"",""坏他"",""好他""]","[""强我"",""弱我"",""弱他"",""强他""]","","","","","","","","yes","","","","","","","","","SRET","EW_formal","","key","j","16.664893617021278","768","428","朋友","忠勇","Positive","morality","","","","","","","","","","",""
"518","","j","psychophysics","64","226604","0.0-7.0-3.0-0.50","7","6","7","7","6","5","5","5","5","5","5","2","1","1","2","1","2","2","2","5","5","5","5","4","5","4","4","4","5","6","6","5","7","6","5","6","6","6","6","7","6","7","7","7","5","1","6","7","1","6","6","7","6","7","6","6","7","6","7","6","7","7","6","6","7","7","7","7","7","7","6","7","7","7","7","7","7","6","6","598867196789129216","郭","361","Male","[""好我"",""坏我"",""坏他"",""好他""]","[""强我"",""弱我"",""弱他"",""强他""]","","","","","","","","yes","","","","","","","","","SRET","EW_formal","","key","j","16.664444444444637","768","428","朋友","高洁","Positive","morality","","","","","","","","","","",""
"782","","f","psychophysics","65","228388","0.0-7.0-3.0-0.51","7","6","7","7","6","5","5","5","5","5","5","2","1","1","2","1","2","2","2","5","5","5","5","4","5","4","4","4","5","6","6","5","7","6","5","6","6","6","6","7","6","7","7","7","5","1","6","7","1","6","6","7","6","7","6","6","7","6","7","6","7","7","6","6","7","7","7","7","7","7","6","7","7","7","7","7","7","6","6","598867196789129216","郭","361","Male","[""好我"",""坏我"",""坏他"",""好他""]","[""强我"",""弱我"",""弱他"",""强他""]","","","","","","","","no","","","","","","","","","SRET","EW_formal","","key","f","16.664150943396447","768","428","朋友","短视","Negative","ability","","","","","","","","","","",""
"607","","f","psychophysics","66","229996","0.0-7.0-3.0-0.52","7","6","7","7","6","5","5","5","5","5","5","2","1","1","2","1","2","2","2","5","5","5","5","4","5","4","4","4","5","6","6","5","7","6","5","6","6","6","6","7","6","7","7","7","5","1","6","7","1","6","6","7","6","7","6","6","7","6","7","6","7","7","6","6","7","7","7","7","7","7","6","7","7","7","7","7","7","6","6","598867196789129216","郭","361","Male","[""好我"",""坏我"",""坏他"",""好他""]","[""强我"",""弱我"",""弱他"",""强他""]","","","","","","","","no","","","","","","","","","SRET","EW_formal","","key","f","16.664583333333514","768","428","自己","邪恶","Negative","morality","","","","","","","","","","",""
"847","","f","psychophysics","67","231844","0.0-7.0-3.0-0.53","7","6","7","7","6","5","5","5","5","5","5","2","1","1","2","1","2","2","2","5","5","5","5","4","5","4","4","4","5","6","6","5","7","6","5","6","6","6","6","7","6","7","7","7","5","1","6","7","1","6","6","7","6","7","6","6","7","6","7","6","7","7","6","6","7","7","7","7","7","7","6","7","7","7","7","7","7","6","6","598867196789129216","郭","361","Male","[""好我"",""坏我"",""坏他"",""好他""]","[""强我"",""弱我"",""弱他"",""强他""]","","","","","","","","no","","","","","","","","","SRET","EW_formal","","key","f","16.665137614678898","768","428","自己","独断","Negative","ability","","","","","","","","","","",""
"455","","j","psychophysics","68","233300","0.0-7.0-3.0-0.54","7","6","7","7","6","5","5","5","5","5","5","2","1","1","2","1","2","2","2","5","5","5","5","4","5","4","4","4","5","6","6","5","7","6","5","6","6","6","6","7","6","7","7","7","5","1","6","7","1","6","6","7","6","7","6","6","7","6","7","6","7","7","6","6","7","7","7","7","7","7","6","7","7","7","7","7","7","6","6","598867196789129216","郭","361","Male","[""好我"",""坏我"",""坏他"",""好他""]","[""强我"",""弱我"",""弱他"",""强他""]","","","","","","","","yes","","","","","","","","","SRET","EW_formal","","key","j","16.665517241379245","768","428","朋友","诚信","Positive","morality","","","","","","","","","","",""
"607","","f","psychophysics","69","234908","0.0-7.0-3.0-0.55","7","6","7","7","6","5","5","5","5","5","5","2","1","1","2","1","2","2","2","5","5","5","5","4","5","4","4","4","5","6","6","5","7","6","5","6","6","6","6","7","6","7","7","7","5","1","6","7","1","6","6","7","6","7","6","6","7","6","7","6","7","7","6","6","7","7","7","7","7","7","6","7","7","7","7","7","7","6","6","598867196789129216","郭","361","Male","[""好我"",""坏我"",""坏他"",""好他""]","[""强我"",""弱我"",""弱他"",""强他""]","","","","","","","","no","","","","","","","","","SRET","EW_formal","","key","f","16.66526315789486","768","428","朋友","窝囊","Negative","ability","","","","","","","","","","",""
"575","","j","psychophysics","70","236484","0.0-7.0-3.0-0.56","7","6","7","7","6","5","5","5","5","5","5","2","1","1","2","1","2","2","2","5","5","5","5","4","5","4","4","4","5","6","6","5","7","6","5","6","6","6","6","7","6","7","7","7","5","1","6","7","1","6","6","7","6","7","6","6","7","6","7","6","7","7","6","6","7","7","7","7","7","7","6","7","7","7","7","7","7","6","6","598867196789129216","郭","361","Male","[""好我"",""坏我"",""坏他"",""好他""]","[""强我"",""弱我"",""弱他"",""强他""]","","","","","","","","yes","","","","","","","","","SRET","EW_formal","","key","j","16.664893617021278","768","428","自己","敬业","Positive","morality","","","","","","","","","","",""
"648","","f","psychophysics","71","238132","0.0-7.0-3.0-0.57","7","6","7","7","6","5","5","5","5","5","5","2","1","1","2","1","2","2","2","5","5","5","5","4","5","4","4","4","5","6","6","5","7","6","5","6","6","6","6","7","6","7","7","7","5","1","6","7","1","6","6","7","6","7","6","6","7","6","7","6","7","7","6","6","7","7","7","7","7","7","6","7","7","7","7","7","7","6","6","598867196789129216","郭","361","Male","[""好我"",""坏我"",""坏他"",""好他""]","[""强我"",""弱我"",""弱他"",""强他""]","","","","","","","","no","","","","","","","","","SRET","EW_formal","","key","f","16.6653061224491","768","428","自己","淫乱","Negative","morality","","","","","","","","","","",""
"582","","f","psychophysics","72","239716","0.0-7.0-3.0-0.58","7","6","7","7","6","5","5","5","5","5","5","2","1","1","2","1","2","2","2","5","5","5","5","4","5","4","4","4","5","6","6","5","7","6","5","6","6","6","6","7","6","7","7","7","5","1","6","7","1","6","6","7","6","7","6","6","7","6","7","6","7","7","6","6","7","7","7","7","7","7","6","7","7","7","7","7","7","6","6","598867196789129216","郭","361","Male","[""好我"",""坏我"",""坏他"",""好他""]","[""强我"",""弱我"",""弱他"",""强他""]","","","","","","","","no","","","","","","","","","SRET","EW_formal","","key","f","16.665957446808264","768","428","自己","缺德","Negative","morality","","","","","","","","","","",""
"1039","","j","psychophysics","73","241756","0.0-7.0-3.0-0.59","7","6","7","7","6","5","5","5","5","5","5","2","1","1","2","1","2","2","2","5","5","5","5","4","5","4","4","4","5","6","6","5","7","6","5","6","6","6","6","7","6","7","7","7","5","1","6","7","1","6","6","7","6","7","6","6","7","6","7","6","7","7","6","6","7","7","7","7","7","7","6","7","7","7","7","7","7","6","6","598867196789129216","郭","361","Male","[""好我"",""坏我"",""坏他"",""好他""]","[""强我"",""弱我"",""弱他"",""强他""]","","","","","","","","yes","","","","","","","","","SRET","EW_formal","","key","j","16.66363636363651","768","428","自己","淡泊","Positive","morality","","","","","","","","","","",""
"663","","f","psychophysics","74","243420","0.0-7.0-3.0-0.60","7","6","7","7","6","5","5","5","5","5","5","2","1","1","2","1","2","2","2","5","5","5","5","4","5","4","4","4","5","6","6","5","7","6","5","6","6","6","6","7","6","7","7","7","5","1","6","7","1","6","6","7","6","7","6","6","7","6","7","6","7","7","6","6","7","7","7","7","7","7","6","7","7","7","7","7","7","6","6","598867196789129216","郭","361","Male","[""好我"",""坏我"",""坏他"",""好他""]","[""强我"",""弱我"",""弱他"",""强他""]","","","","","","","","no","","","","","","","","","SRET","EW_formal","","key","f","16.664646464646346","768","428","朋友","不良","Negative","morality","","","","","","","","","","",""
"585","","j","psychophysics","75","245012","0.0-7.0-3.0-0.61","7","6","7","7","6","5","5","5","5","5","5","2","1","1","2","1","2","2","2","5","5","5","5","4","5","4","4","4","5","6","6","5","7","6","5","6","6","6","6","7","6","7","7","7","5","1","6","7","1","6","6","7","6","7","6","6","7","6","7","6","7","7","6","6","7","7","7","7","7","7","6","7","7","7","7","7","7","6","6","598867196789129216","郭","361","Male","[""好我"",""坏我"",""坏他"",""好他""]","[""强我"",""弱我"",""弱他"",""强他""]","","","","","","","","yes","","","","","","","","","SRET","EW_formal","","key","j","16.667368421052878","768","428","朋友","仁爱","Positive","morality","","","","","","","","","","",""
"510","","j","psychophysics","76","246524","0.0-7.0-3.0-0.62","7","6","7","7","6","5","5","5","5","5","5","2","1","1","2","1","2","2","2","5","5","5","5","4","5","4","4","4","5","6","6","5","7","6","5","6","6","6","6","7","6","7","7","7","5","1","6","7","1","6","6","7","6","7","6","6","7","6","7","6","7","7","6","6","7","7","7","7","7","7","6","7","7","7","7","7","7","6","6","598867196789129216","郭","361","Male","[""好我"",""坏我"",""坏他"",""好他""]","[""强我"",""弱我"",""弱他"",""强他""]","","","","","","","","yes","","","","","","","","","SRET","EW_formal","","key","j","16.664044943819963","768","428","朋友","能干","Positive","ability","","","","","","","","","","",""
"598","","j","psychophysics","77","248124","0.0-7.0-3.0-0.63","7","6","7","7","6","5","5","5","5","5","5","2","1","1","2","1","2","2","2","5","5","5","5","4","5","4","4","4","5","6","6","5","7","6","5","6","6","6","6","7","6","7","7","7","5","1","6","7","1","6","6","7","6","7","6","6","7","6","7","6","7","7","6","6","7","7","7","7","7","7","6","7","7","7","7","7","7","6","6","598867196789129216","郭","361","Male","[""好我"",""坏我"",""坏他"",""好他""]","[""强我"",""弱我"",""弱他"",""强他""]","","","","","","","","yes","","","","","","","","","SRET","EW_formal","","key","j","16.664210526315543","768","428","朋友","自律","Positive","ability","","","","","","","","","","",""
"591","","f","psychophysics","78","249716","0.0-7.0-3.0-0.64","7","6","7","7","6","5","5","5","5","5","5","2","1","1","2","1","2","2","2","5","5","5","5","4","5","4","4","4","5","6","6","5","7","6","5","6","6","6","6","7","6","7","7","7","5","1","6","7","1","6","6","7","6","7","6","6","7","6","7","6","7","7","6","6","7","7","7","7","7","7","6","7","7","7","7","7","7","6","6","598867196789129216","郭","361","Male","[""好我"",""坏我"",""坏他"",""好他""]","[""强我"",""弱我"",""弱他"",""强他""]","","","","","","","","no","","","","","","","","","SRET","EW_formal","","key","f","16.664210526315852","768","428","自己","弱智","Negative","ability","","","","","","","","","","",""
"542","","f","psychophysics","79","251260","0.0-7.0-3.0-0.65","7","6","7","7","6","5","5","5","5","5","5","2","1","1","2","1","2","2","2","5","5","5","5","4","5","4","4","4","5","6","6","5","7","6","5","6","6","6","6","7","6","7","7","7","5","1","6","7","1","6","6","7","6","7","6","6","7","6","7","6","7","7","6","6","7","7","7","7","7","7","6","7","7","7","7","7","7","6","6","598867196789129216","郭","361","Male","[""好我"",""坏我"",""坏他"",""好他""]","[""强我"",""弱我"",""弱他"",""强他""]","","","","","","","","no","","","","","","","","","SRET","EW_formal","","key","f","16.66630434782596","768","428","朋友","畏难","Negative","ability","","","","","","","","","","",""
"726","","f","psychophysics","80","252988","0.0-7.0-3.0-0.66","7","6","7","7","6","5","5","5","5","5","5","2","1","1","2","1","2","2","2","5","5","5","5","4","5","4","4","4","5","6","6","5","7","6","5","6","6","6","6","7","6","7","7","7","5","1","6","7","1","6","6","7","6","7","6","6","7","6","7","6","7","7","6","6","7","7","7","7","7","7","6","7","7","7","7","7","7","6","6","598867196789129216","郭","361","Male","[""好我"",""坏我"",""坏他"",""好他""]","[""强我"",""弱我"",""弱他"",""强他""]","","","","","","","","no","","","","","","","","","SRET","EW_formal","","key","f","16.664705882352827","768","428","自己","偏私","Negative","morality","","","","","","","","","","",""
"1158","","j","psychophysics","81","255148","0.0-7.0-3.0-0.67","7","6","7","7","6","5","5","5","5","5","5","2","1","1","2","1","2","2","2","5","5","5","5","4","5","4","4","4","5","6","6","5","7","6","5","6","6","6","6","7","6","7","7","7","5","1","6","7","1","6","6","7","6","7","6","6","7","6","7","6","7","7","6","6","7","7","7","7","7","7","6","7","7","7","7","7","7","6","6","598867196789129216","郭","361","Male","[""好我"",""坏我"",""坏他"",""好他""]","[""强我"",""弱我"",""弱他"",""强他""]","","","","","","","","yes","","","","","","","","","SRET","EW_formal","","key","j","16.664341085271182","768","428","朋友","果决","Positive","ability","","","","","","","","","","",""
"591","","f","psychophysics","82","256740","0.0-7.0-3.0-0.68","7","6","7","7","6","5","5","5","5","5","5","2","1","1","2","1","2","2","2","5","5","5","5","4","5","4","4","4","5","6","6","5","7","6","5","6","6","6","6","7","6","7","7","7","5","1","6","7","1","6","6","7","6","7","6","6","7","6","7","6","7","7","6","6","7","7","7","7","7","7","6","7","7","7","7","7","7","6","6","598867196789129216","郭","361","Male","[""好我"",""坏我"",""坏他"",""好他""]","[""强我"",""弱我"",""弱他"",""强他""]","","","","","","","","no","","","","","","","","","SRET","EW_formal","","key","f","16.66382978723398","768","428","自己","毛糙","Negative","ability","","","","","","","","","","",""
"598","","f","psychophysics","83","258340","0.0-7.0-3.0-0.69","7","6","7","7","6","5","5","5","5","5","5","2","1","1","2","1","2","2","2","5","5","5","5","4","5","4","4","4","5","6","6","5","7","6","5","6","6","6","6","7","6","7","7","7","5","1","6","7","1","6","6","7","6","7","6","6","7","6","7","6","7","7","6","6","7","7","7","7","7","7","6","7","7","7","7","7","7","6","6","598867196789129216","郭","361","Male","[""好我"",""坏我"",""坏他"",""好他""]","[""强我"",""弱我"",""弱他"",""强他""]","","","","","","","","no","","","","","","","","","SRET","EW_formal","","key","f","16.665263157894554","768","428","自己","远见","Positive","ability","","","","","","","","","","",""
"1087","","f","psychophysics","84","260428","0.0-7.0-3.0-0.70","7","6","7","7","6","5","5","5","5","5","5","2","1","1","2","1","2","2","2","5","5","5","5","4","5","4","4","4","5","6","6","5","7","6","5","6","6","6","6","7","6","7","7","7","5","1","6","7","1","6","6","7","6","7","6","6","7","6","7","6","7","7","6","6","7","7","7","7","7","7","6","7","7","7","7","7","7","6","6","598867196789129216","郭","361","Male","[""好我"",""坏我"",""坏他"",""好他""]","[""强我"",""弱我"",""弱他"",""强他""]","","","","","","","","no","","","","","","","","","SRET","EW_formal","","key","f","16.664800000000046","768","428","自己","恶劣","Negative","morality","","","","","","","","","","",""
"790","","j","psychophysics","85","262220","0.0-7.0-3.0-0.71","7","6","7","7","6","5","5","5","5","5","5","2","1","1","2","1","2","2","2","5","5","5","5","4","5","4","4","4","5","6","6","5","7","6","5","6","6","6","6","7","6","7","7","7","5","1","6","7","1","6","6","7","6","7","6","6","7","6","7","6","7","7","6","6","7","7","7","7","7","7","6","7","7","7","7","7","7","6","6","598867196789129216","郭","361","Male","[""好我"",""坏我"",""坏他"",""好他""]","[""强我"",""弱我"",""弱他"",""强他""]","","","","","","","","yes","","","","","","","","","SRET","EW_formal","","key","j","16.666037735849113","768","428","朋友","勤恳","Positive","morality","","","","","","","","","","",""
"791","","f","psychophysics","86","264012","0.0-7.0-3.0-0.72","7","6","7","7","6","5","5","5","5","5","5","2","1","1","2","1","2","2","2","5","5","5","5","4","5","4","4","4","5","6","6","5","7","6","5","6","6","6","6","7","6","7","7","7","5","1","6","7","1","6","6","7","6","7","6","6","7","6","7","6","7","7","6","6","7","7","7","7","7","7","6","7","7","7","7","7","7","6","6","598867196789129216","郭","361","Male","[""好我"",""坏我"",""坏他"",""好他""]","[""强我"",""弱我"",""弱他"",""强他""]","","","","","","","","no","","","","","","","","","SRET","EW_formal","","key","f","16.666355140186806","768","428","自己","蛇蝎","Negative","morality","","","","","","","","","","",""
"568","","j","psychophysics","87","265580","0.0-7.0-3.0-0.73","7","6","7","7","6","5","5","5","5","5","5","2","1","1","2","1","2","2","2","5","5","5","5","4","5","4","4","4","5","6","6","5","7","6","5","6","6","6","6","7","6","7","7","7","5","1","6","7","1","6","6","7","6","7","6","6","7","6","7","6","7","7","6","6","7","7","7","7","7","7","6","7","7","7","7","7","7","6","6","598867196789129216","郭","361","Male","[""好我"",""坏我"",""坏他"",""好他""]","[""强我"",""弱我"",""弱他"",""强他""]","","","","","","","","yes","","","","","","","","","SRET","EW_formal","","key","j","16.664516129032133","768","428","朋友","毅力","Positive","ability","","","","","","","","","","",""
"638","","f","psychophysics","88","267220","0.0-7.0-3.0-0.74","7","6","7","7","6","5","5","5","5","5","5","2","1","1","2","1","2","2","2","5","5","5","5","4","5","4","4","4","5","6","6","5","7","6","5","6","6","6","6","7","6","7","7","7","5","1","6","7","1","6","6","7","6","7","6","6","7","6","7","6","7","7","6","6","7","7","7","7","7","7","6","7","7","7","7","7","7","6","6","598867196789129216","郭","361","Male","[""好我"",""坏我"",""坏他"",""好他""]","[""强我"",""弱我"",""弱他"",""强他""]","","","","","","","","no","","","","","","","","","SRET","EW_formal","","key","f","16.662886597938023","768","428","自己","失信","Negative","morality","","","","","","","","","","",""
"759","","f","psychophysics","89","268980","0.0-7.0-3.0-0.75","7","6","7","7","6","5","5","5","5","5","5","2","1","1","2","1","2","2","2","5","5","5","5","4","5","4","4","4","5","6","6","5","7","6","5","6","6","6","6","7","6","7","7","7","5","1","6","7","1","6","6","7","6","7","6","6","7","6","7","6","7","7","6","6","7","7","7","7","7","7","6","7","7","7","7","7","7","6","6","598867196789129216","郭","361","Male","[""好我"",""坏我"",""坏他"",""好他""]","[""强我"",""弱我"",""弱他"",""强他""]","","","","","","","","no","","","","","","","","","SRET","EW_formal","","key","f","16.666666666666668","768","428","自己","外行","Negative","ability","","","","","","","","","","",""
"934","","f","psychophysics","90","270916","0.0-7.0-3.0-0.76","7","6","7","7","6","5","5","5","5","5","5","2","1","1","2","1","2","2","2","5","5","5","5","4","5","4","4","4","5","6","6","5","7","6","5","6","6","6","6","7","6","7","7","7","5","1","6","7","1","6","6","7","6","7","6","6","7","6","7","6","7","7","6","6","7","7","7","7","7","7","6","7","7","7","7","7","7","6","6","598867196789129216","郭","361","Male","[""好我"",""坏我"",""坏他"",""好他""]","[""强我"",""弱我"",""弱他"",""强他""]","","","","","","","","no","","","","","","","","","SRET","EW_formal","","key","f","16.666086956522044","768","428","自己","才尽","Negative","ability","","","","","","","","","","",""
"863","","f","psychophysics","91","272780","0.0-7.0-3.0-0.77","7","6","7","7","6","5","5","5","5","5","5","2","1","1","2","1","2","2","2","5","5","5","5","4","5","4","4","4","5","6","6","5","7","6","5","6","6","6","6","7","6","7","7","7","5","1","6","7","1","6","6","7","6","7","6","6","7","6","7","6","7","7","6","6","7","7","7","7","7","7","6","7","7","7","7","7","7","6","6","598867196789129216","郭","361","Male","[""好我"",""坏我"",""坏他"",""好他""]","[""强我"",""弱我"",""弱他"",""强他""]","","","","","","","","no","","","","","","","","","SRET","EW_formal","","key","f","16.665765765765975","768","428","朋友","诡诈","Negative","morality","","","","","","","","","","",""
"663","","j","psychophysics","92","274444","0.0-7.0-3.0-0.78","7","6","7","7","6","5","5","5","5","5","5","2","1","1","2","1","2","2","2","5","5","5","5","4","5","4","4","4","5","6","6","5","7","6","5","6","6","6","6","7","6","7","7","7","5","1","6","7","1","6","6","7","6","7","6","6","7","6","7","6","7","7","6","6","7","7","7","7","7","7","6","7","7","7","7","7","7","6","6","598867196789129216","郭","361","Male","[""好我"",""坏我"",""坏他"",""好他""]","[""强我"",""弱我"",""弱他"",""强他""]","","","","","","","","yes","","","","","","","","","SRET","EW_formal","","key","j","16.664646464646346","768","428","朋友","守法","Positive","morality","","","","","","","","","","",""
"559","","f","psychophysics","93","276004","0.0-7.0-3.0-0.79","7","6","7","7","6","5","5","5","5","5","5","2","1","1","2","1","2","2","2","5","5","5","5","4","5","4","4","4","5","6","6","5","7","6","5","6","6","6","6","7","6","7","7","7","5","1","6","7","1","6","6","7","6","7","6","6","7","6","7","6","7","7","6","6","7","7","7","7","7","7","6","7","7","7","7","7","7","6","6","598867196789129216","郭","361","Male","[""好我"",""坏我"",""坏他"",""好他""]","[""强我"",""弱我"",""弱他"",""强他""]","","","","","","","","no","","","","","","","","","SRET","EW_formal","","key","f","16.665217391304473","768","428","朋友","狡狯","Negative","morality","","","","","","","","","","",""
"676","","f","psychophysics","94","277684","0.0-7.0-3.0-0.80","7","6","7","7","6","5","5","5","5","5","5","2","1","1","2","1","2","2","2","5","5","5","5","4","5","4","4","4","5","6","6","5","7","6","5","6","6","6","6","7","6","7","7","7","5","1","6","7","1","6","6","7","6","7","6","6","7","6","7","6","7","7","6","6","7","7","7","7","7","7","6","7","7","7","7","7","7","6","6","598867196789129216","郭","361","Male","[""好我"",""坏我"",""坏他"",""好他""]","[""强我"",""弱我"",""弱他"",""强他""]","","","","","","","","no","","","","","","","","","SRET","EW_formal","","key","f","16.665999999999766","768","428","自己","拜金","Negative","morality","","","","","","","","","","",""
"1022","","f","psychophysics","95","279708","0.0-7.0-3.0-0.81","7","6","7","7","6","5","5","5","5","5","5","2","1","1","2","1","2","2","2","5","5","5","5","4","5","4","4","4","5","6","6","5","7","6","5","6","6","6","6","7","6","7","7","7","5","1","6","7","1","6","6","7","6","7","6","6","7","6","7","6","7","7","6","6","7","7","7","7","7","7","6","7","7","7","7","7","7","6","6","598867196789129216","郭","361","Male","[""好我"",""坏我"",""坏他"",""好他""]","[""强我"",""弱我"",""弱他"",""强他""]","","","","","","","","no","","","","","","","","","SRET","EW_formal","","key","f","16.663636363636268","768","428","朋友","刻薄","Negative","morality","","","","","","","","","","",""
"567","","f","psychophysics","96","281276","0.0-7.0-3.0-0.82","7","6","7","7","6","5","5","5","5","5","5","2","1","1","2","1","2","2","2","5","5","5","5","4","5","4","4","4","5","6","6","5","7","6","5","6","6","6","6","7","6","7","7","7","5","1","6","7","1","6","6","7","6","7","6","6","7","6","7","6","7","7","6","6","7","7","7","7","7","7","6","7","7","7","7","7","7","6","6","598867196789129216","郭","361","Male","[""好我"",""坏我"",""坏他"",""好他""]","[""强我"",""弱我"",""弱他"",""强他""]","","","","","","","","no","","","","","","","","","SRET","EW_formal","","key","f","16.663440860214553","768","428","朋友","昏庸","Negative","ability","","","","","","","","","","",""
"559","","j","psychophysics","97","282836","0.0-7.0-3.0-0.83","7","6","7","7","6","5","5","5","5","5","5","2","1","1","2","1","2","2","2","5","5","5","5","4","5","4","4","4","5","6","6","5","7","6","5","6","6","6","6","7","6","7","7","7","5","1","6","7","1","6","6","7","6","7","6","6","7","6","7","6","7","7","6","6","7","7","7","7","7","7","6","7","7","7","7","7","7","6","6","598867196789129216","郭","361","Male","[""好我"",""坏我"",""坏他"",""好他""]","[""强我"",""弱我"",""弱他"",""强他""]","","","","","","","","yes","","","","","","","","","SRET","EW_formal","","key","j","16.664130434782354","768","428","朋友","忠诚","Positive","morality","","","","","","","","","","",""
"654","","j","psychophysics","98","284492","0.0-7.0-3.0-0.84","7","6","7","7","6","5","5","5","5","5","5","2","1","1","2","1","2","2","2","5","5","5","5","4","5","4","4","4","5","6","6","5","7","6","5","6","6","6","6","7","6","7","7","7","5","1","6","7","1","6","6","7","6","7","6","6","7","6","7","6","7","7","6","6","7","7","7","7","7","7","6","7","7","7","7","7","7","6","6","598867196789129216","郭","361","Male","[""好我"",""坏我"",""坏他"",""好他""]","[""强我"",""弱我"",""弱他"",""强他""]","","","","","","","","yes","","","","","","","","","SRET","EW_formal","","key","j","16.664646464646935","768","428","朋友","素养","Positive","morality","","","","","","","","","","",""
"575","","f","psychophysics","99","286068","0.0-7.0-3.0-0.85","7","6","7","7","6","5","5","5","5","5","5","2","1","1","2","1","2","2","2","5","5","5","5","4","5","4","4","4","5","6","6","5","7","6","5","6","6","6","6","7","6","7","7","7","5","1","6","7","1","6","6","7","6","7","6","6","7","6","7","6","7","7","6","6","7","7","7","7","7","7","6","7","7","7","7","7","7","6","6","598867196789129216","郭","361","Male","[""好我"",""坏我"",""坏他"",""好他""]","[""强我"",""弱我"",""弱他"",""强他""]","","","","","","","","no","","","","","","","","","SRET","EW_formal","","key","f","16.664516129032133","768","428","自己","缓慢","Negative","ability","","","","","","","","","","",""
"822","","j","psychophysics","100","287892","0.0-7.0-3.0-0.86","7","6","7","7","6","5","5","5","5","5","5","2","1","1","2","1","2","2","2","5","5","5","5","4","5","4","4","4","5","6","6","5","7","6","5","6","6","6","6","7","6","7","7","7","5","1","6","7","1","6","6","7","6","7","6","6","7","6","7","6","7","7","6","6","7","7","7","7","7","7","6","7","7","7","7","7","7","6","6","598867196789129216","郭","361","Male","[""好我"",""坏我"",""坏他"",""好他""]","[""强我"",""弱我"",""弱他"",""强他""]","","","","","","","","yes","","","","","","","","","SRET","EW_formal","","key","j","16.663302752294005","768","428","自己","主见","Positive","ability","","","","","","","","","","",""
"902","","f","psychophysics","101","289795","0.0-7.0-3.0-0.87","7","6","7","7","6","5","5","5","5","5","5","2","1","1","2","1","2","2","2","5","5","5","5","4","5","4","4","4","5","6","6","5","7","6","5","6","6","6","6","7","6","7","7","7","5","1","6","7","1","6","6","7","6","7","6","6","7","6","7","6","7","7","6","6","7","7","7","7","7","7","6","7","7","7","7","7","7","6","6","598867196789129216","郭","361","Male","[""好我"",""坏我"",""坏他"",""好他""]","[""强我"",""弱我"",""弱他"",""强他""]","","","","","","","","no","","","","","","","","","SRET","EW_formal","","key","f","16.664601769911812","768","428","朋友","低俗","Negative","morality","","","","","","","","","","",""
"65440","
    <p><div style='color:white;font-size:35px; line-height:20px;'>计算任务</div></p><br>
    <p><div style='color:red;font-size:25px; line-height:20px;'>接下来，您将看到一些四则运算题，<b>请从键盘选择 0-9 进行反应。</b></div></p>
    <p><div style='color:red;font-size:25px; line-height:20px;'>请尽可能快地进行计算，计算的速度和正确率将影响报酬的发放。</div></p>
    <p><div class='footer' style='color:white;font-size:25px; line-height:20px;'>如果对本实验还有不清楚之处，请立即向实验员咨询。</p><p style='color:white;font-size:25px; line-height:20px;'>如果您明白了规则：</p><p style='color:white;font-size:22px; line-height:20px;'>请按 继续 进入练习</p>
    </div>
    ","0","html-button-response","102","355236","0.0-7.0-4.0","7","6","7","7","6","5","5","5","5","5","5","2","1","1","2","1","2","2","2","5","5","5","5","4","5","4","4","4","5","6","6","5","7","6","5","6","6","6","6","7","6","7","7","7","5","1","6","7","1","6","6","7","6","7","6","6","7","6","7","6","7","7","6","6","7","7","7","7","7","7","6","7","7","7","7","7","7","6","6","598867196789129216","郭","361","Male","[""好我"",""坏我"",""坏他"",""好他""]","[""强我"",""弱我"",""弱他"",""强他""]","","","","","","","","","","","","","","","","","SRET_math","math_instructions","Mon Dec 25 2023 10:42:15 GMT+0800 (中国标准时间)","","","","","","","","","","","","","","","","","","","",""
"1662","","3","psychophysics","103","356900","0.0-7.0-5.0-0.0","7","6","7","7","6","5","5","5","5","5","5","2","1","1","2","1","2","2","2","5","5","5","5","4","5","4","4","4","5","6","6","5","7","6","5","6","6","6","6","7","6","7","7","7","5","1","6","7","1","6","6","7","6","7","6","6","7","6","7","6","7","7","6","6","7","7","7","7","7","7","6","7","7","7","7","7","7","6","6","598867196789129216","郭","361","Male","[""好我"",""坏我"",""坏他"",""好他""]","[""强我"",""弱我"",""弱他"",""强他""]","","","","","","","","3","","","","","","","","","SRET","SRET_math_calculate","","key","3","16.664000000000232","768","428","","","","","1+2= ?","3","1","","","","","","","",""
"1799","","8","psychophysics","104","358700","0.0-7.0-5.0-0.1","7","6","7","7","6","5","5","5","5","5","5","2","1","1","2","1","2","2","2","5","5","5","5","4","5","4","4","4","5","6","6","5","7","6","5","6","6","6","6","7","6","7","7","7","5","1","6","7","1","6","6","7","6","7","6","6","7","6","7","6","7","7","6","6","7","7","7","7","7","7","6","7","7","7","7","7","7","6","6","598867196789129216","郭","361","Male","[""好我"",""坏我"",""坏他"",""好他""]","[""强我"",""弱我"",""弱他"",""强他""]","","","","","","","","8","","","","","","","","","SRET","SRET_math_calculate","","key","8","16.66355140186916","768","428","","","","","4+4= ?","8","1","","","","","","","",""
"1727","","6","psychophysics","105","360428","0.0-7.0-5.0-0.2","7","6","7","7","6","5","5","5","5","5","5","2","1","1","2","1","2","2","2","5","5","5","5","4","5","4","4","4","5","6","6","5","7","6","5","6","6","6","6","7","6","7","7","7","5","1","6","7","1","6","6","7","6","7","6","6","7","6","7","6","7","7","6","6","7","7","7","7","7","7","6","7","7","7","7","7","7","6","6","598867196789129216","郭","361","Male","[""好我"",""坏我"",""坏他"",""好他""]","[""强我"",""弱我"",""弱他"",""强他""]","","","","","","","","6","","","","","","","","","SRET","SRET_math_calculate","","key","6","16.664705882352827","768","428","","","","","4+2= ?","6","1","","","","","","","",""
"1599","","6","psychophysics","106","362028","0.0-7.0-5.0-0.3","7","6","7","7","6","5","5","5","5","5","5","2","1","1","2","1","2","2","2","5","5","5","5","4","5","4","4","4","5","6","6","5","7","6","5","6","6","6","6","7","6","7","7","7","5","1","6","7","1","6","6","7","6","7","6","6","7","6","7","6","7","7","6","6","7","7","7","7","7","7","6","7","7","7","7","7","7","6","6","598867196789129216","郭","361","Male","[""好我"",""坏我"",""坏他"",""好他""]","[""强我"",""弱我"",""弱他"",""强他""]","","","","","","","","6","","","","","","","","","SRET","SRET_math_calculate","","key","6","16.66631578947356","768","428","","","","","2+4= ?","6","1","","","","","","","",""
"1775","","5","psychophysics","107","363804","0.0-7.0-5.0-0.4","7","6","7","7","6","5","5","5","5","5","5","2","1","1","2","1","2","2","2","5","5","5","5","4","5","4","4","4","5","6","6","5","7","6","5","6","6","6","6","7","6","7","7","7","5","1","6","7","1","6","6","7","6","7","6","6","7","6","7","6","7","7","6","6","7","7","7","7","7","7","6","7","7","7","7","7","7","6","6","598867196789129216","郭","361","Male","[""好我"",""坏我"",""坏他"",""好他""]","[""强我"",""弱我"",""弱他"",""强他""]","","","","","","","","5","","","","","","","","","SRET","SRET_math_calculate","","key","5","16.664150943395896","768","428","","","","","9-4= ?","5","1","","","","","","","",""
"1599","","8","psychophysics","108","365404","0.0-7.0-5.0-0.5","7","6","7","7","6","5","5","5","5","5","5","2","1","1","2","1","2","2","2","5","5","5","5","4","5","4","4","4","5","6","6","5","7","6","5","6","6","6","6","7","6","7","7","7","5","1","6","7","1","6","6","7","6","7","6","6","7","6","7","6","7","7","6","6","7","7","7","7","7","7","6","7","7","7","7","7","7","6","6","598867196789129216","郭","361","Male","[""好我"",""坏我"",""坏他"",""好他""]","[""强我"",""弱我"",""弱他"",""强他""]","","","","","","","","8","","","","","","","","","SRET","SRET_math_calculate","","key","8","16.664210526315543","768","428","","","","","3+5= ?","8","1","","","","","","","",""
"2063","","3","psychophysics","109","367468","0.0-7.0-5.0-0.6","7","6","7","7","6","5","5","5","5","5","5","2","1","1","2","1","2","2","2","5","5","5","5","4","5","4","4","4","5","6","6","5","7","6","5","6","6","6","6","7","6","7","7","7","5","1","6","7","1","6","6","7","6","7","6","6","7","6","7","6","7","7","6","6","7","7","7","7","7","7","6","7","7","7","7","7","7","6","6","598867196789129216","郭","361","Male","[""好我"",""坏我"",""坏他"",""好他""]","[""强我"",""弱我"",""弱他"",""强他""]","","","","","","","","3","","","","","","","","","SRET","SRET_math_calculate","","key","3","16.665040650406883","768","428","","","","","21/7=  ?","3","1","","","","","","","",""
"1695","","7","psychophysics","110","369164","0.0-7.0-5.0-0.7","7","6","7","7","6","5","5","5","5","5","5","2","1","1","2","1","2","2","2","5","5","5","5","4","5","4","4","4","5","6","6","5","7","6","5","6","6","6","6","7","6","7","7","7","5","1","6","7","1","6","6","7","6","7","6","6","7","6","7","6","7","7","6","6","7","7","7","7","7","7","6","7","7","7","7","7","7","6","6","598867196789129216","郭","361","Male","[""好我"",""坏我"",""坏他"",""好他""]","[""强我"",""弱我"",""弱他"",""强他""]","","","","","","","","7","","","","","","","","","SRET","SRET_math_calculate","","key","7","16.666336633663253","768","428","","","","","8-1= ?","7","1","","","","","","","",""
"1687","","7","psychophysics","111","370852","0.0-7.0-5.0-0.8","7","6","7","7","6","5","5","5","5","5","5","2","1","1","2","1","2","2","2","5","5","5","5","4","5","4","4","4","5","6","6","5","7","6","5","6","6","6","6","7","6","7","7","7","5","1","6","7","1","6","6","7","6","7","6","6","7","6","7","6","7","7","6","6","7","7","7","7","7","7","6","7","7","7","7","7","7","6","6","598867196789129216","郭","361","Male","[""好我"",""坏我"",""坏他"",""好他""]","[""强我"",""弱我"",""弱他"",""强他""]","","","","","","","","7","","","","","","","","","SRET","SRET_math_calculate","","key","7","16.667000000000115","768","428","","","","","6+1= ?","7","1","","","","","","","",""
"2824","","8","psychophysics","112","373676","0.0-7.0-5.0-0.9","7","6","7","7","6","5","5","5","5","5","5","2","1","1","2","1","2","2","2","5","5","5","5","4","5","4","4","4","5","6","6","5","7","6","5","6","6","6","6","7","6","7","7","7","5","1","6","7","1","6","6","7","6","7","6","6","7","6","7","6","7","7","6","6","7","7","7","7","7","7","6","7","7","7","7","7","7","6","6","598867196789129216","郭","361","Male","[""好我"",""坏我"",""坏他"",""好他""]","[""强我"",""弱我"",""弱他"",""强他""]","","","","","","","","8","","","","","","","","","SRET","SRET_math_calculate","","key","8","16.664285714285576","768","428","","","","","72/9= ?","8","1","","","","","","","",""
"1831","","0","psychophysics","113","375508","0.0-7.0-5.0-0.10","7","6","7","7","6","5","5","5","5","5","5","2","1","1","2","1","2","2","2","5","5","5","5","4","5","4","4","4","5","6","6","5","7","6","5","6","6","6","6","7","6","7","7","7","5","1","6","7","1","6","6","7","6","7","6","6","7","6","7","6","7","7","6","6","7","7","7","7","7","7","6","7","7","7","7","7","7","6","6","598867196789129216","郭","361","Male","[""好我"",""坏我"",""坏他"",""好他""]","[""强我"",""弱我"",""弱他"",""强他""]","","","","","","","","0","","","","","","","","","SRET","SRET_math_calculate","","key","0","16.664220183485916","768","428","","","","","7*0= ?","0","1","","","","","","","",""
"1895","","0","psychophysics","114","377404","0.0-7.0-5.0-0.11","7","6","7","7","6","5","5","5","5","5","5","2","1","1","2","1","2","2","2","5","5","5","5","4","5","4","4","4","5","6","6","5","7","6","5","6","6","6","6","7","6","7","7","7","5","1","6","7","1","6","6","7","6","7","6","6","7","6","7","6","7","7","6","6","7","7","7","7","7","7","6","7","7","7","7","7","7","6","6","598867196789129216","郭","361","Male","[""好我"",""坏我"",""坏他"",""好他""]","[""强我"",""弱我"",""弱他"",""强他""]","","","","","","","","0","","","","","","","","","SRET","SRET_math_calculate","","key","0","16.666371681415825","768","428","","","","","1-1= ?","0","1","","","","","","","",""
"1855","","9","psychophysics","115","379260","0.0-7.0-5.0-0.12","7","6","7","7","6","5","5","5","5","5","5","2","1","1","2","1","2","2","2","5","5","5","5","4","5","4","4","4","5","6","6","5","7","6","5","6","6","6","6","7","6","7","7","7","5","1","6","7","1","6","6","7","6","7","6","6","7","6","7","6","7","7","6","6","7","7","7","7","7","7","6","7","7","7","7","7","7","6","6","598867196789129216","郭","361","Male","[""好我"",""坏我"",""坏他"",""好他""]","[""强我"",""弱我"",""弱他"",""强他""]","","","","","","","","9","","","","","","","","","SRET","SRET_math_calculate","","key","9","16.66545454545465","768","428","","","","","18/2= ?","9","1","","","","","","","",""
"1821","","3","psychophysics","116","381082","0.0-7.0-5.0-0.13","7","6","7","7","6","5","5","5","5","5","5","2","1","1","2","1","2","2","2","5","5","5","5","4","5","4","4","4","5","6","6","5","7","6","5","6","6","6","6","7","6","7","7","7","5","1","6","7","1","6","6","7","6","7","6","6","7","6","7","6","7","7","6","6","7","7","7","7","7","7","6","7","7","7","7","7","7","6","6","598867196789129216","郭","361","Male","[""好我"",""坏我"",""坏他"",""好他""]","[""强我"",""弱我"",""弱他"",""强他""]","","","","","","","","3","","","","","","","","","SRET","SRET_math_calculate","","key","3","16.666055045871346","768","428","","","","","3+0= ?","3","1","","","","","","","",""
"2049","","5","psychophysics","117","383132","0.0-7.0-5.0-0.14","7","6","7","7","6","5","5","5","5","5","5","2","1","1","2","1","2","2","2","5","5","5","5","4","5","4","4","4","5","6","6","5","7","6","5","6","6","6","6","7","6","7","7","7","5","1","6","7","1","6","6","7","6","7","6","6","7","6","7","6","7","7","6","6","7","7","7","7","7","7","6","7","7","7","7","7","7","6","6","598867196789129216","郭","361","Male","[""好我"",""坏我"",""坏他"",""好他""]","[""强我"",""弱我"",""弱他"",""强他""]","","","","","","","","5","","","","","","","","","SRET","SRET_math_calculate","","key","5","16.6655737704919","768","428","","","","","14-9= ?","5","1","","","","","","","",""
"1760","","5","psychophysics","118","384892","0.0-7.0-5.0-0.15","7","6","7","7","6","5","5","5","5","5","5","2","1","1","2","1","2","2","2","5","5","5","5","4","5","4","4","4","5","6","6","5","7","6","5","6","6","6","6","7","6","7","7","7","5","1","6","7","1","6","6","7","6","7","6","6","7","6","7","6","7","7","6","6","7","7","7","7","7","7","6","7","7","7","7","7","7","6","6","598867196789129216","郭","361","Male","[""好我"",""坏我"",""坏他"",""好他""]","[""强我"",""弱我"",""弱他"",""强他""]","","","","","","","","5","","","","","","","","","SRET","SRET_math_calculate","","key","5","16.66442307692285","768","428","","","","","4+1= ?","5","1","","","","","","","",""
"1687","","5","psychophysics","119","386580","0.0-7.0-5.0-0.16","7","6","7","7","6","5","5","5","5","5","5","2","1","1","2","1","2","2","2","5","5","5","5","4","5","4","4","4","5","6","6","5","7","6","5","6","6","6","6","7","6","7","7","7","5","1","6","7","1","6","6","7","6","7","6","6","7","6","7","6","7","7","6","6","7","7","7","7","7","7","6","7","7","7","7","7","7","6","6","598867196789129216","郭","361","Male","[""好我"",""坏我"",""坏他"",""好他""]","[""强我"",""弱我"",""弱他"",""强他""]","","","","","","","","5","","","","","","","","","SRET","SRET_math_calculate","","key","5","16.66534653465358","768","428","","","","","8-3= ? ","5","1","","","","","","","",""
"1807","","9","psychophysics","120","388388","0.0-7.0-5.0-0.17","7","6","7","7","6","5","5","5","5","5","5","2","1","1","2","1","2","2","2","5","5","5","5","4","5","4","4","4","5","6","6","5","7","6","5","6","6","6","6","7","6","7","7","7","5","1","6","7","1","6","6","7","6","7","6","6","7","6","7","6","7","7","6","6","7","7","7","7","7","7","6","7","7","7","7","7","7","6","6","598867196789129216","郭","361","Male","[""好我"",""坏我"",""坏他"",""好他""]","[""强我"",""弱我"",""弱他"",""强他""]","","","","","","","","9","","","","","","","","","SRET","SRET_math_calculate","","key","9","16.666355140186806","768","428","","","","","1+8= ?","9","1","","","","","","","",""
"1935","","1","psychophysics","121","390324","0.0-7.0-5.0-0.18","7","6","7","7","6","5","5","5","5","5","5","2","1","1","2","1","2","2","2","5","5","5","5","4","5","4","4","4","5","6","6","5","7","6","5","6","6","6","6","7","6","7","7","7","5","1","6","7","1","6","6","7","6","7","6","6","7","6","7","6","7","7","6","6","7","7","7","7","7","7","6","7","7","7","7","7","7","6","6","598867196789129216","郭","361","Male","[""好我"",""坏我"",""坏他"",""好他""]","[""强我"",""弱我"",""弱他"",""强他""]","","","","","","","","1","","","","","","","","","SRET","SRET_math_calculate","","key","1","16.664347826086654","768","428","","","","","4/4= ?","1","1","","","","","","","",""
"1711","","3","psychophysics","122","392036","0.0-7.0-5.0-0.19","7","6","7","7","6","5","5","5","5","5","5","2","1","1","2","1","2","2","2","5","5","5","5","4","5","4","4","4","5","6","6","5","7","6","5","6","6","6","6","7","6","7","7","7","5","1","6","7","1","6","6","7","6","7","6","6","7","6","7","6","7","7","6","6","7","7","7","7","7","7","6","7","7","7","7","7","7","6","6","598867196789129216","郭","361","Male","[""好我"",""坏我"",""坏他"",""好他""]","[""强我"",""弱我"",""弱他"",""强他""]","","","","","","","","3","","","","","","","","","SRET","SRET_math_calculate","","key","3","16.664705882352827","768","428","","","","","8-5= ?","3","1","","","","","","","",""
"1751","","7","psychophysics","123","393788","0.0-7.0-5.0-0.20","7","6","7","7","6","5","5","5","5","5","5","2","1","1","2","1","2","2","2","5","5","5","5","4","5","4","4","4","5","6","6","5","7","6","5","6","6","6","6","7","6","7","7","7","5","1","6","7","1","6","6","7","6","7","6","6","7","6","7","6","7","7","6","6","7","7","7","7","7","7","6","7","7","7","7","7","7","6","6","598867196789129216","郭","361","Male","[""好我"",""坏我"",""坏他"",""好他""]","[""强我"",""弱我"",""弱他"",""强他""]","","","","","","","","7","","","","","","","","","SRET","SRET_math_calculate","","key","7","16.66442307692285","768","428","","","","","7*1=  ?","7","1","","","","","","","",""
"1664","","0","psychophysics","124","395453","0.0-7.0-5.0-0.21","7","6","7","7","6","5","5","5","5","5","5","2","1","1","2","1","2","2","2","5","5","5","5","4","5","4","4","4","5","6","6","5","7","6","5","6","6","6","6","7","6","7","7","7","5","1","6","7","1","6","6","7","6","7","6","6","7","6","7","6","7","7","6","6","7","7","7","7","7","7","6","7","7","7","7","7","7","6","6","598867196789129216","郭","361","Male","[""好我"",""坏我"",""坏他"",""好他""]","[""强我"",""弱我"",""弱他"",""强他""]","","","","","","","","0","","","","","","","","","SRET","SRET_math_calculate","","key","0","16.662626262626617","768","428","","","","","9-9= ?","0","1","","","","","","","",""
"1862","","1","psychophysics","125","397316","0.0-7.0-5.0-0.22","7","6","7","7","6","5","5","5","5","5","5","2","1","1","2","1","2","2","2","5","5","5","5","4","5","4","4","4","5","6","6","5","7","6","5","6","6","6","6","7","6","7","7","7","5","1","6","7","1","6","6","7","6","7","6","6","7","6","7","6","7","7","6","6","7","7","7","7","7","7","6","7","7","7","7","7","7","6","6","598867196789129216","郭","361","Male","[""好我"",""坏我"",""坏他"",""好他""]","[""强我"",""弱我"",""弱他"",""强他""]","","","","","","","","1","","","","","","","","","SRET","SRET_math_calculate","","key","1","16.66396396396407","768","428","","","","","10-9= ?","1","1","","","","","","","",""
"1711","","9","psychophysics","126","399028","0.0-7.0-5.0-0.23","7","6","7","7","6","5","5","5","5","5","5","2","1","1","2","1","2","2","2","5","5","5","5","4","5","4","4","4","5","6","6","5","7","6","5","6","6","6","6","7","6","7","7","7","5","1","6","7","1","6","6","7","6","7","6","6","7","6","7","6","7","7","6","6","7","7","7","7","7","7","6","7","7","7","7","7","7","6","6","598867196789129216","郭","361","Male","[""好我"",""坏我"",""坏他"",""好他""]","[""强我"",""弱我"",""弱他"",""强他""]","","","","","","","","9","","","","","","","","","SRET","SRET_math_calculate","","key","9","16.66568627450946","768","428","","","","","7+2= ?","9","1","","","","","","","",""
"1783","","6","psychophysics","127","400812","0.0-7.0-5.0-0.24","7","6","7","7","6","5","5","5","5","5","5","2","1","1","2","1","2","2","2","5","5","5","5","4","5","4","4","4","5","6","6","5","7","6","5","6","6","6","6","7","6","7","7","7","5","1","6","7","1","6","6","7","6","7","6","6","7","6","7","6","7","7","6","6","7","7","7","7","7","7","6","7","7","7","7","7","7","6","6","598867196789129216","郭","361","Male","[""好我"",""坏我"",""坏他"",""好他""]","[""强我"",""弱我"",""弱他"",""强他""]","","","","","","","","6","","","","","","","","","SRET","SRET_math_calculate","","key","6","16.66509433962264","768","428","","","","","11-5= ?","6","1","","","","","","","",""
"1751","","2","psychophysics","128","402564","0.0-7.0-5.0-0.25","7","6","7","7","6","5","5","5","5","5","5","2","1","1","2","1","2","2","2","5","5","5","5","4","5","4","4","4","5","6","6","5","7","6","5","6","6","6","6","7","6","7","7","7","5","1","6","7","1","6","6","7","6","7","6","6","7","6","7","6","7","7","6","6","7","7","7","7","7","7","6","7","7","7","7","7","7","6","6","598867196789129216","郭","361","Male","[""好我"",""坏我"",""坏他"",""好他""]","[""强我"",""弱我"",""弱他"",""强他""]","","","","","","","","2","","","","","","","","","SRET","SRET_math_calculate","","key","2","16.664423076923413","768","428","","","","","29-27= ?","2","1","","","","","","","",""
"1687","","7","psychophysics","129","404252","0.0-7.0-5.0-0.26","7","6","7","7","6","5","5","5","5","5","5","2","1","1","2","1","2","2","2","5","5","5","5","4","5","4","4","4","5","6","6","5","7","6","5","6","6","6","6","7","6","7","7","7","5","1","6","7","1","6","6","7","6","7","6","6","7","6","7","6","7","7","6","6","7","7","7","7","7","7","6","7","7","7","7","7","7","6","6","598867196789129216","郭","361","Male","[""好我"",""坏我"",""坏他"",""好他""]","[""强我"",""弱我"",""弱他"",""强他""]","","","","","","","","7","","","","","","","","","SRET","SRET_math_calculate","","key","7","16.665","768","428","","","","","2+5= ?","7","1","","","","","","","",""
"1687","","8","psychophysics","130","405940","0.0-7.0-5.0-0.27","7","6","7","7","6","5","5","5","5","5","5","2","1","1","2","1","2","2","2","5","5","5","5","4","5","4","4","4","5","6","6","5","7","6","5","6","6","6","6","7","6","7","7","7","5","1","6","7","1","6","6","7","6","7","6","6","7","6","7","6","7","7","6","6","7","7","7","7","7","7","6","7","7","7","7","7","7","6","6","598867196789129216","郭","361","Male","[""好我"",""坏我"",""坏他"",""好他""]","[""强我"",""弱我"",""弱他"",""强他""]","","","","","","","","8","","","","","","","","","SRET","SRET_math_calculate","","key","8","16.665999999999766","768","428","","","","","1+7= ?","8","1","","","","","","","",""
"1943","","5","psychophysics","131","407884","0.0-7.0-5.0-0.28","7","6","7","7","6","5","5","5","5","5","5","2","1","1","2","1","2","2","2","5","5","5","5","4","5","4","4","4","5","6","6","5","7","6","5","6","6","6","6","7","6","7","7","7","5","1","6","7","1","6","6","7","6","7","6","6","7","6","7","6","7","7","6","6","7","7","7","7","7","7","6","7","7","7","7","7","7","6","6","598867196789129216","郭","361","Male","[""好我"",""坏我"",""坏他"",""好他""]","[""强我"",""弱我"",""弱他"",""强他""]","","","","","","","","5","","","","","","","","","SRET","SRET_math_calculate","","key","5","16.666379310344727","768","428","","","","","5/1= ?","5","1","","","","","","","",""
"1655","","6","psychophysics","132","409540","0.0-7.0-5.0-0.29","7","6","7","7","6","5","5","5","5","5","5","2","1","1","2","1","2","2","2","5","5","5","5","4","5","4","4","4","5","6","6","5","7","6","5","6","6","6","6","7","6","7","7","7","5","1","6","7","1","6","6","7","6","7","6","6","7","6","7","6","7","7","6","6","7","7","7","7","7","7","6","7","7","7","7","7","7","6","6","598867196789129216","郭","361","Male","[""好我"",""坏我"",""坏他"",""好他""]","[""强我"",""弱我"",""弱他"",""强他""]","","","","","","","","6","","","","","","","","","SRET","SRET_math_calculate","","key","6","16.664285714285477","768","428","","","","","5+1= ?","6","1","","","","","","","",""
"1743","","6","psychophysics","133","411284","0.0-7.0-5.0-0.30","7","6","7","7","6","5","5","5","5","5","5","2","1","1","2","1","2","2","2","5","5","5","5","4","5","4","4","4","5","6","6","5","7","6","5","6","6","6","6","7","6","7","7","7","5","1","6","7","1","6","6","7","6","7","6","6","7","6","7","6","7","7","6","6","7","7","7","7","7","7","6","7","7","7","7","7","7","6","6","598867196789129216","郭","361","Male","[""好我"",""坏我"",""坏他"",""好他""]","[""强我"",""弱我"",""弱他"",""强他""]","","","","","","","","6","","","","","","","","","SRET","SRET_math_calculate","","key","6","16.66442307692285","768","428","","","","","9-3= ?","6","1","","","","","","","",""
"1848","","1","psychophysics","134","413132","0.0-7.0-5.0-0.31","7","6","7","7","6","5","5","5","5","5","5","2","1","1","2","1","2","2","2","5","5","5","5","4","5","4","4","4","5","6","6","5","7","6","5","6","6","6","6","7","6","7","7","7","5","1","6","7","1","6","6","7","6","7","6","6","7","6","7","6","7","7","6","6","7","7","7","7","7","7","6","7","7","7","7","7","7","6","6","598867196789129216","郭","361","Male","[""好我"",""坏我"",""坏他"",""好他""]","[""强我"",""弱我"",""弱他"",""强他""]","","","","","","","","1","","","","","","","","","SRET","SRET_math_calculate","","key","1","16.66636363636406","768","428","","","","","30-29= ?","1","1","","","","","","","",""
"1991","","3","psychophysics","135","415124","0.0-7.0-5.0-0.32","7","6","7","7","6","5","5","5","5","5","5","2","1","1","2","1","2","2","2","5","5","5","5","4","5","4","4","4","5","6","6","5","7","6","5","6","6","6","6","7","6","7","7","7","5","1","6","7","1","6","6","7","6","7","6","6","7","6","7","6","7","7","6","6","7","7","7","7","7","7","6","7","7","7","7","7","7","6","6","598867196789129216","郭","361","Male","[""好我"",""坏我"",""坏他"",""好他""]","[""强我"",""弱我"",""弱他"",""强他""]","","","","","","","","3","","","","","","","","","SRET","SRET_math_calculate","","key","3","16.665254237288135","768","428","","","","","9/3= ?","3","1","","","","","","","",""
"1767","","9","psychophysics","136","416892","0.0-7.0-5.0-0.33","7","6","7","7","6","5","5","5","5","5","5","2","1","1","2","1","2","2","2","5","5","5","5","4","5","4","4","4","5","6","6","5","7","6","5","6","6","6","6","7","6","7","7","7","5","1","6","7","1","6","6","7","6","7","6","6","7","6","7","6","7","7","6","6","7","7","7","7","7","7","6","7","7","7","7","7","7","6","6","598867196789129216","郭","361","Male","[""好我"",""坏我"",""坏他"",""好他""]","[""强我"",""弱我"",""弱他"",""强他""]","","","","","","","","9","","","","","","","","","SRET","SRET_math_calculate","","key","9","16.666037735849386","768","428","","","","","3+6= ?","9","1","","","","","","","",""
"1975","","3","psychophysics","137","418868","0.0-7.0-5.0-0.34","7","6","7","7","6","5","5","5","5","5","5","2","1","1","2","1","2","2","2","5","5","5","5","4","5","4","4","4","5","6","6","5","7","6","5","6","6","6","6","7","6","7","7","7","5","1","6","7","1","6","6","7","6","7","6","6","7","6","7","6","7","7","6","6","7","7","7","7","7","7","6","7","7","7","7","7","7","6","6","598867196789129216","郭","361","Male","[""好我"",""坏我"",""坏他"",""好他""]","[""强我"",""弱我"",""弱他"",""强他""]","","","","","","","","3","","","","","","","","","SRET","SRET_math_calculate","","key","3","16.664102564102663","768","428","","","","","6/2= ?","3","1","","","","","","","",""
"1695","","8","psychophysics","138","420564","0.0-7.0-5.0-0.35","7","6","7","7","6","5","5","5","5","5","5","2","1","1","2","1","2","2","2","5","5","5","5","4","5","4","4","4","5","6","6","5","7","6","5","6","6","6","6","7","6","7","7","7","5","1","6","7","1","6","6","7","6","7","6","6","7","6","7","6","7","7","6","6","7","7","7","7","7","7","6","7","7","7","7","7","7","6","6","598867196789129216","郭","361","Male","[""好我"",""坏我"",""坏他"",""好他""]","[""强我"",""弱我"",""弱他"",""强他""]","","","","","","","","8","","","","","","","","","SRET","SRET_math_calculate","","key","8","16.66534653465358","768","428","","","","","2+6= ?","8","1","","","","","","","",""
"1823","","4","psychophysics","139","422388","0.0-7.0-5.0-0.36","7","6","7","7","6","5","5","5","5","5","5","2","1","1","2","1","2","2","2","5","5","5","5","4","5","4","4","4","5","6","6","5","7","6","5","6","6","6","6","7","6","7","7","7","5","1","6","7","1","6","6","7","6","7","6","6","7","6","7","6","7","7","6","6","7","7","7","7","7","7","6","7","7","7","7","7","7","6","6","598867196789129216","郭","361","Male","[""好我"",""坏我"",""坏他"",""好他""]","[""强我"",""弱我"",""弱他"",""强他""]","","","","","","","","4","","","","","","","","","SRET","SRET_math_calculate","","key","4","16.663888888888998","768","428","","","","","13-9= ?","4","1","","","","","","","",""
"1815","","7","psychophysics","140","424204","0.0-7.0-5.0-0.37","7","6","7","7","6","5","5","5","5","5","5","2","1","1","2","1","2","2","2","5","5","5","5","4","5","4","4","4","5","6","6","5","7","6","5","6","6","6","6","7","6","7","7","7","5","1","6","7","1","6","6","7","6","7","6","6","7","6","7","6","7","7","6","6","7","7","7","7","7","7","6","7","7","7","7","7","7","6","6","598867196789129216","郭","361","Male","[""好我"",""坏我"",""坏他"",""好他""]","[""强我"",""弱我"",""弱他"",""强他""]","","","","","","","","7","","","","","","","","","SRET","SRET_math_calculate","","key","7","16.663888888888998","768","428","","","","","3+4= ?","7","1","","","","","","","",""
"1791","","3","psychophysics","141","425996","0.0-7.0-5.0-0.38","7","6","7","7","6","5","5","5","5","5","5","2","1","1","2","1","2","2","2","5","5","5","5","4","5","4","4","4","5","6","6","5","7","6","5","6","6","6","6","7","6","7","7","7","5","1","6","7","1","6","6","7","6","7","6","6","7","6","7","6","7","7","6","6","7","7","7","7","7","7","6","7","7","7","7","7","7","6","6","598867196789129216","郭","361","Male","[""好我"",""坏我"",""坏他"",""好他""]","[""强我"",""弱我"",""弱他"",""强他""]","","","","","","","","3","","","","","","","","","SRET","SRET_math_calculate","","key","3","16.664485981308193","768","428","","","","","12/4= ?","3","1","","","","","","","",""
"1776","","0","psychophysics","142","427772","0.0-7.0-5.0-0.39","7","6","7","7","6","5","5","5","5","5","5","2","1","1","2","1","2","2","2","5","5","5","5","4","5","4","4","4","5","6","6","5","7","6","5","6","6","6","6","7","6","7","7","7","5","1","6","7","1","6","6","7","6","7","6","6","7","6","7","6","7","7","6","6","7","7","7","7","7","7","6","7","7","7","7","7","7","6","6","598867196789129216","郭","361","Male","[""好我"",""坏我"",""坏他"",""好他""]","[""强我"",""弱我"",""弱他"",""强他""]","","","","","","","","0","","","","","","","","","SRET","SRET_math_calculate","","key","0","16.664761904761793","768","428","","","","","32-32= ?","0","1","","","","","","","",""
"2031","","0","psychophysics","143","429804","0.0-7.0-5.0-0.40","7","6","7","7","6","5","5","5","5","5","5","2","1","1","2","1","2","2","2","5","5","5","5","4","5","4","4","4","5","6","6","5","7","6","5","6","6","6","6","7","6","7","7","7","5","1","6","7","1","6","6","7","6","7","6","6","7","6","7","6","7","7","6","6","7","7","7","7","7","7","6","7","7","7","7","7","7","6","6","598867196789129216","郭","361","Male","[""好我"",""坏我"",""坏他"",""好他""]","[""强我"",""弱我"",""弱他"",""强他""]","","","","","","","","0","","","","","","","","","SRET","SRET_math_calculate","","key","0","16.663636363636268","768","428","","","","","6*0= ?","0","1","","","","","","","",""
