"rt","stimulus","response","trial_type","trial_index","time_elapsed","internal_node_id","swb_1","swb_2","swb_3","swb_4","swb_5","LOT_1","LOT_2","LOT_3","LOT_4","LOT_5","LOT_6","IPC_1","IPC_2","IPC_3","IPC_4","IPC_5","IPC_6","IPC_7","IPC_8","MorIden_1","MorIden_2","MorIden_3","MorIden_4","MorIden_5","MorIden_6","MorIden_7","MorIden_8","MorIden_9","MorIden_10","moralSeImag_1","moralSeImag_2","moralSeImag_3","moralSeImag_4","moralSeImag_5","moralSeImag_6","moralSeImag_7","moralSeImag_8","moralSeImag_9","sde_1","sde_2","sde_3","sde_4","sde_5","sde_6","sde_7","sde_8","sde_9","sde_10","trap2","sde_11","sde_12","sde_13","sde_14","sde_15","sde_16","sde_17","sde_18","sde_19","sde_20","IM_1","IM_2","IM_3","IM_4","IM_5","IM_6","IM_7","IM_8","IM_9","IM_10","IM_11","IM_12","IM_13","IM_14","IM_15","IM_16","IM_17","IM_18","IM_19","IM_20","subj_idx","friend_name","ParticipantID","Sex","Word","Word2","value","success","timeout","failed_images","failed_audio","failed_video","user_agent","responses","item_order","radio_event_ids","radio_event_times","key_event_times","mouse_event_times","straightlining","zigzagging","honeypot","view_history","response_type","key_press","avg_frame_time","center_x","center_y","correct_response","correct","identity","Image","word","condition","task_id","screen_id","time_stamp","person","valence","domain","math","status","duration","question_order","trap2_item"
"8887","
   <p><div style='color:white; font-size: 25px'>您好，欢迎参加本次实验。</div></p>
   <p><div style='color:white; font-size: 25px'>为充分保障您的权利，请确保您已经知晓并同意《参与实验同意书》以及《数据公开知情同意书》。</div></p>
   <p><div style='color:white; font-size: 25px'>如果您未见过上述内容，请咨询实验员。</div></p>
   <p style='color:white; font-size: 25px'>如果您选择继续实验，则表示您已经清楚两份知情同意书的内容并同意。</p>
   <p><div style = ""color: pink;font-size:30px;"">请确保您记得day0的实验编号，您将在本次实验输入该编号，若您忘记，请咨询实验员后作答。</div></p>
   <p><div style = ""color:lightblue;font-size:25px;"">请您尽可能认真地作答，我们将依据您在各问卷和按键任务中的作答质量发放报酬。</div></p>
   <p> <div style = ""color: green""><按空格键至下页></div> </p>
   "," ","html-keyboard-response","0","8890","0.0-0.0","6","6","6","5","4","4","4","5","4","5","5","0","-1","1","1","1","1","-1","0","5","4","5","4","3","4","4","4","3","4","5","7","4","7","5","4","6","6","8","3","6","5","5","6","4","5","6","6","6","1","6","5","4","7","6","3","6","5","5","6","2","4","4","5","5","5","4","5","5","6","5","5","7","7","3","4","3","6","4","5","612753157184815104","孟","481","Male","[""好我"",""坏我"",""坏他"",""好他""]","[""强我"",""弱我"",""弱他"",""强他""]","","","","","","","","","","","","","","","","","","","","","","","","","","","","","","","","","","","","","","",""
"","","","call-function","1","8891","0.0-1.0-0.0","6","6","6","5","4","4","4","5","4","5","5","0","-1","1","1","1","1","-1","0","5","4","5","4","3","4","4","4","3","4","5","7","4","7","5","4","6","6","8","3","6","5","5","6","4","5","6","6","6","1","6","5","4","7","6","3","6","5","5","6","2","4","4","5","5","5","4","5","5","6","5","5","7","7","3","4","3","6","4","5","612753157184815104","孟","481","Male","[""好我"",""坏我"",""坏他"",""好他""]","[""强我"",""弱我"",""弱他"",""强他""]","","","","","","","","","","","","","","","","","","","","","","","","","","","","","","","","","","","","","","",""
"23530","","[{""name"":""friend_name"",""value"":""孟""},{""name"":""ParticipantID"",""value"":""481""}]","survey-html-form","2","32423","0.0-1.0-1.0","6","6","6","5","4","4","4","5","4","5","5","0","-1","1","1","1","1","-1","0","5","4","5","4","3","4","4","4","3","4","5","7","4","7","5","4","6","6","8","3","6","5","5","6","4","5","6","6","6","1","6","5","4","7","6","3","6","5","5","6","2","4","4","5","5","5","4","5","5","6","5","5","7","7","3","4","3","6","4","5","612753157184815104","孟","481","Male","[""好我"",""坏我"",""坏他"",""好他""]","[""强我"",""弱我"",""弱他"",""强他""]","","","","","","","","","","","","","","","","","","","","","","","","","","","","","","","","","","","","","","",""
"","","","preload","3","33081","0.0-2.0","6","6","6","5","4","4","4","5","4","5","5","0","-1","1","1","1","1","-1","0","5","4","5","4","3","4","4","4","3","4","5","7","4","7","5","4","6","6","8","3","6","5","5","6","4","5","6","6","6","1","6","5","4","7","6","3","6","5","5","6","2","4","4","5","5","5","4","5","5","6","5","5","7","7","3","4","3","6","4","5","612753157184815104","孟","481","Male","[""好我"",""坏我"",""坏他"",""好他""]","[""强我"",""弱我"",""弱他"",""强他""]","","true","false","[]","[]","[]","","","","","","","","","","","","","","","","","","","","","","","","","","","","","","","","",""
"","","","fullscreen","4","84507","0.0-3.0","6","6","6","5","4","4","4","5","4","5","5","0","-1","1","1","1","1","-1","0","5","4","5","4","3","4","4","4","3","4","5","7","4","7","5","4","6","6","8","3","6","5","5","6","4","5","6","6","6","1","6","5","4","7","6","3","6","5","5","6","2","4","4","5","5","5","4","5","5","6","5","5","7","7","3","4","3","6","4","5","612753157184815104","孟","481","Male","[""好我"",""坏我"",""坏他"",""好他""]","[""强我"",""弱我"",""弱他"",""强他""]","","true","","","","","{}","","","","","","","","","","","","","","","","","","","","","","","","","","","","","","","",""
"13187.899999976158","","{""Q01"":""6"",""Q02"":""6"",""Q03"":""6"",""Q04"":""5"",""Q05"":""4""}","survey-template","5","97697","0.0-4.0","6","6","6","5","4","4","4","5","4","5","5","0","-1","1","1","1","1","-1","0","5","4","5","4","3","4","4","4","3","4","5","7","4","7","5","4","6","6","8","3","6","5","5","6","4","5","6","6","6","1","6","5","4","7","6","3","6","5","5","6","2","4","4","5","5","5","4","5","5","6","5","5","7","7","3","4","3","6","4","5","612753157184815104","孟","481","Male","[""好我"",""坏我"",""坏他"",""好他""]","[""强我"",""弱我"",""弱他"",""强他""]","","","","","","","","{""Q01"":""6"",""Q02"":""6"",""Q03"":""6"",""Q04"":""5"",""Q05"":""4""}","[0,1,2,3,4]","[""Q01"",""Q02"",""Q03"",""Q04"",""Q05""]","[3749.100000023842,4677.299999952316,5894.700000047684,8919,11730.700000047684]","[]","[3749.100000023842,4677.299999952316,5894.700000047684,8919,11730.700000047684,13186.899999976158]","0.6","0.5","0","","","","","","","","","","","","","","","","","","","","","","",""
"22654.5","","{""Q01"":""4"",""Q02"":""4"",""Q03"":""5"",""Q04"":""4"",""Q05"":""5"",""Q06"":""5""}","survey-template","6","120356","0.0-5.0","6","6","6","5","4","4","4","5","4","5","5","0","-1","1","1","1","1","-1","0","5","4","5","4","3","4","4","4","3","4","5","7","4","7","5","4","6","6","8","3","6","5","5","6","4","5","6","6","6","1","6","5","4","7","6","3","6","5","5","6","2","4","4","5","5","5","4","5","5","6","5","5","7","7","3","4","3","6","4","5","612753157184815104","孟","481","Male","[""好我"",""坏我"",""坏他"",""好他""]","[""强我"",""弱我"",""弱他"",""强他""]","","","","","","","","{""Q01"":""4"",""Q02"":""4"",""Q03"":""5"",""Q04"":""4"",""Q05"":""5"",""Q06"":""5""}","[0,1,2,3,4,5]","[""Q01"",""Q02"",""Q03"",""Q04"",""Q05"",""Q06""]","[3547,7919.399999976158,11243.599999904633,16165.699999928474,16933.699999928474,21597]","[]","[3547,7919.399999976158,11243.599999904633,16165.699999928474,16933.699999928474,21597,22653.299999952316]","0.3333333333333333","0.4","0","","","","","","","","","","","","","","","","","","","","","","",""
"47715.10000002384","","{""Q01"":""0"",""Q02"":""-1"",""Q03"":""1"",""Q04"":""1"",""Q05"":""1"",""Q06"":""1"",""Q07"":""-1"",""Q08"":""0""}","survey-template","7","168075","0.0-6.0","6","6","6","5","4","4","4","5","4","5","5","0","-1","1","1","1","1","-1","0","5","4","5","4","3","4","4","4","3","4","5","7","4","7","5","4","6","6","8","3","6","5","5","6","4","5","6","6","6","1","6","5","4","7","6","3","6","5","5","6","2","4","4","5","5","5","4","5","5","6","5","5","7","7","3","4","3","6","4","5","612753157184815104","孟","481","Male","[""好我"",""坏我"",""坏他"",""好他""]","[""强我"",""弱我"",""弱他"",""强他""]","","","","","","","","{""Q01"":""0"",""Q02"":""-1"",""Q03"":""1"",""Q04"":""1"",""Q05"":""1"",""Q06"":""1"",""Q07"":""-1"",""Q08"":""0""}","[0,1,2,3,4,5,6,7]","[""Q01"",""Q02"",""Q03"",""Q05"",""Q04"",""Q06"",""Q07"",""Q08""]","[3353.399999976158,7260.799999952316,10051.699999928474,12674.699999928474,17199.799999952316,38975.199999928474,43110.799999952316,45736.799999952316]","[]","[3353.399999976158,7260.799999952316,10051.699999928474,12674.699999928474,17199.799999952316,38975.199999928474,43110.799999952316,45736.799999952316,47714.199999928474]","0.5","0.2857142857142857","0","","","","","","","","","","","","","","","","","","","","","","",""
"48174","","","instructions","8","216250","0.0-7.0","6","6","6","5","4","4","4","5","4","5","5","0","-1","1","1","1","1","-1","0","5","4","5","4","3","4","4","4","3","4","5","7","4","7","5","4","6","6","8","3","6","5","5","6","4","5","6","6","6","1","6","5","4","7","6","3","6","5","5","6","2","4","4","5","5","5","4","5","5","6","5","5","7","7","3","4","3","6","4","5","612753157184815104","孟","481","Male","[""好我"",""坏我"",""坏他"",""好他""]","[""强我"",""弱我"",""弱他"",""强他""]","","","","","","","","","","","","","","","","","[{""page_index"":0,""viewing_time"":48173}]","","","","","","","","","","","","","","","","","","","","","",""
"164950","","","instructions","9","381201","0.0-8.0-0.0-0.0","6","6","6","5","4","4","4","5","4","5","5","0","-1","1","1","1","1","-1","0","5","4","5","4","3","4","4","4","3","4","5","7","4","7","5","4","6","6","8","3","6","5","5","6","4","5","6","6","6","1","6","5","4","7","6","3","6","5","5","6","2","4","4","5","5","5","4","5","5","6","5","5","7","7","3","4","3","6","4","5","612753157184815104","孟","481","Male","[""好我"",""坏我"",""坏他"",""好他""]","[""强我"",""弱我"",""弱他"",""强他""]","","","","","","","","","","","","","","","","","[{""page_index"":0,""viewing_time"":36862},{""page_index"":1,""viewing_time"":119586},{""page_index"":2,""viewing_time"":6334},{""page_index"":3,""viewing_time"":2168}]","","","","","","","","","","","","","","","","","","","","","",""
"987","","f","psychophysics","10","383191","0.0-8.0-0.0-1.0-0.0-0.0","6","6","6","5","4","4","4","5","4","5","5","0","-1","1","1","1","1","-1","0","5","4","5","4","3","4","4","4","3","4","5","7","4","7","5","4","6","6","8","3","6","5","5","6","4","5","6","6","6","1","6","5","4","7","6","3","6","5","5","6","2","4","4","5","5","5","4","5","5","6","5","5","7","7","3","4","3","6","4","5","612753157184815104","孟","481","Male","[""好我"",""坏我"",""坏他"",""好他""]","[""强我"",""弱我"",""弱他"",""强他""]","","","","","","","","nonmatch","","","","","","","","","","key","f","16.666949152542472","720","476","f","true","nonmatch","img/pentagon.png","好我","坏他","prac_ALT2_moral","practice_moral","","","","","","","","",""
"null","<span style='color:GreenYellow; font-size: 70px;'>正确! </span>","null","html-keyboard-response","11","383692","0.0-8.0-0.0-1.0-0.0-1.0","6","6","6","5","4","4","4","5","4","5","5","0","-1","1","1","1","1","-1","0","5","4","5","4","3","4","4","4","3","4","5","7","4","7","5","4","6","6","8","3","6","5","5","6","4","5","6","6","6","1","6","5","4","7","6","3","6","5","5","6","2","4","4","5","5","5","4","5","5","6","5","5","7","7","3","4","3","6","4","5","612753157184815104","孟","481","Male","[""好我"",""坏我"",""坏他"",""好他""]","[""强我"",""弱我"",""弱他"",""强他""]","","","","","","","","","","","","","","","","","","","","","","","","","","","","","","feedback_test","","","","","","","","",""
"827","","j","psychophysics","12","385521","0.0-8.0-0.0-1.0-0.0-0.1","6","6","6","5","4","4","4","5","4","5","5","0","-1","1","1","1","1","-1","0","5","4","5","4","3","4","4","4","3","4","5","7","4","7","5","4","6","6","8","3","6","5","5","6","4","5","6","6","6","1","6","5","4","7","6","3","6","5","5","6","2","4","4","5","5","5","4","5","5","6","5","5","7","7","3","4","3","6","4","5","612753157184815104","孟","481","Male","[""好我"",""坏我"",""坏他"",""好他""]","[""强我"",""弱我"",""弱他"",""强他""]","","","","","","","","match","","","","","","","","","","key","j","16.661111111110788","720","476","j","true","match","img/square.png","好他","好他","prac_ALT2_moral","practice_moral","","","","","","","","",""
"null","<span style='color:GreenYellow; font-size: 70px;'>正确! </span>","null","html-keyboard-response","13","386033","0.0-8.0-0.0-1.0-0.0-1.1","6","6","6","5","4","4","4","5","4","5","5","0","-1","1","1","1","1","-1","0","5","4","5","4","3","4","4","4","3","4","5","7","4","7","5","4","6","6","8","3","6","5","5","6","4","5","6","6","6","1","6","5","4","7","6","3","6","5","5","6","2","4","4","5","5","5","4","5","5","6","5","5","7","7","3","4","3","6","4","5","612753157184815104","孟","481","Male","[""好我"",""坏我"",""坏他"",""好他""]","[""强我"",""弱我"",""弱他"",""强他""]","","","","","","","","","","","","","","","","","","","","","","","","","","","","","","feedback_test","","","","","","","","",""
"909","","j","psychophysics","14","387943","0.0-8.0-0.0-1.0-0.0-0.2","6","6","6","5","4","4","4","5","4","5","5","0","-1","1","1","1","1","-1","0","5","4","5","4","3","4","4","4","3","4","5","7","4","7","5","4","6","6","8","3","6","5","5","6","4","5","6","6","6","1","6","5","4","7","6","3","6","5","5","6","2","4","4","5","5","5","4","5","5","6","5","5","7","7","3","4","3","6","4","5","612753157184815104","孟","481","Male","[""好我"",""坏我"",""坏他"",""好他""]","[""强我"",""弱我"",""弱他"",""强他""]","","","","","","","","match","","","","","","","","","","key","j","16.662831858407287","720","476","j","true","match","img/diamond.png","坏我","坏我","prac_ALT2_moral","practice_moral","","","","","","","","",""
"null","<span style='color:GreenYellow; font-size: 70px;'>正确! </span>","null","html-keyboard-response","15","388445","0.0-8.0-0.0-1.0-0.0-1.2","6","6","6","5","4","4","4","5","4","5","5","0","-1","1","1","1","1","-1","0","5","4","5","4","3","4","4","4","3","4","5","7","4","7","5","4","6","6","8","3","6","5","5","6","4","5","6","6","6","1","6","5","4","7","6","3","6","5","5","6","2","4","4","5","5","5","4","5","5","6","5","5","7","7","3","4","3","6","4","5","612753157184815104","孟","481","Male","[""好我"",""坏我"",""坏他"",""好他""]","[""强我"",""弱我"",""弱他"",""强他""]","","","","","","","","","","","","","","","","","","","","","","","","","","","","","","feedback_test","","","","","","","","",""
"1201","","f","psychophysics","16","390647","0.0-8.0-0.0-1.0-0.0-0.3","6","6","6","5","4","4","4","5","4","5","5","0","-1","1","1","1","1","-1","0","5","4","5","4","3","4","4","4","3","4","5","7","4","7","5","4","6","6","8","3","6","5","5","6","4","5","6","6","6","1","6","5","4","7","6","3","6","5","5","6","2","4","4","5","5","5","4","5","5","6","5","5","7","7","3","4","3","6","4","5","612753157184815104","孟","481","Male","[""好我"",""坏我"",""坏他"",""好他""]","[""强我"",""弱我"",""弱他"",""强他""]","","","","","","","","nonmatch","","","","","","","","","","key","f","16.66717557251882","720","476","j","false","match","img/square.png","好他","好他","prac_ALT2_moral","practice_moral","","","","","","","","",""
"null","<span class='add_' style='color:yellow; font-size: 70px;'> 太慢! </span>","null","html-keyboard-response","17","391148","0.0-8.0-0.0-1.0-0.0-1.3","6","6","6","5","4","4","4","5","4","5","5","0","-1","1","1","1","1","-1","0","5","4","5","4","3","4","4","4","3","4","5","7","4","7","5","4","6","6","8","3","6","5","5","6","4","5","6","6","6","1","6","5","4","7","6","3","6","5","5","6","2","4","4","5","5","5","4","5","5","6","5","5","7","7","3","4","3","6","4","5","612753157184815104","孟","481","Male","[""好我"",""坏我"",""坏他"",""好他""]","[""强我"",""弱我"",""弱他"",""强他""]","","","","","","","","","","","","","","","","","","","","","","","","","","","","","","feedback_test","","","","","","","","",""
"867","","f","psychophysics","18","393017","0.0-8.0-0.0-1.0-0.0-0.4","6","6","6","5","4","4","4","5","4","5","5","0","-1","1","1","1","1","-1","0","5","4","5","4","3","4","4","4","3","4","5","7","4","7","5","4","6","6","8","3","6","5","5","6","4","5","6","6","6","1","6","5","4","7","6","3","6","5","5","6","2","4","4","5","5","5","4","5","5","6","5","5","7","7","3","4","3","6","4","5","612753157184815104","孟","481","Male","[""好我"",""坏我"",""坏他"",""好他""]","[""强我"",""弱我"",""弱他"",""强他""]","","","","","","","","nonmatch","","","","","","","","","","key","f","16.666666666666668","720","476","f","true","nonmatch","img/circle.png","好他","好我","prac_ALT2_moral","practice_moral","","","","","","","","",""
"null","<span style='color:GreenYellow; font-size: 70px;'>正确! </span>","null","html-keyboard-response","19","393518","0.0-8.0-0.0-1.0-0.0-1.4","6","6","6","5","4","4","4","5","4","5","5","0","-1","1","1","1","1","-1","0","5","4","5","4","3","4","4","4","3","4","5","7","4","7","5","4","6","6","8","3","6","5","5","6","4","5","6","6","6","1","6","5","4","7","6","3","6","5","5","6","2","4","4","5","5","5","4","5","5","6","5","5","7","7","3","4","3","6","4","5","612753157184815104","孟","481","Male","[""好我"",""坏我"",""坏他"",""好他""]","[""强我"",""弱我"",""弱他"",""强他""]","","","","","","","","","","","","","","","","","","","","","","","","","","","","","","feedback_test","","","","","","","","",""
"null","","null","psychophysics","20","395720","0.0-8.0-0.0-1.0-0.0-0.5","6","6","6","5","4","4","4","5","4","5","5","0","-1","1","1","1","1","-1","0","5","4","5","4","3","4","4","4","3","4","5","7","4","7","5","4","6","6","8","3","6","5","5","6","4","5","6","6","6","1","6","5","4","7","6","3","6","5","5","6","2","4","4","5","5","5","4","5","5","6","5","5","7","7","3","4","3","6","4","5","612753157184815104","孟","481","Male","[""好我"",""坏我"",""坏他"",""好他""]","[""强我"",""弱我"",""弱他"",""强他""]","","","","","","","","null","","","","","","","","","","key","null","16.65267175572519","720","476","j","false","match","img/pentagon.png","坏他","坏他","prac_ALT2_moral","practice_moral","","","","","","","","",""
"null","<span class='add_' style='color:yellow; font-size: 70px;'> 太慢! </span>","null","html-keyboard-response","21","396222","0.0-8.0-0.0-1.0-0.0-1.5","6","6","6","5","4","4","4","5","4","5","5","0","-1","1","1","1","1","-1","0","5","4","5","4","3","4","4","4","3","4","5","7","4","7","5","4","6","6","8","3","6","5","5","6","4","5","6","6","6","1","6","5","4","7","6","3","6","5","5","6","2","4","4","5","5","5","4","5","5","6","5","5","7","7","3","4","3","6","4","5","612753157184815104","孟","481","Male","[""好我"",""坏我"",""坏他"",""好他""]","[""强我"",""弱我"",""弱他"",""强他""]","","","","","","","","","","","","","","","","","","","","","","","","","","","","","","feedback_test","","","","","","","","",""
"1120","","f","psychophysics","22","398343","0.0-8.0-0.0-1.0-0.0-0.6","6","6","6","5","4","4","4","5","4","5","5","0","-1","1","1","1","1","-1","0","5","4","5","4","3","4","4","4","3","4","5","7","4","7","5","4","6","6","8","3","6","5","5","6","4","5","6","6","6","1","6","5","4","7","6","3","6","5","5","6","2","4","4","5","5","5","4","5","5","6","5","5","7","7","3","4","3","6","4","5","612753157184815104","孟","481","Male","[""好我"",""坏我"",""坏他"",""好他""]","[""强我"",""弱我"",""弱他"",""强他""]","","","","","","","","nonmatch","","","","","","","","","","key","f","16.658730158730158","720","476","f","true","nonmatch","img/square.png","好我","好他","prac_ALT2_moral","practice_moral","","","","","","","","",""
"null","<span style='color:GreenYellow; font-size: 70px;'>正确! </span>","null","html-keyboard-response","23","398845","0.0-8.0-0.0-1.0-0.0-1.6","6","6","6","5","4","4","4","5","4","5","5","0","-1","1","1","1","1","-1","0","5","4","5","4","3","4","4","4","3","4","5","7","4","7","5","4","6","6","8","3","6","5","5","6","4","5","6","6","6","1","6","5","4","7","6","3","6","5","5","6","2","4","4","5","5","5","4","5","5","6","5","5","7","7","3","4","3","6","4","5","612753157184815104","孟","481","Male","[""好我"",""坏我"",""坏他"",""好他""]","[""强我"",""弱我"",""弱他"",""强他""]","","","","","","","","","","","","","","","","","","","","","","","","","","","","","","feedback_test","","","","","","","","",""
"919","","j","psychophysics","24","400764","0.0-8.0-0.0-1.0-0.0-0.7","6","6","6","5","4","4","4","5","4","5","5","0","-1","1","1","1","1","-1","0","5","4","5","4","3","4","4","4","3","4","5","7","4","7","5","4","6","6","8","3","6","5","5","6","4","5","6","6","6","1","6","5","4","7","6","3","6","5","5","6","2","4","4","5","5","5","4","5","5","6","5","5","7","7","3","4","3","6","4","5","612753157184815104","孟","481","Male","[""好我"",""坏我"",""坏他"",""好他""]","[""强我"",""弱我"",""弱他"",""强他""]","","","","","","","","match","","","","","","","","","","key","j","16.65964912280712","720","476","j","true","match","img/square.png","好他","好他","prac_ALT2_moral","practice_moral","","","","","","","","",""
"null","<span style='color:GreenYellow; font-size: 70px;'>正确! </span>","null","html-keyboard-response","25","401266","0.0-8.0-0.0-1.0-0.0-1.7","6","6","6","5","4","4","4","5","4","5","5","0","-1","1","1","1","1","-1","0","5","4","5","4","3","4","4","4","3","4","5","7","4","7","5","4","6","6","8","3","6","5","5","6","4","5","6","6","6","1","6","5","4","7","6","3","6","5","5","6","2","4","4","5","5","5","4","5","5","6","5","5","7","7","3","4","3","6","4","5","612753157184815104","孟","481","Male","[""好我"",""坏我"",""坏他"",""好他""]","[""强我"",""弱我"",""弱他"",""强他""]","","","","","","","","","","","","","","","","","","","","","","","","","","","","","","feedback_test","","","","","","","","",""
"1151","","f","psychophysics","26","403418","0.0-8.0-0.0-1.0-0.0-0.8","6","6","6","5","4","4","4","5","4","5","5","0","-1","1","1","1","1","-1","0","5","4","5","4","3","4","4","4","3","4","5","7","4","7","5","4","6","6","8","3","6","5","5","6","4","5","6","6","6","1","6","5","4","7","6","3","6","5","5","6","2","4","4","5","5","5","4","5","5","6","5","5","7","7","3","4","3","6","4","5","612753157184815104","孟","481","Male","[""好我"",""坏我"",""坏他"",""好他""]","[""强我"",""弱我"",""弱他"",""强他""]","","","","","","","","nonmatch","","","","","","","","","","key","f","16.66015625","720","476","f","true","nonmatch","img/square.png","坏我","好他","prac_ALT2_moral","practice_moral","","","","","","","","",""
"null","<span style='color:GreenYellow; font-size: 70px;'>正确! </span>","null","html-keyboard-response","27","403919","0.0-8.0-0.0-1.0-0.0-1.8","6","6","6","5","4","4","4","5","4","5","5","0","-1","1","1","1","1","-1","0","5","4","5","4","3","4","4","4","3","4","5","7","4","7","5","4","6","6","8","3","6","5","5","6","4","5","6","6","6","1","6","5","4","7","6","3","6","5","5","6","2","4","4","5","5","5","4","5","5","6","5","5","7","7","3","4","3","6","4","5","612753157184815104","孟","481","Male","[""好我"",""坏我"",""坏他"",""好他""]","[""强我"",""弱我"",""弱他"",""强他""]","","","","","","","","","","","","","","","","","","","","","","","","","","","","","","feedback_test","","","","","","","","",""
"1166","","f","psychophysics","28","406086","0.0-8.0-0.0-1.0-0.0-0.9","6","6","6","5","4","4","4","5","4","5","5","0","-1","1","1","1","1","-1","0","5","4","5","4","3","4","4","4","3","4","5","7","4","7","5","4","6","6","8","3","6","5","5","6","4","5","6","6","6","1","6","5","4","7","6","3","6","5","5","6","2","4","4","5","5","5","4","5","5","6","5","5","7","7","3","4","3","6","4","5","612753157184815104","孟","481","Male","[""好我"",""坏我"",""坏他"",""好他""]","[""强我"",""弱我"",""弱他"",""强他""]","","","","","","","","nonmatch","","","","","","","","","","key","f","16.65781250000009","720","476","j","false","match","img/pentagon.png","坏他","坏他","prac_ALT2_moral","practice_moral","","","","","","","","",""
"null","<span style='color:red; font-size: 70px;'>错误! </span>","null","html-keyboard-response","29","406594","0.0-8.0-0.0-1.0-0.0-1.9","6","6","6","5","4","4","4","5","4","5","5","0","-1","1","1","1","1","-1","0","5","4","5","4","3","4","4","4","3","4","5","7","4","7","5","4","6","6","8","3","6","5","5","6","4","5","6","6","6","1","6","5","4","7","6","3","6","5","5","6","2","4","4","5","5","5","4","5","5","6","5","5","7","7","3","4","3","6","4","5","612753157184815104","孟","481","Male","[""好我"",""坏我"",""坏他"",""好他""]","[""强我"",""弱我"",""弱他"",""强他""]","","","","","","","","","","","","","","","","","","","","","","","","","","","","","","feedback_test","","","","","","","","",""
"1142","","f","psychophysics","30","408738","0.0-8.0-0.0-1.0-0.0-0.10","6","6","6","5","4","4","4","5","4","5","5","0","-1","1","1","1","1","-1","0","5","4","5","4","3","4","4","4","3","4","5","7","4","7","5","4","6","6","8","3","6","5","5","6","4","5","6","6","6","1","6","5","4","7","6","3","6","5","5","6","2","4","4","5","5","5","4","5","5","6","5","5","7","7","3","4","3","6","4","5","612753157184815104","孟","481","Male","[""好我"",""坏我"",""坏他"",""好他""]","[""强我"",""弱我"",""弱他"",""强他""]","","","","","","","","nonmatch","","","","","","","","","","key","f","16.66614173228374","720","476","f","true","nonmatch","img/diamond.png","好他","坏我","prac_ALT2_moral","practice_moral","","","","","","","","",""
"null","<span style='color:GreenYellow; font-size: 70px;'>正确! </span>","null","html-keyboard-response","31","409238","0.0-8.0-0.0-1.0-0.0-1.10","6","6","6","5","4","4","4","5","4","5","5","0","-1","1","1","1","1","-1","0","5","4","5","4","3","4","4","4","3","4","5","7","4","7","5","4","6","6","8","3","6","5","5","6","4","5","6","6","6","1","6","5","4","7","6","3","6","5","5","6","2","4","4","5","5","5","4","5","5","6","5","5","7","7","3","4","3","6","4","5","612753157184815104","孟","481","Male","[""好我"",""坏我"",""坏他"",""好他""]","[""强我"",""弱我"",""弱他"",""强他""]","","","","","","","","","","","","","","","","","","","","","","","","","","","","","","feedback_test","","","","","","","","",""
"907","","f","psychophysics","32","411147","0.0-8.0-0.0-1.0-0.0-0.11","6","6","6","5","4","4","4","5","4","5","5","0","-1","1","1","1","1","-1","0","5","4","5","4","3","4","4","4","3","4","5","7","4","7","5","4","6","6","8","3","6","5","5","6","4","5","6","6","6","1","6","5","4","7","6","3","6","5","5","6","2","4","4","5","5","5","4","5","5","6","5","5","7","7","3","4","3","6","4","5","612753157184815104","孟","481","Male","[""好我"",""坏我"",""坏他"",""好他""]","[""强我"",""弱我"",""弱他"",""强他""]","","","","","","","","nonmatch","","","","","","","","","","key","f","16.657522123893703","720","476","f","true","nonmatch","img/square.png","坏他","好他","prac_ALT2_moral","practice_moral","","","","","","","","",""
"null","<span style='color:GreenYellow; font-size: 70px;'>正确! </span>","null","html-keyboard-response","33","411648","0.0-8.0-0.0-1.0-0.0-1.11","6","6","6","5","4","4","4","5","4","5","5","0","-1","1","1","1","1","-1","0","5","4","5","4","3","4","4","4","3","4","5","7","4","7","5","4","6","6","8","3","6","5","5","6","4","5","6","6","6","1","6","5","4","7","6","3","6","5","5","6","2","4","4","5","5","5","4","5","5","6","5","5","7","7","3","4","3","6","4","5","612753157184815104","孟","481","Male","[""好我"",""坏我"",""坏他"",""好他""]","[""强我"",""弱我"",""弱他"",""强他""]","","","","","","","","","","","","","","","","","","","","","","","","","","","","","","feedback_test","","","","","","","","",""
"682","","j","psychophysics","34","413331","0.0-8.0-0.0-1.0-0.0-0.12","6","6","6","5","4","4","4","5","4","5","5","0","-1","1","1","1","1","-1","0","5","4","5","4","3","4","4","4","3","4","5","7","4","7","5","4","6","6","8","3","6","5","5","6","4","5","6","6","6","1","6","5","4","7","6","3","6","5","5","6","2","4","4","5","5","5","4","5","5","6","5","5","7","7","3","4","3","6","4","5","612753157184815104","孟","481","Male","[""好我"",""坏我"",""坏他"",""好他""]","[""强我"",""弱我"",""弱他"",""强他""]","","","","","","","","match","","","","","","","","","","key","j","16.65959595959584","720","476","j","true","match","img/circle.png","好我","好我","prac_ALT2_moral","practice_moral","","","","","","","","",""
"null","<span style='color:GreenYellow; font-size: 70px;'>正确! </span>","null","html-keyboard-response","35","413833","0.0-8.0-0.0-1.0-0.0-1.12","6","6","6","5","4","4","4","5","4","5","5","0","-1","1","1","1","1","-1","0","5","4","5","4","3","4","4","4","3","4","5","7","4","7","5","4","6","6","8","3","6","5","5","6","4","5","6","6","6","1","6","5","4","7","6","3","6","5","5","6","2","4","4","5","5","5","4","5","5","6","5","5","7","7","3","4","3","6","4","5","612753157184815104","孟","481","Male","[""好我"",""坏我"",""坏他"",""好他""]","[""强我"",""弱我"",""弱他"",""强他""]","","","","","","","","","","","","","","","","","","","","","","","","","","","","","","feedback_test","","","","","","","","",""
"789","","j","psychophysics","36","415623","0.0-8.0-0.0-1.0-0.0-0.13","6","6","6","5","4","4","4","5","4","5","5","0","-1","1","1","1","1","-1","0","5","4","5","4","3","4","4","4","3","4","5","7","4","7","5","4","6","6","8","3","6","5","5","6","4","5","6","6","6","1","6","5","4","7","6","3","6","5","5","6","2","4","4","5","5","5","4","5","5","6","5","5","7","7","3","4","3","6","4","5","612753157184815104","孟","481","Male","[""好我"",""坏我"",""坏他"",""好他""]","[""强我"",""弱我"",""弱他"",""强他""]","","","","","","","","match","","","","","","","","","","key","j","16.662264150943507","720","476","j","true","match","img/circle.png","好我","好我","prac_ALT2_moral","practice_moral","","","","","","","","",""
"null","<span style='color:GreenYellow; font-size: 70px;'>正确! </span>","null","html-keyboard-response","37","416124","0.0-8.0-0.0-1.0-0.0-1.13","6","6","6","5","4","4","4","5","4","5","5","0","-1","1","1","1","1","-1","0","5","4","5","4","3","4","4","4","3","4","5","7","4","7","5","4","6","6","8","3","6","5","5","6","4","5","6","6","6","1","6","5","4","7","6","3","6","5","5","6","2","4","4","5","5","5","4","5","5","6","5","5","7","7","3","4","3","6","4","5","612753157184815104","孟","481","Male","[""好我"",""坏我"",""坏他"",""好他""]","[""强我"",""弱我"",""弱他"",""强他""]","","","","","","","","","","","","","","","","","","","","","","","","","","","","","","feedback_test","","","","","","","","",""
"751","","f","psychophysics","38","417877","0.0-8.0-0.0-1.0-0.0-0.14","6","6","6","5","4","4","4","5","4","5","5","0","-1","1","1","1","1","-1","0","5","4","5","4","3","4","4","4","3","4","5","7","4","7","5","4","6","6","8","3","6","5","5","6","4","5","6","6","6","1","6","5","4","7","6","3","6","5","5","6","2","4","4","5","5","5","4","5","5","6","5","5","7","7","3","4","3","6","4","5","612753157184815104","孟","481","Male","[""好我"",""坏我"",""坏他"",""好他""]","[""强我"",""弱我"",""弱他"",""强他""]","","","","","","","","nonmatch","","","","","","","","","","key","f","16.666346153846042","720","476","f","true","nonmatch","img/pentagon.png","坏我","坏他","prac_ALT2_moral","practice_moral","","","","","","","","",""
"null","<span style='color:GreenYellow; font-size: 70px;'>正确! </span>","null","html-keyboard-response","39","418377","0.0-8.0-0.0-1.0-0.0-1.14","6","6","6","5","4","4","4","5","4","5","5","0","-1","1","1","1","1","-1","0","5","4","5","4","3","4","4","4","3","4","5","7","4","7","5","4","6","6","8","3","6","5","5","6","4","5","6","6","6","1","6","5","4","7","6","3","6","5","5","6","2","4","4","5","5","5","4","5","5","6","5","5","7","7","3","4","3","6","4","5","612753157184815104","孟","481","Male","[""好我"",""坏我"",""坏他"",""好他""]","[""强我"",""弱我"",""弱他"",""强他""]","","","","","","","","","","","","","","","","","","","","","","","","","","","","","","feedback_test","","","","","","","","",""
"841","","f","psychophysics","40","420220","0.0-8.0-0.0-1.0-0.0-0.15","6","6","6","5","4","4","4","5","4","5","5","0","-1","1","1","1","1","-1","0","5","4","5","4","3","4","4","4","3","4","5","7","4","7","5","4","6","6","8","3","6","5","5","6","4","5","6","6","6","1","6","5","4","7","6","3","6","5","5","6","2","4","4","5","5","5","4","5","5","6","5","5","7","7","3","4","3","6","4","5","612753157184815104","孟","481","Male","[""好我"",""坏我"",""坏他"",""好他""]","[""强我"",""弱我"",""弱他"",""强他""]","","","","","","","","nonmatch","","","","","","","","","","key","f","16.661467889908042","720","476","f","true","nonmatch","img/pentagon.png","好他","坏他","prac_ALT2_moral","practice_moral","","","","","","","","",""
"null","<span style='color:GreenYellow; font-size: 70px;'>正确! </span>","null","html-keyboard-response","41","420721","0.0-8.0-0.0-1.0-0.0-1.15","6","6","6","5","4","4","4","5","4","5","5","0","-1","1","1","1","1","-1","0","5","4","5","4","3","4","4","4","3","4","5","7","4","7","5","4","6","6","8","3","6","5","5","6","4","5","6","6","6","1","6","5","4","7","6","3","6","5","5","6","2","4","4","5","5","5","4","5","5","6","5","5","7","7","3","4","3","6","4","5","612753157184815104","孟","481","Male","[""好我"",""坏我"",""坏他"",""好他""]","[""强我"",""弱我"",""弱他"",""强他""]","","","","","","","","","","","","","","","","","","","","","","","","","","","","","","feedback_test","","","","","","","","",""
"858","","j","psychophysics","42","422581","0.0-8.0-0.0-1.0-0.0-0.16","6","6","6","5","4","4","4","5","4","5","5","0","-1","1","1","1","1","-1","0","5","4","5","4","3","4","4","4","3","4","5","7","4","7","5","4","6","6","8","3","6","5","5","6","4","5","6","6","6","1","6","5","4","7","6","3","6","5","5","6","2","4","4","5","5","5","4","5","5","6","5","5","7","7","3","4","3","6","4","5","612753157184815104","孟","481","Male","[""好我"",""坏我"",""坏他"",""好他""]","[""强我"",""弱我"",""弱他"",""强他""]","","","","","","","","match","","","","","","","","","","key","j","16.662727272726954","720","476","j","true","match","img/diamond.png","坏我","坏我","prac_ALT2_moral","practice_moral","","","","","","","","",""
"null","<span style='color:GreenYellow; font-size: 70px;'>正确! </span>","null","html-keyboard-response","43","423082","0.0-8.0-0.0-1.0-0.0-1.16","6","6","6","5","4","4","4","5","4","5","5","0","-1","1","1","1","1","-1","0","5","4","5","4","3","4","4","4","3","4","5","7","4","7","5","4","6","6","8","3","6","5","5","6","4","5","6","6","6","1","6","5","4","7","6","3","6","5","5","6","2","4","4","5","5","5","4","5","5","6","5","5","7","7","3","4","3","6","4","5","612753157184815104","孟","481","Male","[""好我"",""坏我"",""坏他"",""好他""]","[""强我"",""弱我"",""弱他"",""强他""]","","","","","","","","","","","","","","","","","","","","","","","","","","","","","","feedback_test","","","","","","","","",""
"776","","f","psychophysics","44","424860","0.0-8.0-0.0-1.0-0.0-0.17","6","6","6","5","4","4","4","5","4","5","5","0","-1","1","1","1","1","-1","0","5","4","5","4","3","4","4","4","3","4","5","7","4","7","5","4","6","6","8","3","6","5","5","6","4","5","6","6","6","1","6","5","4","7","6","3","6","5","5","6","2","4","4","5","5","5","4","5","5","6","5","5","7","7","3","4","3","6","4","5","612753157184815104","孟","481","Male","[""好我"",""坏我"",""坏他"",""好他""]","[""强我"",""弱我"",""弱他"",""强他""]","","","","","","","","nonmatch","","","","","","","","","","key","f","16.65714285714286","720","476","f","true","nonmatch","img/diamond.png","好我","坏我","prac_ALT2_moral","practice_moral","","","","","","","","",""
"null","<span style='color:GreenYellow; font-size: 70px;'>正确! </span>","null","html-keyboard-response","45","425369","0.0-8.0-0.0-1.0-0.0-1.17","6","6","6","5","4","4","4","5","4","5","5","0","-1","1","1","1","1","-1","0","5","4","5","4","3","4","4","4","3","4","5","7","4","7","5","4","6","6","8","3","6","5","5","6","4","5","6","6","6","1","6","5","4","7","6","3","6","5","5","6","2","4","4","5","5","5","4","5","5","6","5","5","7","7","3","4","3","6","4","5","612753157184815104","孟","481","Male","[""好我"",""坏我"",""坏他"",""好他""]","[""强我"",""弱我"",""弱他"",""强他""]","","","","","","","","","","","","","","","","","","","","","","","","","","","","","","feedback_test","","","","","","","","",""
"543","","j","psychophysics","46","426913","0.0-8.0-0.0-1.0-0.0-0.18","6","6","6","5","4","4","4","5","4","5","5","0","-1","1","1","1","1","-1","0","5","4","5","4","3","4","4","4","3","4","5","7","4","7","5","4","6","6","8","3","6","5","5","6","4","5","6","6","6","1","6","5","4","7","6","3","6","5","5","6","2","4","4","5","5","5","4","5","5","6","5","5","7","7","3","4","3","6","4","5","612753157184815104","孟","481","Male","[""好我"",""坏我"",""坏他"",""好他""]","[""强我"",""弱我"",""弱他"",""强他""]","","","","","","","","match","","","","","","","","","","key","j","16.6549450549448","720","476","j","true","match","img/circle.png","好我","好我","prac_ALT2_moral","practice_moral","","","","","","","","",""
"null","<span style='color:GreenYellow; font-size: 70px;'>正确! </span>","null","html-keyboard-response","47","427414","0.0-8.0-0.0-1.0-0.0-1.18","6","6","6","5","4","4","4","5","4","5","5","0","-1","1","1","1","1","-1","0","5","4","5","4","3","4","4","4","3","4","5","7","4","7","5","4","6","6","8","3","6","5","5","6","4","5","6","6","6","1","6","5","4","7","6","3","6","5","5","6","2","4","4","5","5","5","4","5","5","6","5","5","7","7","3","4","3","6","4","5","612753157184815104","孟","481","Male","[""好我"",""坏我"",""坏他"",""好他""]","[""强我"",""弱我"",""弱他"",""强他""]","","","","","","","","","","","","","","","","","","","","","","","","","","","","","","feedback_test","","","","","","","","",""
"1040","","j","psychophysics","48","429456","0.0-8.0-0.0-1.0-0.0-0.19","6","6","6","5","4","4","4","5","4","5","5","0","-1","1","1","1","1","-1","0","5","4","5","4","3","4","4","4","3","4","5","7","4","7","5","4","6","6","8","3","6","5","5","6","4","5","6","6","6","1","6","5","4","7","6","3","6","5","5","6","2","4","4","5","5","5","4","5","5","6","5","5","7","7","3","4","3","6","4","5","612753157184815104","孟","481","Male","[""好我"",""坏我"",""坏他"",""好他""]","[""强我"",""弱我"",""弱他"",""强他""]","","","","","","","","match","","","","","","","","","","key","j","16.658677685950508","720","476","j","true","match","img/diamond.png","坏我","坏我","prac_ALT2_moral","practice_moral","","","","","","","","",""
"null","<span style='color:GreenYellow; font-size: 70px;'>正确! </span>","null","html-keyboard-response","49","429957","0.0-8.0-0.0-1.0-0.0-1.19","6","6","6","5","4","4","4","5","4","5","5","0","-1","1","1","1","1","-1","0","5","4","5","4","3","4","4","4","3","4","5","7","4","7","5","4","6","6","8","3","6","5","5","6","4","5","6","6","6","1","6","5","4","7","6","3","6","5","5","6","2","4","4","5","5","5","4","5","5","6","5","5","7","7","3","4","3","6","4","5","612753157184815104","孟","481","Male","[""好我"",""坏我"",""坏他"",""好他""]","[""强我"",""弱我"",""弱他"",""强他""]","","","","","","","","","","","","","","","","","","","","","","","","","","","","","","feedback_test","","","","","","","","",""
"850","","f","psychophysics","50","431808","0.0-8.0-0.0-1.0-0.0-0.20","6","6","6","5","4","4","4","5","4","5","5","0","-1","1","1","1","1","-1","0","5","4","5","4","3","4","4","4","3","4","5","7","4","7","5","4","6","6","8","3","6","5","5","6","4","5","6","6","6","1","6","5","4","7","6","3","6","5","5","6","2","4","4","5","5","5","4","5","5","6","5","5","7","7","3","4","3","6","4","5","612753157184815104","孟","481","Male","[""好我"",""坏我"",""坏他"",""好他""]","[""强我"",""弱我"",""弱他"",""强他""]","","","","","","","","nonmatch","","","","","","","","","","key","f","16.663302752293472","720","476","f","true","nonmatch","img/diamond.png","坏他","坏我","prac_ALT2_moral","practice_moral","","","","","","","","",""
"null","<span style='color:GreenYellow; font-size: 70px;'>正确! </span>","null","html-keyboard-response","51","432309","0.0-8.0-0.0-1.0-0.0-1.20","6","6","6","5","4","4","4","5","4","5","5","0","-1","1","1","1","1","-1","0","5","4","5","4","3","4","4","4","3","4","5","7","4","7","5","4","6","6","8","3","6","5","5","6","4","5","6","6","6","1","6","5","4","7","6","3","6","5","5","6","2","4","4","5","5","5","4","5","5","6","5","5","7","7","3","4","3","6","4","5","612753157184815104","孟","481","Male","[""好我"",""坏我"",""坏他"",""好他""]","[""强我"",""弱我"",""弱他"",""强他""]","","","","","","","","","","","","","","","","","","","","","","","","","","","","","","feedback_test","","","","","","","","",""
"905","","j","psychophysics","52","434215","0.0-8.0-0.0-1.0-0.0-0.21","6","6","6","5","4","4","4","5","4","5","5","0","-1","1","1","1","1","-1","0","5","4","5","4","3","4","4","4","3","4","5","7","4","7","5","4","6","6","8","3","6","5","5","6","4","5","6","6","6","1","6","5","4","7","6","3","6","5","5","6","2","4","4","5","5","5","4","5","5","6","5","5","7","7","3","4","3","6","4","5","612753157184815104","孟","481","Male","[""好我"",""坏我"",""坏他"",""好他""]","[""强我"",""弱我"",""弱他"",""强他""]","","","","","","","","match","","","","","","","","","","key","j","16.65929203539823","720","476","j","true","match","img/pentagon.png","坏他","坏他","prac_ALT2_moral","practice_moral","","","","","","","","",""
"null","<span style='color:GreenYellow; font-size: 70px;'>正确! </span>","null","html-keyboard-response","53","434716","0.0-8.0-0.0-1.0-0.0-1.21","6","6","6","5","4","4","4","5","4","5","5","0","-1","1","1","1","1","-1","0","5","4","5","4","3","4","4","4","3","4","5","7","4","7","5","4","6","6","8","3","6","5","5","6","4","5","6","6","6","1","6","5","4","7","6","3","6","5","5","6","2","4","4","5","5","5","4","5","5","6","5","5","7","7","3","4","3","6","4","5","612753157184815104","孟","481","Male","[""好我"",""坏我"",""坏他"",""好他""]","[""强我"",""弱我"",""弱他"",""强他""]","","","","","","","","","","","","","","","","","","","","","","","","","","","","","","feedback_test","","","","","","","","",""
"1040","","f","psychophysics","54","436758","0.0-8.0-0.0-1.0-0.0-0.22","6","6","6","5","4","4","4","5","4","5","5","0","-1","1","1","1","1","-1","0","5","4","5","4","3","4","4","4","3","4","5","7","4","7","5","4","6","6","8","3","6","5","5","6","4","5","6","6","6","1","6","5","4","7","6","3","6","5","5","6","2","4","4","5","5","5","4","5","5","6","5","5","7","7","3","4","3","6","4","5","612753157184815104","孟","481","Male","[""好我"",""坏我"",""坏他"",""好他""]","[""强我"",""弱我"",""弱他"",""强他""]","","","","","","","","nonmatch","","","","","","","","","","key","f","16.65702479338843","720","476","f","true","nonmatch","img/circle.png","坏我","好我","prac_ALT2_moral","practice_moral","","","","","","","","",""
"null","<span style='color:GreenYellow; font-size: 70px;'>正确! </span>","null","html-keyboard-response","55","437259","0.0-8.0-0.0-1.0-0.0-1.22","6","6","6","5","4","4","4","5","4","5","5","0","-1","1","1","1","1","-1","0","5","4","5","4","3","4","4","4","3","4","5","7","4","7","5","4","6","6","8","3","6","5","5","6","4","5","6","6","6","1","6","5","4","7","6","3","6","5","5","6","2","4","4","5","5","5","4","5","5","6","5","5","7","7","3","4","3","6","4","5","612753157184815104","孟","481","Male","[""好我"",""坏我"",""坏他"",""好他""]","[""强我"",""弱我"",""弱他"",""强他""]","","","","","","","","","","","","","","","","","","","","","","","","","","","","","","feedback_test","","","","","","","","",""
"673","","f","psychophysics","56","438933","0.0-8.0-0.0-1.0-0.0-0.23","6","6","6","5","4","4","4","5","4","5","5","0","-1","1","1","1","1","-1","0","5","4","5","4","3","4","4","4","3","4","5","7","4","7","5","4","6","6","8","3","6","5","5","6","4","5","6","6","6","1","6","5","4","7","6","3","6","5","5","6","2","4","4","5","5","5","4","5","5","6","5","5","7","7","3","4","3","6","4","5","612753157184815104","孟","481","Male","[""好我"",""坏我"",""坏他"",""好他""]","[""强我"",""弱我"",""弱他"",""强他""]","","","","","","","","nonmatch","","","","","","","","","","key","f","16.670707070707305","720","476","f","true","nonmatch","img/circle.png","坏他","好我","prac_ALT2_moral","practice_moral","","","","","","","","",""
"null","<span style='color:GreenYellow; font-size: 70px;'>正确! </span>","null","html-keyboard-response","57","439435","0.0-8.0-0.0-1.0-0.0-1.23","6","6","6","5","4","4","4","5","4","5","5","0","-1","1","1","1","1","-1","0","5","4","5","4","3","4","4","4","3","4","5","7","4","7","5","4","6","6","8","3","6","5","5","6","4","5","6","6","6","1","6","5","4","7","6","3","6","5","5","6","2","4","4","5","5","5","4","5","5","6","5","5","7","7","3","4","3","6","4","5","612753157184815104","孟","481","Male","[""好我"",""坏我"",""坏他"",""好他""]","[""强我"",""弱我"",""弱他"",""强他""]","","","","","","","","","","","","","","","","","","","","","","","","","","","","","","feedback_test","","","","","","","","",""
"813","","f","psychophysics","58","441249","0.0-8.0-0.0-1.0-0.0-0.24","6","6","6","5","4","4","4","5","4","5","5","0","-1","1","1","1","1","-1","0","5","4","5","4","3","4","4","4","3","4","5","7","4","7","5","4","6","6","8","3","6","5","5","6","4","5","6","6","6","1","6","5","4","7","6","3","6","5","5","6","2","4","4","5","5","5","4","5","5","6","5","5","7","7","3","4","3","6","4","5","612753157184815104","孟","481","Male","[""好我"",""坏我"",""坏他"",""好他""]","[""强我"",""弱我"",""弱他"",""强他""]","","","","","","","","nonmatch","","","","","","","","","","key","f","16.66261682242958","720","476","f","true","nonmatch","img/diamond.png","好他","坏我","prac_ALT2_moral","practice_moral","","","","","","","","",""
"null","<span style='color:GreenYellow; font-size: 70px;'>正确! </span>","null","html-keyboard-response","59","441750","0.0-8.0-0.0-1.0-0.0-1.24","6","6","6","5","4","4","4","5","4","5","5","0","-1","1","1","1","1","-1","0","5","4","5","4","3","4","4","4","3","4","5","7","4","7","5","4","6","6","8","3","6","5","5","6","4","5","6","6","6","1","6","5","4","7","6","3","6","5","5","6","2","4","4","5","5","5","4","5","5","6","5","5","7","7","3","4","3","6","4","5","612753157184815104","孟","481","Male","[""好我"",""坏我"",""坏他"",""好他""]","[""强我"",""弱我"",""弱他"",""强他""]","","","","","","","","","","","","","","","","","","","","","","","","","","","","","","feedback_test","","","","","","","","",""
"966","","j","psychophysics","60","443718","0.0-8.0-0.0-1.0-0.0-0.25","6","6","6","5","4","4","4","5","4","5","5","0","-1","1","1","1","1","-1","0","5","4","5","4","3","4","4","4","3","4","5","7","4","7","5","4","6","6","8","3","6","5","5","6","4","5","6","6","6","1","6","5","4","7","6","3","6","5","5","6","2","4","4","5","5","5","4","5","5","6","5","5","7","7","3","4","3","6","4","5","612753157184815104","孟","481","Male","[""好我"",""坏我"",""坏他"",""好他""]","[""强我"",""弱我"",""弱他"",""强他""]","","","","","","","","match","","","","","","","","","","key","j","16.656896551723737","720","476","j","true","match","img/diamond.png","坏我","坏我","prac_ALT2_moral","practice_moral","","","","","","","","",""
"null","<span style='color:GreenYellow; font-size: 70px;'>正确! </span>","null","html-keyboard-response","61","444220","0.0-8.0-0.0-1.0-0.0-1.25","6","6","6","5","4","4","4","5","4","5","5","0","-1","1","1","1","1","-1","0","5","4","5","4","3","4","4","4","3","4","5","7","4","7","5","4","6","6","8","3","6","5","5","6","4","5","6","6","6","1","6","5","4","7","6","3","6","5","5","6","2","4","4","5","5","5","4","5","5","6","5","5","7","7","3","4","3","6","4","5","612753157184815104","孟","481","Male","[""好我"",""坏我"",""坏他"",""好他""]","[""强我"",""弱我"",""弱他"",""强他""]","","","","","","","","","","","","","","","","","","","","","","","","","","","","","","feedback_test","","","","","","","","",""
"744","","f","psychophysics","62","445965","0.0-8.0-0.0-1.0-0.0-0.26","6","6","6","5","4","4","4","5","4","5","5","0","-1","1","1","1","1","-1","0","5","4","5","4","3","4","4","4","3","4","5","7","4","7","5","4","6","6","8","3","6","5","5","6","4","5","6","6","6","1","6","5","4","7","6","3","6","5","5","6","2","4","4","5","5","5","4","5","5","6","5","5","7","7","3","4","3","6","4","5","612753157184815104","孟","481","Male","[""好我"",""坏我"",""坏他"",""好他""]","[""强我"",""弱我"",""弱他"",""强他""]","","","","","","","","nonmatch","","","","","","","","","","key","f","16.663106796116956","720","476","f","true","nonmatch","img/circle.png","坏我","好我","prac_ALT2_moral","practice_moral","","","","","","","","",""
"null","<span style='color:GreenYellow; font-size: 70px;'>正确! </span>","null","html-keyboard-response","63","446465","0.0-8.0-0.0-1.0-0.0-1.26","6","6","6","5","4","4","4","5","4","5","5","0","-1","1","1","1","1","-1","0","5","4","5","4","3","4","4","4","3","4","5","7","4","7","5","4","6","6","8","3","6","5","5","6","4","5","6","6","6","1","6","5","4","7","6","3","6","5","5","6","2","4","4","5","5","5","4","5","5","6","5","5","7","7","3","4","3","6","4","5","612753157184815104","孟","481","Male","[""好我"",""坏我"",""坏他"",""好他""]","[""强我"",""弱我"",""弱他"",""强他""]","","","","","","","","","","","","","","","","","","","","","","","","","","","","","","feedback_test","","","","","","","","",""
"988","","f","psychophysics","64","448455","0.0-8.0-0.0-1.0-0.0-0.27","6","6","6","5","4","4","4","5","4","5","5","0","-1","1","1","1","1","-1","0","5","4","5","4","3","4","4","4","3","4","5","7","4","7","5","4","6","6","8","3","6","5","5","6","4","5","6","6","6","1","6","5","4","7","6","3","6","5","5","6","2","4","4","5","5","5","4","5","5","6","5","5","7","7","3","4","3","6","4","5","612753157184815104","孟","481","Male","[""好我"",""坏我"",""坏他"",""好他""]","[""强我"",""弱我"",""弱他"",""强他""]","","","","","","","","nonmatch","","","","","","","","","","key","f","16.666949152542472","720","476","f","true","nonmatch","img/pentagon.png","好他","坏他","prac_ALT2_moral","practice_moral","","","","","","","","",""
"null","<span style='color:GreenYellow; font-size: 70px;'>正确! </span>","null","html-keyboard-response","65","448956","0.0-8.0-0.0-1.0-0.0-1.27","6","6","6","5","4","4","4","5","4","5","5","0","-1","1","1","1","1","-1","0","5","4","5","4","3","4","4","4","3","4","5","7","4","7","5","4","6","6","8","3","6","5","5","6","4","5","6","6","6","1","6","5","4","7","6","3","6","5","5","6","2","4","4","5","5","5","4","5","5","6","5","5","7","7","3","4","3","6","4","5","612753157184815104","孟","481","Male","[""好我"",""坏我"",""坏他"",""好他""]","[""强我"",""弱我"",""弱他"",""强他""]","","","","","","","","","","","","","","","","","","","","","","","","","","","","","","feedback_test","","","","","","","","",""
"762","","f","psychophysics","66","450719","0.0-8.0-0.0-1.0-0.0-0.28","6","6","6","5","4","4","4","5","4","5","5","0","-1","1","1","1","1","-1","0","5","4","5","4","3","4","4","4","3","4","5","7","4","7","5","4","6","6","8","3","6","5","5","6","4","5","6","6","6","1","6","5","4","7","6","3","6","5","5","6","2","4","4","5","5","5","4","5","5","6","5","5","7","7","3","4","3","6","4","5","612753157184815104","孟","481","Male","[""好我"",""坏我"",""坏他"",""好他""]","[""强我"",""弱我"",""弱他"",""强他""]","","","","","","","","nonmatch","","","","","","","","","","key","f","16.666346153846042","720","476","f","true","nonmatch","img/diamond.png","坏他","坏我","prac_ALT2_moral","practice_moral","","","","","","","","",""
"null","<span style='color:GreenYellow; font-size: 70px;'>正确! </span>","null","html-keyboard-response","67","451219","0.0-8.0-0.0-1.0-0.0-1.28","6","6","6","5","4","4","4","5","4","5","5","0","-1","1","1","1","1","-1","0","5","4","5","4","3","4","4","4","3","4","5","7","4","7","5","4","6","6","8","3","6","5","5","6","4","5","6","6","6","1","6","5","4","7","6","3","6","5","5","6","2","4","4","5","5","5","4","5","5","6","5","5","7","7","3","4","3","6","4","5","612753157184815104","孟","481","Male","[""好我"",""坏我"",""坏他"",""好他""]","[""强我"",""弱我"",""弱他"",""强他""]","","","","","","","","","","","","","","","","","","","","","","","","","","","","","","feedback_test","","","","","","","","",""
"957","","f","psychophysics","68","453178","0.0-8.0-0.0-1.0-0.0-0.29","6","6","6","5","4","4","4","5","4","5","5","0","-1","1","1","1","1","-1","0","5","4","5","4","3","4","4","4","3","4","5","7","4","7","5","4","6","6","8","3","6","5","5","6","4","5","6","6","6","1","6","5","4","7","6","3","6","5","5","6","2","4","4","5","5","5","4","5","5","6","5","5","7","7","3","4","3","6","4","5","612753157184815104","孟","481","Male","[""好我"",""坏我"",""坏他"",""好他""]","[""强我"",""弱我"",""弱他"",""强他""]","","","","","","","","nonmatch","","","","","","","","","","key","f","16.65862068965487","720","476","f","true","nonmatch","img/pentagon.png","坏我","坏他","prac_ALT2_moral","practice_moral","","","","","","","","",""
"null","<span style='color:GreenYellow; font-size: 70px;'>正确! </span>","null","html-keyboard-response","69","453679","0.0-8.0-0.0-1.0-0.0-1.29","6","6","6","5","4","4","4","5","4","5","5","0","-1","1","1","1","1","-1","0","5","4","5","4","3","4","4","4","3","4","5","7","4","7","5","4","6","6","8","3","6","5","5","6","4","5","6","6","6","1","6","5","4","7","6","3","6","5","5","6","2","4","4","5","5","5","4","5","5","6","5","5","7","7","3","4","3","6","4","5","612753157184815104","孟","481","Male","[""好我"",""坏我"",""坏他"",""好他""]","[""强我"",""弱我"",""弱他"",""强他""]","","","","","","","","","","","","","","","","","","","","","","","","","","","","","","feedback_test","","","","","","","","",""
"644","","j","psychophysics","70","455324","0.0-8.0-0.0-1.0-0.0-0.30","6","6","6","5","4","4","4","5","4","5","5","0","-1","1","1","1","1","-1","0","5","4","5","4","3","4","4","4","3","4","5","7","4","7","5","4","6","6","8","3","6","5","5","6","4","5","6","6","6","1","6","5","4","7","6","3","6","5","5","6","2","4","4","5","5","5","4","5","5","6","5","5","7","7","3","4","3","6","4","5","612753157184815104","孟","481","Male","[""好我"",""坏我"",""坏他"",""好他""]","[""强我"",""弱我"",""弱他"",""强他""]","","","","","","","","match","","","","","","","","","","key","j","16.65463917525773","720","476","j","true","match","img/circle.png","好我","好我","prac_ALT2_moral","practice_moral","","","","","","","","",""
"null","<span style='color:GreenYellow; font-size: 70px;'>正确! </span>","null","html-keyboard-response","71","455827","0.0-8.0-0.0-1.0-0.0-1.30","6","6","6","5","4","4","4","5","4","5","5","0","-1","1","1","1","1","-1","0","5","4","5","4","3","4","4","4","3","4","5","7","4","7","5","4","6","6","8","3","6","5","5","6","4","5","6","6","6","1","6","5","4","7","6","3","6","5","5","6","2","4","4","5","5","5","4","5","5","6","5","5","7","7","3","4","3","6","4","5","612753157184815104","孟","481","Male","[""好我"",""坏我"",""坏他"",""好他""]","[""强我"",""弱我"",""弱他"",""强他""]","","","","","","","","","","","","","","","","","","","","","","","","","","","","","","feedback_test","","","","","","","","",""
"870","","f","psychophysics","72","457699","0.0-8.0-0.0-1.0-0.0-0.31","6","6","6","5","4","4","4","5","4","5","5","0","-1","1","1","1","1","-1","0","5","4","5","4","3","4","4","4","3","4","5","7","4","7","5","4","6","6","8","3","6","5","5","6","4","5","6","6","6","1","6","5","4","7","6","3","6","5","5","6","2","4","4","5","5","5","4","5","5","6","5","5","7","7","3","4","3","6","4","5","612753157184815104","孟","481","Male","[""好我"",""坏我"",""坏他"",""好他""]","[""强我"",""弱我"",""弱他"",""强他""]","","","","","","","","nonmatch","","","","","","","","","","key","f","16.665765765765975","720","476","j","false","match","img/square.png","好他","好他","prac_ALT2_moral","practice_moral","","","","","","","","",""
"null","<span style='color:red; font-size: 70px;'>错误! </span>","null","html-keyboard-response","73","458200","0.0-8.0-0.0-1.0-0.0-1.31","6","6","6","5","4","4","4","5","4","5","5","0","-1","1","1","1","1","-1","0","5","4","5","4","3","4","4","4","3","4","5","7","4","7","5","4","6","6","8","3","6","5","5","6","4","5","6","6","6","1","6","5","4","7","6","3","6","5","5","6","2","4","4","5","5","5","4","5","5","6","5","5","7","7","3","4","3","6","4","5","612753157184815104","孟","481","Male","[""好我"",""坏我"",""坏他"",""好他""]","[""强我"",""弱我"",""弱他"",""强他""]","","","","","","","","","","","","","","","","","","","","","","","","","","","","","","feedback_test","","","","","","","","",""
"880","","f","psychophysics","74","460081","0.0-8.0-0.0-1.0-0.0-0.32","6","6","6","5","4","4","4","5","4","5","5","0","-1","1","1","1","1","-1","0","5","4","5","4","3","4","4","4","3","4","5","7","4","7","5","4","6","6","8","3","6","5","5","6","4","5","6","6","6","1","6","5","4","7","6","3","6","5","5","6","2","4","4","5","5","5","4","5","5","6","5","5","7","7","3","4","3","6","4","5","612753157184815104","孟","481","Male","[""好我"",""坏我"",""坏他"",""好他""]","[""强我"",""弱我"",""弱他"",""强他""]","","","","","","","","nonmatch","","","","","","","","","","key","f","16.661261261260947","720","476","j","false","match","img/pentagon.png","坏他","坏他","prac_ALT2_moral","practice_moral","","","","","","","","",""
"null","<span style='color:red; font-size: 70px;'>错误! </span>","null","html-keyboard-response","75","460582","0.0-8.0-0.0-1.0-0.0-1.32","6","6","6","5","4","4","4","5","4","5","5","0","-1","1","1","1","1","-1","0","5","4","5","4","3","4","4","4","3","4","5","7","4","7","5","4","6","6","8","3","6","5","5","6","4","5","6","6","6","1","6","5","4","7","6","3","6","5","5","6","2","4","4","5","5","5","4","5","5","6","5","5","7","7","3","4","3","6","4","5","612753157184815104","孟","481","Male","[""好我"",""坏我"",""坏他"",""好他""]","[""强我"",""弱我"",""弱他"",""强他""]","","","","","","","","","","","","","","","","","","","","","","","","","","","","","","feedback_test","","","","","","","","",""
"1098","","f","psychophysics","76","462682","0.0-8.0-0.0-1.0-0.0-0.33","6","6","6","5","4","4","4","5","4","5","5","0","-1","1","1","1","1","-1","0","5","4","5","4","3","4","4","4","3","4","5","7","4","7","5","4","6","6","8","3","6","5","5","6","4","5","6","6","6","1","6","5","4","7","6","3","6","5","5","6","2","4","4","5","5","5","4","5","5","6","5","5","7","7","3","4","3","6","4","5","612753157184815104","孟","481","Male","[""好我"",""坏我"",""坏他"",""好他""]","[""强我"",""弱我"",""弱他"",""强他""]","","","","","","","","nonmatch","","","","","","","","","","key","f","16.666129032258347","720","476","f","true","nonmatch","img/square.png","坏他","好他","prac_ALT2_moral","practice_moral","","","","","","","","",""
"null","<span style='color:GreenYellow; font-size: 70px;'>正确! </span>","null","html-keyboard-response","77","463183","0.0-8.0-0.0-1.0-0.0-1.33","6","6","6","5","4","4","4","5","4","5","5","0","-1","1","1","1","1","-1","0","5","4","5","4","3","4","4","4","3","4","5","7","4","7","5","4","6","6","8","3","6","5","5","6","4","5","6","6","6","1","6","5","4","7","6","3","6","5","5","6","2","4","4","5","5","5","4","5","5","6","5","5","7","7","3","4","3","6","4","5","612753157184815104","孟","481","Male","[""好我"",""坏我"",""坏他"",""好他""]","[""强我"",""弱我"",""弱他"",""强他""]","","","","","","","","","","","","","","","","","","","","","","","","","","","","","","feedback_test","","","","","","","","",""
"733","","f","psychophysics","78","464917","0.0-8.0-0.0-1.0-0.0-0.34","6","6","6","5","4","4","4","5","4","5","5","0","-1","1","1","1","1","-1","0","5","4","5","4","3","4","4","4","3","4","5","7","4","7","5","4","6","6","8","3","6","5","5","6","4","5","6","6","6","1","6","5","4","7","6","3","6","5","5","6","2","4","4","5","5","5","4","5","5","6","5","5","7","7","3","4","3","6","4","5","612753157184815104","孟","481","Male","[""好我"",""坏我"",""坏他"",""好他""]","[""强我"",""弱我"",""弱他"",""强他""]","","","","","","","","nonmatch","","","","","","","","","","key","f","16.655882352941404","720","476","j","false","match","img/diamond.png","坏我","坏我","prac_ALT2_moral","practice_moral","","","","","","","","",""
"null","<span style='color:red; font-size: 70px;'>错误! </span>","null","html-keyboard-response","79","465418","0.0-8.0-0.0-1.0-0.0-1.34","6","6","6","5","4","4","4","5","4","5","5","0","-1","1","1","1","1","-1","0","5","4","5","4","3","4","4","4","3","4","5","7","4","7","5","4","6","6","8","3","6","5","5","6","4","5","6","6","6","1","6","5","4","7","6","3","6","5","5","6","2","4","4","5","5","5","4","5","5","6","5","5","7","7","3","4","3","6","4","5","612753157184815104","孟","481","Male","[""好我"",""坏我"",""坏他"",""好他""]","[""强我"",""弱我"",""弱他"",""强他""]","","","","","","","","","","","","","","","","","","","","","","","","","","","","","","feedback_test","","","","","","","","",""
"null","","null","psychophysics","80","467621","0.0-8.0-0.0-1.0-0.0-0.35","6","6","6","5","4","4","4","5","4","5","5","0","-1","1","1","1","1","-1","0","5","4","5","4","3","4","4","4","3","4","5","7","4","7","5","4","6","6","8","3","6","5","5","6","4","5","6","6","6","1","6","5","4","7","6","3","6","5","5","6","2","4","4","5","5","5","4","5","5","6","5","5","7","7","3","4","3","6","4","5","612753157184815104","孟","481","Male","[""好我"",""坏我"",""坏他"",""好他""]","[""强我"",""弱我"",""弱他"",""强他""]","","","","","","","","null","","","","","","","","","","key","null","16.659541984733004","720","476","j","false","match","img/pentagon.png","坏他","坏他","prac_ALT2_moral","practice_moral","","","","","","","","",""
"null","<span class='add_' style='color:yellow; font-size: 70px;'> 太慢! </span>","null","html-keyboard-response","81","468122","0.0-8.0-0.0-1.0-0.0-1.35","6","6","6","5","4","4","4","5","4","5","5","0","-1","1","1","1","1","-1","0","5","4","5","4","3","4","4","4","3","4","5","7","4","7","5","4","6","6","8","3","6","5","5","6","4","5","6","6","6","1","6","5","4","7","6","3","6","5","5","6","2","4","4","5","5","5","4","5","5","6","5","5","7","7","3","4","3","6","4","5","612753157184815104","孟","481","Male","[""好我"",""坏我"",""坏他"",""好他""]","[""强我"",""弱我"",""弱他"",""强他""]","","","","","","","","","","","","","","","","","","","","","","","","","","","","","","feedback_test","","","","","","","","",""
"1097","","j","psychophysics","82","470220","0.0-8.0-0.0-1.0-0.0-0.36","6","6","6","5","4","4","4","5","4","5","5","0","-1","1","1","1","1","-1","0","5","4","5","4","3","4","4","4","3","4","5","7","4","7","5","4","6","6","8","3","6","5","5","6","4","5","6","6","6","1","6","5","4","7","6","3","6","5","5","6","2","4","4","5","5","5","4","5","5","6","5","5","7","7","3","4","3","6","4","5","612753157184815104","孟","481","Male","[""好我"",""坏我"",""坏他"",""好他""]","[""强我"",""弱我"",""弱他"",""强他""]","","","","","","","","match","","","","","","","","","","key","j","16.66048387096746","720","476","j","true","match","img/diamond.png","坏我","坏我","prac_ALT2_moral","practice_moral","","","","","","","","",""
"null","<span style='color:GreenYellow; font-size: 70px;'>正确! </span>","null","html-keyboard-response","83","470721","0.0-8.0-0.0-1.0-0.0-1.36","6","6","6","5","4","4","4","5","4","5","5","0","-1","1","1","1","1","-1","0","5","4","5","4","3","4","4","4","3","4","5","7","4","7","5","4","6","6","8","3","6","5","5","6","4","5","6","6","6","1","6","5","4","7","6","3","6","5","5","6","2","4","4","5","5","5","4","5","5","6","5","5","7","7","3","4","3","6","4","5","612753157184815104","孟","481","Male","[""好我"",""坏我"",""坏他"",""好他""]","[""强我"",""弱我"",""弱他"",""强他""]","","","","","","","","","","","","","","","","","","","","","","","","","","","","","","feedback_test","","","","","","","","",""
"662","","j","psychophysics","84","472386","0.0-8.0-0.0-1.0-0.0-0.37","6","6","6","5","4","4","4","5","4","5","5","0","-1","1","1","1","1","-1","0","5","4","5","4","3","4","4","4","3","4","5","7","4","7","5","4","6","6","8","3","6","5","5","6","4","5","6","6","6","1","6","5","4","7","6","3","6","5","5","6","2","4","4","5","5","5","4","5","5","6","5","5","7","7","3","4","3","6","4","5","612753157184815104","孟","481","Male","[""好我"",""坏我"",""坏他"",""好他""]","[""强我"",""弱我"",""弱他"",""强他""]","","","","","","","","match","","","","","","","","","","key","j","16.667676767676532","720","476","j","true","match","img/circle.png","好我","好我","prac_ALT2_moral","practice_moral","","","","","","","","",""
"null","<span style='color:GreenYellow; font-size: 70px;'>正确! </span>","null","html-keyboard-response","85","472888","0.0-8.0-0.0-1.0-0.0-1.37","6","6","6","5","4","4","4","5","4","5","5","0","-1","1","1","1","1","-1","0","5","4","5","4","3","4","4","4","3","4","5","7","4","7","5","4","6","6","8","3","6","5","5","6","4","5","6","6","6","1","6","5","4","7","6","3","6","5","5","6","2","4","4","5","5","5","4","5","5","6","5","5","7","7","3","4","3","6","4","5","612753157184815104","孟","481","Male","[""好我"",""坏我"",""坏他"",""好他""]","[""强我"",""弱我"",""弱他"",""强他""]","","","","","","","","","","","","","","","","","","","","","","","","","","","","","","feedback_test","","","","","","","","",""
"662","","j","psychophysics","86","474551","0.0-8.0-0.0-1.0-0.0-0.38","6","6","6","5","4","4","4","5","4","5","5","0","-1","1","1","1","1","-1","0","5","4","5","4","3","4","4","4","3","4","5","7","4","7","5","4","6","6","8","3","6","5","5","6","4","5","6","6","6","1","6","5","4","7","6","3","6","5","5","6","2","4","4","5","5","5","4","5","5","6","5","5","7","7","3","4","3","6","4","5","612753157184815104","孟","481","Male","[""好我"",""坏我"",""坏他"",""好他""]","[""强我"",""弱我"",""弱他"",""强他""]","","","","","","","","match","","","","","","","","","","key","j","16.664285714285477","720","476","j","true","match","img/circle.png","好我","好我","prac_ALT2_moral","practice_moral","","","","","","","","",""
"null","<span style='color:GreenYellow; font-size: 70px;'>正确! </span>","null","html-keyboard-response","87","475053","0.0-8.0-0.0-1.0-0.0-1.38","6","6","6","5","4","4","4","5","4","5","5","0","-1","1","1","1","1","-1","0","5","4","5","4","3","4","4","4","3","4","5","7","4","7","5","4","6","6","8","3","6","5","5","6","4","5","6","6","6","1","6","5","4","7","6","3","6","5","5","6","2","4","4","5","5","5","4","5","5","6","5","5","7","7","3","4","3","6","4","5","612753157184815104","孟","481","Male","[""好我"",""坏我"",""坏他"",""好他""]","[""强我"",""弱我"",""弱他"",""强他""]","","","","","","","","","","","","","","","","","","","","","","","","","","","","","","feedback_test","","","","","","","","",""
"797","","f","psychophysics","88","476852","0.0-8.0-0.0-1.0-0.0-0.39","6","6","6","5","4","4","4","5","4","5","5","0","-1","1","1","1","1","-1","0","5","4","5","4","3","4","4","4","3","4","5","7","4","7","5","4","6","6","8","3","6","5","5","6","4","5","6","6","6","1","6","5","4","7","6","3","6","5","5","6","2","4","4","5","5","5","4","5","5","6","5","5","7","7","3","4","3","6","4","5","612753157184815104","孟","481","Male","[""好我"",""坏我"",""坏他"",""好他""]","[""强我"",""弱我"",""弱他"",""强他""]","","","","","","","","nonmatch","","","","","","","","","","key","f","16.657547169810883","720","476","f","true","nonmatch","img/square.png","好我","好他","prac_ALT2_moral","practice_moral","","","","","","","","",""
"null","<span style='color:GreenYellow; font-size: 70px;'>正确! </span>","null","html-keyboard-response","89","477353","0.0-8.0-0.0-1.0-0.0-1.39","6","6","6","5","4","4","4","5","4","5","5","0","-1","1","1","1","1","-1","0","5","4","5","4","3","4","4","4","3","4","5","7","4","7","5","4","6","6","8","3","6","5","5","6","4","5","6","6","6","1","6","5","4","7","6","3","6","5","5","6","2","4","4","5","5","5","4","5","5","6","5","5","7","7","3","4","3","6","4","5","612753157184815104","孟","481","Male","[""好我"",""坏我"",""坏他"",""好他""]","[""强我"",""弱我"",""弱他"",""强他""]","","","","","","","","","","","","","","","","","","","","","","","","","","","","","","feedback_test","","","","","","","","",""
"896","","f","psychophysics","90","479250","0.0-8.0-0.0-1.0-0.0-0.40","6","6","6","5","4","4","4","5","4","5","5","0","-1","1","1","1","1","-1","0","5","4","5","4","3","4","4","4","3","4","5","7","4","7","5","4","6","6","8","3","6","5","5","6","4","5","6","6","6","1","6","5","4","7","6","3","6","5","5","6","2","4","4","5","5","5","4","5","5","6","5","5","7","7","3","4","3","6","4","5","612753157184815104","孟","481","Male","[""好我"",""坏我"",""坏他"",""好他""]","[""强我"",""弱我"",""弱他"",""强他""]","","","","","","","","nonmatch","","","","","","","","","","key","f","16.655357142856833","720","476","f","true","nonmatch","img/diamond.png","好我","坏我","prac_ALT2_moral","practice_moral","","","","","","","","",""
"null","<span style='color:GreenYellow; font-size: 70px;'>正确! </span>","null","html-keyboard-response","91","479751","0.0-8.0-0.0-1.0-0.0-1.40","6","6","6","5","4","4","4","5","4","5","5","0","-1","1","1","1","1","-1","0","5","4","5","4","3","4","4","4","3","4","5","7","4","7","5","4","6","6","8","3","6","5","5","6","4","5","6","6","6","1","6","5","4","7","6","3","6","5","5","6","2","4","4","5","5","5","4","5","5","6","5","5","7","7","3","4","3","6","4","5","612753157184815104","孟","481","Male","[""好我"",""坏我"",""坏他"",""好他""]","[""强我"",""弱我"",""弱他"",""强他""]","","","","","","","","","","","","","","","","","","","","","","","","","","","","","","feedback_test","","","","","","","","",""
"705","","f","psychophysics","92","481457","0.0-8.0-0.0-1.0-0.0-0.41","6","6","6","5","4","4","4","5","4","5","5","0","-1","1","1","1","1","-1","0","5","4","5","4","3","4","4","4","3","4","5","7","4","7","5","4","6","6","8","3","6","5","5","6","4","5","6","6","6","1","6","5","4","7","6","3","6","5","5","6","2","4","4","5","5","5","4","5","5","6","5","5","7","7","3","4","3","6","4","5","612753157184815104","孟","481","Male","[""好我"",""坏我"",""坏他"",""好他""]","[""强我"",""弱我"",""弱他"",""强他""]","","","","","","","","nonmatch","","","","","","","","","","key","f","16.659405940593828","720","476","f","true","nonmatch","img/circle.png","坏他","好我","prac_ALT2_moral","practice_moral","","","","","","","","",""
"null","<span style='color:GreenYellow; font-size: 70px;'>正确! </span>","null","html-keyboard-response","93","481958","0.0-8.0-0.0-1.0-0.0-1.41","6","6","6","5","4","4","4","5","4","5","5","0","-1","1","1","1","1","-1","0","5","4","5","4","3","4","4","4","3","4","5","7","4","7","5","4","6","6","8","3","6","5","5","6","4","5","6","6","6","1","6","5","4","7","6","3","6","5","5","6","2","4","4","5","5","5","4","5","5","6","5","5","7","7","3","4","3","6","4","5","612753157184815104","孟","481","Male","[""好我"",""坏我"",""坏他"",""好他""]","[""强我"",""弱我"",""弱他"",""强他""]","","","","","","","","","","","","","","","","","","","","","","","","","","","","","","feedback_test","","","","","","","","",""
"703","","f","psychophysics","94","483663","0.0-8.0-0.0-1.0-0.0-0.42","6","6","6","5","4","4","4","5","4","5","5","0","-1","1","1","1","1","-1","0","5","4","5","4","3","4","4","4","3","4","5","7","4","7","5","4","6","6","8","3","6","5","5","6","4","5","6","6","6","1","6","5","4","7","6","3","6","5","5","6","2","4","4","5","5","5","4","5","5","6","5","5","7","7","3","4","3","6","4","5","612753157184815104","孟","481","Male","[""好我"",""坏我"",""坏他"",""好他""]","[""强我"",""弱我"",""弱他"",""强他""]","","","","","","","","nonmatch","","","","","","","","","","key","f","16.661386138613747","720","476","j","false","match","img/pentagon.png","坏他","坏他","prac_ALT2_moral","practice_moral","","","","","","","","",""
"null","<span style='color:red; font-size: 70px;'>错误! </span>","null","html-keyboard-response","95","484164","0.0-8.0-0.0-1.0-0.0-1.42","6","6","6","5","4","4","4","5","4","5","5","0","-1","1","1","1","1","-1","0","5","4","5","4","3","4","4","4","3","4","5","7","4","7","5","4","6","6","8","3","6","5","5","6","4","5","6","6","6","1","6","5","4","7","6","3","6","5","5","6","2","4","4","5","5","5","4","5","5","6","5","5","7","7","3","4","3","6","4","5","612753157184815104","孟","481","Male","[""好我"",""坏我"",""坏他"",""好他""]","[""强我"",""弱我"",""弱他"",""强他""]","","","","","","","","","","","","","","","","","","","","","","","","","","","","","","feedback_test","","","","","","","","",""
"905","","j","psychophysics","96","486070","0.0-8.0-0.0-1.0-0.0-0.43","6","6","6","5","4","4","4","5","4","5","5","0","-1","1","1","1","1","-1","0","5","4","5","4","3","4","4","4","3","4","5","7","4","7","5","4","6","6","8","3","6","5","5","6","4","5","6","6","6","1","6","5","4","7","6","3","6","5","5","6","2","4","4","5","5","5","4","5","5","6","5","5","7","7","3","4","3","6","4","5","612753157184815104","孟","481","Male","[""好我"",""坏我"",""坏他"",""好他""]","[""强我"",""弱我"",""弱他"",""强他""]","","","","","","","","match","","","","","","","","","","key","j","16.66106194690276","720","476","j","true","match","img/square.png","好他","好他","prac_ALT2_moral","practice_moral","","","","","","","","",""
"null","<span style='color:GreenYellow; font-size: 70px;'>正确! </span>","null","html-keyboard-response","97","486572","0.0-8.0-0.0-1.0-0.0-1.43","6","6","6","5","4","4","4","5","4","5","5","0","-1","1","1","1","1","-1","0","5","4","5","4","3","4","4","4","3","4","5","7","4","7","5","4","6","6","8","3","6","5","5","6","4","5","6","6","6","1","6","5","4","7","6","3","6","5","5","6","2","4","4","5","5","5","4","5","5","6","5","5","7","7","3","4","3","6","4","5","612753157184815104","孟","481","Male","[""好我"",""坏我"",""坏他"",""好他""]","[""强我"",""弱我"",""弱他"",""强他""]","","","","","","","","","","","","","","","","","","","","","","","","","","","","","","feedback_test","","","","","","","","",""
"851","","f","psychophysics","98","488423","0.0-8.0-0.0-1.0-0.0-0.44","6","6","6","5","4","4","4","5","4","5","5","0","-1","1","1","1","1","-1","0","5","4","5","4","3","4","4","4","3","4","5","7","4","7","5","4","6","6","8","3","6","5","5","6","4","5","6","6","6","1","6","5","4","7","6","3","6","5","5","6","2","4","4","5","5","5","4","5","5","6","5","5","7","7","3","4","3","6","4","5","612753157184815104","孟","481","Male","[""好我"",""坏我"",""坏他"",""好他""]","[""强我"",""弱我"",""弱他"",""强他""]","","","","","","","","nonmatch","","","","","","","","","","key","f","16.661818181818077","720","476","f","true","nonmatch","img/circle.png","好他","好我","prac_ALT2_moral","practice_moral","","","","","","","","",""
"null","<span style='color:GreenYellow; font-size: 70px;'>正确! </span>","null","html-keyboard-response","99","488925","0.0-8.0-0.0-1.0-0.0-1.44","6","6","6","5","4","4","4","5","4","5","5","0","-1","1","1","1","1","-1","0","5","4","5","4","3","4","4","4","3","4","5","7","4","7","5","4","6","6","8","3","6","5","5","6","4","5","6","6","6","1","6","5","4","7","6","3","6","5","5","6","2","4","4","5","5","5","4","5","5","6","5","5","7","7","3","4","3","6","4","5","612753157184815104","孟","481","Male","[""好我"",""坏我"",""坏他"",""好他""]","[""强我"",""弱我"",""弱他"",""强他""]","","","","","","","","","","","","","","","","","","","","","","","","","","","","","","feedback_test","","","","","","","","",""
"943","","f","psychophysics","100","490869","0.0-8.0-0.0-1.0-0.0-0.45","6","6","6","5","4","4","4","5","4","5","5","0","-1","1","1","1","1","-1","0","5","4","5","4","3","4","4","4","3","4","5","7","4","7","5","4","6","6","8","3","6","5","5","6","4","5","6","6","6","1","6","5","4","7","6","3","6","5","5","6","2","4","4","5","5","5","4","5","5","6","5","5","7","7","3","4","3","6","4","5","612753157184815104","孟","481","Male","[""好我"",""坏我"",""坏他"",""好他""]","[""强我"",""弱我"",""弱他"",""强他""]","","","","","","","","nonmatch","","","","","","","","","","key","f","16.659130434782508","720","476","f","true","nonmatch","img/pentagon.png","好我","坏他","prac_ALT2_moral","practice_moral","","","","","","","","",""
"null","<span style='color:GreenYellow; font-size: 70px;'>正确! </span>","null","html-keyboard-response","101","491370","0.0-8.0-0.0-1.0-0.0-1.45","6","6","6","5","4","4","4","5","4","5","5","0","-1","1","1","1","1","-1","0","5","4","5","4","3","4","4","4","3","4","5","7","4","7","5","4","6","6","8","3","6","5","5","6","4","5","6","6","6","1","6","5","4","7","6","3","6","5","5","6","2","4","4","5","5","5","4","5","5","6","5","5","7","7","3","4","3","6","4","5","612753157184815104","孟","481","Male","[""好我"",""坏我"",""坏他"",""好他""]","[""强我"",""弱我"",""弱他"",""强他""]","","","","","","","","","","","","","","","","","","","","","","","","","","","","","","feedback_test","","","","","","","","",""
"1024","","j","psychophysics","102","493395","0.0-8.0-0.0-1.0-0.0-0.46","6","6","6","5","4","4","4","5","4","5","5","0","-1","1","1","1","1","-1","0","5","4","5","4","3","4","4","4","3","4","5","7","4","7","5","4","6","6","8","3","6","5","5","6","4","5","6","6","6","1","6","5","4","7","6","3","6","5","5","6","2","4","4","5","5","5","4","5","5","6","5","5","7","7","3","4","3","6","4","5","612753157184815104","孟","481","Male","[""好我"",""坏我"",""坏他"",""好他""]","[""强我"",""弱我"",""弱他"",""强他""]","","","","","","","","match","","","","","","","","","","key","j","16.657500000000194","720","476","f","false","nonmatch","img/square.png","坏我","好他","prac_ALT2_moral","practice_moral","","","","","","","","",""
"null","<span style='color:red; font-size: 70px;'>错误! </span>","null","html-keyboard-response","103","493896","0.0-8.0-0.0-1.0-0.0-1.46","6","6","6","5","4","4","4","5","4","5","5","0","-1","1","1","1","1","-1","0","5","4","5","4","3","4","4","4","3","4","5","7","4","7","5","4","6","6","8","3","6","5","5","6","4","5","6","6","6","1","6","5","4","7","6","3","6","5","5","6","2","4","4","5","5","5","4","5","5","6","5","5","7","7","3","4","3","6","4","5","612753157184815104","孟","481","Male","[""好我"",""坏我"",""坏他"",""好他""]","[""强我"",""弱我"",""弱他"",""强他""]","","","","","","","","","","","","","","","","","","","","","","","","","","","","","","feedback_test","","","","","","","","",""
"774","","f","psychophysics","104","495671","0.0-8.0-0.0-1.0-0.0-0.47","6","6","6","5","4","4","4","5","4","5","5","0","-1","1","1","1","1","-1","0","5","4","5","4","3","4","4","4","3","4","5","7","4","7","5","4","6","6","8","3","6","5","5","6","4","5","6","6","6","1","6","5","4","7","6","3","6","5","5","6","2","4","4","5","5","5","4","5","5","6","5","5","7","7","3","4","3","6","4","5","612753157184815104","孟","481","Male","[""好我"",""坏我"",""坏他"",""好他""]","[""强我"",""弱我"",""弱他"",""强他""]","","","","","","","","nonmatch","","","","","","","","","","key","f","16.664761904762347","720","476","j","false","match","img/square.png","好他","好他","prac_ALT2_moral","practice_moral","","","","","","","","",""
"null","<span style='color:red; font-size: 70px;'>错误! </span>","null","html-keyboard-response","105","496172","0.0-8.0-0.0-1.0-0.0-1.47","6","6","6","5","4","4","4","5","4","5","5","0","-1","1","1","1","1","-1","0","5","4","5","4","3","4","4","4","3","4","5","7","4","7","5","4","6","6","8","3","6","5","5","6","4","5","6","6","6","1","6","5","4","7","6","3","6","5","5","6","2","4","4","5","5","5","4","5","5","6","5","5","7","7","3","4","3","6","4","5","612753157184815104","孟","481","Male","[""好我"",""坏我"",""坏他"",""好他""]","[""强我"",""弱我"",""弱他"",""强他""]","","","","","","","","","","","","","","","","","","","","","","","","","","","","","","feedback_test","","","","","","","","",""
"75854","<style>.context{color:white; font-size: 35px; line-height:40px}</style>                            <div><p class='context'>您正确回答了79% 的试次。</p><p class='context'>您的平均反应时为870毫秒。</p><p class='context'>恭喜您完成练习。按空格键进入正式实验。</p><p class='footer' style='font-size: 35px; line-height:40px;'>请在进入正式实验实验之前将您的<span style='color: lightgreen;'>食指</span>放在电脑键盘的相应键位上进行按键。</p>"," ","html-keyboard-response","106","572029","0.0-8.0-0.0-2.0","6","6","6","5","4","4","4","5","4","5","5","0","-1","1","1","1","1","-1","0","5","4","5","4","3","4","4","4","3","4","5","7","4","7","5","4","6","6","8","3","6","5","5","6","4","5","6","6","6","1","6","5","4","7","6","3","6","5","5","6","2","4","4","5","5","5","4","5","5","6","5","5","7","7","3","4","3","6","4","5","612753157184815104","孟","481","Male","[""好我"",""坏我"",""坏他"",""好他""]","[""强我"",""弱我"",""弱他"",""强他""]","","","","","","","","","","","","","","","","","","","","","","","","","","","","","","","","","","","","","","",""
"2684","
    <p style='color: white; font-size: 22px'>请您将手指放在按键上，准备进入正式的匹配任务。</p>
    <p> <div style = ""color: green""><按空格键进入下一阶段的匹配任务></div></p>
    "," ","html-keyboard-response","107","574715","0.0-8.0-0.0-3.0","6","6","6","5","4","4","4","5","4","5","5","0","-1","1","1","1","1","-1","0","5","4","5","4","3","4","4","4","3","4","5","7","4","7","5","4","6","6","8","3","6","5","5","6","4","5","6","6","6","1","6","5","4","7","6","3","6","5","5","6","2","4","4","5","5","5","4","5","5","6","5","5","7","7","3","4","3","6","4","5","612753157184815104","孟","481","Male","[""好我"",""坏我"",""坏他"",""好他""]","[""强我"",""弱我"",""弱他"",""强他""]","","","","","","","","","","","","","","","","","","","","","","","","","","","","","","","","","","","","","","",""
"911","","f","psychophysics","108","576628","0.0-8.0-0.0-4.0-0.0-0.0","6","6","6","5","4","4","4","5","4","5","5","0","-1","1","1","1","1","-1","0","5","4","5","4","3","4","4","4","3","4","5","7","4","7","5","4","6","6","8","3","6","5","5","6","4","5","6","6","6","1","6","5","4","7","6","3","6","5","5","6","2","4","4","5","5","5","4","5","5","6","5","5","7","7","3","4","3","6","4","5","612753157184815104","孟","481","Male","[""好我"",""坏我"",""坏他"",""好他""]","[""强我"",""弱我"",""弱他"",""强他""]","","","","","","","","nonmatch","","","","","","","","","","key","f","16.667256637168347","720","476","f","true","nonmatch","img/square.png","坏他","好他","ALT2","moral","","","","","","","","",""
"null","<span style='color:GreenYellow; font-size: 70px;'>正确! </span>","null","html-keyboard-response","109","577129","0.0-8.0-0.0-4.0-0.0-1.0","6","6","6","5","4","4","4","5","4","5","5","0","-1","1","1","1","1","-1","0","5","4","5","4","3","4","4","4","3","4","5","7","4","7","5","4","6","6","8","3","6","5","5","6","4","5","6","6","6","1","6","5","4","7","6","3","6","5","5","6","2","4","4","5","5","5","4","5","5","6","5","5","7","7","3","4","3","6","4","5","612753157184815104","孟","481","Male","[""好我"",""坏我"",""坏他"",""好他""]","[""强我"",""弱我"",""弱他"",""强他""]","","","","","","","","","","","","","","","","","","","","","","","","","","","","","","feedback_test","","","","","","","","",""
"1034","","f","psychophysics","110","579165","0.0-8.0-0.0-4.0-0.0-0.1","6","6","6","5","4","4","4","5","4","5","5","0","-1","1","1","1","1","-1","0","5","4","5","4","3","4","4","4","3","4","5","7","4","7","5","4","6","6","8","3","6","5","5","6","4","5","6","6","6","1","6","5","4","7","6","3","6","5","5","6","2","4","4","5","5","5","4","5","5","6","5","5","7","7","3","4","3","6","4","5","612753157184815104","孟","481","Male","[""好我"",""坏我"",""坏他"",""好他""]","[""强我"",""弱我"",""弱他"",""强他""]","","","","","","","","nonmatch","","","","","","","","","","key","f","16.666115702479146","720","476","j","false","match","img/square.png","好他","好他","ALT2","moral","","","","","","","","",""
"null","<span style='color:red; font-size: 70px;'>错误! </span>","null","html-keyboard-response","111","579667","0.0-8.0-0.0-4.0-0.0-1.1","6","6","6","5","4","4","4","5","4","5","5","0","-1","1","1","1","1","-1","0","5","4","5","4","3","4","4","4","3","4","5","7","4","7","5","4","6","6","8","3","6","5","5","6","4","5","6","6","6","1","6","5","4","7","6","3","6","5","5","6","2","4","4","5","5","5","4","5","5","6","5","5","7","7","3","4","3","6","4","5","612753157184815104","孟","481","Male","[""好我"",""坏我"",""坏他"",""好他""]","[""强我"",""弱我"",""弱他"",""强他""]","","","","","","","","","","","","","","","","","","","","","","","","","","","","","","feedback_test","","","","","","","","",""
"844","","f","psychophysics","112","581513","0.0-8.0-0.0-4.0-0.0-0.2","6","6","6","5","4","4","4","5","4","5","5","0","-1","1","1","1","1","-1","0","5","4","5","4","3","4","4","4","3","4","5","7","4","7","5","4","6","6","8","3","6","5","5","6","4","5","6","6","6","1","6","5","4","7","6","3","6","5","5","6","2","4","4","5","5","5","4","5","5","6","5","5","7","7","3","4","3","6","4","5","612753157184815104","孟","481","Male","[""好我"",""坏我"",""坏他"",""好他""]","[""强我"",""弱我"",""弱他"",""强他""]","","","","","","","","nonmatch","","","","","","","","","","key","f","16.65688073394474","720","476","j","false","match","img/pentagon.png","坏他","坏他","ALT2","moral","","","","","","","","",""
"null","<span style='color:red; font-size: 70px;'>错误! </span>","null","html-keyboard-response","113","582025","0.0-8.0-0.0-4.0-0.0-1.2","6","6","6","5","4","4","4","5","4","5","5","0","-1","1","1","1","1","-1","0","5","4","5","4","3","4","4","4","3","4","5","7","4","7","5","4","6","6","8","3","6","5","5","6","4","5","6","6","6","1","6","5","4","7","6","3","6","5","5","6","2","4","4","5","5","5","4","5","5","6","5","5","7","7","3","4","3","6","4","5","612753157184815104","孟","481","Male","[""好我"",""坏我"",""坏他"",""好他""]","[""强我"",""弱我"",""弱他"",""强他""]","","","","","","","","","","","","","","","","","","","","","","","","","","","","","","feedback_test","","","","","","","","",""
"921","","j","psychophysics","114","583949","0.0-8.0-0.0-4.0-0.0-0.3","6","6","6","5","4","4","4","5","4","5","5","0","-1","1","1","1","1","-1","0","5","4","5","4","3","4","4","4","3","4","5","7","4","7","5","4","6","6","8","3","6","5","5","6","4","5","6","6","6","1","6","5","4","7","6","3","6","5","5","6","2","4","4","5","5","5","4","5","5","6","5","5","7","7","3","4","3","6","4","5","612753157184815104","孟","481","Male","[""好我"",""坏我"",""坏他"",""好他""]","[""强我"",""弱我"",""弱他"",""强他""]","","","","","","","","match","","","","","","","","","","key","j","16.661403508772135","720","476","j","true","match","img/square.png","好他","好他","ALT2","moral","","","","","","","","",""
"null","<span style='color:GreenYellow; font-size: 70px;'>正确! </span>","null","html-keyboard-response","115","584451","0.0-8.0-0.0-4.0-0.0-1.3","6","6","6","5","4","4","4","5","4","5","5","0","-1","1","1","1","1","-1","0","5","4","5","4","3","4","4","4","3","4","5","7","4","7","5","4","6","6","8","3","6","5","5","6","4","5","6","6","6","1","6","5","4","7","6","3","6","5","5","6","2","4","4","5","5","5","4","5","5","6","5","5","7","7","3","4","3","6","4","5","612753157184815104","孟","481","Male","[""好我"",""坏我"",""坏他"",""好他""]","[""强我"",""弱我"",""弱他"",""强他""]","","","","","","","","","","","","","","","","","","","","","","","","","","","","","","feedback_test","","","","","","","","",""
"854","","f","psychophysics","116","586306","0.0-8.0-0.0-4.0-0.0-0.4","6","6","6","5","4","4","4","5","4","5","5","0","-1","1","1","1","1","-1","0","5","4","5","4","3","4","4","4","3","4","5","7","4","7","5","4","6","6","8","3","6","5","5","6","4","5","6","6","6","1","6","5","4","7","6","3","6","5","5","6","2","4","4","5","5","5","4","5","5","6","5","5","7","7","3","4","3","6","4","5","612753157184815104","孟","481","Male","[""好我"",""坏我"",""坏他"",""好他""]","[""强我"",""弱我"",""弱他"",""强他""]","","","","","","","","nonmatch","","","","","","","","","","key","f","16.66636363636406","720","476","j","false","match","img/diamond.png","坏我","坏我","ALT2","moral","","","","","","","","",""
"null","<span style='color:red; font-size: 70px;'>错误! </span>","null","html-keyboard-response","117","586807","0.0-8.0-0.0-4.0-0.0-1.4","6","6","6","5","4","4","4","5","4","5","5","0","-1","1","1","1","1","-1","0","5","4","5","4","3","4","4","4","3","4","5","7","4","7","5","4","6","6","8","3","6","5","5","6","4","5","6","6","6","1","6","5","4","7","6","3","6","5","5","6","2","4","4","5","5","5","4","5","5","6","5","5","7","7","3","4","3","6","4","5","612753157184815104","孟","481","Male","[""好我"",""坏我"",""坏他"",""好他""]","[""强我"",""弱我"",""弱他"",""强他""]","","","","","","","","","","","","","","","","","","","","","","","","","","","","","","feedback_test","","","","","","","","",""
"959","","f","psychophysics","118","588768","0.0-8.0-0.0-4.0-0.0-0.5","6","6","6","5","4","4","4","5","4","5","5","0","-1","1","1","1","1","-1","0","5","4","5","4","3","4","4","4","3","4","5","7","4","7","5","4","6","6","8","3","6","5","5","6","4","5","6","6","6","1","6","5","4","7","6","3","6","5","5","6","2","4","4","5","5","5","4","5","5","6","5","5","7","7","3","4","3","6","4","5","612753157184815104","孟","481","Male","[""好我"",""坏我"",""坏他"",""好他""]","[""强我"",""弱我"",""弱他"",""强他""]","","","","","","","","nonmatch","","","","","","","","","","key","f","16.660344827586005","720","476","f","true","nonmatch","img/circle.png","坏我","好我","ALT2","moral","","","","","","","","",""
"null","<span style='color:GreenYellow; font-size: 70px;'>正确! </span>","null","html-keyboard-response","119","589269","0.0-8.0-0.0-4.0-0.0-1.5","6","6","6","5","4","4","4","5","4","5","5","0","-1","1","1","1","1","-1","0","5","4","5","4","3","4","4","4","3","4","5","7","4","7","5","4","6","6","8","3","6","5","5","6","4","5","6","6","6","1","6","5","4","7","6","3","6","5","5","6","2","4","4","5","5","5","4","5","5","6","5","5","7","7","3","4","3","6","4","5","612753157184815104","孟","481","Male","[""好我"",""坏我"",""坏他"",""好他""]","[""强我"",""弱我"",""弱他"",""强他""]","","","","","","","","","","","","","","","","","","","","","","","","","","","","","","feedback_test","","","","","","","","",""
"505","","j","psychophysics","120","590775","0.0-8.0-0.0-4.0-0.0-0.6","6","6","6","5","4","4","4","5","4","5","5","0","-1","1","1","1","1","-1","0","5","4","5","4","3","4","4","4","3","4","5","7","4","7","5","4","6","6","8","3","6","5","5","6","4","5","6","6","6","1","6","5","4","7","6","3","6","5","5","6","2","4","4","5","5","5","4","5","5","6","5","5","7","7","3","4","3","6","4","5","612753157184815104","孟","481","Male","[""好我"",""坏我"",""坏他"",""好他""]","[""强我"",""弱我"",""弱他"",""强他""]","","","","","","","","match","","","","","","","","","","key","j","16.666292134831984","720","476","j","true","match","img/circle.png","好我","好我","ALT2","moral","","","","","","","","",""
"null","<span style='color:GreenYellow; font-size: 70px;'>正确! </span>","null","html-keyboard-response","121","591276","0.0-8.0-0.0-4.0-0.0-1.6","6","6","6","5","4","4","4","5","4","5","5","0","-1","1","1","1","1","-1","0","5","4","5","4","3","4","4","4","3","4","5","7","4","7","5","4","6","6","8","3","6","5","5","6","4","5","6","6","6","1","6","5","4","7","6","3","6","5","5","6","2","4","4","5","5","5","4","5","5","6","5","5","7","7","3","4","3","6","4","5","612753157184815104","孟","481","Male","[""好我"",""坏我"",""坏他"",""好他""]","[""强我"",""弱我"",""弱他"",""强他""]","","","","","","","","","","","","","","","","","","","","","","","","","","","","","","feedback_test","","","","","","","","",""
"788","","f","psychophysics","122","593065","0.0-8.0-0.0-4.0-0.0-0.7","6","6","6","5","4","4","4","5","4","5","5","0","-1","1","1","1","1","-1","0","5","4","5","4","3","4","4","4","3","4","5","7","4","7","5","4","6","6","8","3","6","5","5","6","4","5","6","6","6","1","6","5","4","7","6","3","6","5","5","6","2","4","4","5","5","5","4","5","5","6","5","5","7","7","3","4","3","6","4","5","612753157184815104","孟","481","Male","[""好我"",""坏我"",""坏他"",""好他""]","[""强我"",""弱我"",""弱他"",""强他""]","","","","","","","","nonmatch","","","","","","","","","","key","f","16.671028037383614","720","476","f","true","nonmatch","img/pentagon.png","坏我","坏他","ALT2","moral","","","","","","","","",""
"null","<span style='color:GreenYellow; font-size: 70px;'>正确! </span>","null","html-keyboard-response","123","593566","0.0-8.0-0.0-4.0-0.0-1.7","6","6","6","5","4","4","4","5","4","5","5","0","-1","1","1","1","1","-1","0","5","4","5","4","3","4","4","4","3","4","5","7","4","7","5","4","6","6","8","3","6","5","5","6","4","5","6","6","6","1","6","5","4","7","6","3","6","5","5","6","2","4","4","5","5","5","4","5","5","6","5","5","7","7","3","4","3","6","4","5","612753157184815104","孟","481","Male","[""好我"",""坏我"",""坏他"",""好他""]","[""强我"",""弱我"",""弱他"",""强他""]","","","","","","","","","","","","","","","","","","","","","","","","","","","","","","feedback_test","","","","","","","","",""
"663","","f","psychophysics","124","595231","0.0-8.0-0.0-4.0-0.0-0.8","6","6","6","5","4","4","4","5","4","5","5","0","-1","1","1","1","1","-1","0","5","4","5","4","3","4","4","4","3","4","5","7","4","7","5","4","6","6","8","3","6","5","5","6","4","5","6","6","6","1","6","5","4","7","6","3","6","5","5","6","2","4","4","5","5","5","4","5","5","6","5","5","7","7","3","4","3","6","4","5","612753157184815104","孟","481","Male","[""好我"",""坏我"",""坏他"",""好他""]","[""强我"",""弱我"",""弱他"",""强他""]","","","","","","","","nonmatch","","","","","","","","","","key","f","16.65918367346915","720","476","f","true","nonmatch","img/pentagon.png","好我","坏他","ALT2","moral","","","","","","","","",""
"null","<span style='color:GreenYellow; font-size: 70px;'>正确! </span>","null","html-keyboard-response","125","595733","0.0-8.0-0.0-4.0-0.0-1.8","6","6","6","5","4","4","4","5","4","5","5","0","-1","1","1","1","1","-1","0","5","4","5","4","3","4","4","4","3","4","5","7","4","7","5","4","6","6","8","3","6","5","5","6","4","5","6","6","6","1","6","5","4","7","6","3","6","5","5","6","2","4","4","5","5","5","4","5","5","6","5","5","7","7","3","4","3","6","4","5","612753157184815104","孟","481","Male","[""好我"",""坏我"",""坏他"",""好他""]","[""强我"",""弱我"",""弱他"",""强他""]","","","","","","","","","","","","","","","","","","","","","","","","","","","","","","feedback_test","","","","","","","","",""
"879","","j","psychophysics","126","597613","0.0-8.0-0.0-4.0-0.0-0.9","6","6","6","5","4","4","4","5","4","5","5","0","-1","1","1","1","1","-1","0","5","4","5","4","3","4","4","4","3","4","5","7","4","7","5","4","6","6","8","3","6","5","5","6","4","5","6","6","6","1","6","5","4","7","6","3","6","5","5","6","2","4","4","5","5","5","4","5","5","6","5","5","7","7","3","4","3","6","4","5","612753157184815104","孟","481","Male","[""好我"",""坏我"",""坏他"",""好他""]","[""强我"",""弱我"",""弱他"",""强他""]","","","","","","","","match","","","","","","","","","","key","j","16.653153153153152","720","476","j","true","match","img/square.png","好他","好他","ALT2","moral","","","","","","","","",""
"null","<span style='color:GreenYellow; font-size: 70px;'>正确! </span>","null","html-keyboard-response","127","598114","0.0-8.0-0.0-4.0-0.0-1.9","6","6","6","5","4","4","4","5","4","5","5","0","-1","1","1","1","1","-1","0","5","4","5","4","3","4","4","4","3","4","5","7","4","7","5","4","6","6","8","3","6","5","5","6","4","5","6","6","6","1","6","5","4","7","6","3","6","5","5","6","2","4","4","5","5","5","4","5","5","6","5","5","7","7","3","4","3","6","4","5","612753157184815104","孟","481","Male","[""好我"",""坏我"",""坏他"",""好他""]","[""强我"",""弱我"",""弱他"",""强他""]","","","","","","","","","","","","","","","","","","","","","","","","","","","","","","feedback_test","","","","","","","","",""
"695","","f","psychophysics","128","599811","0.0-8.0-0.0-4.0-0.0-0.10","6","6","6","5","4","4","4","5","4","5","5","0","-1","1","1","1","1","-1","0","5","4","5","4","3","4","4","4","3","4","5","7","4","7","5","4","6","6","8","3","6","5","5","6","4","5","6","6","6","1","6","5","4","7","6","3","6","5","5","6","2","4","4","5","5","5","4","5","5","6","5","5","7","7","3","4","3","6","4","5","612753157184815104","孟","481","Male","[""好我"",""坏我"",""坏他"",""好他""]","[""强我"",""弱我"",""弱他"",""强他""]","","","","","","","","nonmatch","","","","","","","","","","key","f","16.6570000000007","720","476","f","true","nonmatch","img/diamond.png","好我","坏我","ALT2","moral","","","","","","","","",""
"null","<span style='color:GreenYellow; font-size: 70px;'>正确! </span>","null","html-keyboard-response","129","600312","0.0-8.0-0.0-4.0-0.0-1.10","6","6","6","5","4","4","4","5","4","5","5","0","-1","1","1","1","1","-1","0","5","4","5","4","3","4","4","4","3","4","5","7","4","7","5","4","6","6","8","3","6","5","5","6","4","5","6","6","6","1","6","5","4","7","6","3","6","5","5","6","2","4","4","5","5","5","4","5","5","6","5","5","7","7","3","4","3","6","4","5","612753157184815104","孟","481","Male","[""好我"",""坏我"",""坏他"",""好他""]","[""强我"",""弱我"",""弱他"",""强他""]","","","","","","","","","","","","","","","","","","","","","","","","","","","","","","feedback_test","","","","","","","","",""
"793","","f","psychophysics","130","602106","0.0-8.0-0.0-4.0-0.0-0.11","6","6","6","5","4","4","4","5","4","5","5","0","-1","1","1","1","1","-1","0","5","4","5","4","3","4","4","4","3","4","5","7","4","7","5","4","6","6","8","3","6","5","5","6","4","5","6","6","6","1","6","5","4","7","6","3","6","5","5","6","2","4","4","5","5","5","4","5","5","6","5","5","7","7","3","4","3","6","4","5","612753157184815104","孟","481","Male","[""好我"",""坏我"",""坏他"",""好他""]","[""强我"",""弱我"",""弱他"",""强他""]","","","","","","","","nonmatch","","","","","","","","","","key","f","16.65754716981198","720","476","f","true","nonmatch","img/square.png","坏我","好他","ALT2","moral","","","","","","","","",""
"null","<span style='color:GreenYellow; font-size: 70px;'>正确! </span>","null","html-keyboard-response","131","602607","0.0-8.0-0.0-4.0-0.0-1.11","6","6","6","5","4","4","4","5","4","5","5","0","-1","1","1","1","1","-1","0","5","4","5","4","3","4","4","4","3","4","5","7","4","7","5","4","6","6","8","3","6","5","5","6","4","5","6","6","6","1","6","5","4","7","6","3","6","5","5","6","2","4","4","5","5","5","4","5","5","6","5","5","7","7","3","4","3","6","4","5","612753157184815104","孟","481","Male","[""好我"",""坏我"",""坏他"",""好他""]","[""强我"",""弱我"",""弱他"",""强他""]","","","","","","","","","","","","","","","","","","","","","","","","","","","","","","feedback_test","","","","","","","","",""
"1068","","j","psychophysics","132","604677","0.0-8.0-0.0-4.0-0.0-0.12","6","6","6","5","4","4","4","5","4","5","5","0","-1","1","1","1","1","-1","0","5","4","5","4","3","4","4","4","3","4","5","7","4","7","5","4","6","6","8","3","6","5","5","6","4","5","6","6","6","1","6","5","4","7","6","3","6","5","5","6","2","4","4","5","5","5","4","5","5","6","5","5","7","7","3","4","3","6","4","5","612753157184815104","孟","481","Male","[""好我"",""坏我"",""坏他"",""好他""]","[""强我"",""弱我"",""弱他"",""强他""]","","","","","","","","match","","","","","","","","","","key","j","16.660975609756477","720","476","f","false","nonmatch","img/diamond.png","好他","坏我","ALT2","moral","","","","","","","","",""
"null","<span style='color:red; font-size: 70px;'>错误! </span>","null","html-keyboard-response","133","605178","0.0-8.0-0.0-4.0-0.0-1.12","6","6","6","5","4","4","4","5","4","5","5","0","-1","1","1","1","1","-1","0","5","4","5","4","3","4","4","4","3","4","5","7","4","7","5","4","6","6","8","3","6","5","5","6","4","5","6","6","6","1","6","5","4","7","6","3","6","5","5","6","2","4","4","5","5","5","4","5","5","6","5","5","7","7","3","4","3","6","4","5","612753157184815104","孟","481","Male","[""好我"",""坏我"",""坏他"",""好他""]","[""强我"",""弱我"",""弱他"",""强他""]","","","","","","","","","","","","","","","","","","","","","","","","","","","","","","feedback_test","","","","","","","","",""
"770","","j","psychophysics","134","606949","0.0-8.0-0.0-4.0-0.0-0.13","6","6","6","5","4","4","4","5","4","5","5","0","-1","1","1","1","1","-1","0","5","4","5","4","3","4","4","4","3","4","5","7","4","7","5","4","6","6","8","3","6","5","5","6","4","5","6","6","6","1","6","5","4","7","6","3","6","5","5","6","2","4","4","5","5","5","4","5","5","6","5","5","7","7","3","4","3","6","4","5","612753157184815104","孟","481","Male","[""好我"",""坏我"",""坏他"",""好他""]","[""强我"",""弱我"",""弱他"",""强他""]","","","","","","","","match","","","","","","","","","","key","j","16.659047619048284","720","476","j","true","match","img/circle.png","好我","好我","ALT2","moral","","","","","","","","",""
"null","<span style='color:GreenYellow; font-size: 70px;'>正确! </span>","null","html-keyboard-response","135","607450","0.0-8.0-0.0-4.0-0.0-1.13","6","6","6","5","4","4","4","5","4","5","5","0","-1","1","1","1","1","-1","0","5","4","5","4","3","4","4","4","3","4","5","7","4","7","5","4","6","6","8","3","6","5","5","6","4","5","6","6","6","1","6","5","4","7","6","3","6","5","5","6","2","4","4","5","5","5","4","5","5","6","5","5","7","7","3","4","3","6","4","5","612753157184815104","孟","481","Male","[""好我"",""坏我"",""坏他"",""好他""]","[""强我"",""弱我"",""弱他"",""强他""]","","","","","","","","","","","","","","","","","","","","","","","","","","","","","","feedback_test","","","","","","","","",""
"938","","f","psychophysics","136","609390","0.0-8.0-0.0-4.0-0.0-0.14","6","6","6","5","4","4","4","5","4","5","5","0","-1","1","1","1","1","-1","0","5","4","5","4","3","4","4","4","3","4","5","7","4","7","5","4","6","6","8","3","6","5","5","6","4","5","6","6","6","1","6","5","4","7","6","3","6","5","5","6","2","4","4","5","5","5","4","5","5","6","5","5","7","7","3","4","3","6","4","5","612753157184815104","孟","481","Male","[""好我"",""坏我"",""坏他"",""好他""]","[""强我"",""弱我"",""弱他"",""强他""]","","","","","","","","nonmatch","","","","","","","","","","key","f","16.66695652173974","720","476","j","false","match","img/diamond.png","坏我","坏我","ALT2","moral","","","","","","","","",""
"null","<span style='color:red; font-size: 70px;'>错误! </span>","null","html-keyboard-response","137","609890","0.0-8.0-0.0-4.0-0.0-1.14","6","6","6","5","4","4","4","5","4","5","5","0","-1","1","1","1","1","-1","0","5","4","5","4","3","4","4","4","3","4","5","7","4","7","5","4","6","6","8","3","6","5","5","6","4","5","6","6","6","1","6","5","4","7","6","3","6","5","5","6","2","4","4","5","5","5","4","5","5","6","5","5","7","7","3","4","3","6","4","5","612753157184815104","孟","481","Male","[""好我"",""坏我"",""坏他"",""好他""]","[""强我"",""弱我"",""弱他"",""强他""]","","","","","","","","","","","","","","","","","","","","","","","","","","","","","","feedback_test","","","","","","","","",""
"875","","f","psychophysics","138","611767","0.0-8.0-0.0-4.0-0.0-0.15","6","6","6","5","4","4","4","5","4","5","5","0","-1","1","1","1","1","-1","0","5","4","5","4","3","4","4","4","3","4","5","7","4","7","5","4","6","6","8","3","6","5","5","6","4","5","6","6","6","1","6","5","4","7","6","3","6","5","5","6","2","4","4","5","5","5","4","5","5","6","5","5","7","7","3","4","3","6","4","5","612753157184815104","孟","481","Male","[""好我"",""坏我"",""坏他"",""好他""]","[""强我"",""弱我"",""弱他"",""强他""]","","","","","","","","nonmatch","","","","","","","","","","key","f","16.656756756756966","720","476","j","false","match","img/pentagon.png","坏他","坏他","ALT2","moral","","","","","","","","",""
