"rt","stimulus","response","trial_type","trial_index","time_elapsed","internal_node_id","swb_1","swb_2","swb_3","swb_4","swb_5","LOT_1","LOT_2","LOT_3","LOT_4","LOT_5","LOT_6","IPC_1","IPC_2","IPC_3","IPC_4","IPC_5","IPC_6","IPC_7","IPC_8","MorIden_1","MorIden_2","MorIden_3","MorIden_4","MorIden_5","MorIden_6","MorIden_7","MorIden_8","MorIden_9","MorIden_10","moralSeImag_1","moralSeImag_2","moralSeImag_3","moralSeImag_4","moralSeImag_5","moralSeImag_6","moralSeImag_7","moralSeImag_8","moralSeImag_9","sde_1","sde_2","sde_3","sde_4","sde_5","sde_6","sde_7","sde_8","sde_9","sde_10","trap2","sde_11","sde_12","sde_13","sde_14","sde_15","sde_16","sde_17","sde_18","sde_19","sde_20","IM_1","IM_2","IM_3","IM_4","IM_5","IM_6","IM_7","IM_8","IM_9","IM_10","IM_11","IM_12","IM_13","IM_14","IM_15","IM_16","IM_17","IM_18","IM_19","IM_20","subj_idx","friend_name","ParticipantID","Sex","Word","Word2","value","success","timeout","failed_images","failed_audio","failed_video","user_agent","responses","item_order","radio_event_ids","radio_event_times","key_event_times","mouse_event_times","straightlining","zigzagging","honeypot","view_history","response_type","key_press","avg_frame_time","center_x","center_y","correct_response","correct","identity","Image","word","condition","task_id","screen_id","time_stamp","person","valence","domain","math","status","duration","question_order","trap2_item"
"6295","
   <p><div style='color:white; font-size: 25px'>您好，欢迎参加本次实验。</div></p>
   <p><div style='color:white; font-size: 25px'>为充分保障您的权利，请确保您已经知晓并同意《参与实验同意书》以及《数据公开知情同意书》。</div></p>
   <p><div style='color:white; font-size: 25px'>如果您未见过上述内容，请咨询实验员。</div></p>
   <p style='color:white; font-size: 25px'>如果您选择继续实验，则表示您已经清楚两份知情同意书的内容并同意。</p>
   <p><div style = ""color: pink;font-size:30px;"">请确保您记得day0的实验编号，您将在本次实验输入该编号，若您忘记，请咨询实验员后作答。</div></p>
   <p><div style = ""color:lightblue;font-size:25px;"">请您尽可能认真地作答，我们将依据您在各问卷和按键任务中的作答质量发放报酬。</div></p>
   <p> <div style = ""color: green""><按空格键至下页></div> </p>
   "," ","html-keyboard-response","0","6309","0.0-0.0","3","2","3","3","1","5","2","4","5","5","5","1","-1","-2","2","-2","1","2","1","5","5","5","5","5","4","4","2","5","4","8","8","7","7","4","4","6","6","8","3","6","2","3","7","2","7","1","6","3","1","2","3","3","6","3","3","2","7","2","5","2","5","7","3","7","7","5","7","7","7","7","6","6","7","6","7","2","7","3","6","776480023275376642","王","618","Female","[""坏她"",""好我"",""坏我"",""好她""]","[""弱她"",""强我"",""弱我"",""强她""]","","","","","","","","","","","","","","","","","","","","","","","","","","","","","","","","","","","","","","",""
"","","","call-function","1","6318","0.0-1.0-0.0","3","2","3","3","1","5","2","4","5","5","5","1","-1","-2","2","-2","1","2","1","5","5","5","5","5","4","4","2","5","4","8","8","7","7","4","4","6","6","8","3","6","2","3","7","2","7","1","6","3","1","2","3","3","6","3","3","2","7","2","5","2","5","7","3","7","7","5","7","7","7","7","6","6","7","6","7","2","7","3","6","776480023275376642","王","618","Female","[""坏她"",""好我"",""坏我"",""好她""]","[""弱她"",""强我"",""弱我"",""强她""]","","","","","","","","","","","","","","","","","","","","","","","","","","","","","","","","","","","","","","",""
"27173","","[{""name"":""Sex"",""value"":""1""},{""name"":""friend_name"",""value"":""王""},{""name"":""ParticipantID"",""value"":""618""}]","survey-html-form","2","33529","0.0-1.0-1.0","3","2","3","3","1","5","2","4","5","5","5","1","-1","-2","2","-2","1","2","1","5","5","5","5","5","4","4","2","5","4","8","8","7","7","4","4","6","6","8","3","6","2","3","7","2","7","1","6","3","1","2","3","3","6","3","3","2","7","2","5","2","5","7","3","7","7","5","7","7","7","7","6","6","7","6","7","2","7","3","6","776480023275376642","王","618","Female","[""坏她"",""好我"",""坏我"",""好她""]","[""弱她"",""强我"",""弱我"",""强她""]","","","","","","","","","","","","","","","","","","","","","","","","","","","","","","","","","","","","","","",""
"","","","preload","3","34670","0.0-2.0","3","2","3","3","1","5","2","4","5","5","5","1","-1","-2","2","-2","1","2","1","5","5","5","5","5","4","4","2","5","4","8","8","7","7","4","4","6","6","8","3","6","2","3","7","2","7","1","6","3","1","2","3","3","6","3","3","2","7","2","5","2","5","7","3","7","7","5","7","7","7","7","6","6","7","6","7","2","7","3","6","776480023275376642","王","618","Female","[""坏她"",""好我"",""坏我"",""好她""]","[""弱她"",""强我"",""弱我"",""强她""]","","true","false","[]","[]","[]","","","","","","","","","","","","","","","","","","","","","","","","","","","","","","","","",""
"","","","fullscreen","4","39971","0.0-3.0","3","2","3","3","1","5","2","4","5","5","5","1","-1","-2","2","-2","1","2","1","5","5","5","5","5","4","4","2","5","4","8","8","7","7","4","4","6","6","8","3","6","2","3","7","2","7","1","6","3","1","2","3","3","6","3","3","2","7","2","5","2","5","7","3","7","7","5","7","7","7","7","6","6","7","6","7","2","7","3","6","776480023275376642","王","618","Female","[""坏她"",""好我"",""坏我"",""好她""]","[""弱她"",""强我"",""弱我"",""强她""]","","true","","","","","","","","","","","","","","","","","","","","","","","","","","","","","","","","","","","","",""
"194165.9149999996","","{""Q01"":""3"",""Q02"":""2"",""Q03"":""3"",""Q04"":""3"",""Q05"":""1""}","survey-template","5","234152","0.0-4.0","3","2","3","3","1","5","2","4","5","5","5","1","-1","-2","2","-2","1","2","1","5","5","5","5","5","4","4","2","5","4","8","8","7","7","4","4","6","6","8","3","6","2","3","7","2","7","1","6","3","1","2","3","3","6","3","3","2","7","2","5","2","5","7","3","7","7","5","7","7","7","7","6","6","7","6","7","2","7","3","6","776480023275376642","王","618","Female","[""坏她"",""好我"",""坏我"",""好她""]","[""弱她"",""强我"",""弱我"",""强她""]","","","","","","","","{""Q01"":""3"",""Q02"":""2"",""Q03"":""3"",""Q04"":""3"",""Q05"":""1""}","[0,1,2,3,4]","[""Q01"",""Q03"",""Q02"",""Q01"",""Q05"",""Q04"",""Q03"",""Q02"",""Q05"",""Q01"",""Q02"",""Q03"",""Q04"",""Q05"",""Q05"",""Q05"",""Q01"",""Q02"",""Q03"",""Q02"",""Q04"",""Q05""]","[21420.08499999975,24803.404999999657,25555.24499999955,58514.64000000033,80434.04499999998,83329.90499999959,84985.69000000044,85729.97000000032,106528.99499999968,111577.09499999965,113617.10500000027,114417.08999999991,120536.90499999994,122640.80000000013,124040.62499999965,140768.3649999999,167135.73999999973,169695.36499999958,172247.4050000001,174863.37000000005,178391.09999999983,180863.0149999999]","[]","[21420.08499999975,24803.404999999657,25555.24499999955,58514.64000000033,79010.08999999976,80434.04499999998,83329.90499999959,84985.69000000044,85729.97000000032,105793.3549999998,106528.99499999968,111577.09499999965,113617.10500000027,114417.08999999991,120536.90499999994,122640.80000000013,124040.62499999965,140768.3649999999,167135.73999999973,169695.36499999958,172247.4050000001,174447.49500000034,174863.37000000005,178391.09999999983,180471.28499999963,180863.0149999999,194158.77000000002]","0.6","0.5","0","","","","","","","","","","","","","","","","","","","","","","",""
"42285.49500000005","","{""Q01"":""5"",""Q02"":""2"",""Q03"":""4"",""Q04"":""5"",""Q05"":""5"",""Q06"":""5""}","survey-template","6","276469","0.0-5.0","3","2","3","3","1","5","2","4","5","5","5","1","-1","-2","2","-2","1","2","1","5","5","5","5","5","4","4","2","5","4","8","8","7","7","4","4","6","6","8","3","6","2","3","7","2","7","1","6","3","1","2","3","3","6","3","3","2","7","2","5","2","5","7","3","7","7","5","7","7","7","7","6","6","7","6","7","2","7","3","6","776480023275376642","王","618","Female","[""坏她"",""好我"",""坏我"",""好她""]","[""弱她"",""强我"",""弱我"",""强她""]","","","","","","","","{""Q01"":""5"",""Q02"":""2"",""Q03"":""4"",""Q04"":""5"",""Q05"":""5"",""Q06"":""5""}","[0,1,2,3,4,5]","[""Q04"",""Q05"",""Q06"",""Q03"",""Q01"",""Q02""]","[13377.295000000217,14729.01000000001,19712.985000000102,23544.84000000049,29232.770000000542,34128.49499999994]","[]","[13377.295000000217,14729.01000000001,19712.985000000102,23544.84000000049,29232.770000000542,34128.49499999994,42280.60999999981]","0.3333333333333333","0.4","0","","","","","","","","","","","","","","","","","","","","","","",""
"128227.05500000028","","{""Q01"":""1"",""Q02"":""-1"",""Q03"":""-2"",""Q04"":""2"",""Q05"":""-2"",""Q06"":""1"",""Q07"":""2"",""Q08"":""1""}","survey-template","7","404730","0.0-6.0","3","2","3","3","1","5","2","4","5","5","5","1","-1","-2","2","-2","1","2","1","5","5","5","5","5","4","4","2","5","4","8","8","7","7","4","4","6","6","8","3","6","2","3","7","2","7","1","6","3","1","2","3","3","6","3","3","2","7","2","5","2","5","7","3","7","7","5","7","7","7","7","6","6","7","6","7","2","7","3","6","776480023275376642","王","618","Female","[""坏她"",""好我"",""坏我"",""好她""]","[""弱她"",""强我"",""弱我"",""强她""]","","","","","","","","{""Q01"":""1"",""Q02"":""-1"",""Q03"":""-2"",""Q04"":""2"",""Q05"":""-2"",""Q06"":""1"",""Q07"":""2"",""Q08"":""1""}","[0,1,2,3,4,5,6,7]","[""Q01"",""Q02"",""Q04"",""Q05"",""Q06"",""Q07"",""Q08"",""Q03"",""Q02"",""Q01"",""Q04"",""Q05"",""Q03"",""Q05""]","[8520.660000000149,12718.530000000144,19470.320000000356,23678.429999999935,24758.290000000678,34245.99500000023,35189.800000000105,40829.82500000071,45461.715000000375,50165.620000000694,54829.66500000021,76004.78500000009,81724.83999999985,91284.81999999989]","[]","[8520.660000000149,9790.960000000312,12718.530000000144,18934.41500000062,19470.320000000356,23678.429999999935,24758.290000000678,34245.99500000023,35189.800000000105,40829.82500000071,45461.715000000375,50165.620000000694,54829.66500000021,76004.78500000009,81724.83999999985,91284.81999999989,128219.67000000039]","0.375","0.42857142857142855","0","","","","","","","","","","","","","","","","","","","","","","",""
"19668","","","instructions","8","424414","0.0-7.0","3","2","3","3","1","5","2","4","5","5","5","1","-1","-2","2","-2","1","2","1","5","5","5","5","5","4","4","2","5","4","8","8","7","7","4","4","6","6","8","3","6","2","3","7","2","7","1","6","3","1","2","3","3","6","3","3","2","7","2","5","2","5","7","3","7","7","5","7","7","7","7","6","6","7","6","7","2","7","3","6","776480023275376642","王","618","Female","[""坏她"",""好我"",""坏我"",""好她""]","[""弱她"",""强我"",""弱我"",""强她""]","","","","","","","","","","","","","","","","","[{""page_index"":0,""viewing_time"":19666}]","","","","","","","","","","","","","","","","","","","","","",""
"120203","","","instructions","9","544628","0.0-8.0-1.0-0.0","3","2","3","3","1","5","2","4","5","5","5","1","-1","-2","2","-2","1","2","1","5","5","5","5","5","4","4","2","5","4","8","8","7","7","4","4","6","6","8","3","6","2","3","7","2","7","1","6","3","1","2","3","3","6","3","3","2","7","2","5","2","5","7","3","7","7","5","7","7","7","7","6","6","7","6","7","2","7","3","6","776480023275376642","王","618","Female","[""坏她"",""好我"",""坏我"",""好她""]","[""弱她"",""强我"",""弱我"",""强她""]","","","","","","","","","","","","","","","","","[{""page_index"":0,""viewing_time"":11506},{""page_index"":1,""viewing_time"":81161},{""page_index"":2,""viewing_time"":24495},{""page_index"":3,""viewing_time"":3040}]","","","","","","","","","","","","","","","","","","","","","",""
"null","","null","psychophysics","10","546854","0.0-8.0-1.0-1.0-0.0-0.0","3","2","3","3","1","5","2","4","5","5","5","1","-1","-2","2","-2","1","2","1","5","5","5","5","5","4","4","2","5","4","8","8","7","7","4","4","6","6","8","3","6","2","3","7","2","7","1","6","3","1","2","3","3","6","3","3","2","7","2","5","2","5","7","3","7","7","5","7","7","7","7","6","6","7","6","7","2","7","3","6","776480023275376642","王","618","Female","[""坏她"",""好我"",""坏我"",""好她""]","[""弱她"",""强我"",""弱我"",""强她""]","","","","","","","","null","","","","","","","","","","key","null","17.344362903225814","853.1249872874471","475.6249929126353","j","false","nonmatch","img/trapezoid.png","强我","弱她","prac_ALT2_ability","practice_ability","","","","","","","","",""
"null","<span class='add_' style='color:yellow; font-size: 70px;'> 太慢! </span>","null","html-keyboard-response","11","547358","0.0-8.0-1.0-1.0-0.0-1.0","3","2","3","3","1","5","2","4","5","5","5","1","-1","-2","2","-2","1","2","1","5","5","5","5","5","4","4","2","5","4","8","8","7","7","4","4","6","6","8","3","6","2","3","7","2","7","1","6","3","1","2","3","3","6","3","3","2","7","2","5","2","5","7","3","7","7","5","7","7","7","7","6","6","7","6","7","2","7","3","6","776480023275376642","王","618","Female","[""坏她"",""好我"",""坏我"",""好她""]","[""弱她"",""强我"",""弱我"",""强她""]","","","","","","","","","","","","","","","","","","","","","","","","","","","","","","feedback_test","","","","","","","","",""
"1045","","f","psychophysics","12","549407","0.0-8.0-1.0-1.0-0.0-0.1","3","2","3","3","1","5","2","4","5","5","5","1","-1","-2","2","-2","1","2","1","5","5","5","5","5","4","4","2","5","4","8","8","7","7","4","4","6","6","8","3","6","2","3","7","2","7","1","6","3","1","2","3","3","6","3","3","2","7","2","5","2","5","7","3","7","7","5","7","7","7","7","6","6","7","6","7","2","7","3","6","776480023275376642","王","618","Female","[""坏她"",""好我"",""坏我"",""好她""]","[""弱她"",""强我"",""弱我"",""强她""]","","","","","","","","match","","","","","","","","","","key","f","16.6727166666659","853.1249872874471","475.6249929126353","f","true","match","img/trapezoid.png","弱她","弱她","prac_ALT2_ability","practice_ability","","","","","","","","",""
"null","<span style='color:GreenYellow; font-size: 70px;'>正确! </span>","null","html-keyboard-response","13","549909","0.0-8.0-1.0-1.0-0.0-1.1","3","2","3","3","1","5","2","4","5","5","5","1","-1","-2","2","-2","1","2","1","5","5","5","5","5","4","4","2","5","4","8","8","7","7","4","4","6","6","8","3","6","2","3","7","2","7","1","6","3","1","2","3","3","6","3","3","2","7","2","5","2","5","7","3","7","7","5","7","7","7","7","6","6","7","6","7","2","7","3","6","776480023275376642","王","618","Female","[""坏她"",""好我"",""坏我"",""好她""]","[""弱她"",""强我"",""弱我"",""强她""]","","","","","","","","","","","","","","","","","","","","","","","","","","","","","","feedback_test","","","","","","","","",""
"720","","j","psychophysics","14","551634","0.0-8.0-1.0-1.0-0.0-0.2","3","2","3","3","1","5","2","4","5","5","5","1","-1","-2","2","-2","1","2","1","5","5","5","5","5","4","4","2","5","4","8","8","7","7","4","4","6","6","8","3","6","2","3","7","2","7","1","6","3","1","2","3","3","6","3","3","2","7","2","5","2","5","7","3","7","7","5","7","7","7","7","6","6","7","6","7","2","7","3","6","776480023275376642","王","618","Female","[""坏她"",""好我"",""坏我"",""好她""]","[""弱她"",""强我"",""弱我"",""强她""]","","","","","","","","nonmatch","","","","","","","","","","key","j","16.66764356435673","853.1249872874471","475.6249929126353","j","true","nonmatch","img/diamond.png","强我","强她","prac_ALT2_ability","practice_ability","","","","","","","","",""
"null","<span style='color:GreenYellow; font-size: 70px;'>正确! </span>","null","html-keyboard-response","15","552136","0.0-8.0-1.0-1.0-0.0-1.2","3","2","3","3","1","5","2","4","5","5","5","1","-1","-2","2","-2","1","2","1","5","5","5","5","5","4","4","2","5","4","8","8","7","7","4","4","6","6","8","3","6","2","3","7","2","7","1","6","3","1","2","3","3","6","3","3","2","7","2","5","2","5","7","3","7","7","5","7","7","7","7","6","6","7","6","7","2","7","3","6","776480023275376642","王","618","Female","[""坏她"",""好我"",""坏我"",""好她""]","[""弱她"",""强我"",""弱我"",""强她""]","","","","","","","","","","","","","","","","","","","","","","","","","","","","","","feedback_test","","","","","","","","",""
"null","","null","psychophysics","16","554343","0.0-8.0-1.0-1.0-0.0-0.3","3","2","3","3","1","5","2","4","5","5","5","1","-1","-2","2","-2","1","2","1","5","5","5","5","5","4","4","2","5","4","8","8","7","7","4","4","6","6","8","3","6","2","3","7","2","7","1","6","3","1","2","3","3","6","3","3","2","7","2","5","2","5","7","3","7","7","5","7","7","7","7","6","6","7","6","7","2","7","3","6","776480023275376642","王","618","Female","[""坏她"",""好我"",""坏我"",""好她""]","[""弱她"",""强我"",""弱我"",""强她""]","","","","","","","","null","","","","","","","","","","key","null","16.661124031008004","853.1249872874471","475.6249929126353","f","false","match","img/diamond.png","强她","强她","prac_ALT2_ability","practice_ability","","","","","","","","",""
"null","<span class='add_' style='color:yellow; font-size: 70px;'> 太慢! </span>","null","html-keyboard-response","17","554846","0.0-8.0-1.0-1.0-0.0-1.3","3","2","3","3","1","5","2","4","5","5","5","1","-1","-2","2","-2","1","2","1","5","5","5","5","5","4","4","2","5","4","8","8","7","7","4","4","6","6","8","3","6","2","3","7","2","7","1","6","3","1","2","3","3","6","3","3","2","7","2","5","2","5","7","3","7","7","5","7","7","7","7","6","6","7","6","7","2","7","3","6","776480023275376642","王","618","Female","[""坏她"",""好我"",""坏我"",""好她""]","[""弱她"",""强我"",""弱我"",""强她""]","","","","","","","","","","","","","","","","","","","","","","","","","","","","","","feedback_test","","","","","","","","",""
"598","","f","psychophysics","18","556447","0.0-8.0-1.0-1.0-0.0-0.4","3","2","3","3","1","5","2","4","5","5","5","1","-1","-2","2","-2","1","2","1","5","5","5","5","5","4","4","2","5","4","8","8","7","7","4","4","6","6","8","3","6","2","3","7","2","7","1","6","3","1","2","3","3","6","3","3","2","7","2","5","2","5","7","3","7","7","5","7","7","7","7","6","6","7","6","7","2","7","3","6","776480023275376642","王","618","Female","[""坏她"",""好我"",""坏我"",""好她""]","[""弱她"",""强我"",""弱我"",""强她""]","","","","","","","","match","","","","","","","","","","key","f","16.683591397849703","853.1249872874471","475.6249929126353","f","true","match","img/ellipse.png","弱我","弱我","prac_ALT2_ability","practice_ability","","","","","","","","",""
"null","<span style='color:GreenYellow; font-size: 70px;'>正确! </span>","null","html-keyboard-response","19","556949","0.0-8.0-1.0-1.0-0.0-1.4","3","2","3","3","1","5","2","4","5","5","5","1","-1","-2","2","-2","1","2","1","5","5","5","5","5","4","4","2","5","4","8","8","7","7","4","4","6","6","8","3","6","2","3","7","2","7","1","6","3","1","2","3","3","6","3","3","2","7","2","5","2","5","7","3","7","7","5","7","7","7","7","6","6","7","6","7","2","7","3","6","776480023275376642","王","618","Female","[""坏她"",""好我"",""坏我"",""好她""]","[""弱她"",""强我"",""弱我"",""强她""]","","","","","","","","","","","","","","","","","","","","","","","","","","","","","","feedback_test","","","","","","","","",""
"811","","f","psychophysics","20","558762","0.0-8.0-1.0-1.0-0.0-0.5","3","2","3","3","1","5","2","4","5","5","5","1","-1","-2","2","-2","1","2","1","5","5","5","5","5","4","4","2","5","4","8","8","7","7","4","4","6","6","8","3","6","2","3","7","2","7","1","6","3","1","2","3","3","6","3","3","2","7","2","5","2","5","7","3","7","7","5","7","7","7","7","6","6","7","6","7","2","7","3","6","776480023275376642","王","618","Female","[""坏她"",""好我"",""坏我"",""好她""]","[""弱她"",""强我"",""弱我"",""强她""]","","","","","","","","match","","","","","","","","","","key","f","16.97917307692338","853.1249872874471","475.6249929126353","f","true","match","img/ellipse.png","弱我","弱我","prac_ALT2_ability","practice_ability","","","","","","","","",""
"null","<span style='color:GreenYellow; font-size: 70px;'>正确! </span>","null","html-keyboard-response","21","559266","0.0-8.0-1.0-1.0-0.0-1.5","3","2","3","3","1","5","2","4","5","5","5","1","-1","-2","2","-2","1","2","1","5","5","5","5","5","4","4","2","5","4","8","8","7","7","4","4","6","6","8","3","6","2","3","7","2","7","1","6","3","1","2","3","3","6","3","3","2","7","2","5","2","5","7","3","7","7","5","7","7","7","7","6","6","7","6","7","2","7","3","6","776480023275376642","王","618","Female","[""坏她"",""好我"",""坏我"",""好她""]","[""弱她"",""强我"",""弱我"",""强她""]","","","","","","","","","","","","","","","","","","","","","","","","","","","","","","feedback_test","","","","","","","","",""
"626","","f","psychophysics","22","560894","0.0-8.0-1.0-1.0-0.0-0.6","3","2","3","3","1","5","2","4","5","5","5","1","-1","-2","2","-2","1","2","1","5","5","5","5","5","4","4","2","5","4","8","8","7","7","4","4","6","6","8","3","6","2","3","7","2","7","1","6","3","1","2","3","3","6","3","3","2","7","2","5","2","5","7","3","7","7","5","7","7","7","7","6","6","7","6","7","2","7","3","6","776480023275376642","王","618","Female","[""坏她"",""好我"",""坏我"",""好她""]","[""弱她"",""强我"",""弱我"",""强她""]","","","","","","","","match","","","","","","","","","","key","f","16.685663157893885","853.1249872874471","475.6249929126353","f","true","match","img/pentagon.png","强我","强我","prac_ALT2_ability","practice_ability","","","","","","","","",""
"null","<span style='color:GreenYellow; font-size: 70px;'>正确! </span>","null","html-keyboard-response","23","561397","0.0-8.0-1.0-1.0-0.0-1.6","3","2","3","3","1","5","2","4","5","5","5","1","-1","-2","2","-2","1","2","1","5","5","5","5","5","4","4","2","5","4","8","8","7","7","4","4","6","6","8","3","6","2","3","7","2","7","1","6","3","1","2","3","3","6","3","3","2","7","2","5","2","5","7","3","7","7","5","7","7","7","7","6","6","7","6","7","2","7","3","6","776480023275376642","王","618","Female","[""坏她"",""好我"",""坏我"",""好她""]","[""弱她"",""强我"",""弱我"",""强她""]","","","","","","","","","","","","","","","","","","","","","","","","","","","","","","feedback_test","","","","","","","","",""
"853","","j","psychophysics","24","563253","0.0-8.0-1.0-1.0-0.0-0.7","3","2","3","3","1","5","2","4","5","5","5","1","-1","-2","2","-2","1","2","1","5","5","5","5","5","4","4","2","5","4","8","8","7","7","4","4","6","6","8","3","6","2","3","7","2","7","1","6","3","1","2","3","3","6","3","3","2","7","2","5","2","5","7","3","7","7","5","7","7","7","7","6","6","7","6","7","2","7","3","6","776480023275376642","王","618","Female","[""坏她"",""好我"",""坏我"",""好她""]","[""弱她"",""强我"",""弱我"",""强她""]","","","","","","","","nonmatch","","","","","","","","","","key","j","16.66296330275262","853.1249872874471","475.6249929126353","f","false","match","img/pentagon.png","强我","强我","prac_ALT2_ability","practice_ability","","","","","","","","",""
"null","<span style='color:red; font-size: 70px;'>错误! </span>","null","html-keyboard-response","25","563755","0.0-8.0-1.0-1.0-0.0-1.7","3","2","3","3","1","5","2","4","5","5","5","1","-1","-2","2","-2","1","2","1","5","5","5","5","5","4","4","2","5","4","8","8","7","7","4","4","6","6","8","3","6","2","3","7","2","7","1","6","3","1","2","3","3","6","3","3","2","7","2","5","2","5","7","3","7","7","5","7","7","7","7","6","6","7","6","7","2","7","3","6","776480023275376642","王","618","Female","[""坏她"",""好我"",""坏我"",""好她""]","[""弱她"",""强我"",""弱我"",""强她""]","","","","","","","","","","","","","","","","","","","","","","","","","","","","","","feedback_test","","","","","","","","",""
"791","","f","psychophysics","26","565549","0.0-8.0-1.0-1.0-0.0-0.8","3","2","3","3","1","5","2","4","5","5","5","1","-1","-2","2","-2","1","2","1","5","5","5","5","5","4","4","2","5","4","8","8","7","7","4","4","6","6","8","3","6","2","3","7","2","7","1","6","3","1","2","3","3","6","3","3","2","7","2","5","2","5","7","3","7","7","5","7","7","7","7","6","6","7","6","7","2","7","3","6","776480023275376642","王","618","Female","[""坏她"",""好我"",""坏我"",""好她""]","[""弱她"",""强我"",""弱我"",""强她""]","","","","","","","","match","","","","","","","","","","key","f","16.683173076923524","853.1249872874471","475.6249929126353","f","true","match","img/trapezoid.png","弱她","弱她","prac_ALT2_ability","practice_ability","","","","","","","","",""
"null","<span style='color:GreenYellow; font-size: 70px;'>正确! </span>","null","html-keyboard-response","27","566051","0.0-8.0-1.0-1.0-0.0-1.8","3","2","3","3","1","5","2","4","5","5","5","1","-1","-2","2","-2","1","2","1","5","5","5","5","5","4","4","2","5","4","8","8","7","7","4","4","6","6","8","3","6","2","3","7","2","7","1","6","3","1","2","3","3","6","3","3","2","7","2","5","2","5","7","3","7","7","5","7","7","7","7","6","6","7","6","7","2","7","3","6","776480023275376642","王","618","Female","[""坏她"",""好我"",""坏我"",""好她""]","[""弱她"",""强我"",""弱我"",""强她""]","","","","","","","","","","","","","","","","","","","","","","","","","","","","","","feedback_test","","","","","","","","",""
"1021","","j","psychophysics","28","568074","0.0-8.0-1.0-1.0-0.0-0.9","3","2","3","3","1","5","2","4","5","5","5","1","-1","-2","2","-2","1","2","1","5","5","5","5","5","4","4","2","5","4","8","8","7","7","4","4","6","6","8","3","6","2","3","7","2","7","1","6","3","1","2","3","3","6","3","3","2","7","2","5","2","5","7","3","7","7","5","7","7","7","7","6","6","7","6","7","2","7","3","6","776480023275376642","王","618","Female","[""坏她"",""好我"",""坏我"",""好她""]","[""弱她"",""强我"",""弱我"",""强她""]","","","","","","","","nonmatch","","","","","","","","","","key","j","16.828070796460565","853.1249872874471","475.6249929126353","j","true","nonmatch","img/ellipse.png","强她","弱我","prac_ALT2_ability","practice_ability","","","","","","","","",""
"null","<span style='color:GreenYellow; font-size: 70px;'>正确! </span>","null","html-keyboard-response","29","568577","0.0-8.0-1.0-1.0-0.0-1.9","3","2","3","3","1","5","2","4","5","5","5","1","-1","-2","2","-2","1","2","1","5","5","5","5","5","4","4","2","5","4","8","8","7","7","4","4","6","6","8","3","6","2","3","7","2","7","1","6","3","1","2","3","3","6","3","3","2","7","2","5","2","5","7","3","7","7","5","7","7","7","7","6","6","7","6","7","2","7","3","6","776480023275376642","王","618","Female","[""坏她"",""好我"",""坏我"",""好她""]","[""弱她"",""强我"",""弱我"",""强她""]","","","","","","","","","","","","","","","","","","","","","","","","","","","","","","feedback_test","","","","","","","","",""
"917","","j","psychophysics","30","570497","0.0-8.0-1.0-1.0-0.0-0.10","3","2","3","3","1","5","2","4","5","5","5","1","-1","-2","2","-2","1","2","1","5","5","5","5","5","4","4","2","5","4","8","8","7","7","4","4","6","6","8","3","6","2","3","7","2","7","1","6","3","1","2","3","3","6","3","3","2","7","2","5","2","5","7","3","7","7","5","7","7","7","7","6","6","7","6","7","2","7","3","6","776480023275376642","王","618","Female","[""坏她"",""好我"",""坏我"",""好她""]","[""弱她"",""强我"",""弱我"",""强她""]","","","","","","","","nonmatch","","","","","","","","","","key","j","16.974681818181523","853.1249872874471","475.6249929126353","j","true","nonmatch","img/diamond.png","弱我","强她","prac_ALT2_ability","practice_ability","","","","","","","","",""
"null","<span style='color:GreenYellow; font-size: 70px;'>正确! </span>","null","html-keyboard-response","31","571000","0.0-8.0-1.0-1.0-0.0-1.10","3","2","3","3","1","5","2","4","5","5","5","1","-1","-2","2","-2","1","2","1","5","5","5","5","5","4","4","2","5","4","8","8","7","7","4","4","6","6","8","3","6","2","3","7","2","7","1","6","3","1","2","3","3","6","3","3","2","7","2","5","2","5","7","3","7","7","5","7","7","7","7","6","6","7","6","7","2","7","3","6","776480023275376642","王","618","Female","[""坏她"",""好我"",""坏我"",""好她""]","[""弱她"",""强我"",""弱我"",""强她""]","","","","","","","","","","","","","","","","","","","","","","","","","","","","","","feedback_test","","","","","","","","",""
"822","","j","psychophysics","32","572825","0.0-8.0-1.0-1.0-0.0-0.11","3","2","3","3","1","5","2","4","5","5","5","1","-1","-2","2","-2","1","2","1","5","5","5","5","5","4","4","2","5","4","8","8","7","7","4","4","6","6","8","3","6","2","3","7","2","7","1","6","3","1","2","3","3","6","3","3","2","7","2","5","2","5","7","3","7","7","5","7","7","7","7","6","6","7","6","7","2","7","3","6","776480023275376642","王","618","Female","[""坏她"",""好我"",""坏我"",""好她""]","[""弱她"",""强我"",""弱我"",""强她""]","","","","","","","","nonmatch","","","","","","","","","","key","j","16.6936168224294","853.1249872874471","475.6249929126353","j","true","nonmatch","img/trapezoid.png","弱我","弱她","prac_ALT2_ability","practice_ability","","","","","","","","",""
"null","<span style='color:GreenYellow; font-size: 70px;'>正确! </span>","null","html-keyboard-response","33","573328","0.0-8.0-1.0-1.0-0.0-1.11","3","2","3","3","1","5","2","4","5","5","5","1","-1","-2","2","-2","1","2","1","5","5","5","5","5","4","4","2","5","4","8","8","7","7","4","4","6","6","8","3","6","2","3","7","2","7","1","6","3","1","2","3","3","6","3","3","2","7","2","5","2","5","7","3","7","7","5","7","7","7","7","6","6","7","6","7","2","7","3","6","776480023275376642","王","618","Female","[""坏她"",""好我"",""坏我"",""好她""]","[""弱她"",""强我"",""弱我"",""强她""]","","","","","","","","","","","","","","","","","","","","","","","","","","","","","","feedback_test","","","","","","","","",""
"758","","f","psychophysics","34","575089","0.0-8.0-1.0-1.0-0.0-0.12","3","2","3","3","1","5","2","4","5","5","5","1","-1","-2","2","-2","1","2","1","5","5","5","5","5","4","4","2","5","4","8","8","7","7","4","4","6","6","8","3","6","2","3","7","2","7","1","6","3","1","2","3","3","6","3","3","2","7","2","5","2","5","7","3","7","7","5","7","7","7","7","6","6","7","6","7","2","7","3","6","776480023275376642","王","618","Female","[""坏她"",""好我"",""坏我"",""好她""]","[""弱她"",""强我"",""弱我"",""强她""]","","","","","","","","match","","","","","","","","","","key","f","16.6597378640786","853.1249872874471","475.6249929126353","f","true","match","img/trapezoid.png","弱她","弱她","prac_ALT2_ability","practice_ability","","","","","","","","",""
"null","<span style='color:GreenYellow; font-size: 70px;'>正确! </span>","null","html-keyboard-response","35","575592","0.0-8.0-1.0-1.0-0.0-1.12","3","2","3","3","1","5","2","4","5","5","5","1","-1","-2","2","-2","1","2","1","5","5","5","5","5","4","4","2","5","4","8","8","7","7","4","4","6","6","8","3","6","2","3","7","2","7","1","6","3","1","2","3","3","6","3","3","2","7","2","5","2","5","7","3","7","7","5","7","7","7","7","6","6","7","6","7","2","7","3","6","776480023275376642","王","618","Female","[""坏她"",""好我"",""坏我"",""好她""]","[""弱她"",""强我"",""弱我"",""强她""]","","","","","","","","","","","","","","","","","","","","","","","","","","","","","","feedback_test","","","","","","","","",""
"945","","j","psychophysics","36","577539","0.0-8.0-1.0-1.0-0.0-0.13","3","2","3","3","1","5","2","4","5","5","5","1","-1","-2","2","-2","1","2","1","5","5","5","5","5","4","4","2","5","4","8","8","7","7","4","4","6","6","8","3","6","2","3","7","2","7","1","6","3","1","2","3","3","6","3","3","2","7","2","5","2","5","7","3","7","7","5","7","7","7","7","6","6","7","6","7","2","7","3","6","776480023275376642","王","618","Female","[""坏她"",""好我"",""坏我"",""好她""]","[""弱她"",""强我"",""弱我"",""强她""]","","","","","","","","nonmatch","","","","","","","","","","key","j","16.6818947368424","853.1249872874471","475.6249929126353","f","false","match","img/diamond.png","强她","强她","prac_ALT2_ability","practice_ability","","","","","","","","",""
"null","<span style='color:red; font-size: 70px;'>错误! </span>","null","html-keyboard-response","37","578042","0.0-8.0-1.0-1.0-0.0-1.13","3","2","3","3","1","5","2","4","5","5","5","1","-1","-2","2","-2","1","2","1","5","5","5","5","5","4","4","2","5","4","8","8","7","7","4","4","6","6","8","3","6","2","3","7","2","7","1","6","3","1","2","3","3","6","3","3","2","7","2","5","2","5","7","3","7","7","5","7","7","7","7","6","6","7","6","7","2","7","3","6","776480023275376642","王","618","Female","[""坏她"",""好我"",""坏我"",""好她""]","[""弱她"",""强我"",""弱我"",""强她""]","","","","","","","","","","","","","","","","","","","","","","","","","","","","","","feedback_test","","","","","","","","",""
"840","","f","psychophysics","38","579885","0.0-8.0-1.0-1.0-0.0-0.14","3","2","3","3","1","5","2","4","5","5","5","1","-1","-2","2","-2","1","2","1","5","5","5","5","5","4","4","2","5","4","8","8","7","7","4","4","6","6","8","3","6","2","3","7","2","7","1","6","3","1","2","3","3","6","3","3","2","7","2","5","2","5","7","3","7","7","5","7","7","7","7","6","6","7","6","7","2","7","3","6","776480023275376642","王","618","Female","[""坏她"",""好我"",""坏我"",""好她""]","[""弱她"",""强我"",""弱我"",""强她""]","","","","","","","","match","","","","","","","","","","key","f","16.670095238095104","853.1249872874471","475.6249929126353","j","false","nonmatch","img/diamond.png","弱她","强她","prac_ALT2_ability","practice_ability","","","","","","","","",""
"null","<span style='color:red; font-size: 70px;'>错误! </span>","null","html-keyboard-response","39","580388","0.0-8.0-1.0-1.0-0.0-1.14","3","2","3","3","1","5","2","4","5","5","5","1","-1","-2","2","-2","1","2","1","5","5","5","5","5","4","4","2","5","4","8","8","7","7","4","4","6","6","8","3","6","2","3","7","2","7","1","6","3","1","2","3","3","6","3","3","2","7","2","5","2","5","7","3","7","7","5","7","7","7","7","6","6","7","6","7","2","7","3","6","776480023275376642","王","618","Female","[""坏她"",""好我"",""坏我"",""好她""]","[""弱她"",""强我"",""弱我"",""强她""]","","","","","","","","","","","","","","","","","","","","","","","","","","","","","","feedback_test","","","","","","","","",""
"1052","","j","psychophysics","40","582442","0.0-8.0-1.0-1.0-0.0-0.15","3","2","3","3","1","5","2","4","5","5","5","1","-1","-2","2","-2","1","2","1","5","5","5","5","5","4","4","2","5","4","8","8","7","7","4","4","6","6","8","3","6","2","3","7","2","7","1","6","3","1","2","3","3","6","3","3","2","7","2","5","2","5","7","3","7","7","5","7","7","7","7","6","6","7","6","7","2","7","3","6","776480023275376642","王","618","Female","[""坏她"",""好我"",""坏我"",""好她""]","[""弱她"",""强我"",""弱我"",""强她""]","","","","","","","","nonmatch","","","","","","","","","","key","j","16.810766666666797","853.1249872874471","475.6249929126353","j","true","nonmatch","img/pentagon.png","弱她","强我","prac_ALT2_ability","practice_ability","","","","","","","","",""
"null","<span style='color:GreenYellow; font-size: 70px;'>正确! </span>","null","html-keyboard-response","41","582944","0.0-8.0-1.0-1.0-0.0-1.15","3","2","3","3","1","5","2","4","5","5","5","1","-1","-2","2","-2","1","2","1","5","5","5","5","5","4","4","2","5","4","8","8","7","7","4","4","6","6","8","3","6","2","3","7","2","7","1","6","3","1","2","3","3","6","3","3","2","7","2","5","2","5","7","3","7","7","5","7","7","7","7","6","6","7","6","7","2","7","3","6","776480023275376642","王","618","Female","[""坏她"",""好我"",""坏我"",""好她""]","[""弱她"",""强我"",""弱我"",""强她""]","","","","","","","","","","","","","","","","","","","","","","","","","","","","","","feedback_test","","","","","","","","",""
"749","","f","psychophysics","42","584697","0.0-8.0-1.0-1.0-0.0-0.16","3","2","3","3","1","5","2","4","5","5","5","1","-1","-2","2","-2","1","2","1","5","5","5","5","5","4","4","2","5","4","8","8","7","7","4","4","6","6","8","3","6","2","3","7","2","7","1","6","3","1","2","3","3","6","3","3","2","7","2","5","2","5","7","3","7","7","5","7","7","7","7","6","6","7","6","7","2","7","3","6","776480023275376642","王","618","Female","[""坏她"",""好我"",""坏我"",""好她""]","[""弱她"",""强我"",""弱我"",""强她""]","","","","","","","","match","","","","","","","","","","key","f","16.659362745098086","853.1249872874471","475.6249929126353","j","false","nonmatch","img/pentagon.png","弱我","强我","prac_ALT2_ability","practice_ability","","","","","","","","",""
"null","<span style='color:red; font-size: 70px;'>错误! </span>","null","html-keyboard-response","43","585198","0.0-8.0-1.0-1.0-0.0-1.16","3","2","3","3","1","5","2","4","5","5","5","1","-1","-2","2","-2","1","2","1","5","5","5","5","5","4","4","2","5","4","8","8","7","7","4","4","6","6","8","3","6","2","3","7","2","7","1","6","3","1","2","3","3","6","3","3","2","7","2","5","2","5","7","3","7","7","5","7","7","7","7","6","6","7","6","7","2","7","3","6","776480023275376642","王","618","Female","[""坏她"",""好我"",""坏我"",""好她""]","[""弱她"",""强我"",""弱我"",""强她""]","","","","","","","","","","","","","","","","","","","","","","","","","","","","","","feedback_test","","","","","","","","",""
"827","","j","psychophysics","44","587027","0.0-8.0-1.0-1.0-0.0-0.17","3","2","3","3","1","5","2","4","5","5","5","1","-1","-2","2","-2","1","2","1","5","5","5","5","5","4","4","2","5","4","8","8","7","7","4","4","6","6","8","3","6","2","3","7","2","7","1","6","3","1","2","3","3","6","3","3","2","7","2","5","2","5","7","3","7","7","5","7","7","7","7","6","6","7","6","7","2","7","3","6","776480023275376642","王","618","Female","[""坏她"",""好我"",""坏我"",""好她""]","[""弱她"",""强我"",""弱我"",""强她""]","","","","","","","","nonmatch","","","","","","","","","","key","j","16.690644859812856","853.1249872874471","475.6249929126353","j","true","nonmatch","img/ellipse.png","弱她","弱我","prac_ALT2_ability","practice_ability","","","","","","","","",""
"null","<span style='color:GreenYellow; font-size: 70px;'>正确! </span>","null","html-keyboard-response","45","587529","0.0-8.0-1.0-1.0-0.0-1.17","3","2","3","3","1","5","2","4","5","5","5","1","-1","-2","2","-2","1","2","1","5","5","5","5","5","4","4","2","5","4","8","8","7","7","4","4","6","6","8","3","6","2","3","7","2","7","1","6","3","1","2","3","3","6","3","3","2","7","2","5","2","5","7","3","7","7","5","7","7","7","7","6","6","7","6","7","2","7","3","6","776480023275376642","王","618","Female","[""坏她"",""好我"",""坏我"",""好她""]","[""弱她"",""强我"",""弱我"",""强她""]","","","","","","","","","","","","","","","","","","","","","","","","","","","","","","feedback_test","","","","","","","","",""
"716","","f","psychophysics","46","589247","0.0-8.0-1.0-1.0-0.0-0.18","3","2","3","3","1","5","2","4","5","5","5","1","-1","-2","2","-2","1","2","1","5","5","5","5","5","4","4","2","5","4","8","8","7","7","4","4","6","6","8","3","6","2","3","7","2","7","1","6","3","1","2","3","3","6","3","3","2","7","2","5","2","5","7","3","7","7","5","7","7","7","7","6","6","7","6","7","2","7","3","6","776480023275376642","王","618","Female","[""坏她"",""好我"",""坏我"",""好她""]","[""弱她"",""强我"",""弱我"",""强她""]","","","","","","","","match","","","","","","","","","","key","f","16.65830999999889","853.1249872874471","475.6249929126353","f","true","match","img/pentagon.png","强我","强我","prac_ALT2_ability","practice_ability","","","","","","","","",""
"null","<span style='color:GreenYellow; font-size: 70px;'>正确! </span>","null","html-keyboard-response","47","589749","0.0-8.0-1.0-1.0-0.0-1.18","3","2","3","3","1","5","2","4","5","5","5","1","-1","-2","2","-2","1","2","1","5","5","5","5","5","4","4","2","5","4","8","8","7","7","4","4","6","6","8","3","6","2","3","7","2","7","1","6","3","1","2","3","3","6","3","3","2","7","2","5","2","5","7","3","7","7","5","7","7","7","7","6","6","7","6","7","2","7","3","6","776480023275376642","王","618","Female","[""坏她"",""好我"",""坏我"",""好她""]","[""弱她"",""强我"",""弱我"",""强她""]","","","","","","","","","","","","","","","","","","","","","","","","","","","","","","feedback_test","","","","","","","","",""
"666","","f","psychophysics","48","591418","0.0-8.0-1.0-1.0-0.0-0.19","3","2","3","3","1","5","2","4","5","5","5","1","-1","-2","2","-2","1","2","1","5","5","5","5","5","4","4","2","5","4","8","8","7","7","4","4","6","6","8","3","6","2","3","7","2","7","1","6","3","1","2","3","3","6","3","3","2","7","2","5","2","5","7","3","7","7","5","7","7","7","7","6","6","7","6","7","2","7","3","6","776480023275376642","王","618","Female","[""坏她"",""好我"",""坏我"",""好她""]","[""弱她"",""强我"",""弱我"",""强她""]","","","","","","","","match","","","","","","","","","","key","f","17.403204301075498","853.1249872874471","475.6249929126353","j","false","nonmatch","img/ellipse.png","强我","弱我","prac_ALT2_ability","practice_ability","","","","","","","","",""
"null","<span style='color:red; font-size: 70px;'>错误! </span>","null","html-keyboard-response","49","591921","0.0-8.0-1.0-1.0-0.0-1.19","3","2","3","3","1","5","2","4","5","5","5","1","-1","-2","2","-2","1","2","1","5","5","5","5","5","4","4","2","5","4","8","8","7","7","4","4","6","6","8","3","6","2","3","7","2","7","1","6","3","1","2","3","3","6","3","3","2","7","2","5","2","5","7","3","7","7","5","7","7","7","7","6","6","7","6","7","2","7","3","6","776480023275376642","王","618","Female","[""坏她"",""好我"",""坏我"",""好她""]","[""弱她"",""强我"",""弱我"",""强她""]","","","","","","","","","","","","","","","","","","","","","","","","","","","","","","feedback_test","","","","","","","","",""
"989","","j","psychophysics","50","593914","0.0-8.0-1.0-1.0-0.0-0.20","3","2","3","3","1","5","2","4","5","5","5","1","-1","-2","2","-2","1","2","1","5","5","5","5","5","4","4","2","5","4","8","8","7","7","4","4","6","6","8","3","6","2","3","7","2","7","1","6","3","1","2","3","3","6","3","3","2","7","2","5","2","5","7","3","7","7","5","7","7","7","7","6","6","7","6","7","2","7","3","6","776480023275376642","王","618","Female","[""坏她"",""好我"",""坏我"",""好她""]","[""弱她"",""强我"",""弱我"",""强她""]","","","","","","","","nonmatch","","","","","","","","","","key","j","16.685239316238903","853.1249872874471","475.6249929126353","j","true","nonmatch","img/pentagon.png","强她","强我","prac_ALT2_ability","practice_ability","","","","","","","","",""
"null","<span style='color:GreenYellow; font-size: 70px;'>正确! </span>","null","html-keyboard-response","51","594416","0.0-8.0-1.0-1.0-0.0-1.20","3","2","3","3","1","5","2","4","5","5","5","1","-1","-2","2","-2","1","2","1","5","5","5","5","5","4","4","2","5","4","8","8","7","7","4","4","6","6","8","3","6","2","3","7","2","7","1","6","3","1","2","3","3","6","3","3","2","7","2","5","2","5","7","3","7","7","5","7","7","7","7","6","6","7","6","7","2","7","3","6","776480023275376642","王","618","Female","[""坏她"",""好我"",""坏我"",""好她""]","[""弱她"",""强我"",""弱我"",""强她""]","","","","","","","","","","","","","","","","","","","","","","","","","","","","","","feedback_test","","","","","","","","",""
"945","","j","psychophysics","52","596364","0.0-8.0-1.0-1.0-0.0-0.21","3","2","3","3","1","5","2","4","5","5","5","1","-1","-2","2","-2","1","2","1","5","5","5","5","5","4","4","2","5","4","8","8","7","7","4","4","6","6","8","3","6","2","3","7","2","7","1","6","3","1","2","3","3","6","3","3","2","7","2","5","2","5","7","3","7","7","5","7","7","7","7","6","6","7","6","7","2","7","3","6","776480023275376642","王","618","Female","[""坏她"",""好我"",""坏我"",""好她""]","[""弱她"",""强我"",""弱我"",""强她""]","","","","","","","","nonmatch","","","","","","","","","","key","j","16.656070175438735","853.1249872874471","475.6249929126353","f","false","match","img/ellipse.png","弱我","弱我","prac_ALT2_ability","practice_ability","","","","","","","","",""
"null","<span style='color:red; font-size: 70px;'>错误! </span>","null","html-keyboard-response","53","596865","0.0-8.0-1.0-1.0-0.0-1.21","3","2","3","3","1","5","2","4","5","5","5","1","-1","-2","2","-2","1","2","1","5","5","5","5","5","4","4","2","5","4","8","8","7","7","4","4","6","6","8","3","6","2","3","7","2","7","1","6","3","1","2","3","3","6","3","3","2","7","2","5","2","5","7","3","7","7","5","7","7","7","7","6","6","7","6","7","2","7","3","6","776480023275376642","王","618","Female","[""坏她"",""好我"",""坏我"",""好她""]","[""弱她"",""强我"",""弱我"",""强她""]","","","","","","","","","","","","","","","","","","","","","","","","","","","","","","feedback_test","","","","","","","","",""
"897","","f","psychophysics","54","598767","0.0-8.0-1.0-1.0-0.0-0.22","3","2","3","3","1","5","2","4","5","5","5","1","-1","-2","2","-2","1","2","1","5","5","5","5","5","4","4","2","5","4","8","8","7","7","4","4","6","6","8","3","6","2","3","7","2","7","1","6","3","1","2","3","3","6","3","3","2","7","2","5","2","5","7","3","7","7","5","7","7","7","7","6","6","7","6","7","2","7","3","6","776480023275376642","王","618","Female","[""坏她"",""好我"",""坏我"",""好她""]","[""弱她"",""强我"",""弱我"",""强她""]","","","","","","","","match","","","","","","","","","","key","f","16.648027027026867","853.1249872874471","475.6249929126353","f","true","match","img/diamond.png","强她","强她","prac_ALT2_ability","practice_ability","","","","","","","","",""
"null","<span style='color:GreenYellow; font-size: 70px;'>正确! </span>","null","html-keyboard-response","55","599269","0.0-8.0-1.0-1.0-0.0-1.22","3","2","3","3","1","5","2","4","5","5","5","1","-1","-2","2","-2","1","2","1","5","5","5","5","5","4","4","2","5","4","8","8","7","7","4","4","6","6","8","3","6","2","3","7","2","7","1","6","3","1","2","3","3","6","3","3","2","7","2","5","2","5","7","3","7","7","5","7","7","7","7","6","6","7","6","7","2","7","3","6","776480023275376642","王","618","Female","[""坏她"",""好我"",""坏我"",""好她""]","[""弱她"",""强我"",""弱我"",""强她""]","","","","","","","","","","","","","","","","","","","","","","","","","","","","","","feedback_test","","","","","","","","",""
"785","","j","psychophysics","56","601056","0.0-8.0-1.0-1.0-0.0-0.23","3","2","3","3","1","5","2","4","5","5","5","1","-1","-2","2","-2","1","2","1","5","5","5","5","5","4","4","2","5","4","8","8","7","7","4","4","6","6","8","3","6","2","3","7","2","7","1","6","3","1","2","3","3","6","3","3","2","7","2","5","2","5","7","3","7","7","5","7","7","7","7","6","6","7","6","7","2","7","3","6","776480023275376642","王","618","Female","[""坏她"",""好我"",""坏我"",""好她""]","[""弱她"",""强我"",""弱我"",""强她""]","","","","","","","","nonmatch","","","","","","","","","","key","j","16.670423076923516","853.1249872874471","475.6249929126353","j","true","nonmatch","img/trapezoid.png","强她","弱她","prac_ALT2_ability","practice_ability","","","","","","","","",""
"null","<span style='color:GreenYellow; font-size: 70px;'>正确! </span>","null","html-keyboard-response","57","601558","0.0-8.0-1.0-1.0-0.0-1.23","3","2","3","3","1","5","2","4","5","5","5","1","-1","-2","2","-2","1","2","1","5","5","5","5","5","4","4","2","5","4","8","8","7","7","4","4","6","6","8","3","6","2","3","7","2","7","1","6","3","1","2","3","3","6","3","3","2","7","2","5","2","5","7","3","7","7","5","7","7","7","7","6","6","7","6","7","2","7","3","6","776480023275376642","王","618","Female","[""坏她"",""好我"",""坏我"",""好她""]","[""弱她"",""强我"",""弱我"",""强她""]","","","","","","","","","","","","","","","","","","","","","","","","","","","","","","feedback_test","","","","","","","","",""
"1038","","f","psychophysics","58","603602","0.0-8.0-1.0-1.0-0.0-0.24","3","2","3","3","1","5","2","4","5","5","5","1","-1","-2","2","-2","1","2","1","5","5","5","5","5","4","4","2","5","4","8","8","7","7","4","4","6","6","8","3","6","2","3","7","2","7","1","6","3","1","2","3","3","6","3","3","2","7","2","5","2","5","7","3","7","7","5","7","7","7","7","6","6","7","6","7","2","7","3","6","776480023275376642","王","618","Female","[""坏她"",""好我"",""坏我"",""好她""]","[""弱她"",""强我"",""弱我"",""强她""]","","","","","","","","match","","","","","","","","","","key","f","17.120435897436025","853.1249872874471","475.6249929126353","f","true","match","img/diamond.png","强她","强她","prac_ALT2_ability","practice_ability","","","","","","","","",""
"null","<span style='color:GreenYellow; font-size: 70px;'>正确! </span>","null","html-keyboard-response","59","604104","0.0-8.0-1.0-1.0-0.0-1.24","3","2","3","3","1","5","2","4","5","5","5","1","-1","-2","2","-2","1","2","1","5","5","5","5","5","4","4","2","5","4","8","8","7","7","4","4","6","6","8","3","6","2","3","7","2","7","1","6","3","1","2","3","3","6","3","3","2","7","2","5","2","5","7","3","7","7","5","7","7","7","7","6","6","7","6","7","2","7","3","6","776480023275376642","王","618","Female","[""坏她"",""好我"",""坏我"",""好她""]","[""弱她"",""强我"",""弱我"",""强她""]","","","","","","","","","","","","","","","","","","","","","","","","","","","","","","feedback_test","","","","","","","","",""
"941","","j","psychophysics","60","606048","0.0-8.0-1.0-1.0-0.0-0.25","3","2","3","3","1","5","2","4","5","5","5","1","-1","-2","2","-2","1","2","1","5","5","5","5","5","4","4","2","5","4","8","8","7","7","4","4","6","6","8","3","6","2","3","7","2","7","1","6","3","1","2","3","3","6","3","3","2","7","2","5","2","5","7","3","7","7","5","7","7","7","7","6","6","7","6","7","2","7","3","6","776480023275376642","王","618","Female","[""坏她"",""好我"",""坏我"",""好她""]","[""弱她"",""强我"",""弱我"",""强她""]","","","","","","","","nonmatch","","","","","","","","","","key","j","16.67184210526389","853.1249872874471","475.6249929126353","j","true","nonmatch","img/pentagon.png","弱我","强我","prac_ALT2_ability","practice_ability","","","","","","","","",""
"null","<span style='color:GreenYellow; font-size: 70px;'>正确! </span>","null","html-keyboard-response","61","606551","0.0-8.0-1.0-1.0-0.0-1.25","3","2","3","3","1","5","2","4","5","5","5","1","-1","-2","2","-2","1","2","1","5","5","5","5","5","4","4","2","5","4","8","8","7","7","4","4","6","6","8","3","6","2","3","7","2","7","1","6","3","1","2","3","3","6","3","3","2","7","2","5","2","5","7","3","7","7","5","7","7","7","7","6","6","7","6","7","2","7","3","6","776480023275376642","王","618","Female","[""坏她"",""好我"",""坏我"",""好她""]","[""弱她"",""强我"",""弱我"",""强她""]","","","","","","","","","","","","","","","","","","","","","","","","","","","","","","feedback_test","","","","","","","","",""
"934","","f","psychophysics","62","608488","0.0-8.0-1.0-1.0-0.0-0.26","3","2","3","3","1","5","2","4","5","5","5","1","-1","-2","2","-2","1","2","1","5","5","5","5","5","4","4","2","5","4","8","8","7","7","4","4","6","6","8","3","6","2","3","7","2","7","1","6","3","1","2","3","3","6","3","3","2","7","2","5","2","5","7","3","7","7","5","7","7","7","7","6","6","7","6","7","2","7","3","6","776480023275376642","王","618","Female","[""坏她"",""好我"",""坏我"",""好她""]","[""弱她"",""强我"",""弱我"",""强她""]","","","","","","","","match","","","","","","","","","","key","f","16.67295575221234","853.1249872874471","475.6249929126353","f","true","match","img/trapezoid.png","弱她","弱她","prac_ALT2_ability","practice_ability","","","","","","","","",""
"null","<span style='color:GreenYellow; font-size: 70px;'>正确! </span>","null","html-keyboard-response","63","608989","0.0-8.0-1.0-1.0-0.0-1.26","3","2","3","3","1","5","2","4","5","5","5","1","-1","-2","2","-2","1","2","1","5","5","5","5","5","4","4","2","5","4","8","8","7","7","4","4","6","6","8","3","6","2","3","7","2","7","1","6","3","1","2","3","3","6","3","3","2","7","2","5","2","5","7","3","7","7","5","7","7","7","7","6","6","7","6","7","2","7","3","6","776480023275376642","王","618","Female","[""坏她"",""好我"",""坏我"",""好她""]","[""弱她"",""强我"",""弱我"",""强她""]","","","","","","","","","","","","","","","","","","","","","","","","","","","","","","feedback_test","","","","","","","","",""
"735","","j","psychophysics","64","610727","0.0-8.0-1.0-1.0-0.0-0.27","3","2","3","3","1","5","2","4","5","5","5","1","-1","-2","2","-2","1","2","1","5","5","5","5","5","4","4","2","5","4","8","8","7","7","4","4","6","6","8","3","6","2","3","7","2","7","1","6","3","1","2","3","3","6","3","3","2","7","2","5","2","5","7","3","7","7","5","7","7","7","7","6","6","7","6","7","2","7","3","6","776480023275376642","王","618","Female","[""坏她"",""好我"",""坏我"",""好她""]","[""弱她"",""强我"",""弱我"",""强她""]","","","","","","","","nonmatch","","","","","","","","","","key","j","16.68406930693084","853.1249872874471","475.6249929126353","j","true","nonmatch","img/ellipse.png","强她","弱我","prac_ALT2_ability","practice_ability","","","","","","","","",""
"null","<span style='color:GreenYellow; font-size: 70px;'>正确! </span>","null","html-keyboard-response","65","611228","0.0-8.0-1.0-1.0-0.0-1.27","3","2","3","3","1","5","2","4","5","5","5","1","-1","-2","2","-2","1","2","1","5","5","5","5","5","4","4","2","5","4","8","8","7","7","4","4","6","6","8","3","6","2","3","7","2","7","1","6","3","1","2","3","3","6","3","3","2","7","2","5","2","5","7","3","7","7","5","7","7","7","7","6","6","7","6","7","2","7","3","6","776480023275376642","王","618","Female","[""坏她"",""好我"",""坏我"",""好她""]","[""弱她"",""强我"",""弱我"",""强她""]","","","","","","","","","","","","","","","","","","","","","","","","","","","","","","feedback_test","","","","","","","","",""
"831","","j","psychophysics","66","613061","0.0-8.0-1.0-1.0-0.0-0.28","3","2","3","3","1","5","2","4","5","5","5","1","-1","-2","2","-2","1","2","1","5","5","5","5","5","4","4","2","5","4","8","8","7","7","4","4","6","6","8","3","6","2","3","7","2","7","1","6","3","1","2","3","3","6","3","3","2","7","2","5","2","5","7","3","7","7","5","7","7","7","7","6","6","7","6","7","2","7","3","6","776480023275376642","王","618","Female","[""坏她"",""好我"",""坏我"",""好她""]","[""弱她"",""强我"",""弱我"",""强她""]","","","","","","","","nonmatch","","","","","","","","","","key","j","16.64872897196252","853.1249872874471","475.6249929126353","j","true","nonmatch","img/ellipse.png","强我","弱我","prac_ALT2_ability","practice_ability","","","","","","","","",""
"null","<span style='color:GreenYellow; font-size: 70px;'>正确! </span>","null","html-keyboard-response","67","613563","0.0-8.0-1.0-1.0-0.0-1.28","3","2","3","3","1","5","2","4","5","5","5","1","-1","-2","2","-2","1","2","1","5","5","5","5","5","4","4","2","5","4","8","8","7","7","4","4","6","6","8","3","6","2","3","7","2","7","1","6","3","1","2","3","3","6","3","3","2","7","2","5","2","5","7","3","7","7","5","7","7","7","7","6","6","7","6","7","2","7","3","6","776480023275376642","王","618","Female","[""坏她"",""好我"",""坏我"",""好她""]","[""弱她"",""强我"",""弱我"",""强她""]","","","","","","","","","","","","","","","","","","","","","","","","","","","","","","feedback_test","","","","","","","","",""
"908","","j","psychophysics","68","615474","0.0-8.0-1.0-1.0-0.0-0.29","3","2","3","3","1","5","2","4","5","5","5","1","-1","-2","2","-2","1","2","1","5","5","5","5","5","4","4","2","5","4","8","8","7","7","4","4","6","6","8","3","6","2","3","7","2","7","1","6","3","1","2","3","3","6","3","3","2","7","2","5","2","5","7","3","7","7","5","7","7","7","7","6","6","7","6","7","2","7","3","6","776480023275376642","王","618","Female","[""坏她"",""好我"",""坏我"",""好她""]","[""弱她"",""强我"",""弱我"",""强她""]","","","","","","","","nonmatch","","","","","","","","","","key","j","16.66771428571415","853.1249872874471","475.6249929126353","j","true","nonmatch","img/pentagon.png","弱她","强我","prac_ALT2_ability","practice_ability","","","","","","","","",""
"null","<span style='color:GreenYellow; font-size: 70px;'>正确! </span>","null","html-keyboard-response","69","615976","0.0-8.0-1.0-1.0-0.0-1.29","3","2","3","3","1","5","2","4","5","5","5","1","-1","-2","2","-2","1","2","1","5","5","5","5","5","4","4","2","5","4","8","8","7","7","4","4","6","6","8","3","6","2","3","7","2","7","1","6","3","1","2","3","3","6","3","3","2","7","2","5","2","5","7","3","7","7","5","7","7","7","7","6","6","7","6","7","2","7","3","6","776480023275376642","王","618","Female","[""坏她"",""好我"",""坏我"",""好她""]","[""弱她"",""强我"",""弱我"",""强她""]","","","","","","","","","","","","","","","","","","","","","","","","","","","","","","feedback_test","","","","","","","","",""
"860","","j","psychophysics","70","617838","0.0-8.0-1.0-1.0-0.0-0.30","3","2","3","3","1","5","2","4","5","5","5","1","-1","-2","2","-2","1","2","1","5","5","5","5","5","4","4","2","5","4","8","8","7","7","4","4","6","6","8","3","6","2","3","7","2","7","1","6","3","1","2","3","3","6","3","3","2","7","2","5","2","5","7","3","7","7","5","7","7","7","7","6","6","7","6","7","2","7","3","6","776480023275376642","王","618","Female","[""坏她"",""好我"",""坏我"",""好她""]","[""弱她"",""强我"",""弱我"",""强她""]","","","","","","","","nonmatch","","","","","","","","","","key","j","16.979065420560836","853.1249872874471","475.6249929126353","j","true","nonmatch","img/pentagon.png","强她","强我","prac_ALT2_ability","practice_ability","","","","","","","","",""
"null","<span style='color:GreenYellow; font-size: 70px;'>正确! </span>","null","html-keyboard-response","71","618340","0.0-8.0-1.0-1.0-0.0-1.30","3","2","3","3","1","5","2","4","5","5","5","1","-1","-2","2","-2","1","2","1","5","5","5","5","5","4","4","2","5","4","8","8","7","7","4","4","6","6","8","3","6","2","3","7","2","7","1","6","3","1","2","3","3","6","3","3","2","7","2","5","2","5","7","3","7","7","5","7","7","7","7","6","6","7","6","7","2","7","3","6","776480023275376642","王","618","Female","[""坏她"",""好我"",""坏我"",""好她""]","[""弱她"",""强我"",""弱我"",""强她""]","","","","","","","","","","","","","","","","","","","","","","","","","","","","","","feedback_test","","","","","","","","",""
"913","","f","psychophysics","72","620257","0.0-8.0-1.0-1.0-0.0-0.31","3","2","3","3","1","5","2","4","5","5","5","1","-1","-2","2","-2","1","2","1","5","5","5","5","5","4","4","2","5","4","8","8","7","7","4","4","6","6","8","3","6","2","3","7","2","7","1","6","3","1","2","3","3","6","3","3","2","7","2","5","2","5","7","3","7","7","5","7","7","7","7","6","6","7","6","7","2","7","3","6","776480023275376642","王","618","Female","[""坏她"",""好我"",""坏我"",""好她""]","[""弱她"",""强我"",""弱我"",""强她""]","","","","","","","","match","","","","","","","","","","key","f","16.69417857142876","853.1249872874471","475.6249929126353","f","true","match","img/ellipse.png","弱我","弱我","prac_ALT2_ability","practice_ability","","","","","","","","",""
"null","<span style='color:GreenYellow; font-size: 70px;'>正确! </span>","null","html-keyboard-response","73","620759","0.0-8.0-1.0-1.0-0.0-1.31","3","2","3","3","1","5","2","4","5","5","5","1","-1","-2","2","-2","1","2","1","5","5","5","5","5","4","4","2","5","4","8","8","7","7","4","4","6","6","8","3","6","2","3","7","2","7","1","6","3","1","2","3","3","6","3","3","2","7","2","5","2","5","7","3","7","7","5","7","7","7","7","6","6","7","6","7","2","7","3","6","776480023275376642","王","618","Female","[""坏她"",""好我"",""坏我"",""好她""]","[""弱她"",""强我"",""弱我"",""强她""]","","","","","","","","","","","","","","","","","","","","","","","","","","","","","","feedback_test","","","","","","","","",""
"943","","j","psychophysics","74","622704","0.0-8.0-1.0-1.0-0.0-0.32","3","2","3","3","1","5","2","4","5","5","5","1","-1","-2","2","-2","1","2","1","5","5","5","5","5","4","4","2","5","4","8","8","7","7","4","4","6","6","8","3","6","2","3","7","2","7","1","6","3","1","2","3","3","6","3","3","2","7","2","5","2","5","7","3","7","7","5","7","7","7","7","6","6","7","6","7","2","7","3","6","776480023275376642","王","618","Female","[""坏她"",""好我"",""坏我"",""好她""]","[""弱她"",""强我"",""弱我"",""强她""]","","","","","","","","nonmatch","","","","","","","","","","key","j","16.67064035087701","853.1249872874471","475.6249929126353","j","true","nonmatch","img/trapezoid.png","弱我","弱她","prac_ALT2_ability","practice_ability","","","","","","","","",""
"null","<span style='color:GreenYellow; font-size: 70px;'>正确! </span>","null","html-keyboard-response","75","623207","0.0-8.0-1.0-1.0-0.0-1.32","3","2","3","3","1","5","2","4","5","5","5","1","-1","-2","2","-2","1","2","1","5","5","5","5","5","4","4","2","5","4","8","8","7","7","4","4","6","6","8","3","6","2","3","7","2","7","1","6","3","1","2","3","3","6","3","3","2","7","2","5","2","5","7","3","7","7","5","7","7","7","7","6","6","7","6","7","2","7","3","6","776480023275376642","王","618","Female","[""坏她"",""好我"",""坏我"",""好她""]","[""弱她"",""强我"",""弱我"",""强她""]","","","","","","","","","","","","","","","","","","","","","","","","","","","","","","feedback_test","","","","","","","","",""
"1178","","j","psychophysics","76","625388","0.0-8.0-1.0-1.0-0.0-0.33","3","2","3","3","1","5","2","4","5","5","5","1","-1","-2","2","-2","1","2","1","5","5","5","5","5","4","4","2","5","4","8","8","7","7","4","4","6","6","8","3","6","2","3","7","2","7","1","6","3","1","2","3","3","6","3","3","2","7","2","5","2","5","7","3","7","7","5","7","7","7","7","6","6","7","6","7","2","7","3","6","776480023275376642","王","618","Female","[""坏她"",""好我"",""坏我"",""好她""]","[""弱她"",""强我"",""弱我"",""强她""]","","","","","","","","nonmatch","","","","","","","","","","key","j","16.67322656249962","853.1249872874471","475.6249929126353","j","true","nonmatch","img/trapezoid.png","强她","弱她","prac_ALT2_ability","practice_ability","","","","","","","","",""
"null","<span style='color:GreenYellow; font-size: 70px;'>正确! </span>","null","html-keyboard-response","77","625890","0.0-8.0-1.0-1.0-0.0-1.33","3","2","3","3","1","5","2","4","5","5","5","1","-1","-2","2","-2","1","2","1","5","5","5","5","5","4","4","2","5","4","8","8","7","7","4","4","6","6","8","3","6","2","3","7","2","7","1","6","3","1","2","3","3","6","3","3","2","7","2","5","2","5","7","3","7","7","5","7","7","7","7","6","6","7","6","7","2","7","3","6","776480023275376642","王","618","Female","[""坏她"",""好我"",""坏我"",""好她""]","[""弱她"",""强我"",""弱我"",""强她""]","","","","","","","","","","","","","","","","","","","","","","","","","","","","","","feedback_test","","","","","","","","",""
"930","","j","psychophysics","78","627822","0.0-8.0-1.0-1.0-0.0-0.34","3","2","3","3","1","5","2","4","5","5","5","1","-1","-2","2","-2","1","2","1","5","5","5","5","5","4","4","2","5","4","8","8","7","7","4","4","6","6","8","3","6","2","3","7","2","7","1","6","3","1","2","3","3","6","3","3","2","7","2","5","2","5","7","3","7","7","5","7","7","7","7","6","6","7","6","7","2","7","3","6","776480023275376642","王","618","Female","[""坏她"",""好我"",""坏我"",""好她""]","[""弱她"",""强我"",""弱我"",""强她""]","","","","","","","","nonmatch","","","","","","","","","","key","j","16.67084210526337","853.1249872874471","475.6249929126353","j","true","nonmatch","img/diamond.png","强我","强她","prac_ALT2_ability","practice_ability","","","","","","","","",""
"null","<span style='color:GreenYellow; font-size: 70px;'>正确! </span>","null","html-keyboard-response","79","628324","0.0-8.0-1.0-1.0-0.0-1.34","3","2","3","3","1","5","2","4","5","5","5","1","-1","-2","2","-2","1","2","1","5","5","5","5","5","4","4","2","5","4","8","8","7","7","4","4","6","6","8","3","6","2","3","7","2","7","1","6","3","1","2","3","3","6","3","3","2","7","2","5","2","5","7","3","7","7","5","7","7","7","7","6","6","7","6","7","2","7","3","6","776480023275376642","王","618","Female","[""坏她"",""好我"",""坏我"",""好她""]","[""弱她"",""强我"",""弱我"",""强她""]","","","","","","","","","","","","","","","","","","","","","","","","","","","","","","feedback_test","","","","","","","","",""
"830","","j","psychophysics","80","630156","0.0-8.0-1.0-1.0-0.0-0.35","3","2","3","3","1","5","2","4","5","5","5","1","-1","-2","2","-2","1","2","1","5","5","5","5","5","4","4","2","5","4","8","8","7","7","4","4","6","6","8","3","6","2","3","7","2","7","1","6","3","1","2","3","3","6","3","3","2","7","2","5","2","5","7","3","7","7","5","7","7","7","7","6","6","7","6","7","2","7","3","6","776480023275376642","王","618","Female","[""坏她"",""好我"",""坏我"",""好她""]","[""弱她"",""强我"",""弱我"",""强她""]","","","","","","","","nonmatch","","","","","","","","","","key","j","16.65813888888806","853.1249872874471","475.6249929126353","j","true","nonmatch","img/diamond.png","弱我","强她","prac_ALT2_ability","practice_ability","","","","","","","","",""
"null","<span style='color:GreenYellow; font-size: 70px;'>正确! </span>","null","html-keyboard-response","81","630659","0.0-8.0-1.0-1.0-0.0-1.35","3","2","3","3","1","5","2","4","5","5","5","1","-1","-2","2","-2","1","2","1","5","5","5","5","5","4","4","2","5","4","8","8","7","7","4","4","6","6","8","3","6","2","3","7","2","7","1","6","3","1","2","3","3","6","3","3","2","7","2","5","2","5","7","3","7","7","5","7","7","7","7","6","6","7","6","7","2","7","3","6","776480023275376642","王","618","Female","[""坏她"",""好我"",""坏我"",""好她""]","[""弱她"",""强我"",""弱我"",""强她""]","","","","","","","","","","","","","","","","","","","","","","","","","","","","","","feedback_test","","","","","","","","",""
"652","","f","psychophysics","82","632313","0.0-8.0-1.0-1.0-0.0-0.36","3","2","3","3","1","5","2","4","5","5","5","1","-1","-2","2","-2","1","2","1","5","5","5","5","5","4","4","2","5","4","8","8","7","7","4","4","6","6","8","3","6","2","3","7","2","7","1","6","3","1","2","3","3","6","3","3","2","7","2","5","2","5","7","3","7","7","5","7","7","7","7","6","6","7","6","7","2","7","3","6","776480023275376642","王","618","Female","[""坏她"",""好我"",""坏我"",""好她""]","[""弱她"",""强我"",""弱我"",""强她""]","","","","","","","","match","","","","","","","","","","key","f","16.665463917526253","853.1249872874471","475.6249929126353","f","true","match","img/pentagon.png","强我","强我","prac_ALT2_ability","practice_ability","","","","","","","","",""
"null","<span style='color:GreenYellow; font-size: 70px;'>正确! </span>","null","html-keyboard-response","83","632815","0.0-8.0-1.0-1.0-0.0-1.36","3","2","3","3","1","5","2","4","5","5","5","1","-1","-2","2","-2","1","2","1","5","5","5","5","5","4","4","2","5","4","8","8","7","7","4","4","6","6","8","3","6","2","3","7","2","7","1","6","3","1","2","3","3","6","3","3","2","7","2","5","2","5","7","3","7","7","5","7","7","7","7","6","6","7","6","7","2","7","3","6","776480023275376642","王","618","Female","[""坏她"",""好我"",""坏我"",""好她""]","[""弱她"",""强我"",""弱我"",""强她""]","","","","","","","","","","","","","","","","","","","","","","","","","","","","","","feedback_test","","","","","","","","",""
"927","","f","psychophysics","84","634745","0.0-8.0-1.0-1.0-0.0-0.37","3","2","3","3","1","5","2","4","5","5","5","1","-1","-2","2","-2","1","2","1","5","5","5","5","5","4","4","2","5","4","8","8","7","7","4","4","6","6","8","3","6","2","3","7","2","7","1","6","3","1","2","3","3","6","3","3","2","7","2","5","2","5","7","3","7","7","5","7","7","7","7","6","6","7","6","7","2","7","3","6","776480023275376642","王","618","Female","[""坏她"",""好我"",""坏我"",""好她""]","[""弱她"",""强我"",""弱我"",""强她""]","","","","","","","","match","","","","","","","","","","key","f","16.670840707964025","853.1249872874471","475.6249929126353","f","true","match","img/trapezoid.png","弱她","弱她","prac_ALT2_ability","practice_ability","","","","","","","","",""
"null","<span style='color:GreenYellow; font-size: 70px;'>正确! </span>","null","html-keyboard-response","85","635248","0.0-8.0-1.0-1.0-0.0-1.37","3","2","3","3","1","5","2","4","5","5","5","1","-1","-2","2","-2","1","2","1","5","5","5","5","5","4","4","2","5","4","8","8","7","7","4","4","6","6","8","3","6","2","3","7","2","7","1","6","3","1","2","3","3","6","3","3","2","7","2","5","2","5","7","3","7","7","5","7","7","7","7","6","6","7","6","7","2","7","3","6","776480023275376642","王","618","Female","[""坏她"",""好我"",""坏我"",""好她""]","[""弱她"",""强我"",""弱我"",""强她""]","","","","","","","","","","","","","","","","","","","","","","","","","","","","","","feedback_test","","","","","","","","",""
"673","","f","psychophysics","86","636924","0.0-8.0-1.0-1.0-0.0-0.38","3","2","3","3","1","5","2","4","5","5","5","1","-1","-2","2","-2","1","2","1","5","5","5","5","5","4","4","2","5","4","8","8","7","7","4","4","6","6","8","3","6","2","3","7","2","7","1","6","3","1","2","3","3","6","3","3","2","7","2","5","2","5","7","3","7","7","5","7","7","7","7","6","6","7","6","7","2","7","3","6","776480023275376642","王","618","Female","[""坏她"",""好我"",""坏我"",""好她""]","[""弱她"",""强我"",""弱我"",""强她""]","","","","","","","","match","","","","","","","","","","key","f","17.01419791666679","853.1249872874471","475.6249929126353","f","true","match","img/ellipse.png","弱我","弱我","prac_ALT2_ability","practice_ability","","","","","","","","",""
"null","<span style='color:GreenYellow; font-size: 70px;'>正确! </span>","null","html-keyboard-response","87","637427","0.0-8.0-1.0-1.0-0.0-1.38","3","2","3","3","1","5","2","4","5","5","5","1","-1","-2","2","-2","1","2","1","5","5","5","5","5","4","4","2","5","4","8","8","7","7","4","4","6","6","8","3","6","2","3","7","2","7","1","6","3","1","2","3","3","6","3","3","2","7","2","5","2","5","7","3","7","7","5","7","7","7","7","6","6","7","6","7","2","7","3","6","776480023275376642","王","618","Female","[""坏她"",""好我"",""坏我"",""好她""]","[""弱她"",""强我"",""弱我"",""强她""]","","","","","","","","","","","","","","","","","","","","","","","","","","","","","","feedback_test","","","","","","","","",""
"1071","","f","psychophysics","88","639501","0.0-8.0-1.0-1.0-0.0-0.39","3","2","3","3","1","5","2","4","5","5","5","1","-1","-2","2","-2","1","2","1","5","5","5","5","5","4","4","2","5","4","8","8","7","7","4","4","6","6","8","3","6","2","3","7","2","7","1","6","3","1","2","3","3","6","3","3","2","7","2","5","2","5","7","3","7","7","5","7","7","7","7","6","6","7","6","7","2","7","3","6","776480023275376642","王","618","Female","[""坏她"",""好我"",""坏我"",""好她""]","[""弱她"",""强我"",""弱我"",""强她""]","","","","","","","","match","","","","","","","","","","key","f","16.685280991735493","853.1249872874471","475.6249929126353","f","true","match","img/diamond.png","强她","强她","prac_ALT2_ability","practice_ability","","","","","","","","",""
"null","<span style='color:GreenYellow; font-size: 70px;'>正确! </span>","null","html-keyboard-response","89","640003","0.0-8.0-1.0-1.0-0.0-1.39","3","2","3","3","1","5","2","4","5","5","5","1","-1","-2","2","-2","1","2","1","5","5","5","5","5","4","4","2","5","4","8","8","7","7","4","4","6","6","8","3","6","2","3","7","2","7","1","6","3","1","2","3","3","6","3","3","2","7","2","5","2","5","7","3","7","7","5","7","7","7","7","6","6","7","6","7","2","7","3","6","776480023275376642","王","618","Female","[""坏她"",""好我"",""坏我"",""好她""]","[""弱她"",""强我"",""弱我"",""强她""]","","","","","","","","","","","","","","","","","","","","","","","","","","","","","","feedback_test","","","","","","","","",""
"754","","j","psychophysics","90","641760","0.0-8.0-1.0-1.0-0.0-0.40","3","2","3","3","1","5","2","4","5","5","5","1","-1","-2","2","-2","1","2","1","5","5","5","5","5","4","4","2","5","4","8","8","7","7","4","4","6","6","8","3","6","2","3","7","2","7","1","6","3","1","2","3","3","6","3","3","2","7","2","5","2","5","7","3","7","7","5","7","7","7","7","6","6","7","6","7","2","7","3","6","776480023275376642","王","618","Female","[""坏她"",""好我"",""坏我"",""好她""]","[""弱她"",""强我"",""弱我"",""强她""]","","","","","","","","nonmatch","","","","","","","","","","key","j","16.657330097086973","853.1249872874471","475.6249929126353","j","true","nonmatch","img/diamond.png","弱她","强她","prac_ALT2_ability","practice_ability","","","","","","","","",""
"null","<span style='color:GreenYellow; font-size: 70px;'>正确! </span>","null","html-keyboard-response","91","642262","0.0-8.0-1.0-1.0-0.0-1.40","3","2","3","3","1","5","2","4","5","5","5","1","-1","-2","2","-2","1","2","1","5","5","5","5","5","4","4","2","5","4","8","8","7","7","4","4","6","6","8","3","6","2","3","7","2","7","1","6","3","1","2","3","3","6","3","3","2","7","2","5","2","5","7","3","7","7","5","7","7","7","7","6","6","7","6","7","2","7","3","6","776480023275376642","王","618","Female","[""坏她"",""好我"",""坏我"",""好她""]","[""弱她"",""强我"",""弱我"",""强她""]","","","","","","","","","","","","","","","","","","","","","","","","","","","","","","feedback_test","","","","","","","","",""
"664","","f","psychophysics","92","643928","0.0-8.0-1.0-1.0-0.0-0.41","3","2","3","3","1","5","2","4","5","5","5","1","-1","-2","2","-2","1","2","1","5","5","5","5","5","4","4","2","5","4","8","8","7","7","4","4","6","6","8","3","6","2","3","7","2","7","1","6","3","1","2","3","3","6","3","3","2","7","2","5","2","5","7","3","7","7","5","7","7","7","7","6","6","7","6","7","2","7","3","6","776480023275376642","王","618","Female","[""坏她"",""好我"",""坏我"",""好她""]","[""弱她"",""强我"",""弱我"",""强她""]","","","","","","","","match","","","","","","","","","","key","f","16.797804123711217","853.1249872874471","475.6249929126353","f","true","match","img/ellipse.png","弱我","弱我","prac_ALT2_ability","practice_ability","","","","","","","","",""
"null","<span style='color:GreenYellow; font-size: 70px;'>正确! </span>","null","html-keyboard-response","93","644431","0.0-8.0-1.0-1.0-0.0-1.41","3","2","3","3","1","5","2","4","5","5","5","1","-1","-2","2","-2","1","2","1","5","5","5","5","5","4","4","2","5","4","8","8","7","7","4","4","6","6","8","3","6","2","3","7","2","7","1","6","3","1","2","3","3","6","3","3","2","7","2","5","2","5","7","3","7","7","5","7","7","7","7","6","6","7","6","7","2","7","3","6","776480023275376642","王","618","Female","[""坏她"",""好我"",""坏我"",""好她""]","[""弱她"",""强我"",""弱我"",""强她""]","","","","","","","","","","","","","","","","","","","","","","","","","","","","","","feedback_test","","","","","","","","",""
"602","","f","psychophysics","94","646036","0.0-8.0-1.0-1.0-0.0-0.42","3","2","3","3","1","5","2","4","5","5","5","1","-1","-2","2","-2","1","2","1","5","5","5","5","5","4","4","2","5","4","8","8","7","7","4","4","6","6","8","3","6","2","3","7","2","7","1","6","3","1","2","3","3","6","3","3","2","7","2","5","2","5","7","3","7","7","5","7","7","7","7","6","6","7","6","7","2","7","3","6","776480023275376642","王","618","Female","[""坏她"",""好我"",""坏我"",""好她""]","[""弱她"",""强我"",""弱我"",""强她""]","","","","","","","","match","","","","","","","","","","key","f","16.848206521739485","853.1249872874471","475.6249929126353","f","true","match","img/pentagon.png","强我","强我","prac_ALT2_ability","practice_ability","","","","","","","","",""
"null","<span style='color:GreenYellow; font-size: 70px;'>正确! </span>","null","html-keyboard-response","95","646538","0.0-8.0-1.0-1.0-0.0-1.42","3","2","3","3","1","5","2","4","5","5","5","1","-1","-2","2","-2","1","2","1","5","5","5","5","5","4","4","2","5","4","8","8","7","7","4","4","6","6","8","3","6","2","3","7","2","7","1","6","3","1","2","3","3","6","3","3","2","7","2","5","2","5","7","3","7","7","5","7","7","7","7","6","6","7","6","7","2","7","3","6","776480023275376642","王","618","Female","[""坏她"",""好我"",""坏我"",""好她""]","[""弱她"",""强我"",""弱我"",""强她""]","","","","","","","","","","","","","","","","","","","","","","","","","","","","","","feedback_test","","","","","","","","",""
"821","","f","psychophysics","96","648364","0.0-8.0-1.0-1.0-0.0-0.43","3","2","3","3","1","5","2","4","5","5","5","1","-1","-2","2","-2","1","2","1","5","5","5","5","5","4","4","2","5","4","8","8","7","7","4","4","6","6","8","3","6","2","3","7","2","7","1","6","3","1","2","3","3","6","3","3","2","7","2","5","2","5","7","3","7","7","5","7","7","7","7","6","6","7","6","7","2","7","3","6","776480023275376642","王","618","Female","[""坏她"",""好我"",""坏我"",""好她""]","[""弱她"",""强我"",""弱我"",""强她""]","","","","","","","","match","","","","","","","","","","key","f","16.684747663550688","853.1249872874471","475.6249929126353","f","true","match","img/pentagon.png","强我","强我","prac_ALT2_ability","practice_ability","","","","","","","","",""
"null","<span style='color:GreenYellow; font-size: 70px;'>正确! </span>","null","html-keyboard-response","97","648865","0.0-8.0-1.0-1.0-0.0-1.43","3","2","3","3","1","5","2","4","5","5","5","1","-1","-2","2","-2","1","2","1","5","5","5","5","5","4","4","2","5","4","8","8","7","7","4","4","6","6","8","3","6","2","3","7","2","7","1","6","3","1","2","3","3","6","3","3","2","7","2","5","2","5","7","3","7","7","5","7","7","7","7","6","6","7","6","7","2","7","3","6","776480023275376642","王","618","Female","[""坏她"",""好我"",""坏我"",""好她""]","[""弱她"",""强我"",""弱我"",""强她""]","","","","","","","","","","","","","","","","","","","","","","","","","","","","","","feedback_test","","","","","","","","",""
"773","","j","psychophysics","98","650641","0.0-8.0-1.0-1.0-0.0-0.44","3","2","3","3","1","5","2","4","5","5","5","1","-1","-2","2","-2","1","2","1","5","5","5","5","5","4","4","2","5","4","8","8","7","7","4","4","6","6","8","3","6","2","3","7","2","7","1","6","3","1","2","3","3","6","3","3","2","7","2","5","2","5","7","3","7","7","5","7","7","7","7","6","6","7","6","7","2","7","3","6","776480023275376642","王","618","Female","[""坏她"",""好我"",""坏我"",""好她""]","[""弱她"",""强我"",""弱我"",""强她""]","","","","","","","","nonmatch","","","","","","","","","","key","j","16.660271844660492","853.1249872874471","475.6249929126353","j","true","nonmatch","img/trapezoid.png","强我","弱她","prac_ALT2_ability","practice_ability","","","","","","","","",""
"null","<span style='color:GreenYellow; font-size: 70px;'>正确! </span>","null","html-keyboard-response","99","651143","0.0-8.0-1.0-1.0-0.0-1.44","3","2","3","3","1","5","2","4","5","5","5","1","-1","-2","2","-2","1","2","1","5","5","5","5","5","4","4","2","5","4","8","8","7","7","4","4","6","6","8","3","6","2","3","7","2","7","1","6","3","1","2","3","3","6","3","3","2","7","2","5","2","5","7","3","7","7","5","7","7","7","7","6","6","7","6","7","2","7","3","6","776480023275376642","王","618","Female","[""坏她"",""好我"",""坏我"",""好她""]","[""弱她"",""强我"",""弱我"",""强她""]","","","","","","","","","","","","","","","","","","","","","","","","","","","","","","feedback_test","","","","","","","","",""
"1164","","f","psychophysics","100","653311","0.0-8.0-1.0-1.0-0.0-0.45","3","2","3","3","1","5","2","4","5","5","5","1","-1","-2","2","-2","1","2","1","5","5","5","5","5","4","4","2","5","4","8","8","7","7","4","4","6","6","8","3","6","2","3","7","2","7","1","6","3","1","2","3","3","6","3","3","2","7","2","5","2","5","7","3","7","7","5","7","7","7","7","6","6","7","6","7","2","7","3","6","776480023275376642","王","618","Female","[""坏她"",""好我"",""坏我"",""好她""]","[""弱她"",""强我"",""弱我"",""强她""]","","","","","","","","match","","","","","","","","","","key","f","16.665102362204674","853.1249872874471","475.6249929126353","f","true","match","img/diamond.png","强她","强她","prac_ALT2_ability","practice_ability","","","","","","","","",""
"null","<span style='color:GreenYellow; font-size: 70px;'>正确! </span>","null","html-keyboard-response","101","653812","0.0-8.0-1.0-1.0-0.0-1.45","3","2","3","3","1","5","2","4","5","5","5","1","-1","-2","2","-2","1","2","1","5","5","5","5","5","4","4","2","5","4","8","8","7","7","4","4","6","6","8","3","6","2","3","7","2","7","1","6","3","1","2","3","3","6","3","3","2","7","2","5","2","5","7","3","7","7","5","7","7","7","7","6","6","7","6","7","2","7","3","6","776480023275376642","王","618","Female","[""坏她"",""好我"",""坏我"",""好她""]","[""弱她"",""强我"",""弱我"",""强她""]","","","","","","","","","","","","","","","","","","","","","","","","","","","","","","feedback_test","","","","","","","","",""
"820","","j","psychophysics","102","655637","0.0-8.0-1.0-1.0-0.0-0.46","3","2","3","3","1","5","2","4","5","5","5","1","-1","-2","2","-2","1","2","1","5","5","5","5","5","4","4","2","5","4","8","8","7","7","4","4","6","6","8","3","6","2","3","7","2","7","1","6","3","1","2","3","3","6","3","3","2","7","2","5","2","5","7","3","7","7","5","7","7","7","7","6","6","7","6","7","2","7","3","6","776480023275376642","王","618","Female","[""坏她"",""好我"",""坏我"",""好她""]","[""弱她"",""强我"",""弱我"",""强她""]","","","","","","","","nonmatch","","","","","","","","","","key","j","16.688084905660702","853.1249872874471","475.6249929126353","j","true","nonmatch","img/ellipse.png","弱她","弱我","prac_ALT2_ability","practice_ability","","","","","","","","",""
"null","<span style='color:GreenYellow; font-size: 70px;'>正确! </span>","null","html-keyboard-response","103","656139","0.0-8.0-1.0-1.0-0.0-1.46","3","2","3","3","1","5","2","4","5","5","5","1","-1","-2","2","-2","1","2","1","5","5","5","5","5","4","4","2","5","4","8","8","7","7","4","4","6","6","8","3","6","2","3","7","2","7","1","6","3","1","2","3","3","6","3","3","2","7","2","5","2","5","7","3","7","7","5","7","7","7","7","6","6","7","6","7","2","7","3","6","776480023275376642","王","618","Female","[""坏她"",""好我"",""坏我"",""好她""]","[""弱她"",""强我"",""弱我"",""强她""]","","","","","","","","","","","","","","","","","","","","","","","","","","","","","","feedback_test","","","","","","","","",""
"773","","f","psychophysics","104","657914","0.0-8.0-1.0-1.0-0.0-0.47","3","2","3","3","1","5","2","4","5","5","5","1","-1","-2","2","-2","1","2","1","5","5","5","5","5","4","4","2","5","4","8","8","7","7","4","4","6","6","8","3","6","2","3","7","2","7","1","6","3","1","2","3","3","6","3","3","2","7","2","5","2","5","7","3","7","7","5","7","7","7","7","6","6","7","6","7","2","7","3","6","776480023275376642","王","618","Female","[""坏她"",""好我"",""坏我"",""好她""]","[""弱她"",""强我"",""弱我"",""强她""]","","","","","","","","match","","","","","","","","","","key","f","16.684634615385082","853.1249872874471","475.6249929126353","f","true","match","img/trapezoid.png","弱她","弱她","prac_ALT2_ability","practice_ability","","","","","","","","",""
"null","<span style='color:GreenYellow; font-size: 70px;'>正确! </span>","null","html-keyboard-response","105","658416","0.0-8.0-1.0-1.0-0.0-1.47","3","2","3","3","1","5","2","4","5","5","5","1","-1","-2","2","-2","1","2","1","5","5","5","5","5","4","4","2","5","4","8","8","7","7","4","4","6","6","8","3","6","2","3","7","2","7","1","6","3","1","2","3","3","6","3","3","2","7","2","5","2","5","7","3","7","7","5","7","7","7","7","6","6","7","6","7","2","7","3","6","776480023275376642","王","618","Female","[""坏她"",""好我"",""坏我"",""好她""]","[""弱她"",""强我"",""弱我"",""强她""]","","","","","","","","","","","","","","","","","","","","","","","","","","","","","","feedback_test","","","","","","","","",""
"14524","<style>.context{color:white; font-size: 35px; line-height:40px}</style>                          <div><p class='context'>您正确回答了83% 的试次。</p><p class='context'>您的平均反应时为853毫秒。</p><p class='context'>恭喜您完成练习。按空格键进入正式实验。</p><p class='footer' style='color:white;font-size: 35px; line-height:40px;'>请在进入正式实验实验之前将您的<span style='color: lightgreen;'>食指</span>放在电脑键盘的相应键位上进行按键。</p>"," ","html-keyboard-response","106","672951","0.0-8.0-1.0-2.0","3","2","3","3","1","5","2","4","5","5","5","1","-1","-2","2","-2","1","2","1","5","5","5","5","5","4","4","2","5","4","8","8","7","7","4","4","6","6","8","3","6","2","3","7","2","7","1","6","3","1","2","3","3","6","3","3","2","7","2","5","2","5","7","3","7","7","5","7","7","7","7","6","6","7","6","7","2","7","3","6","776480023275376642","王","618","Female","[""坏她"",""好我"",""坏我"",""好她""]","[""弱她"",""强我"",""弱我"",""强她""]","","","","","","","","","","","","","","","","","","","","","","","","","","","","","","","","","","","","","","",""
"2405","
  <p style='color: white; font-size: 22px'>请您将手指放在按键上，准备进入正式的匹配任务。</p>
  <p> <div style = ""color: green""><按空格键进入下一阶段的匹配任务></div></p>
  "," ","html-keyboard-response","107","675381","0.0-8.0-1.0-3.0","3","2","3","3","1","5","2","4","5","5","5","1","-1","-2","2","-2","1","2","1","5","5","5","5","5","4","4","2","5","4","8","8","7","7","4","4","6","6","8","3","6","2","3","7","2","7","1","6","3","1","2","3","3","6","3","3","2","7","2","5","2","5","7","3","7","7","5","7","7","7","7","6","6","7","6","7","2","7","3","6","776480023275376642","王","618","Female","[""坏她"",""好我"",""坏我"",""好她""]","[""弱她"",""强我"",""弱我"",""强她""]","","","","","","","","","","","","","","","","","","","","","","","","","","","","","","","","","","","","","","",""
"997","","f","psychophysics","108","677384","0.0-8.0-1.0-4.0-0.0-0.0","3","2","3","3","1","5","2","4","5","5","5","1","-1","-2","2","-2","1","2","1","5","5","5","5","5","4","4","2","5","4","8","8","7","7","4","4","6","6","8","3","6","2","3","7","2","7","1","6","3","1","2","3","3","6","3","3","2","7","2","5","2","5","7","3","7","7","5","7","7","7","7","6","6","7","6","7","2","7","3","6","776480023275376642","王","618","Female","[""坏她"",""好我"",""坏我"",""好她""]","[""弱她"",""强我"",""弱我"",""强她""]","","","","","","","","match","","","","","","","","","","key","f","16.673637931034417","853.1249872874471","475.6249929126353","f","true","match","img/ellipse.png","弱我","弱我","ALT2","ability","","","","","","","","",""
"null","<span style='color:GreenYellow; font-size: 70px;'>正确! </span>","null","html-keyboard-response","109","677887","0.0-8.0-1.0-4.0-0.0-1.0","3","2","3","3","1","5","2","4","5","5","5","1","-1","-2","2","-2","1","2","1","5","5","5","5","5","4","4","2","5","4","8","8","7","7","4","4","6","6","8","3","6","2","3","7","2","7","1","6","3","1","2","3","3","6","3","3","2","7","2","5","2","5","7","3","7","7","5","7","7","7","7","6","6","7","6","7","2","7","3","6","776480023275376642","王","618","Female","[""坏她"",""好我"",""坏我"",""好她""]","[""弱她"",""强我"",""弱我"",""强她""]","","","","","","","","","","","","","","","","","","","","","","","","","","","","","","feedback_test","","","","","","","","",""
"1022","","j","psychophysics","110","679912","0.0-8.0-1.0-4.0-0.0-0.1","3","2","3","3","1","5","2","4","5","5","5","1","-1","-2","2","-2","1","2","1","5","5","5","5","5","4","4","2","5","4","8","8","7","7","4","4","6","6","8","3","6","2","3","7","2","7","1","6","3","1","2","3","3","6","3","3","2","7","2","5","2","5","7","3","7","7","5","7","7","7","7","6","6","7","6","7","2","7","3","6","776480023275376642","王","618","Female","[""坏她"",""好我"",""坏我"",""好她""]","[""弱她"",""强我"",""弱我"",""强她""]","","","","","","","","nonmatch","","","","","","","","","","key","j","16.67604201680691","853.1249872874471","475.6249929126353","j","true","nonmatch","img/pentagon.png","弱她","强我","ALT2","ability","","","","","","","","",""
"null","<span style='color:GreenYellow; font-size: 70px;'>正确! </span>","null","html-keyboard-response","111","680414","0.0-8.0-1.0-4.0-0.0-1.1","3","2","3","3","1","5","2","4","5","5","5","1","-1","-2","2","-2","1","2","1","5","5","5","5","5","4","4","2","5","4","8","8","7","7","4","4","6","6","8","3","6","2","3","7","2","7","1","6","3","1","2","3","3","6","3","3","2","7","2","5","2","5","7","3","7","7","5","7","7","7","7","6","6","7","6","7","2","7","3","6","776480023275376642","王","618","Female","[""坏她"",""好我"",""坏我"",""好她""]","[""弱她"",""强我"",""弱我"",""强她""]","","","","","","","","","","","","","","","","","","","","","","","","","","","","","","feedback_test","","","","","","","","",""
"774","","j","psychophysics","112","682192","0.0-8.0-1.0-4.0-0.0-0.2","3","2","3","3","1","5","2","4","5","5","5","1","-1","-2","2","-2","1","2","1","5","5","5","5","5","4","4","2","5","4","8","8","7","7","4","4","6","6","8","3","6","2","3","7","2","7","1","6","3","1","2","3","3","6","3","3","2","7","2","5","2","5","7","3","7","7","5","7","7","7","7","6","6","7","6","7","2","7","3","6","776480023275376642","王","618","Female","[""坏她"",""好我"",""坏我"",""好她""]","[""弱她"",""强我"",""弱我"",""强她""]","","","","","","","","nonmatch","","","","","","","","","","key","j","16.84620388349613","853.1249872874471","475.6249929126353","j","true","nonmatch","img/ellipse.png","弱她","弱我","ALT2","ability","","","","","","","","",""
"null","<span style='color:GreenYellow; font-size: 70px;'>正确! </span>","null","html-keyboard-response","113","682694","0.0-8.0-1.0-4.0-0.0-1.2","3","2","3","3","1","5","2","4","5","5","5","1","-1","-2","2","-2","1","2","1","5","5","5","5","5","4","4","2","5","4","8","8","7","7","4","4","6","6","8","3","6","2","3","7","2","7","1","6","3","1","2","3","3","6","3","3","2","7","2","5","2","5","7","3","7","7","5","7","7","7","7","6","6","7","6","7","2","7","3","6","776480023275376642","王","618","Female","[""坏她"",""好我"",""坏我"",""好她""]","[""弱她"",""强我"",""弱我"",""强她""]","","","","","","","","","","","","","","","","","","","","","","","","","","","","","","feedback_test","","","","","","","","",""
"939","","f","psychophysics","114","684636","0.0-8.0-1.0-4.0-0.0-0.3","3","2","3","3","1","5","2","4","5","5","5","1","-1","-2","2","-2","1","2","1","5","5","5","5","5","4","4","2","5","4","8","8","7","7","4","4","6","6","8","3","6","2","3","7","2","7","1","6","3","1","2","3","3","6","3","3","2","7","2","5","2","5","7","3","7","7","5","7","7","7","7","6","6","7","6","7","2","7","3","6","776480023275376642","王","618","Female","[""坏她"",""好我"",""坏我"",""好她""]","[""弱她"",""强我"",""弱我"",""强她""]","","","","","","","","match","","","","","","","","","","key","f","16.658407079645194","853.1249872874471","475.6249929126353","f","true","match","img/trapezoid.png","弱她","弱她","ALT2","ability","","","","","","","","",""
"null","<span style='color:GreenYellow; font-size: 70px;'>正确! </span>","null","html-keyboard-response","115","685138","0.0-8.0-1.0-4.0-0.0-1.3","3","2","3","3","1","5","2","4","5","5","5","1","-1","-2","2","-2","1","2","1","5","5","5","5","5","4","4","2","5","4","8","8","7","7","4","4","6","6","8","3","6","2","3","7","2","7","1","6","3","1","2","3","3","6","3","3","2","7","2","5","2","5","7","3","7","7","5","7","7","7","7","6","6","7","6","7","2","7","3","6","776480023275376642","王","618","Female","[""坏她"",""好我"",""坏我"",""好她""]","[""弱她"",""强我"",""弱我"",""强她""]","","","","","","","","","","","","","","","","","","","","","","","","","","","","","","feedback_test","","","","","","","","",""
"643","","f","psychophysics","116","686785","0.0-8.0-1.0-4.0-0.0-0.4","3","2","3","3","1","5","2","4","5","5","5","1","-1","-2","2","-2","1","2","1","5","5","5","5","5","4","4","2","5","4","8","8","7","7","4","4","6","6","8","3","6","2","3","7","2","7","1","6","3","1","2","3","3","6","3","3","2","7","2","5","2","5","7","3","7","7","5","7","7","7","7","6","6","7","6","7","2","7","3","6","776480023275376642","王","618","Female","[""坏她"",""好我"",""坏我"",""好她""]","[""弱她"",""强我"",""弱我"",""强她""]","","","","","","","","match","","","","","","","","","","key","f","16.871431578946986","853.1249872874471","475.6249929126353","f","true","match","img/ellipse.png","弱我","弱我","ALT2","ability","","","","","","","","",""
"null","<span style='color:GreenYellow; font-size: 70px;'>正确! </span>","null","html-keyboard-response","117","687287","0.0-8.0-1.0-4.0-0.0-1.4","3","2","3","3","1","5","2","4","5","5","5","1","-1","-2","2","-2","1","2","1","5","5","5","5","5","4","4","2","5","4","8","8","7","7","4","4","6","6","8","3","6","2","3","7","2","7","1","6","3","1","2","3","3","6","3","3","2","7","2","5","2","5","7","3","7","7","5","7","7","7","7","6","6","7","6","7","2","7","3","6","776480023275376642","王","618","Female","[""坏她"",""好我"",""坏我"",""好她""]","[""弱她"",""强我"",""弱我"",""强她""]","","","","","","","","","","","","","","","","","","","","","","","","","","","","","","feedback_test","","","","","","","","",""
"751","","j","psychophysics","118","689041","0.0-8.0-1.0-4.0-0.0-0.5","3","2","3","3","1","5","2","4","5","5","5","1","-1","-2","2","-2","1","2","1","5","5","5","5","5","4","4","2","5","4","8","8","7","7","4","4","6","6","8","3","6","2","3","7","2","7","1","6","3","1","2","3","3","6","3","3","2","7","2","5","2","5","7","3","7","7","5","7","7","7","7","6","6","7","6","7","2","7","3","6","776480023275376642","王","618","Female","[""坏她"",""好我"",""坏我"",""好她""]","[""弱她"",""强我"",""弱我"",""强她""]","","","","","","","","nonmatch","","","","","","","","","","key","j","16.690882352940903","853.1249872874471","475.6249929126353","f","false","match","img/diamond.png","强她","强她","ALT2","ability","","","","","","","","",""
"null","<span style='color:red; font-size: 70px;'>错误! </span>","null","html-keyboard-response","119","689544","0.0-8.0-1.0-4.0-0.0-1.5","3","2","3","3","1","5","2","4","5","5","5","1","-1","-2","2","-2","1","2","1","5","5","5","5","5","4","4","2","5","4","8","8","7","7","4","4","6","6","8","3","6","2","3","7","2","7","1","6","3","1","2","3","3","6","3","3","2","7","2","5","2","5","7","3","7","7","5","7","7","7","7","6","6","7","6","7","2","7","3","6","776480023275376642","王","618","Female","[""坏她"",""好我"",""坏我"",""好她""]","[""弱她"",""强我"",""弱我"",""强她""]","","","","","","","","","","","","","","","","","","","","","","","","","","","","","","feedback_test","","","","","","","","",""
"829","","j","psychophysics","120","691377","0.0-8.0-1.0-4.0-0.0-0.6","3","2","3","3","1","5","2","4","5","5","5","1","-1","-2","2","-2","1","2","1","5","5","5","5","5","4","4","2","5","4","8","8","7","7","4","4","6","6","8","3","6","2","3","7","2","7","1","6","3","1","2","3","3","6","3","3","2","7","2","5","2","5","7","3","7","7","5","7","7","7","7","6","6","7","6","7","2","7","3","6","776480023275376642","王","618","Female","[""坏她"",""好我"",""坏我"",""好她""]","[""弱她"",""强我"",""弱我"",""强她""]","","","","","","","","nonmatch","","","","","","","","","","key","j","16.688990654206233","853.1249872874471","475.6249929126353","j","true","nonmatch","img/trapezoid.png","强我","弱她","ALT2","ability","","","","","","","","",""
"null","<span style='color:GreenYellow; font-size: 70px;'>正确! </span>","null","html-keyboard-response","121","691879","0.0-8.0-1.0-4.0-0.0-1.6","3","2","3","3","1","5","2","4","5","5","5","1","-1","-2","2","-2","1","2","1","5","5","5","5","5","4","4","2","5","4","8","8","7","7","4","4","6","6","8","3","6","2","3","7","2","7","1","6","3","1","2","3","3","6","3","3","2","7","2","5","2","5","7","3","7","7","5","7","7","7","7","6","6","7","6","7","2","7","3","6","776480023275376642","王","618","Female","[""坏她"",""好我"",""坏我"",""好她""]","[""弱她"",""强我"",""弱我"",""强她""]","","","","","","","","","","","","","","","","","","","","","","","","","","","","","","feedback_test","","","","","","","","",""
"835","","f","psychophysics","122","693718","0.0-8.0-1.0-4.0-0.0-0.7","3","2","3","3","1","5","2","4","5","5","5","1","-1","-2","2","-2","1","2","1","5","5","5","5","5","4","4","2","5","4","8","8","7","7","4","4","6","6","8","3","6","2","3","7","2","7","1","6","3","1","2","3","3","6","3","3","2","7","2","5","2","5","7","3","7","7","5","7","7","7","7","6","6","7","6","7","2","7","3","6","776480023275376642","王","618","Female","[""坏她"",""好我"",""坏我"",""好她""]","[""弱她"",""强我"",""弱我"",""强她""]","","","","","","","","match","","","","","","","","","","key","f","16.678691588785004","853.1249872874471","475.6249929126353","f","true","match","img/trapezoid.png","弱她","弱她","ALT2","ability","","","","","","","","",""
"null","<span style='color:GreenYellow; font-size: 70px;'>正确! </span>","null","html-keyboard-response","123","694219","0.0-8.0-1.0-4.0-0.0-1.7","3","2","3","3","1","5","2","4","5","5","5","1","-1","-2","2","-2","1","2","1","5","5","5","5","5","4","4","2","5","4","8","8","7","7","4","4","6","6","8","3","6","2","3","7","2","7","1","6","3","1","2","3","3","6","3","3","2","7","2","5","2","5","7","3","7","7","5","7","7","7","7","6","6","7","6","7","2","7","3","6","776480023275376642","王","618","Female","[""坏她"",""好我"",""坏我"",""好她""]","[""弱她"",""强我"",""弱我"",""强她""]","","","","","","","","","","","","","","","","","","","","","","","","","","","","","","feedback_test","","","","","","","","",""
"861","","j","psychophysics","124","696082","0.0-8.0-1.0-4.0-0.0-0.8","3","2","3","3","1","5","2","4","5","5","5","1","-1","-2","2","-2","1","2","1","5","5","5","5","5","4","4","2","5","4","8","8","7","7","4","4","6","6","8","3","6","2","3","7","2","7","1","6","3","1","2","3","3","6","3","3","2","7","2","5","2","5","7","3","7","7","5","7","7","7","7","6","6","7","6","7","2","7","3","6","776480023275376642","王","618","Female","[""坏她"",""好我"",""坏我"",""好她""]","[""弱她"",""强我"",""弱我"",""强她""]","","","","","","","","nonmatch","","","","","","","","","","key","j","16.655706422017897","853.1249872874471","475.6249929126353","j","true","nonmatch","img/pentagon.png","强她","强我","ALT2","ability","","","","","","","","",""
"null","<span style='color:GreenYellow; font-size: 70px;'>正确! </span>","null","html-keyboard-response","125","696585","0.0-8.0-1.0-4.0-0.0-1.8","3","2","3","3","1","5","2","4","5","5","5","1","-1","-2","2","-2","1","2","1","5","5","5","5","5","4","4","2","5","4","8","8","7","7","4","4","6","6","8","3","6","2","3","7","2","7","1","6","3","1","2","3","3","6","3","3","2","7","2","5","2","5","7","3","7","7","5","7","7","7","7","6","6","7","6","7","2","7","3","6","776480023275376642","王","618","Female","[""坏她"",""好我"",""坏我"",""好她""]","[""弱她"",""强我"",""弱我"",""强她""]","","","","","","","","","","","","","","","","","","","","","","","","","","","","","","feedback_test","","","","","","","","",""
"775","","j","psychophysics","126","698362","0.0-8.0-1.0-4.0-0.0-0.9","3","2","3","3","1","5","2","4","5","5","5","1","-1","-2","2","-2","1","2","1","5","5","5","5","5","4","4","2","5","4","8","8","7","7","4","4","6","6","8","3","6","2","3","7","2","7","1","6","3","1","2","3","3","6","3","3","2","7","2","5","2","5","7","3","7","7","5","7","7","7","7","6","6","7","6","7","2","7","3","6","776480023275376642","王","618","Female","[""坏她"",""好我"",""坏我"",""好她""]","[""弱她"",""强我"",""弱我"",""强她""]","","","","","","","","nonmatch","","","","","","","","","","key","j","17.00777450980454","853.1249872874471","475.6249929126353","j","true","nonmatch","img/ellipse.png","强她","弱我","ALT2","ability","","","","","","","","",""
"null","<span style='color:GreenYellow; font-size: 70px;'>正确! </span>","null","html-keyboard-response","127","698864","0.0-8.0-1.0-4.0-0.0-1.9","3","2","3","3","1","5","2","4","5","5","5","1","-1","-2","2","-2","1","2","1","5","5","5","5","5","4","4","2","5","4","8","8","7","7","4","4","6","6","8","3","6","2","3","7","2","7","1","6","3","1","2","3","3","6","3","3","2","7","2","5","2","5","7","3","7","7","5","7","7","7","7","6","6","7","6","7","2","7","3","6","776480023275376642","王","618","Female","[""坏她"",""好我"",""坏我"",""好她""]","[""弱她"",""强我"",""弱我"",""强她""]","","","","","","","","","","","","","","","","","","","","","","","","","","","","","","feedback_test","","","","","","","","",""
"720","","f","psychophysics","128","700587","0.0-8.0-1.0-4.0-0.0-0.10","3","2","3","3","1","5","2","4","5","5","5","1","-1","-2","2","-2","1","2","1","5","5","5","5","5","4","4","2","5","4","8","8","7","7","4","4","6","6","8","3","6","2","3","7","2","7","1","6","3","1","2","3","3","6","3","3","2","7","2","5","2","5","7","3","7","7","5","7","7","7","7","6","6","7","6","7","2","7","3","6","776480023275376642","王","618","Female","[""坏她"",""好我"",""坏我"",""好她""]","[""弱她"",""强我"",""弱我"",""强她""]","","","","","","","","match","","","","","","","","","","key","f","16.690760000000008","853.1249872874471","475.6249929126353","f","true","match","img/pentagon.png","强我","强我","ALT2","ability","","","","","","","","",""
"null","<span style='color:GreenYellow; font-size: 70px;'>正确! </span>","null","html-keyboard-response","129","701090","0.0-8.0-1.0-4.0-0.0-1.10","3","2","3","3","1","5","2","4","5","5","5","1","-1","-2","2","-2","1","2","1","5","5","5","5","5","4","4","2","5","4","8","8","7","7","4","4","6","6","8","3","6","2","3","7","2","7","1","6","3","1","2","3","3","6","3","3","2","7","2","5","2","5","7","3","7","7","5","7","7","7","7","6","6","7","6","7","2","7","3","6","776480023275376642","王","618","Female","[""坏她"",""好我"",""坏我"",""好她""]","[""弱她"",""强我"",""弱我"",""强她""]","","","","","","","","","","","","","","","","","","","","","","","","","","","","","","feedback_test","","","","","","","","",""
"656","","j","psychophysics","130","702751","0.0-8.0-1.0-4.0-0.0-0.11","3","2","3","3","1","5","2","4","5","5","5","1","-1","-2","2","-2","1","2","1","5","5","5","5","5","4","4","2","5","4","8","8","7","7","4","4","6","6","8","3","6","2","3","7","2","7","1","6","3","1","2","3","3","6","3","3","2","7","2","5","2","5","7","3","7","7","5","7","7","7","7","6","6","7","6","7","2","7","3","6","776480023275376642","王","618","Female","[""坏她"",""好我"",""坏我"",""好她""]","[""弱她"",""强我"",""弱我"",""强她""]","","","","","","","","nonmatch","","","","","","","","","","key","j","16.67234020618501","853.1249872874471","475.6249929126353","j","true","nonmatch","img/diamond.png","弱我","强她","ALT2","ability","","","","","","","","",""
"null","<span style='color:GreenYellow; font-size: 70px;'>正确! </span>","null","html-keyboard-response","131","703253","0.0-8.0-1.0-4.0-0.0-1.11","3","2","3","3","1","5","2","4","5","5","5","1","-1","-2","2","-2","1","2","1","5","5","5","5","5","4","4","2","5","4","8","8","7","7","4","4","6","6","8","3","6","2","3","7","2","7","1","6","3","1","2","3","3","6","3","3","2","7","2","5","2","5","7","3","7","7","5","7","7","7","7","6","6","7","6","7","2","7","3","6","776480023275376642","王","618","Female","[""坏她"",""好我"",""坏我"",""好她""]","[""弱她"",""强我"",""弱我"",""强她""]","","","","","","","","","","","","","","","","","","","","","","","","","","","","","","feedback_test","","","","","","","","",""
"967","","j","psychophysics","132","705221","0.0-8.0-1.0-4.0-0.0-0.12","3","2","3","3","1","5","2","4","5","5","5","1","-1","-2","2","-2","1","2","1","5","5","5","5","5","4","4","2","5","4","8","8","7","7","4","4","6","6","8","3","6","2","3","7","2","7","1","6","3","1","2","3","3","6","3","3","2","7","2","5","2","5","7","3","7","7","5","7","7","7","7","6","6","7","6","7","2","7","3","6","776480023275376642","王","618","Female","[""坏她"",""好我"",""坏我"",""好她""]","[""弱她"",""强我"",""弱我"",""强她""]","","","","","","","","nonmatch","","","","","","","","","","key","j","16.690584070796138","853.1249872874471","475.6249929126353","j","true","nonmatch","img/pentagon.png","弱我","强我","ALT2","ability","","","","","","","","",""
"null","<span style='color:GreenYellow; font-size: 70px;'>正确! </span>","null","html-keyboard-response","133","705724","0.0-8.0-1.0-4.0-0.0-1.12","3","2","3","3","1","5","2","4","5","5","5","1","-1","-2","2","-2","1","2","1","5","5","5","5","5","4","4","2","5","4","8","8","7","7","4","4","6","6","8","3","6","2","3","7","2","7","1","6","3","1","2","3","3","6","3","3","2","7","2","5","2","5","7","3","7","7","5","7","7","7","7","6","6","7","6","7","2","7","3","6","776480023275376642","王","618","Female","[""坏她"",""好我"",""坏我"",""好她""]","[""弱她"",""强我"",""弱我"",""强她""]","","","","","","","","","","","","","","","","","","","","","","","","","","","","","","feedback_test","","","","","","","","",""
