"rt","stimulus","response","trial_type","trial_index","time_elapsed","internal_node_id","swb_1","swb_2","swb_3","swb_4","swb_5","LOT_1","LOT_2","LOT_3","LOT_4","LOT_5","LOT_6","IPC_1","IPC_2","IPC_3","IPC_4","IPC_5","IPC_6","IPC_7","IPC_8","MorIden_1","MorIden_2","MorIden_3","MorIden_4","MorIden_5","MorIden_6","MorIden_7","MorIden_8","MorIden_9","MorIden_10","moralSeImag_1","moralSeImag_2","moralSeImag_3","moralSeImag_4","moralSeImag_5","moralSeImag_6","moralSeImag_7","moralSeImag_8","moralSeImag_9","sde_1","sde_2","sde_3","sde_4","sde_5","sde_6","sde_7","sde_8","sde_9","sde_10","trap2","sde_11","sde_12","sde_13","sde_14","sde_15","sde_16","sde_17","sde_18","sde_19","sde_20","IM_1","IM_2","IM_3","IM_4","IM_5","IM_6","IM_7","IM_8","IM_9","IM_10","IM_11","IM_12","IM_13","IM_14","IM_15","IM_16","IM_17","IM_18","IM_19","IM_20","subj_idx","friend_name","ParticipantID","Sex","Word","Word2","value","success","timeout","failed_images","failed_audio","failed_video","user_agent","responses","item_order","radio_event_ids","radio_event_times","key_event_times","mouse_event_times","straightlining","zigzagging","honeypot","task_id","screen_id","time_stamp","response_type","key_press","avg_frame_time","center_x","center_y","person","word","valence","domain","math","correct_response","correct","status","identity","view_history","duration","Image","condition","question_order","trap2_item"
"1576","
   <p><div style='color:white; font-size: 25px'>您好，欢迎参加本次实验。</div></p>
   <p><div style='color:white; font-size: 25px'>为充分保障您的权利，请确保您已经知晓并同意《参与实验同意书》以及《数据公开知情同意书》。</div></p>
   <p><div style='color:white; font-size: 25px'>如果您未见过上述内容，请咨询实验员。</div></p>
   <p style='color:white; font-size: 25px'>如果您选择继续实验，则表示您已经清楚两份知情同意书的内容并同意。</p>
   <p><div style = ""color: pink;font-size:30px;"">请确保您记得day0的实验编号，您将在本次实验输入该编号，若您忘记，请咨询实验员后作答。</div></p>
   <p><div style = ""color:lightblue;font-size:25px;"">请您尽可能认真地作答，我们将依据您在各问卷和按键任务中的作答质量发放报酬。</div></p>
   <p> <div style = ""color: green""><按空格键至下页></div> </p>
   "," ","html-keyboard-response","0","1579","0.0-0.0","4","4","4","3","5","4","2","3","4","4","4","0","1","1","1","-1","-1","0","0","3","4","2","3","3","3","3","3","3","3","6","6","5","6","6","5","5","5","6","4","2","6","2","4","2","4","2","4","2","1","3","3","5","4","1","3","4","4","4","4","3","4","4","4","4","4","4","4","4","5","6","4","7","1","2","5","4","4","4","4","618772915025870848","谢","203","Male","[""坏我"",""坏他"",""好他"",""好我""]","[""弱我"",""弱他"",""强他"",""强我""]","","","","","","","","","","","","","","","","","","","","","","","","","","","","","","","","","","","","","","",""
"","","","call-function","1","1580","0.0-1.0-0.0","4","4","4","3","5","4","2","3","4","4","4","0","1","1","1","-1","-1","0","0","3","4","2","3","3","3","3","3","3","3","6","6","5","6","6","5","5","5","6","4","2","6","2","4","2","4","2","4","2","1","3","3","5","4","1","3","4","4","4","4","3","4","4","4","4","4","4","4","4","5","6","4","7","1","2","5","4","4","4","4","618772915025870848","谢","203","Male","[""坏我"",""坏他"",""好他"",""好我""]","[""弱我"",""弱他"",""强他"",""强我""]","","","","","","","","","","","","","","","","","","","","","","","","","","","","","","","","","","","","","","",""
"36676","","[{""name"":""Sex"",""value"":""0""},{""name"":""friend_name"",""value"":""谢""},{""name"":""ParticipantID"",""value"":""203""}]","survey-html-form","2","38257","0.0-1.0-1.0","4","4","4","3","5","4","2","3","4","4","4","0","1","1","1","-1","-1","0","0","3","4","2","3","3","3","3","3","3","3","6","6","5","6","6","5","5","5","6","4","2","6","2","4","2","4","2","4","2","1","3","3","5","4","1","3","4","4","4","4","3","4","4","4","4","4","4","4","4","5","6","4","7","1","2","5","4","4","4","4","618772915025870848","谢","203","Male","[""坏我"",""坏他"",""好他"",""好我""]","[""弱我"",""弱他"",""强他"",""强我""]","","","","","","","","","","","","","","","","","","","","","","","","","","","","","","","","","","","","","","",""
"","","","preload","3","39011","0.0-2.0","4","4","4","3","5","4","2","3","4","4","4","0","1","1","1","-1","-1","0","0","3","4","2","3","3","3","3","3","3","3","6","6","5","6","6","5","5","5","6","4","2","6","2","4","2","4","2","4","2","1","3","3","5","4","1","3","4","4","4","4","3","4","4","4","4","4","4","4","4","5","6","4","7","1","2","5","4","4","4","4","618772915025870848","谢","203","Male","[""坏我"",""坏他"",""好他"",""好我""]","[""弱我"",""弱他"",""强他"",""强我""]","","true","false","[]","[]","[]","","","","","","","","","","","","","","","","","","","","","","","","","","","","","","","","",""
"","","","fullscreen","4","44412","0.0-3.0","4","4","4","3","5","4","2","3","4","4","4","0","1","1","1","-1","-1","0","0","3","4","2","3","3","3","3","3","3","3","6","6","5","6","6","5","5","5","6","4","2","6","2","4","2","4","2","4","2","1","3","3","5","4","1","3","4","4","4","4","3","4","4","4","4","4","4","4","4","5","6","4","7","1","2","5","4","4","4","4","618772915025870848","谢","203","Male","[""坏我"",""坏他"",""好他"",""好我""]","[""弱我"",""弱他"",""强他"",""强我""]","","true","","","","","{}","","","","","","","","","","","","","","","","","","","","","","","","","","","","","","","",""
"11955.399999999907","","{""Q01"":""4"",""Q02"":""4"",""Q03"":""4"",""Q04"":""3"",""Q05"":""5""}","survey-template","5","56369","0.0-4.0","4","4","4","3","5","4","2","3","4","4","4","0","1","1","1","-1","-1","0","0","3","4","2","3","3","3","3","3","3","3","6","6","5","6","6","5","5","5","6","4","2","6","2","4","2","4","2","4","2","1","3","3","5","4","1","3","4","4","4","4","3","4","4","4","4","4","4","4","4","5","6","4","7","1","2","5","4","4","4","4","618772915025870848","谢","203","Male","[""坏我"",""坏他"",""好他"",""好我""]","[""弱我"",""弱他"",""强他"",""强我""]","","","","","","","","{""Q01"":""4"",""Q02"":""4"",""Q03"":""4"",""Q04"":""3"",""Q05"":""5""}","[0,1,2,3,4]","[""Q01"",""Q02"",""Q03"",""Q04"",""Q05""]","[3347.7000000001863,5148,6036,8511.5,10525.100000000093]","[]","[3347.7000000001863,5148,6036,8511.5,10525.100000000093,11953.899999999907]","0.6","0.25","0","","","","","","","","","","","","","","","","","","","","","","",""
"17499","","{""Q01"":""4"",""Q02"":""2"",""Q03"":""3"",""Q04"":""4"",""Q05"":""4"",""Q06"":""4""}","survey-template","6","73873","0.0-5.0","4","4","4","3","5","4","2","3","4","4","4","0","1","1","1","-1","-1","0","0","3","4","2","3","3","3","3","3","3","3","6","6","5","6","6","5","5","5","6","4","2","6","2","4","2","4","2","4","2","1","3","3","5","4","1","3","4","4","4","4","3","4","4","4","4","4","4","4","4","5","6","4","7","1","2","5","4","4","4","4","618772915025870848","谢","203","Male","[""坏我"",""坏他"",""好他"",""好我""]","[""弱我"",""弱他"",""强他"",""强我""]","","","","","","","","{""Q01"":""4"",""Q02"":""2"",""Q03"":""3"",""Q04"":""4"",""Q05"":""4"",""Q06"":""4""}","[0,1,2,3,4,5]","[""Q01"",""Q02"",""Q03"",""Q04"",""Q05"",""Q06""]","[5179.199999999721,5831.799999999814,7293.799999999814,10387.799999999814,13020,16519.099999999627]","[]","[2399.5999999996275,3705.1999999997206,5179.199999999721,5831.799999999814,7293.799999999814,10387.799999999814,13020,15349.099999999627,15945.299999999814,16519.099999999627,17497.69999999972]","0.5","0.4","0","","","","","","","","","","","","","","","","","","","","","","",""
"27120","","{""Q01"":""0"",""Q02"":""1"",""Q03"":""1"",""Q04"":""1"",""Q05"":""-1"",""Q06"":""-1"",""Q07"":""0"",""Q08"":""0""}","survey-template","7","100998","0.0-6.0","4","4","4","3","5","4","2","3","4","4","4","0","1","1","1","-1","-1","0","0","3","4","2","3","3","3","3","3","3","3","6","6","5","6","6","5","5","5","6","4","2","6","2","4","2","4","2","4","2","1","3","3","5","4","1","3","4","4","4","4","3","4","4","4","4","4","4","4","4","5","6","4","7","1","2","5","4","4","4","4","618772915025870848","谢","203","Male","[""坏我"",""坏他"",""好他"",""好我""]","[""弱我"",""弱他"",""强他"",""强我""]","","","","","","","","{""Q01"":""0"",""Q02"":""1"",""Q03"":""1"",""Q04"":""1"",""Q05"":""-1"",""Q06"":""-1"",""Q07"":""0"",""Q08"":""0""}","[0,1,2,3,4,5,6,7]","[""Q01"",""Q02"",""Q03"",""Q04"",""Q05"",""Q06"",""Q07"",""Q08""]","[5729.4000000003725,8307.80000000028,13032.700000000186,15811.80000000028,17420.900000000373,18309.30000000028,24958.200000000186,26386.700000000186]","[]","[5729.4000000003725,8307.80000000028,13032.700000000186,15811.80000000028,17420.900000000373,18309.30000000028,24958.200000000186,26386.700000000186,27118.30000000028]","0.375","0.2857142857142857","0","","","","","","","","","","","","","","","","","","","","","","",""
"11075","
    <p><div style='color:white;font-size:35px; line-height:20px;'>词汇评估任务</div></p><br>
    <p><div style='color:white;font-size:25px; line-height:20px;'>请再次回忆该亲密的朋友，你们至少2年前就认识了，并且最近2年经常见面。</div></p>
    <p><div style='color:white;font-size:25px; line-height:20px;'>在本实验中，您将会看到一些形容词。</div></p>
    <p><div style='color:yellow;font-size:25px; line-height:20px;'>您的任务是判断这些形容词是否符合对您自己或您的朋友的描述。</div></p><p style='font-size:35px'>符合按<span style=""color:lightgreen""> j 键</span>，不符合按<span style=""color:red""> f 键</span></p>","0","html-button-response","8","112079","0.0-7.0-0.0","4","4","4","3","5","4","2","3","4","4","4","0","1","1","1","-1","-1","0","0","3","4","2","3","3","3","3","3","3","3","6","6","5","6","6","5","5","5","6","4","2","6","2","4","2","4","2","4","2","1","3","3","5","4","1","3","4","4","4","4","3","4","4","4","4","4","4","4","4","5","6","4","7","1","2","5","4","4","4","4","618772915025870848","谢","203","Male","[""坏我"",""坏他"",""好他"",""好我""]","[""弱我"",""弱他"",""强他"",""强我""]","","","","","","","","","","","","","","","","","SRET_EW","EW_instructions","Mon Dec 25 2023 17:45:07 GMT+0800 (中国标准时间)","","","","","","","","","","","","","","","","","","","",""
"941","","f","psychophysics","9","114029","0.0-7.0-1.0-0.0","4","4","4","3","5","4","2","3","4","4","4","0","1","1","1","-1","-1","0","0","3","4","2","3","3","3","3","3","3","3","6","6","5","6","6","5","5","5","6","4","2","6","2","4","2","4","2","4","2","1","3","3","5","4","1","3","4","4","4","4","3","4","4","4","4","4","4","4","4","5","6","4","7","1","2","5","4","4","4","4","618772915025870848","谢","203","Male","[""坏我"",""坏他"",""好他"",""好我""]","[""弱我"",""弱他"",""强他"",""强我""]","","","","","","","","no","","","","","","","","","SRET_EW","EW_practice","","key","f","8.462008733624467","853.3333333333334","529.3333333333334","朋友","徇私","Negative","morality","","","","","","","","","","",""
"690","","j","psychophysics","10","115747","0.0-7.0-1.0-0.1","4","4","4","3","5","4","2","3","4","4","4","0","1","1","1","-1","-1","0","0","3","4","2","3","3","3","3","3","3","3","6","6","5","6","6","5","5","5","6","4","2","6","2","4","2","4","2","4","2","1","3","3","5","4","1","3","4","4","4","4","3","4","4","4","4","4","4","4","4","5","6","4","7","1","2","5","4","4","4","4","618772915025870848","谢","203","Male","[""坏我"",""坏他"",""好他"",""好我""]","[""弱我"",""弱他"",""强他"",""强我""]","","","","","","","","yes","","","","","","","","","SRET_EW","EW_practice","","key","j","8.457425742574229","853.3333333333334","529.3333333333334","自己","严谨","Positive","ability","","","","","","","","","","",""
"872","","f","psychophysics","11","117626","0.0-7.0-1.0-0.2","4","4","4","3","5","4","2","3","4","4","4","0","1","1","1","-1","-1","0","0","3","4","2","3","3","3","3","3","3","3","6","6","5","6","6","5","5","5","6","4","2","6","2","4","2","4","2","4","2","1","3","3","5","4","1","3","4","4","4","4","3","4","4","4","4","4","4","4","4","5","6","4","7","1","2","5","4","4","4","4","618772915025870848","谢","203","Male","[""坏我"",""坏他"",""好他"",""好我""]","[""弱我"",""弱他"",""强他"",""强我""]","","","","","","","","no","","","","","","","","","SRET_EW","EW_practice","","key","f","8.408520179372223","853.3333333333334","529.3333333333334","自己","刻板","Negative","ability","","","","","","","","","","",""
"547","","j","psychophysics","12","119178","0.0-7.0-1.0-0.3","4","4","4","3","5","4","2","3","4","4","4","0","1","1","1","-1","-1","0","0","3","4","2","3","3","3","3","3","3","3","6","6","5","6","6","5","5","5","6","4","2","6","2","4","2","4","2","4","2","1","3","3","5","4","1","3","4","4","4","4","3","4","4","4","4","4","4","4","4","5","6","4","7","1","2","5","4","4","4","4","618772915025870848","谢","203","Male","[""坏我"",""坏他"",""好他"",""好我""]","[""弱我"",""弱他"",""强他"",""强我""]","","","","","","","","yes","","","","","","","","","SRET_EW","EW_practice","","key","j","8.424043715847027","853.3333333333334","529.3333333333334","朋友","忠实","Positive","morality","","","","","","","","","","",""
"8593","
    <p><div style='color:white;font-size:35px; line-height:20px;'>请您再次阅读实验要求</div></p><br>
    <p><div style='color:white;font-size:25px; line-height:20px;'>请回忆某一个亲密的朋友，你们至少2年前就认识了，并且最近2年经常见面。</div></p>
    <p><div style='color:white;font-size:25px; line-height:20px;'>在本实验中，您将会看到一些形容词。</div></p>
    <p><div style='color:yellow;font-size:25px; line-height:20px;'>您的任务是判断这些形容词是否符合对您自己或您的朋友的描述。</div></p>
    <p><div class='footer' style='font-size:25px; line-height:20px;'>如果对本实验还有不清楚之处，请立即向实验员咨询。</p><p style='font-size:25px; line-height:20px;'>如果您明白了规则：</p><p style='font-size:22px; line-height:20px;'>请按 继续 进入正式实验</p>
    </div>
    <p style='font-size:35px'>符合按<span style=""color:lightgreen""> j 键</span>，不符合按<span style=""color:red""> f 键</span></p>","0","html-button-response","13","127773","0.0-7.0-2.0","4","4","4","3","5","4","2","3","4","4","4","0","1","1","1","-1","-1","0","0","3","4","2","3","3","3","3","3","3","3","6","6","5","6","6","5","5","5","6","4","2","6","2","4","2","4","2","4","2","1","3","3","5","4","1","3","4","4","4","4","3","4","4","4","4","4","4","4","4","5","6","4","7","1","2","5","4","4","4","4","618772915025870848","谢","203","Male","[""坏我"",""坏他"",""好他"",""好我""]","[""弱我"",""弱他"",""强他"",""强我""]","","","","","","","","","","","","","","","","","SRET_EW","prac_instructions","Mon Dec 25 2023 17:45:07 GMT+0800 (中国标准时间)","","","","","","","","","","","","","","","","","","","",""
"494","","j","psychophysics","14","129272","0.0-7.0-3.0-0.0","4","4","4","3","5","4","2","3","4","4","4","0","1","1","1","-1","-1","0","0","3","4","2","3","3","3","3","3","3","3","6","6","5","6","6","5","5","5","6","4","2","6","2","4","2","4","2","4","2","1","3","3","5","4","1","3","4","4","4","4","3","4","4","4","4","4","4","4","4","5","6","4","7","1","2","5","4","4","4","4","618772915025870848","谢","203","Male","[""坏我"",""坏他"",""好他"",""好我""]","[""弱我"",""弱他"",""强他"",""强我""]","","","","","","","","yes","","","","","","","","","SRET","EW_formal","","key","j","8.381460674157271","853.3333333333334","529.3333333333334","自己","坚贞","Positive","morality","","","","","","","","","","",""
"583","","j","psychophysics","15","130863","0.0-7.0-3.0-0.1","4","4","4","3","5","4","2","3","4","4","4","0","1","1","1","-1","-1","0","0","3","4","2","3","3","3","3","3","3","3","6","6","5","6","6","5","5","5","6","4","2","6","2","4","2","4","2","4","2","1","3","3","5","4","1","3","4","4","4","4","3","4","4","4","4","4","4","4","4","5","6","4","7","1","2","5","4","4","4","4","618772915025870848","谢","203","Male","[""坏我"",""坏他"",""好他"",""好我""]","[""弱我"",""弱他"",""强他"",""强我""]","","","","","","","","yes","","","","","","","","","SRET","EW_formal","","key","j","8.466310160427714","853.3333333333334","529.3333333333334","朋友","务实","Positive","ability","","","","","","","","","","",""
"724","","f","psychophysics","16","132597","0.0-7.0-3.0-0.2","4","4","4","3","5","4","2","3","4","4","4","0","1","1","1","-1","-1","0","0","3","4","2","3","3","3","3","3","3","3","6","6","5","6","6","5","5","5","6","4","2","6","2","4","2","4","2","4","2","1","3","3","5","4","1","3","4","4","4","4","3","4","4","4","4","4","4","4","4","5","6","4","7","1","2","5","4","4","4","4","618772915025870848","谢","203","Male","[""坏我"",""坏他"",""好他"",""好我""]","[""弱我"",""弱他"",""强他"",""强我""]","","","","","","","","no","","","","","","","","","SRET","EW_formal","","key","f","8.499014778325066","853.3333333333334","529.3333333333334","朋友","迷糊","Negative","ability","","","","","","","","","","",""
"614","","f","psychophysics","17","134220","0.0-7.0-3.0-0.3","4","4","4","3","5","4","2","3","4","4","4","0","1","1","1","-1","-1","0","0","3","4","2","3","3","3","3","3","3","3","6","6","5","6","6","5","5","5","6","4","2","6","2","4","2","4","2","4","2","1","3","3","5","4","1","3","4","4","4","4","3","4","4","4","4","4","4","4","4","5","6","4","7","1","2","5","4","4","4","4","618772915025870848","谢","203","Male","[""坏我"",""坏他"",""好他"",""好我""]","[""弱我"",""弱他"",""强他"",""强我""]","","","","","","","","no","","","","","","","","","SRET","EW_formal","","key","f","8.464397905759224","853.3333333333334","529.3333333333334","自己","说谎","Negative","morality","","","","","","","","","","",""
"562","","f","psychophysics","18","135784","0.0-7.0-3.0-0.4","4","4","4","3","5","4","2","3","4","4","4","0","1","1","1","-1","-1","0","0","3","4","2","3","3","3","3","3","3","3","6","6","5","6","6","5","5","5","6","4","2","6","2","4","2","4","2","4","2","1","3","3","5","4","1","3","4","4","4","4","3","4","4","4","4","4","4","4","4","5","6","4","7","1","2","5","4","4","4","4","618772915025870848","谢","203","Male","[""坏我"",""坏他"",""好他"",""好我""]","[""弱我"",""弱他"",""强他"",""强我""]","","","","","","","","no","","","","","","","","","SRET","EW_formal","","key","f","8.378494623655882","853.3333333333334","529.3333333333334","自己","拖拉","Negative","ability","","","","","","","","","","",""
"645","","j","psychophysics","19","137434","0.0-7.0-3.0-0.5","4","4","4","3","5","4","2","3","4","4","4","0","1","1","1","-1","-1","0","0","3","4","2","3","3","3","3","3","3","3","6","6","5","6","6","5","5","5","6","4","2","6","2","4","2","4","2","4","2","1","3","3","5","4","1","3","4","4","4","4","3","4","4","4","4","4","4","4","4","5","6","4","7","1","2","5","4","4","4","4","618772915025870848","谢","203","Male","[""坏我"",""坏他"",""好他"",""好我""]","[""弱我"",""弱他"",""强他"",""强我""]","","","","","","","","yes","","","","","","","","","SRET","EW_formal","","key","j","8.3770408163265","853.3333333333334","529.3333333333334","自己","慷慨","Positive","morality","","","","","","","","","","",""
"604","","j","psychophysics","20","139070","0.0-7.0-3.0-0.6","4","4","4","3","5","4","2","3","4","4","4","0","1","1","1","-1","-1","0","0","3","4","2","3","3","3","3","3","3","3","6","6","5","6","6","5","5","5","6","4","2","6","2","4","2","4","2","4","2","1","3","3","5","4","1","3","4","4","4","4","3","4","4","4","4","4","4","4","4","5","6","4","7","1","2","5","4","4","4","4","618772915025870848","谢","203","Male","[""坏我"",""坏他"",""好他"",""好我""]","[""弱我"",""弱他"",""强他"",""强我""]","","","","","","","","yes","","","","","","","","","SRET","EW_formal","","key","j","8.377319587628776","853.3333333333334","529.3333333333334","自己","精干","Positive","ability","","","","","","","","","","",""
"820","","f","psychophysics","21","140891","0.0-7.0-3.0-0.7","4","4","4","3","5","4","2","3","4","4","4","0","1","1","1","-1","-1","0","0","3","4","2","3","3","3","3","3","3","3","6","6","5","6","6","5","5","5","6","4","2","6","2","4","2","4","2","4","2","1","3","3","5","4","1","3","4","4","4","4","3","4","4","4","4","4","4","4","4","5","6","4","7","1","2","5","4","4","4","4","618772915025870848","谢","203","Male","[""坏我"",""坏他"",""好他"",""好我""]","[""弱我"",""弱他"",""强他"",""强我""]","","","","","","","","no","","","","","","","","","SRET","EW_formal","","key","f","8.372811059907807","853.3333333333334","529.3333333333334","自己","拜金","Negative","morality","","","","","","","","","","",""
"594","","f","psychophysics","22","142491","0.0-7.0-3.0-0.8","4","4","4","3","5","4","2","3","4","4","4","0","1","1","1","-1","-1","0","0","3","4","2","3","3","3","3","3","3","3","6","6","5","6","6","5","5","5","6","4","2","6","2","4","2","4","2","4","2","1","3","3","5","4","1","3","4","4","4","4","3","4","4","4","4","4","4","4","4","5","6","4","7","1","2","5","4","4","4","4","618772915025870848","谢","203","Male","[""坏我"",""坏他"",""好他"",""好我""]","[""弱我"",""弱他"",""强他"",""强我""]","","","","","","","","no","","","","","","","","","SRET","EW_formal","","key","f","8.42222222222216","853.3333333333334","529.3333333333334","自己","奸诈","Negative","morality","","","","","","","","","","",""
"745","","f","psychophysics","23","144241","0.0-7.0-3.0-0.9","4","4","4","3","5","4","2","3","4","4","4","0","1","1","1","-1","-1","0","0","3","4","2","3","3","3","3","3","3","3","6","6","5","6","6","5","5","5","6","4","2","6","2","4","2","4","2","4","2","1","3","3","5","4","1","3","4","4","4","4","3","4","4","4","4","4","4","4","4","5","6","4","7","1","2","5","4","4","4","4","618772915025870848","谢","203","Male","[""坏我"",""坏他"",""好他"",""好我""]","[""弱我"",""弱他"",""强他"",""强我""]","","","","","","","","no","","","","","","","","","SRET","EW_formal","","key","f","8.375961538461594","853.3333333333334","529.3333333333334","自己","屈才","Negative","ability","","","","","","","","","","",""
"720","","j","psychophysics","24","145967","0.0-7.0-3.0-0.10","4","4","4","3","5","4","2","3","4","4","4","0","1","1","1","-1","-1","0","0","3","4","2","3","3","3","3","3","3","3","6","6","5","6","6","5","5","5","6","4","2","6","2","4","2","4","2","4","2","1","3","3","5","4","1","3","4","4","4","4","3","4","4","4","4","4","4","4","4","5","6","4","7","1","2","5","4","4","4","4","618772915025870848","谢","203","Male","[""坏我"",""坏他"",""好他"",""好我""]","[""弱我"",""弱他"",""强他"",""强我""]","","","","","","","","yes","","","","","","","","","SRET","EW_formal","","key","j","8.376097560975639","853.3333333333334","529.3333333333334","朋友","守法","Positive","morality","","","","","","","","","","",""
"659","","f","psychophysics","25","147632","0.0-7.0-3.0-0.11","4","4","4","3","5","4","2","3","4","4","4","0","1","1","1","-1","-1","0","0","3","4","2","3","3","3","3","3","3","3","6","6","5","6","6","5","5","5","6","4","2","6","2","4","2","4","2","4","2","1","3","3","5","4","1","3","4","4","4","4","3","4","4","4","4","4","4","4","4","5","6","4","7","1","2","5","4","4","4","4","618772915025870848","谢","203","Male","[""坏我"",""坏他"",""好他"",""好我""]","[""弱我"",""弱他"",""强他"",""强我""]","","","","","","","","no","","","","","","","","","SRET","EW_formal","","key","f","8.375757575757547","853.3333333333334","529.3333333333334","朋友","无赖","Negative","morality","","","","","","","","","","",""
"600","","f","psychophysics","26","149237","0.0-7.0-3.0-0.12","4","4","4","3","5","4","2","3","4","4","4","0","1","1","1","-1","-1","0","0","3","4","2","3","3","3","3","3","3","3","6","6","5","6","6","5","5","5","6","4","2","6","2","4","2","4","2","4","2","1","3","3","5","4","1","3","4","4","4","4","3","4","4","4","4","4","4","4","4","5","6","4","7","1","2","5","4","4","4","4","618772915025870848","谢","203","Male","[""坏我"",""坏他"",""好他"",""好我""]","[""弱我"",""弱他"",""强他"",""强我""]","","","","","","","","no","","","","","","","","","SRET","EW_formal","","key","f","8.377894736842045","853.3333333333334","529.3333333333334","自己","拙笨","Negative","ability","","","","","","","","","","",""
"690","","f","psychophysics","27","150955","0.0-7.0-3.0-0.13","4","4","4","3","5","4","2","3","4","4","4","0","1","1","1","-1","-1","0","0","3","4","2","3","3","3","3","3","3","3","6","6","5","6","6","5","5","5","6","4","2","6","2","4","2","4","2","4","2","1","3","3","5","4","1","3","4","4","4","4","3","4","4","4","4","4","4","4","4","5","6","4","7","1","2","5","4","4","4","4","618772915025870848","谢","203","Male","[""坏我"",""坏他"",""好他"",""好我""]","[""弱我"",""弱他"",""强他"",""强我""]","","","","","","","","no","","","","","","","","","SRET","EW_formal","","key","f","8.457425742574372","853.3333333333334","529.3333333333334","朋友","恶劣","Negative","morality","","","","","","","","","","",""
"659","","j","psychophysics","28","152616","0.0-7.0-3.0-0.14","4","4","4","3","5","4","2","3","4","4","4","0","1","1","1","-1","-1","0","0","3","4","2","3","3","3","3","3","3","3","6","6","5","6","6","5","5","5","6","4","2","6","2","4","2","4","2","4","2","1","3","3","5","4","1","3","4","4","4","4","3","4","4","4","4","4","4","4","4","5","6","4","7","1","2","5","4","4","4","4","618772915025870848","谢","203","Male","[""坏我"",""坏他"",""好他"",""好我""]","[""弱我"",""弱他"",""强他"",""强我""]","","","","","","","","yes","","","","","","","","","SRET","EW_formal","","key","j","8.374242424242453","853.3333333333334","529.3333333333334","朋友","忠诚","Positive","morality","","","","","","","","","","",""
"697","","j","psychophysics","29","154319","0.0-7.0-3.0-0.15","4","4","4","3","5","4","2","3","4","4","4","0","1","1","1","-1","-1","0","0","3","4","2","3","3","3","3","3","3","3","6","6","5","6","6","5","5","5","6","4","2","6","2","4","2","4","2","4","2","1","3","3","5","4","1","3","4","4","4","4","3","4","4","4","4","4","4","4","4","5","6","4","7","1","2","5","4","4","4","4","618772915025870848","谢","203","Male","[""坏我"",""坏他"",""好他"",""好我""]","[""弱我"",""弱他"",""强他"",""强我""]","","","","","","","","yes","","","","","","","","","SRET","EW_formal","","key","j","8.374752475247583","853.3333333333334","529.3333333333334","朋友","好心","Positive","morality","","","","","","","","","","",""
"1139","","f","psychophysics","30","156462","0.0-7.0-3.0-0.16","4","4","4","3","5","4","2","3","4","4","4","0","1","1","1","-1","-1","0","0","3","4","2","3","3","3","3","3","3","3","6","6","5","6","6","5","5","5","6","4","2","6","2","4","2","4","2","4","2","1","3","3","5","4","1","3","4","4","4","4","3","4","4","4","4","4","4","4","4","5","6","4","7","1","2","5","4","4","4","4","618772915025870848","谢","203","Male","[""坏我"",""坏他"",""好他"",""好我""]","[""弱我"",""弱他"",""强他"",""强我""]","","","","","","","","no","","","","","","","","","SRET","EW_formal","","key","f","8.400000000000023","853.3333333333334","529.3333333333334","朋友","侠义","Positive","morality","","","","","","","","","","",""
"501","","f","psychophysics","31","157971","0.0-7.0-3.0-0.17","4","4","4","3","5","4","2","3","4","4","4","0","1","1","1","-1","-1","0","0","3","4","2","3","3","3","3","3","3","3","6","6","5","6","6","5","5","5","6","4","2","6","2","4","2","4","2","4","2","1","3","3","5","4","1","3","4","4","4","4","3","4","4","4","4","4","4","4","4","5","6","4","7","1","2","5","4","4","4","4","618772915025870848","谢","203","Male","[""坏我"",""坏他"",""好他"",""好我""]","[""弱我"",""弱他"",""强他"",""强我""]","","","","","","","","no","","","","","","","","","SRET","EW_formal","","key","f","8.380446927374335","853.3333333333334","529.3333333333334","朋友","低劣","Negative","morality","","","","","","","","","","",""
"940","","j","psychophysics","32","159936","0.0-7.0-3.0-0.18","4","4","4","3","5","4","2","3","4","4","4","0","1","1","1","-1","-1","0","0","3","4","2","3","3","3","3","3","3","3","6","6","5","6","6","5","5","5","6","4","2","6","2","4","2","4","2","4","2","1","3","3","5","4","1","3","4","4","4","4","3","4","4","4","4","4","4","4","4","5","6","4","7","1","2","5","4","4","4","4","618772915025870848","谢","203","Male","[""坏我"",""坏他"",""好他"",""好我""]","[""弱我"",""弱他"",""强他"",""强我""]","","","","","","","","yes","","","","","","","","","SRET","EW_formal","","key","j","8.40515021459225","853.3333333333334","529.3333333333334","自己","敬业","Positive","morality","","","","","","","","","","",""
"1481","","j","psychophysics","33","162420","0.0-7.0-3.0-0.19","4","4","4","3","5","4","2","3","4","4","4","0","1","1","1","-1","-1","0","0","3","4","2","3","3","3","3","3","3","3","6","6","5","6","6","5","5","5","6","4","2","6","2","4","2","4","2","4","2","1","3","3","5","4","1","3","4","4","4","4","3","4","4","4","4","4","4","4","4","5","6","4","7","1","2","5","4","4","4","4","618772915025870848","谢","203","Male","[""坏我"",""坏他"",""好他"",""好我""]","[""弱我"",""弱他"",""强他"",""强我""]","","","","","","","","yes","","","","","","","","","SRET","EW_formal","","key","j","8.361824324324344","853.3333333333334","529.3333333333334","自己","无私","Positive","morality","","","","","","","","","","",""
"752","","j","psychophysics","34","164174","0.0-7.0-3.0-0.20","4","4","4","3","5","4","2","3","4","4","4","0","1","1","1","-1","-1","0","0","3","4","2","3","3","3","3","3","3","3","6","6","5","6","6","5","5","5","6","4","2","6","2","4","2","4","2","4","2","1","3","3","5","4","1","3","4","4","4","4","3","4","4","4","4","4","4","4","4","5","6","4","7","1","2","5","4","4","4","4","618772915025870848","谢","203","Male","[""坏我"",""坏他"",""好他"",""好我""]","[""弱我"",""弱他"",""强他"",""强我""]","","","","","","","","yes","","","","","","","","","SRET","EW_formal","","key","j","8.373684210526344","853.3333333333334","529.3333333333334","朋友","敏捷","Positive","ability","","","","","","","","","","",""
"null","","null","psychophysics","35","167207","0.0-7.0-3.0-0.21","4","4","4","3","5","4","2","3","4","4","4","0","1","1","1","-1","-1","0","0","3","4","2","3","3","3","3","3","3","3","6","6","5","6","6","5","5","5","6","4","2","6","2","4","2","4","2","4","2","1","3","3","5","4","1","3","4","4","4","4","3","4","4","4","4","4","4","4","4","5","6","4","7","1","2","5","4","4","4","4","618772915025870848","谢","203","Male","[""坏我"",""坏他"",""好他"",""好我""]","[""弱我"",""弱他"",""强他"",""强我""]","","","","","","","","","","","","","","","","","SRET","EW_formal","","key","null","8.379999999999967","853.3333333333334","529.3333333333334","朋友","庸碌","Negative","ability","","","","","","","","","","",""
"730","","f","psychophysics","36","168944","0.0-7.0-3.0-0.22","4","4","4","3","5","4","2","3","4","4","4","0","1","1","1","-1","-1","0","0","3","4","2","3","3","3","3","3","3","3","6","6","5","6","6","5","5","5","6","4","2","6","2","4","2","4","2","4","2","1","3","3","5","4","1","3","4","4","4","4","3","4","4","4","4","4","4","4","4","5","6","4","7","1","2","5","4","4","4","4","618772915025870848","谢","203","Male","[""坏我"",""坏他"",""好他"",""好我""]","[""弱我"",""弱他"",""强他"",""强我""]","","","","","","","","no","","","","","","","","","SRET","EW_formal","","key","f","8.37246376811597","853.3333333333334","529.3333333333334","自己","无耻","Negative","morality","","","","","","","","","","",""
"729","","j","psychophysics","37","170676","0.0-7.0-3.0-0.23","4","4","4","3","5","4","2","3","4","4","4","0","1","1","1","-1","-1","0","0","3","4","2","3","3","3","3","3","3","3","6","6","5","6","6","5","5","5","6","4","2","6","2","4","2","4","2","4","2","1","3","3","5","4","1","3","4","4","4","4","3","4","4","4","4","4","4","4","4","5","6","4","7","1","2","5","4","4","4","4","618772915025870848","谢","203","Male","[""坏我"",""坏他"",""好他"",""好我""]","[""弱我"",""弱他"",""强他"",""强我""]","","","","","","","","yes","","","","","","","","","SRET","EW_formal","","key","j","8.37378640776699","853.3333333333334","529.3333333333334","自己","刻苦","Positive","ability","","","","","","","","","","",""
"858","","j","psychophysics","38","172538","0.0-7.0-3.0-0.24","4","4","4","3","5","4","2","3","4","4","4","0","1","1","1","-1","-1","0","0","3","4","2","3","3","3","3","3","3","3","6","6","5","6","6","5","5","5","6","4","2","6","2","4","2","4","2","4","2","1","3","3","5","4","1","3","4","4","4","4","3","4","4","4","4","4","4","4","4","5","6","4","7","1","2","5","4","4","4","4","618772915025870848","谢","203","Male","[""坏我"",""坏他"",""好他"",""好我""]","[""弱我"",""弱他"",""强他"",""强我""]","","","","","","","","yes","","","","","","","","","SRET","EW_formal","","key","j","8.371040723981901","853.3333333333334","529.3333333333334","朋友","顶事","Positive","ability","","","","","","","","","","",""
"530","","j","psychophysics","39","174074","0.0-7.0-3.0-0.25","4","4","4","3","5","4","2","3","4","4","4","0","1","1","1","-1","-1","0","0","3","4","2","3","3","3","3","3","3","3","6","6","5","6","6","5","5","5","6","4","2","6","2","4","2","4","2","4","2","1","3","3","5","4","1","3","4","4","4","4","3","4","4","4","4","4","4","4","4","5","6","4","7","1","2","5","4","4","4","4","618772915025870848","谢","203","Male","[""坏我"",""坏他"",""好他"",""好我""]","[""弱我"",""弱他"",""强他"",""强我""]","","","","","","","","yes","","","","","","","","","SRET","EW_formal","","key","j","8.380327868852492","853.3333333333334","529.3333333333334","自己","奉献","Positive","morality","","","","","","","","","","",""
"583","","j","psychophysics","40","175663","0.0-7.0-3.0-0.26","4","4","4","3","5","4","2","3","4","4","4","0","1","1","1","-1","-1","0","0","3","4","2","3","3","3","3","3","3","3","6","6","5","6","6","5","5","5","6","4","2","6","2","4","2","4","2","4","2","1","3","3","5","4","1","3","4","4","4","4","3","4","4","4","4","4","4","4","4","5","6","4","7","1","2","5","4","4","4","4","618772915025870848","谢","203","Male","[""坏我"",""坏他"",""好他"",""好我""]","[""弱我"",""弱他"",""强他"",""强我""]","","","","","","","","yes","","","","","","","","","SRET","EW_formal","","key","j","8.379255319148875","853.3333333333334","529.3333333333334","朋友","业余","Negative","ability","","","","","","","","","","",""
"576","","j","psychophysics","41","177246","0.0-7.0-3.0-0.27","4","4","4","3","5","4","2","3","4","4","4","0","1","1","1","-1","-1","0","0","3","4","2","3","3","3","3","3","3","3","6","6","5","6","6","5","5","5","6","4","2","6","2","4","2","4","2","4","2","1","3","3","5","4","1","3","4","4","4","4","3","4","4","4","4","4","4","4","4","5","6","4","7","1","2","5","4","4","4","4","618772915025870848","谢","203","Male","[""坏我"",""坏他"",""好他"",""好我""]","[""弱我"",""弱他"",""强他"",""强我""]","","","","","","","","yes","","","","","","","","","SRET","EW_formal","","key","j","8.377659574468085","853.3333333333334","529.3333333333334","朋友","守信","Positive","morality","","","","","","","","","","",""
"694","","f","psychophysics","42","178970","0.0-7.0-3.0-0.28","4","4","4","3","5","4","2","3","4","4","4","0","1","1","1","-1","-1","0","0","3","4","2","3","3","3","3","3","3","3","6","6","5","6","6","5","5","5","6","4","2","6","2","4","2","4","2","4","2","1","3","3","5","4","1","3","4","4","4","4","3","4","4","4","4","4","4","4","4","5","6","4","7","1","2","5","4","4","4","4","618772915025870848","谢","203","Male","[""坏我"",""坏他"",""好他"",""好我""]","[""弱我"",""弱他"",""强他"",""强我""]","","","","","","","","no","","","","","","","","","SRET","EW_formal","","key","f","8.41568627450989","853.3333333333334","529.3333333333334","朋友","邪恶","Negative","morality","","","","","","","","","","",""
"630","","j","psychophysics","43","180627","0.0-7.0-3.0-0.29","4","4","4","3","5","4","2","3","4","4","4","0","1","1","1","-1","-1","0","0","3","4","2","3","3","3","3","3","3","3","6","6","5","6","6","5","5","5","6","4","2","6","2","4","2","4","2","4","2","1","3","3","5","4","1","3","4","4","4","4","3","4","4","4","4","4","4","4","4","5","6","4","7","1","2","5","4","4","4","4","618772915025870848","谢","203","Male","[""坏我"",""坏他"",""好他"",""好我""]","[""弱我"",""弱他"",""强他"",""强我""]","","","","","","","","yes","","","","","","","","","SRET","EW_formal","","key","j","8.418367346938776","853.3333333333334","529.3333333333334","自己","礼貌","Positive","morality","","","","","","","","","","",""
"579","","j","psychophysics","44","182210","0.0-7.0-3.0-0.30","4","4","4","3","5","4","2","3","4","4","4","0","1","1","1","-1","-1","0","0","3","4","2","3","3","3","3","3","3","3","6","6","5","6","6","5","5","5","6","4","2","6","2","4","2","4","2","4","2","1","3","3","5","4","1","3","4","4","4","4","3","4","4","4","4","4","4","4","4","5","6","4","7","1","2","5","4","4","4","4","618772915025870848","谢","203","Male","[""坏我"",""坏他"",""好他"",""好我""]","[""弱我"",""弱他"",""强他"",""强我""]","","","","","","","","yes","","","","","","","","","SRET","EW_formal","","key","j","8.379255319148875","853.3333333333334","529.3333333333334","朋友","稳健","Positive","ability","","","","","","","","","","",""
"858","","f","psychophysics","45","184070","0.0-7.0-3.0-0.31","4","4","4","3","5","4","2","3","4","4","4","0","1","1","1","-1","-1","0","0","3","4","2","3","3","3","3","3","3","3","6","6","5","6","6","5","5","5","6","4","2","6","2","4","2","4","2","4","2","1","3","3","5","4","1","3","4","4","4","4","3","4","4","4","4","4","4","4","4","5","6","4","7","1","2","5","4","4","4","4","618772915025870848","谢","203","Male","[""坏我"",""坏他"",""好他"",""好我""]","[""弱我"",""弱他"",""强他"",""强我""]","","","","","","","","no","","","","","","","","","SRET","EW_formal","","key","f","8.40999999999992","853.3333333333334","529.3333333333334","自己","逞能","Negative","ability","","","","","","","","","","",""
"532","","j","psychophysics","46","185604","0.0-7.0-3.0-0.32","4","4","4","3","5","4","2","3","4","4","4","0","1","1","1","-1","-1","0","0","3","4","2","3","3","3","3","3","3","3","6","6","5","6","6","5","5","5","6","4","2","6","2","4","2","4","2","4","2","1","3","3","5","4","1","3","4","4","4","4","3","4","4","4","4","4","4","4","4","5","6","4","7","1","2","5","4","4","4","4","618772915025870848","谢","203","Male","[""坏我"",""坏他"",""好他"",""好我""]","[""弱我"",""弱他"",""强他"",""强我""]","","","","","","","","yes","","","","","","","","","SRET","EW_formal","","key","j","8.379670329670361","853.3333333333334","529.3333333333334","朋友","博学","Positive","ability","","","","","","","","","","",""
"589","","j","psychophysics","47","187196","0.0-7.0-3.0-0.33","4","4","4","3","5","4","2","3","4","4","4","0","1","1","1","-1","-1","0","0","3","4","2","3","3","3","3","3","3","3","6","6","5","6","6","5","5","5","6","4","2","6","2","4","2","4","2","4","2","1","3","3","5","4","1","3","4","4","4","4","3","4","4","4","4","4","4","4","4","5","6","4","7","1","2","5","4","4","4","4","618772915025870848","谢","203","Male","[""坏我"",""坏他"",""好他"",""好我""]","[""弱我"",""弱他"",""强他"",""强我""]","","","","","","","","yes","","","","","","","","","SRET","EW_formal","","key","j","8.3777777777779","853.3333333333334","529.3333333333334","自己","能干","Positive","ability","","","","","","","","","","",""
"592","","j","psychophysics","48","188794","0.0-7.0-3.0-0.34","4","4","4","3","5","4","2","3","4","4","4","0","1","1","1","-1","-1","0","0","3","4","2","3","3","3","3","3","3","3","6","6","5","6","6","5","5","5","6","4","2","6","2","4","2","4","2","4","2","1","3","3","5","4","1","3","4","4","4","4","3","4","4","4","4","4","4","4","4","5","6","4","7","1","2","5","4","4","4","4","618772915025870848","谢","203","Male","[""坏我"",""坏他"",""好他"",""好我""]","[""弱我"",""弱他"",""强他"",""强我""]","","","","","","","","yes","","","","","","","","","SRET","EW_formal","","key","j","8.333507853403201","853.3333333333334","529.3333333333334","自己","爱国","Positive","morality","","","","","","","","","","",""
"518","","j","psychophysics","49","190349","0.0-7.0-3.0-0.35","4","4","4","3","5","4","2","3","4","4","4","0","1","1","1","-1","-1","0","0","3","4","2","3","3","3","3","3","3","3","6","6","5","6","6","5","5","5","6","4","2","6","2","4","2","4","2","4","2","1","3","3","5","4","1","3","4","4","4","4","3","4","4","4","4","4","4","4","4","5","6","4","7","1","2","5","4","4","4","4","618772915025870848","谢","203","Male","[""坏我"",""坏他"",""好他"",""好我""]","[""弱我"",""弱他"",""强他"",""强我""]","","","","","","","","yes","","","","","","","","","SRET","EW_formal","","key","j","8.378378378378379","853.3333333333334","529.3333333333334","自己","正气","Positive","morality","","","","","","","","","","",""
"794","","j","psychophysics","50","192149","0.0-7.0-3.0-0.36","4","4","4","3","5","4","2","3","4","4","4","0","1","1","1","-1","-1","0","0","3","4","2","3","3","3","3","3","3","3","6","6","5","6","6","5","5","5","6","4","2","6","2","4","2","4","2","4","2","1","3","3","5","4","1","3","4","4","4","4","3","4","4","4","4","4","4","4","4","5","6","4","7","1","2","5","4","4","4","4","618772915025870848","谢","203","Male","[""坏我"",""坏他"",""好他"",""好我""]","[""弱我"",""弱他"",""强他"",""强我""]","","","","","","","","yes","","","","","","","","","SRET","EW_formal","","key","j","8.411267605633693","853.3333333333334","529.3333333333334","朋友","孝顺","Positive","morality","","","","","","","","","","",""
"641","","j","psychophysics","51","193796","0.0-7.0-3.0-0.37","4","4","4","3","5","4","2","3","4","4","4","0","1","1","1","-1","-1","0","0","3","4","2","3","3","3","3","3","3","3","6","6","5","6","6","5","5","5","6","4","2","6","2","4","2","4","2","4","2","1","3","3","5","4","1","3","4","4","4","4","3","4","4","4","4","4","4","4","4","5","6","4","7","1","2","5","4","4","4","4","618772915025870848","谢","203","Male","[""坏我"",""坏他"",""好他"",""好我""]","[""弱我"",""弱他"",""强他"",""强我""]","","","","","","","","yes","","","","","","","","","SRET","EW_formal","","key","j","8.375897435897526","853.3333333333334","529.3333333333334","朋友","扎实","Positive","ability","","","","","","","","","","",""
"631","","f","psychophysics","52","195433","0.0-7.0-3.0-0.38","4","4","4","3","5","4","2","3","4","4","4","0","1","1","1","-1","-1","0","0","3","4","2","3","3","3","3","3","3","3","6","6","5","6","6","5","5","5","6","4","2","6","2","4","2","4","2","4","2","1","3","3","5","4","1","3","4","4","4","4","3","4","4","4","4","4","4","4","4","5","6","4","7","1","2","5","4","4","4","4","618772915025870848","谢","203","Male","[""坏我"",""坏他"",""好他"",""好我""]","[""弱我"",""弱他"",""强他"",""强我""]","","","","","","","","no","","","","","","","","","SRET","EW_formal","","key","f","8.376923076923077","853.3333333333334","529.3333333333334","朋友","马虎","Negative","ability","","","","","","","","","","",""
"644","","f","psychophysics","53","197082","0.0-7.0-3.0-0.39","4","4","4","3","5","4","2","3","4","4","4","0","1","1","1","-1","-1","0","0","3","4","2","3","3","3","3","3","3","3","6","6","5","6","6","5","5","5","6","4","2","6","2","4","2","4","2","4","2","1","3","3","5","4","1","3","4","4","4","4","3","4","4","4","4","4","4","4","4","5","6","4","7","1","2","5","4","4","4","4","618772915025870848","谢","203","Male","[""坏我"",""坏他"",""好他"",""好我""]","[""弱我"",""弱他"",""强他"",""强我""]","","","","","","","","no","","","","","","","","","SRET","EW_formal","","key","f","8.376020408163177","853.3333333333334","529.3333333333334","自己","无知","Negative","ability","","","","","","","","","","",""
"607","","j","psychophysics","54","198696","0.0-7.0-3.0-0.40","4","4","4","3","5","4","2","3","4","4","4","0","1","1","1","-1","-1","0","0","3","4","2","3","3","3","3","3","3","3","6","6","5","6","6","5","5","5","6","4","2","6","2","4","2","4","2","4","2","1","3","3","5","4","1","3","4","4","4","4","3","4","4","4","4","4","4","4","4","5","6","4","7","1","2","5","4","4","4","4","618772915025870848","谢","203","Male","[""坏我"",""坏他"",""好他"",""好我""]","[""弱我"",""弱他"",""强他"",""强我""]","","","","","","","","yes","","","","","","","","","SRET","EW_formal","","key","j","8.422105263157803","853.3333333333334","529.3333333333334","朋友","仁爱","Positive","morality","","","","","","","","","","",""
"586","","f","psychophysics","55","200308","0.0-7.0-3.0-0.41","4","4","4","3","5","4","2","3","4","4","4","0","1","1","1","-1","-1","0","0","3","4","2","3","3","3","3","3","3","3","6","6","5","6","6","5","5","5","6","4","2","6","2","4","2","4","2","4","2","1","3","3","5","4","1","3","4","4","4","4","3","4","4","4","4","4","4","4","4","5","6","4","7","1","2","5","4","4","4","4","618772915025870848","谢","203","Male","[""坏我"",""坏他"",""好他"",""好我""]","[""弱我"",""弱他"",""强他"",""强我""]","","","","","","","","no","","","","","","","","","SRET","EW_formal","","key","f","8.422513089005296","853.3333333333334","529.3333333333334","朋友","愚痴","Negative","ability","","","","","","","","","","",""
"596","","f","psychophysics","56","201917","0.0-7.0-3.0-0.42","4","4","4","3","5","4","2","3","4","4","4","0","1","1","1","-1","-1","0","0","3","4","2","3","3","3","3","3","3","3","6","6","5","6","6","5","5","5","6","4","2","6","2","4","2","4","2","4","2","1","3","3","5","4","1","3","4","4","4","4","3","4","4","4","4","4","4","4","4","5","6","4","7","1","2","5","4","4","4","4","618772915025870848","谢","203","Male","[""坏我"",""坏他"",""好他"",""好我""]","[""弱我"",""弱他"",""强他"",""强我""]","","","","","","","","no","","","","","","","","","SRET","EW_formal","","key","f","8.379057591623006","853.3333333333334","529.3333333333334","朋友","废物","Negative","ability","","","","","","","","","","",""
"719","","f","psychophysics","57","203641","0.0-7.0-3.0-0.43","4","4","4","3","5","4","2","3","4","4","4","0","1","1","1","-1","-1","0","0","3","4","2","3","3","3","3","3","3","3","6","6","5","6","6","5","5","5","6","4","2","6","2","4","2","4","2","4","2","1","3","3","5","4","1","3","4","4","4","4","3","4","4","4","4","4","4","4","4","5","6","4","7","1","2","5","4","4","4","4","618772915025870848","谢","203","Male","[""坏我"",""坏他"",""好他"",""好我""]","[""弱我"",""弱他"",""强他"",""强我""]","","","","","","","","no","","","","","","","","","SRET","EW_formal","","key","f","8.374634146341549","853.3333333333334","529.3333333333334","自己","不孝","Negative","morality","","","","","","","","","","",""
"582","","j","psychophysics","58","205227","0.0-7.0-3.0-0.44","4","4","4","3","5","4","2","3","4","4","4","0","1","1","1","-1","-1","0","0","3","4","2","3","3","3","3","3","3","3","6","6","5","6","6","5","5","5","6","4","2","6","2","4","2","4","2","4","2","1","3","3","5","4","1","3","4","4","4","4","3","4","4","4","4","4","4","4","4","5","6","4","7","1","2","5","4","4","4","4","618772915025870848","谢","203","Male","[""坏我"",""坏他"",""好他"",""好我""]","[""弱我"",""弱他"",""强他"",""强我""]","","","","","","","","yes","","","","","","","","","SRET","EW_formal","","key","j","8.378191489361733","853.3333333333334","529.3333333333334","朋友","善心","Positive","morality","","","","","","","","","","",""
"633","","f","psychophysics","59","206863","0.0-7.0-3.0-0.45","4","4","4","3","5","4","2","3","4","4","4","0","1","1","1","-1","-1","0","0","3","4","2","3","3","3","3","3","3","3","6","6","5","6","6","5","5","5","6","4","2","6","2","4","2","4","2","4","2","1","3","3","5","4","1","3","4","4","4","4","3","4","4","4","4","4","4","4","4","5","6","4","7","1","2","5","4","4","4","4","618772915025870848","谢","203","Male","[""坏我"",""坏他"",""好他"",""好我""]","[""弱我"",""弱他"",""强他"",""强我""]","","","","","","","","no","","","","","","","","","SRET","EW_formal","","key","f","8.420725388600946","853.3333333333334","529.3333333333334","自己","蛇蝎","Negative","morality","","","","","","","","","","",""
"633","","f","psychophysics","60","208520","0.0-7.0-3.0-0.46","4","4","4","3","5","4","2","3","4","4","4","0","1","1","1","-1","-1","0","0","3","4","2","3","3","3","3","3","3","3","6","6","5","6","6","5","5","5","6","4","2","6","2","4","2","4","2","4","2","1","3","3","5","4","1","3","4","4","4","4","3","4","4","4","4","4","4","4","4","5","6","4","7","1","2","5","4","4","4","4","618772915025870848","谢","203","Male","[""坏我"",""坏他"",""好他"",""好我""]","[""弱我"",""弱他"",""强他"",""强我""]","","","","","","","","no","","","","","","","","","SRET","EW_formal","","key","f","8.419387755101951","853.3333333333334","529.3333333333334","自己","无敌","Positive","ability","","","","","","","","","","",""
"507","","f","psychophysics","61","210029","0.0-7.0-3.0-0.47","4","4","4","3","5","4","2","3","4","4","4","0","1","1","1","-1","-1","0","0","3","4","2","3","3","3","3","3","3","3","6","6","5","6","6","5","5","5","6","4","2","6","2","4","2","4","2","4","2","1","3","3","5","4","1","3","4","4","4","4","3","4","4","4","4","4","4","4","4","5","6","4","7","1","2","5","4","4","4","4","618772915025870848","谢","203","Male","[""坏我"",""坏他"",""好他"",""好我""]","[""弱我"",""弱他"",""强他"",""强我""]","","","","","","","","no","","","","","","","","","SRET","EW_formal","","key","f","8.380446927374335","853.3333333333334","529.3333333333334","自己","虚假","Negative","morality","","","","","","","","","","",""
"1059","","j","psychophysics","62","212094","0.0-7.0-3.0-0.48","4","4","4","3","5","4","2","3","4","4","4","0","1","1","1","-1","-1","0","0","3","4","2","3","3","3","3","3","3","3","6","6","5","6","6","5","5","5","6","4","2","6","2","4","2","4","2","4","2","1","3","3","5","4","1","3","4","4","4","4","3","4","4","4","4","4","4","4","4","5","6","4","7","1","2","5","4","4","4","4","618772915025870848","谢","203","Male","[""坏我"",""坏他"",""好他"",""好我""]","[""弱我"",""弱他"",""强他"",""强我""]","","","","","","","","yes","","","","","","","","","SRET","EW_formal","","key","j","8.367479674796842","853.3333333333334","529.3333333333334","朋友","干练","Positive","ability","","","","","","","","","","",""
"599","","j","psychophysics","63","213694","0.0-7.0-3.0-0.49","4","4","4","3","5","4","2","3","4","4","4","0","1","1","1","-1","-1","0","0","3","4","2","3","3","3","3","3","3","3","6","6","5","6","6","5","5","5","6","4","2","6","2","4","2","4","2","4","2","1","3","3","5","4","1","3","4","4","4","4","3","4","4","4","4","4","4","4","4","5","6","4","7","1","2","5","4","4","4","4","618772915025870848","谢","203","Male","[""坏我"",""坏他"",""好他"",""好我""]","[""弱我"",""弱他"",""强他"",""强我""]","","","","","","","","yes","","","","","","","","","SRET","EW_formal","","key","j","8.378421052631548","853.3333333333334","529.3333333333334","自己","周到","Positive","ability","","","","","","","","","","",""
"668","","f","psychophysics","64","215365","0.0-7.0-3.0-0.50","4","4","4","3","5","4","2","3","4","4","4","0","1","1","1","-1","-1","0","0","3","4","2","3","3","3","3","3","3","3","6","6","5","6","6","5","5","5","6","4","2","6","2","4","2","4","2","4","2","1","3","3","5","4","1","3","4","4","4","4","3","4","4","4","4","4","4","4","4","5","6","4","7","1","2","5","4","4","4","4","618772915025870848","谢","203","Male","[""坏我"",""坏他"",""好他"",""好我""]","[""弱我"",""弱他"",""强他"",""强我""]","","","","","","","","no","","","","","","","","","SRET","EW_formal","","key","f","8.374874371859326","853.3333333333334","529.3333333333334","朋友","短视","Negative","ability","","","","","","","","","","",""
"591","","f","psychophysics","65","216963","0.0-7.0-3.0-0.51","4","4","4","3","5","4","2","3","4","4","4","0","1","1","1","-1","-1","0","0","3","4","2","3","3","3","3","3","3","3","6","6","5","6","6","5","5","5","6","4","2","6","2","4","2","4","2","4","2","1","3","3","5","4","1","3","4","4","4","4","3","4","4","4","4","4","4","4","4","5","6","4","7","1","2","5","4","4","4","4","618772915025870848","谢","203","Male","[""坏我"",""坏他"",""好他"",""好我""]","[""弱我"",""弱他"",""强他"",""强我""]","","","","","","","","no","","","","","","","","","SRET","EW_formal","","key","f","8.37883597883601","853.3333333333334","529.3333333333334","自己","弱智","Negative","ability","","","","","","","","","","",""
"477","","j","psychophysics","66","218475","0.0-7.0-3.0-0.52","4","4","4","3","5","4","2","3","4","4","4","0","1","1","1","-1","-1","0","0","3","4","2","3","3","3","3","3","3","3","6","6","5","6","6","5","5","5","6","4","2","6","2","4","2","4","2","4","2","1","3","3","5","4","1","3","4","4","4","4","3","4","4","4","4","4","4","4","4","5","6","4","7","1","2","5","4","4","4","4","618772915025870848","谢","203","Male","[""坏我"",""坏他"",""好他"",""好我""]","[""弱我"",""弱他"",""强他"",""强我""]","","","","","","","","yes","","","","","","","","","SRET","EW_formal","","key","j","8.426256983240158","853.3333333333334","529.3333333333334","自己","有力","Positive","ability","","","","","","","","","","",""
"572","","f","psychophysics","67","220053","0.0-7.0-3.0-0.53","4","4","4","3","5","4","2","3","4","4","4","0","1","1","1","-1","-1","0","0","3","4","2","3","3","3","3","3","3","3","6","6","5","6","6","5","5","5","6","4","2","6","2","4","2","4","2","4","2","1","3","3","5","4","1","3","4","4","4","4","3","4","4","4","4","4","4","4","4","5","6","4","7","1","2","5","4","4","4","4","618772915025870848","谢","203","Male","[""坏我"",""坏他"",""好他"",""好我""]","[""弱我"",""弱他"",""强他"",""强我""]","","","","","","","","no","","","","","","","","","SRET","EW_formal","","key","f","8.379679144385026","853.3333333333334","529.3333333333334","自己","毛糙","Negative","ability","","","","","","","","","","",""
"837","","f","psychophysics","68","221892","0.0-7.0-3.0-0.54","4","4","4","3","5","4","2","3","4","4","4","0","1","1","1","-1","-1","0","0","3","4","2","3","3","3","3","3","3","3","6","6","5","6","6","5","5","5","6","4","2","6","2","4","2","4","2","4","2","1","3","3","5","4","1","3","4","4","4","4","3","4","4","4","4","4","4","4","4","5","6","4","7","1","2","5","4","4","4","4","618772915025870848","谢","203","Male","[""坏我"",""坏他"",""好他"",""好我""]","[""弱我"",""弱他"",""强他"",""强我""]","","","","","","","","no","","","","","","","","","SRET","EW_formal","","key","f","8.371689497716869","853.3333333333334","529.3333333333334","朋友","思辨","Positive","ability","","","","","","","","","","",""
"562","","f","psychophysics","69","223459","0.0-7.0-3.0-0.55","4","4","4","3","5","4","2","3","4","4","4","0","1","1","1","-1","-1","0","0","3","4","2","3","3","3","3","3","3","3","6","6","5","6","6","5","5","5","6","4","2","6","2","4","2","4","2","4","2","1","3","3","5","4","1","3","4","4","4","4","3","4","4","4","4","4","4","4","4","5","6","4","7","1","2","5","4","4","4","4","618772915025870848","谢","203","Male","[""坏我"",""坏他"",""好他"",""好我""]","[""弱我"",""弱他"",""强他"",""强我""]","","","","","","","","no","","","","","","","","","SRET","EW_formal","","key","f","8.424864864864896","853.3333333333334","529.3333333333334","自己","淫乱","Negative","morality","","","","","","","","","","",""
"469","","j","psychophysics","70","224933","0.0-7.0-3.0-0.56","4","4","4","3","5","4","2","3","4","4","4","0","1","1","1","-1","-1","0","0","3","4","2","3","3","3","3","3","3","3","6","6","5","6","6","5","5","5","6","4","2","6","2","4","2","4","2","4","2","1","3","3","5","4","1","3","4","4","4","4","3","4","4","4","4","4","4","4","4","5","6","4","7","1","2","5","4","4","4","4","618772915025870848","谢","203","Male","[""坏我"",""坏他"",""好他"",""好我""]","[""弱我"",""弱他"",""强他"",""强我""]","","","","","","","","yes","","","","","","","","","SRET","EW_formal","","key","j","8.38228571428568","853.3333333333334","529.3333333333334","自己","肯干","Positive","ability","","","","","","","","","","",""
"757","","j","psychophysics","71","226696","0.0-7.0-3.0-0.57","4","4","4","3","5","4","2","3","4","4","4","0","1","1","1","-1","-1","0","0","3","4","2","3","3","3","3","3","3","3","6","6","5","6","6","5","5","5","6","4","2","6","2","4","2","4","2","4","2","1","3","3","5","4","1","3","4","4","4","4","3","4","4","4","4","4","4","4","4","5","6","4","7","1","2","5","4","4","4","4","618772915025870848","谢","203","Male","[""坏我"",""坏他"",""好他"",""好我""]","[""弱我"",""弱他"",""强他"",""强我""]","","","","","","","","yes","","","","","","","","","SRET","EW_formal","","key","j","8.374641148325303","853.3333333333334","529.3333333333334","朋友","淡泊","Positive","morality","","","","","","","","","","",""
"486","","f","psychophysics","72","228203","0.0-7.0-3.0-0.58","4","4","4","3","5","4","2","3","4","4","4","0","1","1","1","-1","-1","0","0","3","4","2","3","3","3","3","3","3","3","6","6","5","6","6","5","5","5","6","4","2","6","2","4","2","4","2","4","2","1","3","3","5","4","1","3","4","4","4","4","3","4","4","4","4","4","4","4","4","5","6","4","7","1","2","5","4","4","4","4","618772915025870848","谢","203","Male","[""坏我"",""坏他"",""好他"",""好我""]","[""弱我"",""弱他"",""强他"",""强我""]","","","","","","","","no","","","","","","","","","SRET","EW_formal","","key","f","8.431284916201182","853.3333333333334","529.3333333333334","朋友","龌龊","Negative","morality","","","","","","","","","","",""
"569","","f","psychophysics","73","229782","0.0-7.0-3.0-0.59","4","4","4","3","5","4","2","3","4","4","4","0","1","1","1","-1","-1","0","0","3","4","2","3","3","3","3","3","3","3","6","6","5","6","6","5","5","5","6","4","2","6","2","4","2","4","2","4","2","1","3","3","5","4","1","3","4","4","4","4","3","4","4","4","4","4","4","4","4","5","6","4","7","1","2","5","4","4","4","4","618772915025870848","谢","203","Male","[""坏我"",""坏他"",""好他"",""好我""]","[""弱我"",""弱他"",""强他"",""强我""]","","","","","","","","no","","","","","","","","","SRET","EW_formal","","key","f","8.377540106951903","853.3333333333334","529.3333333333334","自己","粗心","Negative","ability","","","","","","","","","","",""
"531","","f","psychophysics","74","231315","0.0-7.0-3.0-0.60","4","4","4","3","5","4","2","3","4","4","4","0","1","1","1","-1","-1","0","0","3","4","2","3","3","3","3","3","3","3","6","6","5","6","6","5","5","5","6","4","2","6","2","4","2","4","2","4","2","1","3","3","5","4","1","3","4","4","4","4","3","4","4","4","4","4","4","4","4","5","6","4","7","1","2","5","4","4","4","4","618772915025870848","谢","203","Male","[""坏我"",""坏他"",""好他"",""好我""]","[""弱我"",""弱他"",""强他"",""强我""]","","","","","","","","no","","","","","","","","","SRET","EW_formal","","key","f","8.380769230769166","853.3333333333334","529.3333333333334","自己","果决","Positive","ability","","","","","","","","","","",""
"570","","f","psychophysics","75","232888","0.0-7.0-3.0-0.61","4","4","4","3","5","4","2","3","4","4","4","0","1","1","1","-1","-1","0","0","3","4","2","3","3","3","3","3","3","3","6","6","5","6","6","5","5","5","6","4","2","6","2","4","2","4","2","4","2","1","3","3","5","4","1","3","4","4","4","4","3","4","4","4","4","4","4","4","4","5","6","4","7","1","2","5","4","4","4","4","618772915025870848","谢","203","Male","[""坏我"",""坏他"",""好他"",""好我""]","[""弱我"",""弱他"",""强他"",""强我""]","","","","","","","","no","","","","","","","","","SRET","EW_formal","","key","f","8.379144385026708","853.3333333333334","529.3333333333334","自己","下流","Negative","morality","","","","","","","","","","",""
"515","","j","psychophysics","76","234408","0.0-7.0-3.0-0.62","4","4","4","3","5","4","2","3","4","4","4","0","1","1","1","-1","-1","0","0","3","4","2","3","3","3","3","3","3","3","6","6","5","6","6","5","5","5","6","4","2","6","2","4","2","4","2","4","2","1","3","3","5","4","1","3","4","4","4","4","3","4","4","4","4","4","4","4","4","5","6","4","7","1","2","5","4","4","4","4","618772915025870848","谢","203","Male","[""坏我"",""坏他"",""好他"",""好我""]","[""弱我"",""弱他"",""强他"",""强我""]","","","","","","","","yes","","","","","","","","","SRET","EW_formal","","key","j","8.380555555555556","853.3333333333334","529.3333333333334","自己","廉正","Positive","morality","","","","","","","","","","",""
"635","","j","psychophysics","77","236056","0.0-7.0-3.0-0.63","4","4","4","3","5","4","2","3","4","4","4","0","1","1","1","-1","-1","0","0","3","4","2","3","3","3","3","3","3","3","6","6","5","6","6","5","5","5","6","4","2","6","2","4","2","4","2","4","2","1","3","3","5","4","1","3","4","4","4","4","3","4","4","4","4","4","4","4","4","5","6","4","7","1","2","5","4","4","4","4","618772915025870848","谢","203","Male","[""坏我"",""坏他"",""好他"",""好我""]","[""弱我"",""弱他"",""强他"",""强我""]","","","","","","","","yes","","","","","","","","","SRET","EW_formal","","key","j","8.376530612244839","853.3333333333334","529.3333333333334","朋友","忠义","Positive","morality","","","","","","","","","","",""
"649","","f","psychophysics","78","237708","0.0-7.0-3.0-0.64","4","4","4","3","5","4","2","3","4","4","4","0","1","1","1","-1","-1","0","0","3","4","2","3","3","3","3","3","3","3","6","6","5","6","6","5","5","5","6","4","2","6","2","4","2","4","2","4","2","1","3","3","5","4","1","3","4","4","4","4","3","4","4","4","4","4","4","4","4","5","6","4","7","1","2","5","4","4","4","4","618772915025870848","谢","203","Male","[""坏我"",""坏他"",""好他"",""好我""]","[""弱我"",""弱他"",""强他"",""强我""]","","","","","","","","no","","","","","","","","","SRET","EW_formal","","key","f","8.376020408163177","853.3333333333334","529.3333333333334","朋友","刻薄","Negative","morality","","","","","","","","","","",""
"458","","f","psychophysics","79","239174","0.0-7.0-3.0-0.65","4","4","4","3","5","4","2","3","4","4","4","0","1","1","1","-1","-1","0","0","3","4","2","3","3","3","3","3","3","3","6","6","5","6","6","5","5","5","6","4","2","6","2","4","2","4","2","4","2","1","3","3","5","4","1","3","4","4","4","4","3","4","4","4","4","4","4","4","4","5","6","4","7","1","2","5","4","4","4","4","618772915025870848","谢","203","Male","[""坏我"",""坏他"",""好他"",""好我""]","[""弱我"",""弱他"",""强他"",""强我""]","","","","","","","","no","","","","","","","","","SRET","EW_formal","","key","f","8.382183908045977","853.3333333333334","529.3333333333334","自己","阴毒","Negative","morality","","","","","","","","","","",""
"994","","f","psychophysics","80","241171","0.0-7.0-3.0-0.66","4","4","4","3","5","4","2","3","4","4","4","0","1","1","1","-1","-1","0","0","3","4","2","3","3","3","3","3","3","3","6","6","5","6","6","5","5","5","6","4","2","6","2","4","2","4","2","4","2","1","3","3","5","4","1","3","4","4","4","4","3","4","4","4","4","4","4","4","4","5","6","4","7","1","2","5","4","4","4","4","618772915025870848","谢","203","Male","[""坏我"",""坏他"",""好他"",""好我""]","[""弱我"",""弱他"",""强他"",""强我""]","","","","","","","","no","","","","","","","","","SRET","EW_formal","","key","f","8.40295358649789","853.3333333333334","529.3333333333334","朋友","变通","Positive","ability","","","","","","","","","","",""
"522","","f","psychophysics","81","242697","0.0-7.0-3.0-0.67","4","4","4","3","5","4","2","3","4","4","4","0","1","1","1","-1","-1","0","0","3","4","2","3","3","3","3","3","3","3","6","6","5","6","6","5","5","5","6","4","2","6","2","4","2","4","2","4","2","1","3","3","5","4","1","3","4","4","4","4","3","4","4","4","4","4","4","4","4","5","6","4","7","1","2","5","4","4","4","4","618772915025870848","谢","203","Male","[""坏我"",""坏他"",""好他"",""好我""]","[""弱我"",""弱他"",""强他"",""强我""]","","","","","","","","no","","","","","","","","","SRET","EW_formal","","key","f","8.37900552486191","853.3333333333334","529.3333333333334","自己","歹毒","Negative","morality","","","","","","","","","","",""
"444","","f","psychophysics","82","244145","0.0-7.0-3.0-0.68","4","4","4","3","5","4","2","3","4","4","4","0","1","1","1","-1","-1","0","0","3","4","2","3","3","3","3","3","3","3","6","6","5","6","6","5","5","5","6","4","2","6","2","4","2","4","2","4","2","1","3","3","5","4","1","3","4","4","4","4","3","4","4","4","4","4","4","4","4","5","6","4","7","1","2","5","4","4","4","4","618772915025870848","谢","203","Male","[""坏我"",""坏他"",""好他"",""好我""]","[""弱我"",""弱他"",""强他"",""强我""]","","","","","","","","no","","","","","","","","","SRET","EW_formal","","key","f","8.432163742690195","853.3333333333334","529.3333333333334","朋友","愚钝","Negative","ability","","","","","","","","","","",""
"574","","f","psychophysics","83","245724","0.0-7.0-3.0-0.69","4","4","4","3","5","4","2","3","4","4","4","0","1","1","1","-1","-1","0","0","3","4","2","3","3","3","3","3","3","3","6","6","5","6","6","5","5","5","6","4","2","6","2","4","2","4","2","4","2","1","3","3","5","4","1","3","4","4","4","4","3","4","4","4","4","4","4","4","4","5","6","4","7","1","2","5","4","4","4","4","618772915025870848","谢","203","Male","[""坏我"",""坏他"",""好他"",""好我""]","[""弱我"",""弱他"",""强他"",""强我""]","","","","","","","","no","","","","","","","","","SRET","EW_formal","","key","f","8.379679144385026","853.3333333333334","529.3333333333334","朋友","小人","Negative","morality","","","","","","","","","","",""
"554","","f","psychophysics","84","247287","0.0-7.0-3.0-0.70","4","4","4","3","5","4","2","3","4","4","4","0","1","1","1","-1","-1","0","0","3","4","2","3","3","3","3","3","3","3","6","6","5","6","6","5","5","5","6","4","2","6","2","4","2","4","2","4","2","1","3","3","5","4","1","3","4","4","4","4","3","4","4","4","4","4","4","4","4","5","6","4","7","1","2","5","4","4","4","4","618772915025870848","谢","203","Male","[""坏我"",""坏他"",""好他"",""好我""]","[""弱我"",""弱他"",""强他"",""强我""]","","","","","","","","no","","","","","","","","","SRET","EW_formal","","key","f","8.378494623655882","853.3333333333334","529.3333333333334","自己","无为","Negative","ability","","","","","","","","","","",""
"473","","f","psychophysics","85","248766","0.0-7.0-3.0-0.71","4","4","4","3","5","4","2","3","4","4","4","0","1","1","1","-1","-1","0","0","3","4","2","3","3","3","3","3","3","3","6","6","5","6","6","5","5","5","6","4","2","6","2","4","2","4","2","4","2","1","3","3","5","4","1","3","4","4","4","4","3","4","4","4","4","4","4","4","4","5","6","4","7","1","2","5","4","4","4","4","618772915025870848","谢","203","Male","[""坏我"",""坏他"",""好他"",""好我""]","[""弱我"",""弱他"",""强他"",""强我""]","","","","","","","","no","","","","","","","","","SRET","EW_formal","","key","f","8.429310344827654","853.3333333333334","529.3333333333334","朋友","迟钝","Negative","ability","","","","","","","","","","",""
"436","","f","psychophysics","86","250208","0.0-7.0-3.0-0.72","4","4","4","3","5","4","2","3","4","4","4","0","1","1","1","-1","-1","0","0","3","4","2","3","3","3","3","3","3","3","6","6","5","6","6","5","5","5","6","4","2","6","2","4","2","4","2","4","2","1","3","3","5","4","1","3","4","4","4","4","3","4","4","4","4","4","4","4","4","5","6","4","7","1","2","5","4","4","4","4","618772915025870848","谢","203","Male","[""坏我"",""坏他"",""好他"",""好我""]","[""弱我"",""弱他"",""强他"",""强我""]","","","","","","","","no","","","","","","","","","SRET","EW_formal","","key","f","8.383625730994186","853.3333333333334","529.3333333333334","自己","短浅","Negative","ability","","","","","","","","","","",""
"693","","f","psychophysics","87","251904","0.0-7.0-3.0-0.73","4","4","4","3","5","4","2","3","4","4","4","0","1","1","1","-1","-1","0","0","3","4","2","3","3","3","3","3","3","3","6","6","5","6","6","5","5","5","6","4","2","6","2","4","2","4","2","4","2","1","3","3","5","4","1","3","4","4","4","4","3","4","4","4","4","4","4","4","4","5","6","4","7","1","2","5","4","4","4","4","618772915025870848","谢","203","Male","[""坏我"",""坏他"",""好他"",""好我""]","[""弱我"",""弱他"",""强他"",""强我""]","","","","","","","","no","","","","","","","","","SRET","EW_formal","","key","f","8.376237623762377","853.3333333333334","529.3333333333334","朋友","不仁","Negative","morality","","","","","","","","","","",""
"492","","j","psychophysics","88","253407","0.0-7.0-3.0-0.74","4","4","4","3","5","4","2","3","4","4","4","0","1","1","1","-1","-1","0","0","3","4","2","3","3","3","3","3","3","3","6","6","5","6","6","5","5","5","6","4","2","6","2","4","2","4","2","4","2","1","3","3","5","4","1","3","4","4","4","4","3","4","4","4","4","4","4","4","4","5","6","4","7","1","2","5","4","4","4","4","618772915025870848","谢","203","Male","[""坏我"",""坏他"",""好他"",""好我""]","[""弱我"",""弱他"",""强他"",""强我""]","","","","","","","","yes","","","","","","","","","SRET","EW_formal","","key","j","8.476704545454512","853.3333333333334","529.3333333333334","朋友","勤奋","Positive","ability","","","","","","","","","","",""
"516","","f","psychophysics","89","254925","0.0-7.0-3.0-0.75","4","4","4","3","5","4","2","3","4","4","4","0","1","1","1","-1","-1","0","0","3","4","2","3","3","3","3","3","3","3","6","6","5","6","6","5","5","5","6","4","2","6","2","4","2","4","2","4","2","1","3","3","5","4","1","3","4","4","4","4","3","4","4","4","4","4","4","4","4","5","6","4","7","1","2","5","4","4","4","4","618772915025870848","谢","203","Male","[""坏我"",""坏他"",""好他"",""好我""]","[""弱我"",""弱他"",""强他"",""强我""]","","","","","","","","no","","","","","","","","","SRET","EW_formal","","key","f","8.380555555555556","853.3333333333334","529.3333333333334","朋友","贪污","Negative","morality","","","","","","","","","","",""
"740","","j","psychophysics","90","256672","0.0-7.0-3.0-0.76","4","4","4","3","5","4","2","3","4","4","4","0","1","1","1","-1","-1","0","0","3","4","2","3","3","3","3","3","3","3","6","6","5","6","6","5","5","5","6","4","2","6","2","4","2","4","2","4","2","1","3","3","5","4","1","3","4","4","4","4","3","4","4","4","4","4","4","4","4","5","6","4","7","1","2","5","4","4","4","4","618772915025870848","谢","203","Male","[""坏我"",""坏他"",""好他"",""好我""]","[""弱我"",""弱他"",""强他"",""强我""]","","","","","","","","yes","","","","","","","","","SRET","EW_formal","","key","j","8.415458937198068","853.3333333333334","529.3333333333334","自己","果断","Positive","ability","","","","","","","","","","",""
"536","","j","psychophysics","91","258211","0.0-7.0-3.0-0.77","4","4","4","3","5","4","2","3","4","4","4","0","1","1","1","-1","-1","0","0","3","4","2","3","3","3","3","3","3","3","6","6","5","6","6","5","5","5","6","4","2","6","2","4","2","4","2","4","2","1","3","3","5","4","1","3","4","4","4","4","3","4","4","4","4","4","4","4","4","5","6","4","7","1","2","5","4","4","4","4","618772915025870848","谢","203","Male","[""坏我"",""坏他"",""好他"",""好我""]","[""弱我"",""弱他"",""强他"",""强我""]","","","","","","","","yes","","","","","","","","","SRET","EW_formal","","key","j","8.381967213114722","853.3333333333334","529.3333333333334","朋友","专注","Positive","ability","","","","","","","","","","",""
"498","","j","psychophysics","92","259740","0.0-7.0-3.0-0.78","4","4","4","3","5","4","2","3","4","4","4","0","1","1","1","-1","-1","0","0","3","4","2","3","3","3","3","3","3","3","6","6","5","6","6","5","5","5","6","4","2","6","2","4","2","4","2","4","2","1","3","3","5","4","1","3","4","4","4","4","3","4","4","4","4","4","4","4","4","5","6","4","7","1","2","5","4","4","4","4","618772915025870848","谢","203","Male","[""坏我"",""坏他"",""好他"",""好我""]","[""弱我"",""弱他"",""强他"",""强我""]","","","","","","","","yes","","","","","","","","","SRET","EW_formal","","key","j","8.380110497237666","853.3333333333334","529.3333333333334","自己","忠良","Positive","morality","","","","","","","","","","",""
"639","","j","psychophysics","93","261381","0.0-7.0-3.0-0.79","4","4","4","3","5","4","2","3","4","4","4","0","1","1","1","-1","-1","0","0","3","4","2","3","3","3","3","3","3","3","6","6","5","6","6","5","5","5","6","4","2","6","2","4","2","4","2","4","2","1","3","3","5","4","1","3","4","4","4","4","3","4","4","4","4","4","4","4","4","5","6","4","7","1","2","5","4","4","4","4","618772915025870848","谢","203","Male","[""坏我"",""坏他"",""好他"",""好我""]","[""弱我"",""弱他"",""强他"",""强我""]","","","","","","","","yes","","","","","","","","","SRET","EW_formal","","key","j","8.376923076923227","853.3333333333334","529.3333333333334","自己","利落","Positive","ability","","","","","","","","","","",""
"497","","j","psychophysics","94","262880","0.0-7.0-3.0-0.80","4","4","4","3","5","4","2","3","4","4","4","0","1","1","1","-1","-1","0","0","3","4","2","3","3","3","3","3","3","3","6","6","5","6","6","5","5","5","6","4","2","6","2","4","2","4","2","4","2","1","3","3","5","4","1","3","4","4","4","4","3","4","4","4","4","4","4","4","4","5","6","4","7","1","2","5","4","4","4","4","618772915025870848","谢","203","Male","[""坏我"",""坏他"",""好他"",""好我""]","[""弱我"",""弱他"",""强他"",""强我""]","","","","","","","","yes","","","","","","","","","SRET","EW_formal","","key","j","8.380898876404755","853.3333333333334","529.3333333333334","朋友","才尽","Negative","ability","","","","","","","","","","",""
"509","","j","psychophysics","95","264394","0.0-7.0-3.0-0.81","4","4","4","3","5","4","2","3","4","4","4","0","1","1","1","-1","-1","0","0","3","4","2","3","3","3","3","3","3","3","6","6","5","6","6","5","5","5","6","4","2","6","2","4","2","4","2","4","2","1","3","3","5","4","1","3","4","4","4","4","3","4","4","4","4","4","4","4","4","5","6","4","7","1","2","5","4","4","4","4","618772915025870848","谢","203","Male","[""坏我"",""坏他"",""好他"",""好我""]","[""弱我"",""弱他"",""强他"",""强我""]","","","","","","","","yes","","","","","","","","","SRET","EW_formal","","key","j","8.380000000000129","853.3333333333334","529.3333333333334","自己","高尚","Positive","morality","","","","","","","","","","",""
"536","","f","psychophysics","96","265961","0.0-7.0-3.0-0.82","4","4","4","3","5","4","2","3","4","4","4","0","1","1","1","-1","-1","0","0","3","4","2","3","3","3","3","3","3","3","6","6","5","6","6","5","5","5","6","4","2","6","2","4","2","4","2","4","2","1","3","3","5","4","1","3","4","4","4","4","3","4","4","4","4","4","4","4","4","5","6","4","7","1","2","5","4","4","4","4","618772915025870848","谢","203","Male","[""坏我"",""坏他"",""好他"",""好我""]","[""弱我"",""弱他"",""强他"",""强我""]","","","","","","","","no","","","","","","","","","SRET","EW_formal","","key","f","8.38064516129026","853.3333333333334","529.3333333333334","朋友","怠惰","Negative","ability","","","","","","","","","","",""
"540","","f","psychophysics","97","267505","0.0-7.0-3.0-0.83","4","4","4","3","5","4","2","3","4","4","4","0","1","1","1","-1","-1","0","0","3","4","2","3","3","3","3","3","3","3","6","6","5","6","6","5","5","5","6","4","2","6","2","4","2","4","2","4","2","1","3","3","5","4","1","3","4","4","4","4","3","4","4","4","4","4","4","4","4","5","6","4","7","1","2","5","4","4","4","4","618772915025870848","谢","203","Male","[""坏我"",""坏他"",""好他"",""好我""]","[""弱我"",""弱他"",""强他"",""强我""]","","","","","","","","no","","","","","","","","","SRET","EW_formal","","key","f","8.380874316939954","853.3333333333334","529.3333333333334","朋友","混账","Negative","morality","","","","","","","","","","",""
"740","","f","psychophysics","98","269249","0.0-7.0-3.0-0.84","4","4","4","3","5","4","2","3","4","4","4","0","1","1","1","-1","-1","0","0","3","4","2","3","3","3","3","3","3","3","6","6","5","6","6","5","5","5","6","4","2","6","2","4","2","4","2","4","2","1","3","3","5","4","1","3","4","4","4","4","3","4","4","4","4","4","4","4","4","5","6","4","7","1","2","5","4","4","4","4","618772915025870848","谢","203","Male","[""坏我"",""坏他"",""好他"",""好我""]","[""弱我"",""弱他"",""强他"",""强我""]","","","","","","","","no","","","","","","","","","SRET","EW_formal","","key","f","8.374879227053027","853.3333333333334","529.3333333333334","朋友","低俗","Negative","morality","","","","","","","","","","",""
"841","","j","psychophysics","99","271091","0.0-7.0-3.0-0.85","4","4","4","3","5","4","2","3","4","4","4","0","1","1","1","-1","-1","0","0","3","4","2","3","3","3","3","3","3","3","6","6","5","6","6","5","5","5","6","4","2","6","2","4","2","4","2","4","2","1","3","3","5","4","1","3","4","4","4","4","3","4","4","4","4","4","4","4","4","5","6","4","7","1","2","5","4","4","4","4","618772915025870848","谢","203","Male","[""坏我"",""坏他"",""好他"",""好我""]","[""弱我"",""弱他"",""强他"",""强我""]","","","","","","","","yes","","","","","","","","","SRET","EW_formal","","key","j","8.372146118721462","853.3333333333334","529.3333333333334","朋友","素养","Positive","morality","","","","","","","","","","",""
"879","","j","psychophysics","100","272972","0.0-7.0-3.0-0.86","4","4","4","3","5","4","2","3","4","4","4","0","1","1","1","-1","-1","0","0","3","4","2","3","3","3","3","3","3","3","6","6","5","6","6","5","5","5","6","4","2","6","2","4","2","4","2","4","2","1","3","3","5","4","1","3","4","4","4","4","3","4","4","4","4","4","4","4","4","5","6","4","7","1","2","5","4","4","4","4","618772915025870848","谢","203","Male","[""坏我"",""坏他"",""好他"",""好我""]","[""弱我"",""弱他"",""强他"",""强我""]","","","","","","","","yes","","","","","","","","","SRET","EW_formal","","key","j","8.371874999999948","853.3333333333334","529.3333333333334","自己","主见","Positive","ability","","","","","","","","","","",""
"473","","f","psychophysics","101","274449","0.0-7.0-3.0-0.87","4","4","4","3","5","4","2","3","4","4","4","0","1","1","1","-1","-1","0","0","3","4","2","3","3","3","3","3","3","3","6","6","5","6","6","5","5","5","6","4","2","6","2","4","2","4","2","4","2","1","3","3","5","4","1","3","4","4","4","4","3","4","4","4","4","4","4","4","4","5","6","4","7","1","2","5","4","4","4","4","618772915025870848","谢","203","Male","[""坏我"",""坏他"",""好他"",""好我""]","[""弱我"",""弱他"",""强他"",""强我""]","","","","","","","","no","","","","","","","","","SRET","EW_formal","","key","f","8.478612716762939","853.3333333333334","529.3333333333334","自己","缓慢","Negative","ability","","","","","","","","","","",""
"15735","
    <p><div style='color:white;font-size:35px; line-height:20px;'>计算任务</div></p><br>
    <p><div style='color:red;font-size:25px; line-height:20px;'>接下来，您将看到一些四则运算题，<b>请从键盘选择 0-9 进行反应。</b></div></p>
    <p><div style='color:red;font-size:25px; line-height:20px;'>请尽可能快地进行计算，计算的速度和正确率将影响报酬的发放。</div></p>
    <p><div class='footer' style='color:white;font-size:25px; line-height:20px;'>如果对本实验还有不清楚之处，请立即向实验员咨询。</p><p style='color:white;font-size:25px; line-height:20px;'>如果您明白了规则：</p><p style='color:white;font-size:22px; line-height:20px;'>请按 继续 进入练习</p>
    </div>
    ","0","html-button-response","102","290191","0.0-7.0-4.0","4","4","4","3","5","4","2","3","4","4","4","0","1","1","1","-1","-1","0","0","3","4","2","3","3","3","3","3","3","3","6","6","5","6","6","5","5","5","6","4","2","6","2","4","2","4","2","4","2","1","3","3","5","4","1","3","4","4","4","4","3","4","4","4","4","4","4","4","4","5","6","4","7","1","2","5","4","4","4","4","618772915025870848","谢","203","Male","[""坏我"",""坏他"",""好他"",""好我""]","[""弱我"",""弱他"",""强他"",""强我""]","","","","","","","","","","","","","","","","","SRET_math","math_instructions","Mon Dec 25 2023 17:45:07 GMT+0800 (中国标准时间)","","","","","","","","","","","","","","","","","","","",""
"3187","","2","psychophysics","103","293395","0.0-7.0-5.0-0.0","4","4","4","3","5","4","2","3","4","4","4","0","1","1","1","-1","-1","0","0","3","4","2","3","3","3","3","3","3","3","6","6","5","6","6","5","5","5","6","4","2","6","2","4","2","4","2","4","2","1","3","3","5","4","1","3","4","4","4","4","3","4","4","4","4","4","4","4","4","5","6","4","7","1","2","5","4","4","4","4","618772915025870848","谢","203","Male","[""坏我"",""坏他"",""好他"",""好我""]","[""弱我"",""弱他"",""强他"",""强我""]","","","","","","","","2","","","","","","","","","SRET","SRET_math_calculate","","key","2","8.333942558746797","853.3333333333334","529.3333333333334","","","","","29-27= ?","2","1","","","","","","","",""
"2417","","2","psychophysics","104","295836","0.0-7.0-5.0-0.1","4","4","4","3","5","4","2","3","4","4","4","0","1","1","1","-1","-1","0","0","3","4","2","3","3","3","3","3","3","3","6","6","5","6","6","5","5","5","6","4","2","6","2","4","2","4","2","4","2","1","3","3","5","4","1","3","4","4","4","4","3","4","4","4","4","4","4","4","4","5","6","4","7","1","2","5","4","4","4","4","618772915025870848","谢","203","Male","[""坏我"",""坏他"",""好他"",""好我""]","[""弱我"",""弱他"",""强他"",""强我""]","","","","","","","","2","","","","","","","","","SRET","SRET_math_calculate","","key","2","8.390689655172373","853.3333333333334","529.3333333333334","","","","","18/9= ?","2","1","","","","","","","",""
"2240","","7","psychophysics","105","298101","0.0-7.0-5.0-0.2","4","4","4","3","5","4","2","3","4","4","4","0","1","1","1","-1","-1","0","0","3","4","2","3","3","3","3","3","3","3","6","6","5","6","6","5","5","5","6","4","2","6","2","4","2","4","2","4","2","1","3","3","5","4","1","3","4","4","4","4","3","4","4","4","4","4","4","4","4","5","6","4","7","1","2","5","4","4","4","4","618772915025870848","谢","203","Male","[""坏我"",""坏他"",""好他"",""好我""]","[""弱我"",""弱他"",""强他"",""强我""]","","","","","","","","7","","","","","","","","","SRET","SRET_math_calculate","","key","7","8.3651851851851","853.3333333333334","529.3333333333334","","","","","4+3= ?","7","1","","","","","","","",""
"3295","","4","psychophysics","106","301419","0.0-7.0-5.0-0.3","4","4","4","3","5","4","2","3","4","4","4","0","1","1","1","-1","-1","0","0","3","4","2","3","3","3","3","3","3","3","6","6","5","6","6","5","5","5","6","4","2","6","2","4","2","4","2","4","2","1","3","3","5","4","1","3","4","4","4","4","3","4","4","4","4","4","4","4","4","5","6","4","7","1","2","5","4","4","4","4","618772915025870848","谢","203","Male","[""坏我"",""坏他"",""好他"",""好我""]","[""弱我"",""弱他"",""强他"",""强我""]","","","","","","","","4","","","","","","","","","SRET","SRET_math_calculate","","key","4","8.375949367088607","853.3333333333334","529.3333333333334","","","","","13-9= ?","4","1","","","","","","","",""
"2661","","0","psychophysics","107","304108","0.0-7.0-5.0-0.4","4","4","4","3","5","4","2","3","4","4","4","0","1","1","1","-1","-1","0","0","3","4","2","3","3","3","3","3","3","3","6","6","5","6","6","5","5","5","6","4","2","6","2","4","2","4","2","4","2","1","3","3","5","4","1","3","4","4","4","4","3","4","4","4","4","4","4","4","4","5","6","4","7","1","2","5","4","4","4","4","618772915025870848","谢","203","Male","[""坏我"",""坏他"",""好他"",""好我""]","[""弱我"",""弱他"",""强他"",""强我""]","","","","","","","","0","","","","","","","","","SRET","SRET_math_calculate","","key","0","8.359190031152611","853.3333333333334","529.3333333333334","","","","","22-22= ?","0","1","","","","","","","",""
"2332","","5","psychophysics","108","306468","0.0-7.0-5.0-0.5","4","4","4","3","5","4","2","3","4","4","4","0","1","1","1","-1","-1","0","0","3","4","2","3","3","3","3","3","3","3","6","6","5","6","6","5","5","5","6","4","2","6","2","4","2","4","2","4","2","1","3","3","5","4","1","3","4","4","4","4","3","4","4","4","4","4","4","4","4","5","6","4","7","1","2","5","4","4","4","4","618772915025870848","谢","203","Male","[""坏我"",""坏他"",""好他"",""好我""]","[""弱我"",""弱他"",""强他"",""强我""]","","","","","","","","5","","","","","","","","","SRET","SRET_math_calculate","","key","5","8.363345195729663","853.3333333333334","529.3333333333334","","","","","3+2= ?","5","1","","","","","","","",""
"2723","","7","psychophysics","109","309194","0.0-7.0-5.0-0.6","4","4","4","3","5","4","2","3","4","4","4","0","1","1","1","-1","-1","0","0","3","4","2","3","3","3","3","3","3","3","6","6","5","6","6","5","5","5","6","4","2","6","2","4","2","4","2","4","2","1","3","3","5","4","1","3","4","4","4","4","3","4","4","4","4","4","4","4","4","5","6","4","7","1","2","5","4","4","4","4","618772915025870848","谢","203","Male","[""坏我"",""坏他"",""好他"",""好我""]","[""弱我"",""弱他"",""强他"",""强我""]","","","","","","","","7","","","","","","","","","SRET","SRET_math_calculate","","key","7","8.359692307692379","853.3333333333334","529.3333333333334","","","","","13-6= ?","7","1","","","","","","","",""
"2501","","0","psychophysics","110","311720","0.0-7.0-5.0-0.7","4","4","4","3","5","4","2","3","4","4","4","0","1","1","1","-1","-1","0","0","3","4","2","3","3","3","3","3","3","3","6","6","5","6","6","5","5","5","6","4","2","6","2","4","2","4","2","4","2","1","3","3","5","4","1","3","4","4","4","4","3","4","4","4","4","4","4","4","4","5","6","4","7","1","2","5","4","4","4","4","618772915025870848","谢","203","Male","[""坏我"",""坏他"",""好他"",""好我""]","[""弱我"",""弱他"",""强他"",""强我""]","","","","","","","","0","","","","","","","","","SRET","SRET_math_calculate","","key","0","8.361461794019895","853.3333333333334","529.3333333333334","","","","","7*0= ?","0","1","","","","","","","",""
"3715","","8","psychophysics","111","315463","0.0-7.0-5.0-0.8","4","4","4","3","5","4","2","3","4","4","4","0","1","1","1","-1","-1","0","0","3","4","2","3","3","3","3","3","3","3","6","6","5","6","6","5","5","5","6","4","2","6","2","4","2","4","2","4","2","1","3","3","5","4","1","3","4","4","4","4","3","4","4","4","4","4","4","4","4","5","6","4","7","1","2","5","4","4","4","4","618772915025870848","谢","203","Male","[""坏我"",""坏他"",""好他"",""好我""]","[""弱我"",""弱他"",""强他"",""强我""]","","","","","","","","8","","","","","","","","","SRET","SRET_math_calculate","","key","8","8.371076233183857","853.3333333333334","529.3333333333334","","","","","56/7= ?","8","1","","","","","","","",""
"2573","","3","psychophysics","112","318061","0.0-7.0-5.0-0.9","4","4","4","3","5","4","2","3","4","4","4","0","1","1","1","-1","-1","0","0","3","4","2","3","3","3","3","3","3","3","6","6","5","6","6","5","5","5","6","4","2","6","2","4","2","4","2","4","2","1","3","3","5","4","1","3","4","4","4","4","3","4","4","4","4","4","4","4","4","5","6","4","7","1","2","5","4","4","4","4","618772915025870848","谢","203","Male","[""坏我"",""坏他"",""好他"",""好我""]","[""弱我"",""弱他"",""强他"",""强我""]","","","","","","","","3","","","","","","","","","SRET","SRET_math_calculate","","key","3","8.3603225806452","853.3333333333334","529.3333333333334","","","","","8-5= ?","3","1","","","","","","","",""
"2405","","3","psychophysics","113","320493","0.0-7.0-5.0-0.10","4","4","4","3","5","4","2","3","4","4","4","0","1","1","1","-1","-1","0","0","3","4","2","3","3","3","3","3","3","3","6","6","5","6","6","5","5","5","6","4","2","6","2","4","2","4","2","4","2","1","3","3","5","4","1","3","4","4","4","4","3","4","4","4","4","4","4","4","4","5","6","4","7","1","2","5","4","4","4","4","618772915025870848","谢","203","Male","[""坏我"",""坏他"",""好他"",""好我""]","[""弱我"",""弱他"",""强他"",""强我""]","","","","","","","","3","","","","","","","","","SRET","SRET_math_calculate","","key","3","8.36344827586215","853.3333333333334","529.3333333333334","","","","","3+0= ?","3","1","","","","","","","",""
"2324","","4","psychophysics","114","322821","0.0-7.0-5.0-0.11","4","4","4","3","5","4","2","3","4","4","4","0","1","1","1","-1","-1","0","0","3","4","2","3","3","3","3","3","3","3","6","6","5","6","6","5","5","5","6","4","2","6","2","4","2","4","2","4","2","1","3","3","5","4","1","3","4","4","4","4","3","4","4","4","4","4","4","4","4","5","6","4","7","1","2","5","4","4","4","4","618772915025870848","谢","203","Male","[""坏我"",""坏他"",""好他"",""好我""]","[""弱我"",""弱他"",""强他"",""强我""]","","","","","","","","4","","","","","","","","","SRET","SRET_math_calculate","","key","4","8.363176895306776","853.3333333333334","529.3333333333334","","","","","4*1= ?","4","1","","","","","","","",""
"3020","","9","psychophysics","115","325863","0.0-7.0-5.0-0.12","4","4","4","3","5","4","2","3","4","4","4","0","1","1","1","-1","-1","0","0","3","4","2","3","3","3","3","3","3","3","6","6","5","6","6","5","5","5","6","4","2","6","2","4","2","4","2","4","2","1","3","3","5","4","1","3","4","4","4","4","3","4","4","4","4","4","4","4","4","5","6","4","7","1","2","5","4","4","4","4","618772915025870848","谢","203","Male","[""坏我"",""坏他"",""好他"",""好我""]","[""弱我"",""弱他"",""强他"",""强我""]","","","","","","","","9","","","","","","","","","SRET","SRET_math_calculate","","key","9","8.357024793388366","853.3333333333334","529.3333333333334","","","","","43-34= ?","9","1","","","","","","","",""
"2416","","2","psychophysics","116","328304","0.0-7.0-5.0-0.13","4","4","4","3","5","4","2","3","4","4","4","0","1","1","1","-1","-1","0","0","3","4","2","3","3","3","3","3","3","3","6","6","5","6","6","5","5","5","6","4","2","6","2","4","2","4","2","4","2","1","3","3","5","4","1","3","4","4","4","4","3","4","4","4","4","4","4","4","4","5","6","4","7","1","2","5","4","4","4","4","618772915025870848","谢","203","Male","[""坏我"",""坏他"",""好他"",""好我""]","[""弱我"",""弱他"",""强他"",""强我""]","","","","","","","","2","","","","","","","","","SRET","SRET_math_calculate","","key","2","8.362886597938065","853.3333333333334","529.3333333333334","","","","","90/45= ?","2","1","","","","","","","",""
"2431","","8","psychophysics","117","330761","0.0-7.0-5.0-0.14","4","4","4","3","5","4","2","3","4","4","4","0","1","1","1","-1","-1","0","0","3","4","2","3","3","3","3","3","3","3","6","6","5","6","6","5","5","5","6","4","2","6","2","4","2","4","2","4","2","1","3","3","5","4","1","3","4","4","4","4","3","4","4","4","4","4","4","4","4","5","6","4","7","1","2","5","4","4","4","4","618772915025870848","谢","203","Male","[""坏我"",""坏他"",""好他"",""好我""]","[""弱我"",""弱他"",""强他"",""强我""]","","","","","","","","8","","","","","","","","","SRET","SRET_math_calculate","","key","8","8.390753424657454","853.3333333333334","529.3333333333334","","","","","81/9= ?","9","0","","","","","","","",""
"2352","","0","psychophysics","118","333135","0.0-7.0-5.0-0.15","4","4","4","3","5","4","2","3","4","4","4","0","1","1","1","-1","-1","0","0","3","4","2","3","3","3","3","3","3","3","6","6","5","6","6","5","5","5","6","4","2","6","2","4","2","4","2","4","2","1","3","3","5","4","1","3","4","4","4","4","3","4","4","4","4","4","4","4","4","5","6","4","7","1","2","5","4","4","4","4","618772915025870848","谢","203","Male","[""坏我"",""坏他"",""好他"",""好我""]","[""弱我"",""弱他"",""强他"",""强我""]","","","","","","","","0","","","","","","","","","SRET","SRET_math_calculate","","key","0","8.363957597173146","853.3333333333334","529.3333333333334","","","","","32-32= ?","0","1","","","","","","","",""
"2092","","2","psychophysics","119","335230","0.0-7.0-5.0-0.16","4","4","4","3","5","4","2","3","4","4","4","0","1","1","1","-1","-1","0","0","3","4","2","3","3","3","3","3","3","3","6","6","5","6","6","5","5","5","6","4","2","6","2","4","2","4","2","4","2","1","3","3","5","4","1","3","4","4","4","4","3","4","4","4","4","4","4","4","4","5","6","4","7","1","2","5","4","4","4","4","618772915025870848","谢","203","Male","[""坏我"",""坏他"",""好他"",""好我""]","[""弱我"",""弱他"",""强他"",""强我""]","","","","","","","","2","","","","","","","","","SRET","SRET_math_calculate","","key","2","8.367068273092462","853.3333333333334","529.3333333333334","","","","","1+1= ?","2","1","","","","","","","",""
"1859","","7","psychophysics","120","337111","0.0-7.0-5.0-0.17","4","4","4","3","5","4","2","3","4","4","4","0","1","1","1","-1","-1","0","0","3","4","2","3","3","3","3","3","3","3","6","6","5","6","6","5","5","5","6","4","2","6","2","4","2","4","2","4","2","1","3","3","5","4","1","3","4","4","4","4","3","4","4","4","4","4","4","4","4","5","6","4","7","1","2","5","4","4","4","4","618772915025870848","谢","203","Male","[""坏我"",""坏他"",""好他"",""好我""]","[""弱我"",""弱他"",""强他"",""强我""]","","","","","","","","7","","","","","","","","","SRET","SRET_math_calculate","","key","7","8.371428571428623","853.3333333333334","529.3333333333334","","","","","9-2= ?","7","1","","","","","","","",""
"2077","","1","psychophysics","121","339213","0.0-7.0-5.0-0.18","4","4","4","3","5","4","2","3","4","4","4","0","1","1","1","-1","-1","0","0","3","4","2","3","3","3","3","3","3","3","6","6","5","6","6","5","5","5","6","4","2","6","2","4","2","4","2","4","2","1","3","3","5","4","1","3","4","4","4","4","3","4","4","4","4","4","4","4","4","5","6","4","7","1","2","5","4","4","4","4","618772915025870848","谢","203","Male","[""坏我"",""坏他"",""好他"",""好我""]","[""弱我"",""弱他"",""强他"",""强我""]","","","","","","","","1","","","","","","","","","SRET","SRET_math_calculate","","key","1","8.367600000000094","853.3333333333334","529.3333333333334","","","","","4/4= ?","1","1","","","","","","","",""
"2139","","5","psychophysics","122","341379","0.0-7.0-5.0-0.19","4","4","4","3","5","4","2","3","4","4","4","0","1","1","1","-1","-1","0","0","3","4","2","3","3","3","3","3","3","3","6","6","5","6","6","5","5","5","6","4","2","6","2","4","2","4","2","4","2","1","3","3","5","4","1","3","4","4","4","4","3","4","4","4","4","4","4","4","4","5","6","4","7","1","2","5","4","4","4","4","618772915025870848","谢","203","Male","[""坏我"",""坏他"",""好他"",""好我""]","[""弱我"",""弱他"",""强他"",""强我""]","","","","","","","","5","","","","","","","","","SRET","SRET_math_calculate","","key","5","8.398443579766628","853.3333333333334","529.3333333333334","","","","","2+3= ?","5","1","","","","","","","",""
"2041","","1","psychophysics","123","343444","0.0-7.0-5.0-0.20","4","4","4","3","5","4","2","3","4","4","4","0","1","1","1","-1","-1","0","0","3","4","2","3","3","3","3","3","3","3","6","6","5","6","6","5","5","5","6","4","2","6","2","4","2","4","2","4","2","1","3","3","5","4","1","3","4","4","4","4","3","4","4","4","4","4","4","4","4","5","6","4","7","1","2","5","4","4","4","4","618772915025870848","谢","203","Male","[""坏我"",""坏他"",""好他"",""好我""]","[""弱我"",""弱他"",""强他"",""强我""]","","","","","","","","1","","","","","","","","","SRET","SRET_math_calculate","","key","1","8.367886178861788","853.3333333333334","529.3333333333334","","","","","12/12= ?","1","1","","","","","","","",""
"2115","","6","psychophysics","124","345584","0.0-7.0-5.0-0.21","4","4","4","3","5","4","2","3","4","4","4","0","1","1","1","-1","-1","0","0","3","4","2","3","3","3","3","3","3","3","6","6","5","6","6","5","5","5","6","4","2","6","2","4","2","4","2","4","2","1","3","3","5","4","1","3","4","4","4","4","3","4","4","4","4","4","4","4","4","5","6","4","7","1","2","5","4","4","4","4","618772915025870848","谢","203","Male","[""坏我"",""坏他"",""好他"",""好我""]","[""弱我"",""弱他"",""强他"",""强我""]","","","","","","","","6","","","","","","","","","SRET","SRET_math_calculate","","key","6","8.367450980391974","853.3333333333334","529.3333333333334","","","","","2+4= ?","6","1","","","","","","","",""
"1945","","7","psychophysics","125","347554","0.0-7.0-5.0-0.22","4","4","4","3","5","4","2","3","4","4","4","0","1","1","1","-1","-1","0","0","3","4","2","3","3","3","3","3","3","3","6","6","5","6","6","5","5","5","6","4","2","6","2","4","2","4","2","4","2","1","3","3","5","4","1","3","4","4","4","4","3","4","4","4","4","4","4","4","4","5","6","4","7","1","2","5","4","4","4","4","618772915025870848","谢","203","Male","[""坏我"",""坏他"",""好他"",""好我""]","[""弱我"",""弱他"",""强他"",""强我""]","","","","","","","","7","","","","","","","","","SRET","SRET_math_calculate","","key","7","8.370085470085371","853.3333333333334","529.3333333333334","","","","","2+5= ?","7","1","","","","","","","",""
"2025","","4","psychophysics","126","349603","0.0-7.0-5.0-0.23","4","4","4","3","5","4","2","3","4","4","4","0","1","1","1","-1","-1","0","0","3","4","2","3","3","3","3","3","3","3","6","6","5","6","6","5","5","5","6","4","2","6","2","4","2","4","2","4","2","1","3","3","5","4","1","3","4","4","4","4","3","4","4","4","4","4","4","4","4","5","6","4","7","1","2","5","4","4","4","4","618772915025870848","谢","203","Male","[""坏我"",""坏他"",""好他"",""好我""]","[""弱我"",""弱他"",""强他"",""强我""]","","","","","","","","4","","","","","","","","","SRET","SRET_math_calculate","","key","4","8.368032786885436","853.3333333333334","529.3333333333334","","","","","3+1= ?","4","1","","","","","","","",""
"2238","","6","psychophysics","127","351867","0.0-7.0-5.0-0.24","4","4","4","3","5","4","2","3","4","4","4","0","1","1","1","-1","-1","0","0","3","4","2","3","3","3","3","3","3","3","6","6","5","6","6","5","5","5","6","4","2","6","2","4","2","4","2","4","2","1","3","3","5","4","1","3","4","4","4","4","3","4","4","4","4","4","4","4","4","5","6","4","7","1","2","5","4","4","4","4","618772915025870848","谢","203","Male","[""坏我"",""坏他"",""好他"",""好我""]","[""弱我"",""弱他"",""强他"",""强我""]","","","","","","","","6","","","","","","","","","SRET","SRET_math_calculate","","key","6","8.364074074074031","853.3333333333334","529.3333333333334","","","","","2*3= ?","6","1","","","","","","","",""
"1924","","7","psychophysics","128","353819","0.0-7.0-5.0-0.25","4","4","4","3","5","4","2","3","4","4","4","0","1","1","1","-1","-1","0","0","3","4","2","3","3","3","3","3","3","3","6","6","5","6","6","5","5","5","6","4","2","6","2","4","2","4","2","4","2","1","3","3","5","4","1","3","4","4","4","4","3","4","4","4","4","4","4","4","4","5","6","4","7","1","2","5","4","4","4","4","618772915025870848","谢","203","Male","[""坏我"",""坏他"",""好他"",""好我""]","[""弱我"",""弱他"",""强他"",""强我""]","","","","","","","","7","","","","","","","","","SRET","SRET_math_calculate","","key","7","8.370258620689755","853.3333333333334","529.3333333333334","","","","","3+4= ?","7","1","","","","","","","",""
"3571","","8","psychophysics","129","357417","0.0-7.0-5.0-0.26","4","4","4","3","5","4","2","3","4","4","4","0","1","1","1","-1","-1","0","0","3","4","2","3","3","3","3","3","3","3","6","6","5","6","6","5","5","5","6","4","2","6","2","4","2","4","2","4","2","1","3","3","5","4","1","3","4","4","4","4","3","4","4","4","4","4","4","4","4","5","6","4","7","1","2","5","4","4","4","4","618772915025870848","谢","203","Male","[""坏我"",""坏他"",""好他"",""好我""]","[""弱我"",""弱他"",""强他"",""强我""]","","","","","","","","8","","","","","","","","","SRET","SRET_math_calculate","","key","8","8.353488372093024","853.3333333333334","529.3333333333334","","","","","11-3= ?","8","1","","","","","","","",""
"2332","","9","psychophysics","130","359752","0.0-7.0-5.0-0.27","4","4","4","3","5","4","2","3","4","4","4","0","1","1","1","-1","-1","0","0","3","4","2","3","3","3","3","3","3","3","6","6","5","6","6","5","5","5","6","4","2","6","2","4","2","4","2","4","2","1","3","3","5","4","1","3","4","4","4","4","3","4","4","4","4","4","4","4","4","5","6","4","7","1","2","5","4","4","4","4","618772915025870848","谢","203","Male","[""坏我"",""坏他"",""好他"",""好我""]","[""弱我"",""弱他"",""强他"",""强我""]","","","","","","","","9","","","","","","","","","SRET","SRET_math_calculate","","key","9","8.363669064748118","853.3333333333334","529.3333333333334","","","","","6+3= ?","9","1","","","","","","","",""
"2092","","6","psychophysics","131","361847","0.0-7.0-5.0-0.28","4","4","4","3","5","4","2","3","4","4","4","0","1","1","1","-1","-1","0","0","3","4","2","3","3","3","3","3","3","3","6","6","5","6","6","5","5","5","6","4","2","6","2","4","2","4","2","4","2","1","3","3","5","4","1","3","4","4","4","4","3","4","4","4","4","4","4","4","4","5","6","4","7","1","2","5","4","4","4","4","618772915025870848","谢","203","Male","[""坏我"",""坏他"",""好他"",""好我""]","[""弱我"",""弱他"",""强他"",""强我""]","","","","","","","","6","","","","","","","","","SRET","SRET_math_calculate","","key","6","8.36706827309223","853.3333333333334","529.3333333333334","","","","","9-3= ?","6","1","","","","","","","",""
"2323","","3","psychophysics","132","364194","0.0-7.0-5.0-0.29","4","4","4","3","5","4","2","3","4","4","4","0","1","1","1","-1","-1","0","0","3","4","2","3","3","3","3","3","3","3","6","6","5","6","6","5","5","5","6","4","2","6","2","4","2","4","2","4","2","1","3","3","5","4","1","3","4","4","4","4","3","4","4","4","4","4","4","4","4","5","6","4","7","1","2","5","4","4","4","4","618772915025870848","谢","203","Male","[""坏我"",""坏他"",""好他"",""好我""]","[""弱我"",""弱他"",""强他"",""强我""]","","","","","","","","3","","","","","","","","","SRET","SRET_math_calculate","","key","3","8.36285714285706","853.3333333333334","529.3333333333334","","","","","21/7=  ?","3","1","","","","","","","",""
"1979","","2","psychophysics","133","366200","0.0-7.0-5.0-0.30","4","4","4","3","5","4","2","3","4","4","4","0","1","1","1","-1","-1","0","0","3","4","2","3","3","3","3","3","3","3","6","6","5","6","6","5","5","5","6","4","2","6","2","4","2","4","2","4","2","1","3","3","5","4","1","3","4","4","4","4","3","4","4","4","4","4","4","4","4","5","6","4","7","1","2","5","4","4","4","4","618772915025870848","谢","203","Male","[""坏我"",""坏他"",""好他"",""好我""]","[""弱我"",""弱他"",""强他"",""强我""]","","","","","","","","2","","","","","","","","","SRET","SRET_math_calculate","","key","2","8.368619246861828","853.3333333333334","529.3333333333334","","","","","9-7= ?","2","1","","","","","","","",""
"2207","","8","psychophysics","134","368434","0.0-7.0-5.0-0.31","4","4","4","3","5","4","2","3","4","4","4","0","1","1","1","-1","-1","0","0","3","4","2","3","3","3","3","3","3","3","6","6","5","6","6","5","5","5","6","4","2","6","2","4","2","4","2","4","2","1","3","3","5","4","1","3","4","4","4","4","3","4","4","4","4","4","4","4","4","5","6","4","7","1","2","5","4","4","4","4","618772915025870848","谢","203","Male","[""坏我"",""坏他"",""好他"",""好我""]","[""弱我"",""弱他"",""强他"",""强我""]","","","","","","","","8","","","","","","","","","SRET","SRET_math_calculate","","key","8","8.365037593984875","853.3333333333334","529.3333333333334","","","","","2+6= ?","8","1","","","","","","","",""
"1947","","1","psychophysics","135","370384","0.0-7.0-5.0-0.32","4","4","4","3","5","4","2","3","4","4","4","0","1","1","1","-1","-1","0","0","3","4","2","3","3","3","3","3","3","3","6","6","5","6","6","5","5","5","6","4","2","6","2","4","2","4","2","4","2","1","3","3","5","4","1","3","4","4","4","4","3","4","4","4","4","4","4","4","4","5","6","4","7","1","2","5","4","4","4","4","618772915025870848","谢","203","Male","[""坏我"",""坏他"",""好他"",""好我""]","[""弱我"",""弱他"",""强他"",""强我""]","","","","","","","","1","","","","","","","","","SRET","SRET_math_calculate","","key","1","8.370689655172415","853.3333333333334","529.3333333333334","","","","","9-8= ?","1","1","","","","","","","",""
"1963","","7","psychophysics","136","372351","0.0-7.0-5.0-0.33","4","4","4","3","5","4","2","3","4","4","4","0","1","1","1","-1","-1","0","0","3","4","2","3","3","3","3","3","3","3","6","6","5","6","6","5","5","5","6","4","2","6","2","4","2","4","2","4","2","1","3","3","5","4","1","3","4","4","4","4","3","4","4","4","4","4","4","4","4","5","6","4","7","1","2","5","4","4","4","4","618772915025870848","谢","203","Male","[""坏我"",""坏他"",""好他"",""好我""]","[""弱我"",""弱他"",""强他"",""强我""]","","","","","","","","7","","","","","","","","","SRET","SRET_math_calculate","","key","7","8.36965811965812","853.3333333333334","529.3333333333334","","","","","6+1= ?","7","1","","","","","","","",""
"2576","","5","psychophysics","137","374930","0.0-7.0-5.0-0.34","4","4","4","3","5","4","2","3","4","4","4","0","1","1","1","-1","-1","0","0","3","4","2","3","3","3","3","3","3","3","6","6","5","6","6","5","5","5","6","4","2","6","2","4","2","4","2","4","2","1","3","3","5","4","1","3","4","4","4","4","3","4","4","4","4","4","4","4","4","5","6","4","7","1","2","5","4","4","4","4","618772915025870848","谢","203","Male","[""坏我"",""坏他"",""好他"",""好我""]","[""弱我"",""弱他"",""强他"",""强我""]","","","","","","","","5","","","","","","","","","SRET","SRET_math_calculate","","key","5","8.388235294117608","853.3333333333334","529.3333333333334","","","","","15-10= ?","5","1","","","","","","","",""
