"rt","stimulus","response","trial_type","trial_index","time_elapsed","internal_node_id","swb_1","swb_2","swb_3","swb_4","swb_5","LOT_1","LOT_2","LOT_3","LOT_4","LOT_5","LOT_6","IPC_1","IPC_2","IPC_3","IPC_4","IPC_5","IPC_6","IPC_7","IPC_8","MorIden_1","MorIden_2","MorIden_3","MorIden_4","MorIden_5","MorIden_6","MorIden_7","MorIden_8","MorIden_9","MorIden_10","moralSeImag_1","moralSeImag_2","moralSeImag_3","moralSeImag_4","moralSeImag_5","moralSeImag_6","moralSeImag_7","moralSeImag_8","moralSeImag_9","sde_1","sde_2","sde_3","sde_4","sde_5","sde_6","sde_7","sde_8","sde_9","sde_10","trap2","sde_11","sde_12","sde_13","sde_14","sde_15","sde_16","sde_17","sde_18","sde_19","sde_20","IM_1","IM_2","IM_3","IM_4","IM_5","IM_6","IM_7","IM_8","IM_9","IM_10","IM_11","IM_12","IM_13","IM_14","IM_15","IM_16","IM_17","IM_18","IM_19","IM_20","subj_idx","friend_name","ParticipantID","Sex","Word","Word2","value","success","timeout","failed_images","failed_audio","failed_video","user_agent","responses","item_order","radio_event_ids","radio_event_times","key_event_times","mouse_event_times","straightlining","zigzagging","honeypot","task_id","screen_id","time_stamp","response_type","key_press","avg_frame_time","center_x","center_y","person","word","valence","domain","math","correct_response","correct","status","view_history","identity","duration","Image","condition","question_order","trap2_item"
"7275","
   <p><div style='color:white; font-size: 25px'>您好，欢迎参加本次实验。</div></p>
   <p><div style='color:white; font-size: 25px'>为充分保障您的权利，请确保您已经知晓并同意《参与实验同意书》以及《数据公开知情同意书》。</div></p>
   <p><div style='color:white; font-size: 25px'>如果您未见过上述内容，请咨询实验员。</div></p>
   <p style='color:white; font-size: 25px'>如果您选择继续实验，则表示您已经清楚两份知情同意书的内容并同意。</p>
   <p><div style = ""color: pink;font-size:30px;"">请确保您记得day0的实验编号，您将在本次实验输入该编号，若您忘记，请咨询实验员后作答。</div></p>
   <p><div style = ""color:lightblue;font-size:25px;"">请您尽可能认真地作答，我们将依据您在各问卷和按键任务中的作答质量发放报酬。</div></p>
   <p> <div style = ""color: green""><按空格键至下页></div> </p>
   "," ","html-keyboard-response","0","7283","0.0-0.0","5","5","5","4","4","5","4","5","5","5","5","2","-3","2","2","2","2","2","2","5","5","5","5","5","5","5","5","5","5","5","5","6","5","5","8","6","8","8","7","7","3","7","7","7","7","3","7","6","1","5","7","6","7","7","7","7","7","6","7","6","7","4","2","3","5","7","7","7","7","7","7","3","7","6","7","7","7","7","7","786709021557137410","王","336","Male","[""好我"",""坏我"",""好他"",""坏他""]","[""强我"",""弱我"",""强他"",""弱他""]","","","","","","","","","","","","","","","","","","","","","","","","","","","","","","","","","","","","","","",""
"","","","call-function","1","7289","0.0-1.0-0.0","5","5","5","4","4","5","4","5","5","5","5","2","-3","2","2","2","2","2","2","5","5","5","5","5","5","5","5","5","5","5","5","6","5","5","8","6","8","8","7","7","3","7","7","7","7","3","7","6","1","5","7","6","7","7","7","7","7","6","7","6","7","4","2","3","5","7","7","7","7","7","7","3","7","6","7","7","7","7","7","786709021557137410","王","336","Male","[""好我"",""坏我"",""好他"",""坏他""]","[""强我"",""弱我"",""强他"",""弱他""]","","","","","","","","","","","","","","","","","","","","","","","","","","","","","","","","","","","","","","",""
"25844","","[{""name"":""Sex"",""value"":""0""},{""name"":""friend_name"",""value"":""王""},{""name"":""ParticipantID"",""value"":""336""}]","survey-html-form","2","33136","0.0-1.0-1.0","5","5","5","4","4","5","4","5","5","5","5","2","-3","2","2","2","2","2","2","5","5","5","5","5","5","5","5","5","5","5","5","6","5","5","8","6","8","8","7","7","3","7","7","7","7","3","7","6","1","5","7","6","7","7","7","7","7","6","7","6","7","4","2","3","5","7","7","7","7","7","7","3","7","6","7","7","7","7","7","786709021557137410","王","336","Male","[""好我"",""坏我"",""好他"",""坏他""]","[""强我"",""弱我"",""强他"",""弱他""]","","","","","","","","","","","","","","","","","","","","","","","","","","","","","","","","","","","","","","",""
"","","","preload","3","33684","0.0-2.0","5","5","5","4","4","5","4","5","5","5","5","2","-3","2","2","2","2","2","2","5","5","5","5","5","5","5","5","5","5","5","5","6","5","5","8","6","8","8","7","7","3","7","7","7","7","3","7","6","1","5","7","6","7","7","7","7","7","6","7","6","7","4","2","3","5","7","7","7","7","7","7","3","7","6","7","7","7","7","7","786709021557137410","王","336","Male","[""好我"",""坏我"",""好他"",""坏他""]","[""强我"",""弱我"",""强他"",""弱他""]","","true","false","[]","[]","[]","","","","","","","","","","","","","","","","","","","","","","","","","","","","","","","","",""
"","","","fullscreen","4","43706","0.0-3.0","5","5","5","4","4","5","4","5","5","5","5","2","-3","2","2","2","2","2","2","5","5","5","5","5","5","5","5","5","5","5","5","6","5","5","8","6","8","8","7","7","3","7","7","7","7","3","7","6","1","5","7","6","7","7","7","7","7","6","7","6","7","4","2","3","5","7","7","7","7","7","7","3","7","6","7","7","7","7","7","786709021557137410","王","336","Male","[""好我"",""坏我"",""好他"",""坏他""]","[""强我"",""弱我"",""强他"",""弱他""]","","true","","","","","{}","","","","","","","","","","","","","","","","","","","","","","","","","","","","","","","",""
"23216.09999999404","","{""Q01"":""5"",""Q02"":""5"",""Q03"":""5"",""Q04"":""4"",""Q05"":""4""}","survey-template","5","66937","0.0-4.0","5","5","5","4","4","5","4","5","5","5","5","2","-3","2","2","2","2","2","2","5","5","5","5","5","5","5","5","5","5","5","5","6","5","5","8","6","8","8","7","7","3","7","7","7","7","3","7","6","1","5","7","6","7","7","7","7","7","6","7","6","7","4","2","3","5","7","7","7","7","7","7","3","7","6","7","7","7","7","7","786709021557137410","王","336","Male","[""好我"",""坏我"",""好他"",""坏他""]","[""强我"",""弱我"",""强他"",""弱他""]","","","","","","","","{""Q01"":""5"",""Q02"":""5"",""Q03"":""5"",""Q04"":""4"",""Q05"":""4""}","[0,1,2,3,4]","[""Q01"",""Q02"",""Q02"",""Q03"",""Q04"",""Q05""]","[3615.199999988079,5222.5999999940395,7538.9000000059605,8275.299999982119,11195,12579.5]","[]","[3615.199999988079,5222.5999999940395,7538.9000000059605,8275.299999982119,11195,12579.5,23210.79999998212]","0.6","0.25","0","","","","","","","","","","","","","","","","","","","","","","",""
"63076.19999998808","","{""Q01"":""5"",""Q02"":""4"",""Q03"":""5"",""Q04"":""5"",""Q05"":""5"",""Q06"":""5""}","survey-template","6","130033","0.0-5.0","5","5","5","4","4","5","4","5","5","5","5","2","-3","2","2","2","2","2","2","5","5","5","5","5","5","5","5","5","5","5","5","6","5","5","8","6","8","8","7","7","3","7","7","7","7","3","7","6","1","5","7","6","7","7","7","7","7","6","7","6","7","4","2","3","5","7","7","7","7","7","7","3","7","6","7","7","7","7","7","786709021557137410","王","336","Male","[""好我"",""坏我"",""好他"",""坏他""]","[""强我"",""弱我"",""强他"",""弱他""]","","","","","","","","{""Q01"":""5"",""Q02"":""4"",""Q03"":""5"",""Q04"":""5"",""Q05"":""5"",""Q06"":""5""}","[0,1,2,3,4,5]","[""Q01"",""Q02"",""Q03"",""Q04"",""Q05"",""Q06""]","[7284.399999976158,35520.19999998808,39279.69999998808,51687.89999997616,53771.79999998212,56224.09999999404]","[]","[7284.399999976158,35520.19999998808,39279.69999998808,51687.89999997616,53771.79999998212,56224.09999999404,63072.19999998808]","0.5","0.4","0","","","","","","","","","","","","","","","","","","","","","","",""
"30159.40000000596","","{""Q01"":""2"",""Q02"":""-3"",""Q03"":""2"",""Q04"":""2"",""Q05"":""2"",""Q06"":""2"",""Q07"":""2"",""Q08"":""2""}","survey-template","7","160209","0.0-6.0","5","5","5","4","4","5","4","5","5","5","5","2","-3","2","2","2","2","2","2","5","5","5","5","5","5","5","5","5","5","5","5","6","5","5","8","6","8","8","7","7","3","7","7","7","7","3","7","6","1","5","7","6","7","7","7","7","7","6","7","6","7","4","2","3","5","7","7","7","7","7","7","3","7","6","7","7","7","7","7","786709021557137410","王","336","Male","[""好我"",""坏我"",""好他"",""坏他""]","[""强我"",""弱我"",""强他"",""弱他""]","","","","","","","","{""Q01"":""2"",""Q02"":""-3"",""Q03"":""2"",""Q04"":""2"",""Q05"":""2"",""Q06"":""2"",""Q07"":""2"",""Q08"":""2""}","[0,1,2,3,4,5,6,7]","[""Q01"",""Q03"",""Q02"",""Q04"",""Q05"",""Q06"",""Q07"",""Q08""]","[3327.2999999821186,8439.59999999404,10359.299999982119,15435.699999988079,17695.5,18431.40000000596,20851.29999998212,22252.59999999404]","[]","[3327.2999999821186,5923.5999999940395,8439.59999999404,10359.299999982119,15435.699999988079,16459.40000000596,17695.5,18431.40000000596,20851.29999998212,22252.59999999404,30151.5]","0.875","0.2857142857142857","0","","","","","","","","","","","","","","","","","","","","","","",""
"13089","
    <p><div style='color:white;font-size:35px; line-height:20px;'>词汇评估任务</div></p><br>
    <p><div style='color:white;font-size:25px; line-height:20px;'>请再次回忆该亲密的朋友，你们至少2年前就认识了，并且最近2年经常见面。</div></p>
    <p><div style='color:white;font-size:25px; line-height:20px;'>在本实验中，您将会看到一些形容词。</div></p>
    <p><div style='color:yellow;font-size:25px; line-height:20px;'>您的任务是判断这些形容词是否符合对您自己或您的朋友的描述。</div></p><p style='font-size:35px'>符合按<span style=""color:lightgreen""> f 键</span>，不符合按<span style=""color:red""> j 键</span></p>","0","html-button-response","8","173311","0.0-7.0-0.0","5","5","5","4","4","5","4","5","5","5","5","2","-3","2","2","2","2","2","2","5","5","5","5","5","5","5","5","5","5","5","5","6","5","5","8","6","8","8","7","7","3","7","7","7","7","3","7","6","1","5","7","6","7","7","7","7","7","6","7","6","7","4","2","3","5","7","7","7","7","7","7","3","7","6","7","7","7","7","7","786709021557137410","王","336","Male","[""好我"",""坏我"",""好他"",""坏他""]","[""强我"",""弱我"",""强他"",""弱他""]","","","","","","","","","","","","","","","","","SRET_EW","EW_instructions","Tue Dec 26 2023 21:16:30 GMT+0800 (中国标准时间)","","","","","","","","","","","","","","","","","","","",""
"1952","","j","psychophysics","9","176292","0.0-7.0-1.0-0.0","5","5","5","4","4","5","4","5","5","5","5","2","-3","2","2","2","2","2","2","5","5","5","5","5","5","5","5","5","5","5","5","6","5","5","8","6","8","8","7","7","3","7","7","7","7","3","7","6","1","5","7","6","7","7","7","7","7","6","7","6","7","4","2","3","5","7","7","7","7","7","7","3","7","6","7","7","7","7","7","786709021557137410","王","336","Male","[""好我"",""坏我"",""好他"",""坏他""]","[""强我"",""弱我"",""强他"",""弱他""]","","","","","","","","no","","","","","","","","","SRET_EW","EW_practice","","key","j","17.041782857142888","683","380","自己","刻板","Negative","ability","","","","","","","","","","",""
"821","","j","psychophysics","10","178117","0.0-7.0-1.0-0.1","5","5","5","4","4","5","4","5","5","5","5","2","-3","2","2","2","2","2","2","5","5","5","5","5","5","5","5","5","5","5","5","6","5","5","8","6","8","8","7","7","3","7","7","7","7","3","7","6","1","5","7","6","7","7","7","7","7","6","7","6","7","4","2","3","5","7","7","7","7","7","7","3","7","6","7","7","7","7","7","786709021557137410","王","336","Male","[""好我"",""坏我"",""好他"",""坏他""]","[""强我"",""弱我"",""强他"",""弱他""]","","","","","","","","no","","","","","","","","","SRET_EW","EW_practice","","key","j","16.662425925925803","683","380","自己","严谨","Positive","ability","","","","","","","","","","",""
"1749","","j","psychophysics","11","180872","0.0-7.0-1.0-0.2","5","5","5","4","4","5","4","5","5","5","5","2","-3","2","2","2","2","2","2","5","5","5","5","5","5","5","5","5","5","5","5","6","5","5","8","6","8","8","7","7","3","7","7","7","7","3","7","6","1","5","7","6","7","7","7","7","7","6","7","6","7","4","2","3","5","7","7","7","7","7","7","3","7","6","7","7","7","7","7","786709021557137410","王","336","Male","[""好我"",""坏我"",""好他"",""坏他""]","[""强我"",""弱我"",""强他"",""弱他""]","","","","","","","","no","","","","","","","","","SRET_EW","EW_practice","","key","j","16.866889570552235","683","380","朋友","徇私","Negative","morality","","","","","","","","","","",""
"1737","","f","psychophysics","12","183612","0.0-7.0-1.0-0.3","5","5","5","4","4","5","4","5","5","5","5","2","-3","2","2","2","2","2","2","5","5","5","5","5","5","5","5","5","5","5","5","6","5","5","8","6","8","8","7","7","3","7","7","7","7","3","7","6","1","5","7","6","7","7","7","7","7","6","7","6","7","4","2","3","5","7","7","7","7","7","7","3","7","6","7","7","7","7","7","786709021557137410","王","336","Male","[""好我"",""坏我"",""好他"",""坏他""]","[""强我"",""弱我"",""强他"",""弱他""]","","","","","","","","yes","","","","","","","","","SRET_EW","EW_practice","","key","f","16.66222085889577","683","380","朋友","忠实","Positive","morality","","","","","","","","","","",""
"10311","
    <p><div style='color:white;font-size:35px; line-height:20px;'>请您再次阅读实验要求</div></p><br>
    <p><div style='color:white;font-size:25px; line-height:20px;'>请回忆某一个亲密的朋友，你们至少2年前就认识了，并且最近2年经常见面。</div></p>
    <p><div style='color:white;font-size:25px; line-height:20px;'>在本实验中，您将会看到一些形容词。</div></p>
    <p><div style='color:yellow;font-size:25px; line-height:20px;'>您的任务是判断这些形容词是否符合对您自己或您的朋友的描述。</div></p>
    <p><div class='footer' style='font-size:25px; line-height:20px;'>如果对本实验还有不清楚之处，请立即向实验员咨询。</p><p style='font-size:25px; line-height:20px;'>如果您明白了规则：</p><p style='font-size:22px; line-height:20px;'>请按 继续 进入正式实验</p>
    </div>
    <p style='font-size:35px'>符合按<span style=""color:lightgreen""> f 键</span>，不符合按<span style=""color:red""> j 键</span></p>","0","html-button-response","13","193927","0.0-7.0-2.0","5","5","5","4","4","5","4","5","5","5","5","2","-3","2","2","2","2","2","2","5","5","5","5","5","5","5","5","5","5","5","5","6","5","5","8","6","8","8","7","7","3","7","7","7","7","3","7","6","1","5","7","6","7","7","7","7","7","6","7","6","7","4","2","3","5","7","7","7","7","7","7","3","7","6","7","7","7","7","7","786709021557137410","王","336","Male","[""好我"",""坏我"",""好他"",""坏他""]","[""强我"",""弱我"",""强他"",""弱他""]","","","","","","","","","","","","","","","","","SRET_EW","prac_instructions","Tue Dec 26 2023 21:16:30 GMT+0800 (中国标准时间)","","","","","","","","","","","","","","","","","","","",""
"622","","f","psychophysics","14","195560","0.0-7.0-3.0-0.0","5","5","5","4","4","5","4","5","5","5","5","2","-3","2","2","2","2","2","2","5","5","5","5","5","5","5","5","5","5","5","5","6","5","5","8","6","8","8","7","7","3","7","7","7","7","3","7","6","1","5","7","6","7","7","7","7","7","6","7","6","7","4","2","3","5","7","7","7","7","7","7","3","7","6","7","7","7","7","7","786709021557137410","王","336","Male","[""好我"",""坏我"",""好他"",""坏他""]","[""强我"",""弱我"",""强他"",""弱他""]","","","","","","","","yes","","","","","","","","","SRET","EW_formal","","key","f","17.18764210526317","683","380","朋友","务实","Positive","ability","","","","","","","","","","",""
"1347","","f","psychophysics","15","197919","0.0-7.0-3.0-0.1","5","5","5","4","4","5","4","5","5","5","5","2","-3","2","2","2","2","2","2","5","5","5","5","5","5","5","5","5","5","5","5","6","5","5","8","6","8","8","7","7","3","7","7","7","7","3","7","6","1","5","7","6","7","7","7","7","7","6","7","6","7","4","2","3","5","7","7","7","7","7","7","3","7","6","7","7","7","7","7","786709021557137410","王","336","Male","[""好我"",""坏我"",""好他"",""坏他""]","[""强我"",""弱我"",""强他"",""弱他""]","","","","","","","","yes","","","","","","","","","SRET","EW_formal","","key","f","16.662326241134796","683","380","自己","说谎","Negative","morality","","","","","","","","","","",""
"1243","","f","psychophysics","16","200167","0.0-7.0-3.0-0.2","5","5","5","4","4","5","4","5","5","5","5","2","-3","2","2","2","2","2","2","5","5","5","5","5","5","5","5","5","5","5","5","6","5","5","8","6","8","8","7","7","3","7","7","7","7","3","7","6","1","5","7","6","7","7","7","7","7","6","7","6","7","4","2","3","5","7","7","7","7","7","7","3","7","6","7","7","7","7","7","786709021557137410","王","336","Male","[""好我"",""坏我"",""好他"",""坏他""]","[""强我"",""弱我"",""强他"",""弱他""]","","","","","","","","yes","","","","","","","","","SRET","EW_formal","","key","f","16.787691729323356","683","380","自己","坚贞","Positive","morality","","","","","","","","","","",""
"1126","","j","psychophysics","17","202297","0.0-7.0-3.0-0.3","5","5","5","4","4","5","4","5","5","5","5","2","-3","2","2","2","2","2","2","5","5","5","5","5","5","5","5","5","5","5","5","6","5","5","8","6","8","8","7","7","3","7","7","7","7","3","7","6","1","5","7","6","7","7","7","7","7","6","7","6","7","4","2","3","5","7","7","7","7","7","7","3","7","6","7","7","7","7","7","786709021557137410","王","336","Male","[""好我"",""坏我"",""好他"",""坏他""]","[""强我"",""弱我"",""强他"",""弱他""]","","","","","","","","no","","","","","","","","","SRET","EW_formal","","key","j","16.79439682539692","683","380","朋友","迷糊","Negative","ability","","","","","","","","","","",""
"885","","j","psychophysics","18","204186","0.0-7.0-3.0-0.4","5","5","5","4","4","5","4","5","5","5","5","2","-3","2","2","2","2","2","2","5","5","5","5","5","5","5","5","5","5","5","5","6","5","5","8","6","8","8","7","7","3","7","7","7","7","3","7","6","1","5","7","6","7","7","7","7","7","6","7","6","7","4","2","3","5","7","7","7","7","7","7","3","7","6","7","7","7","7","7","786709021557137410","王","336","Male","[""好我"",""坏我"",""好他"",""坏他""]","[""强我"",""弱我"",""强他"",""弱他""]","","","","","","","","no","","","","","","","","","SRET","EW_formal","","key","j","16.662374999999884","683","380","朋友","奸险","Negative","morality","","","","","","","","","","",""
"826","","j","psychophysics","19","206015","0.0-7.0-3.0-0.5","5","5","5","4","4","5","4","5","5","5","5","2","-3","2","2","2","2","2","2","5","5","5","5","5","5","5","5","5","5","5","5","6","5","5","8","6","8","8","7","7","3","7","7","7","7","3","7","6","1","5","7","6","7","7","7","7","7","6","7","6","7","4","2","3","5","7","7","7","7","7","7","3","7","6","7","7","7","7","7","786709021557137410","王","336","Male","[""好我"",""坏我"",""好他"",""坏他""]","[""强我"",""弱我"",""强他"",""弱他""]","","","","","","","","no","","","","","","","","","SRET","EW_formal","","key","j","16.66290825688058","683","380","朋友","诡诈","Negative","morality","","","","","","","","","","",""
"974","","j","psychophysics","20","207993","0.0-7.0-3.0-0.6","5","5","5","4","4","5","4","5","5","5","5","2","-3","2","2","2","2","2","2","5","5","5","5","5","5","5","5","5","5","5","5","6","5","5","8","6","8","8","7","7","3","7","7","7","7","3","7","6","1","5","7","6","7","7","7","7","7","6","7","6","7","4","2","3","5","7","7","7","7","7","7","3","7","6","7","7","7","7","7","786709021557137410","王","336","Male","[""好我"",""坏我"",""好他"",""坏他""]","[""强我"",""弱我"",""强他"",""弱他""]","","","","","","","","no","","","","","","","","","SRET","EW_formal","","key","j","16.66213675213651","683","380","自己","浅薄","Negative","ability","","","","","","","","","","",""
"903","","j","psychophysics","21","209900","0.0-7.0-3.0-0.7","5","5","5","4","4","5","4","5","5","5","5","2","-3","2","2","2","2","2","2","5","5","5","5","5","5","5","5","5","5","5","5","6","5","5","8","6","8","8","7","7","3","7","7","7","7","3","7","6","1","5","7","6","7","7","7","7","7","6","7","6","7","4","2","3","5","7","7","7","7","7","7","3","7","6","7","7","7","7","7","786709021557137410","王","336","Male","[""好我"",""坏我"",""好他"",""坏他""]","[""强我"",""弱我"",""强他"",""弱他""]","","","","","","","","no","","","","","","","","","SRET","EW_formal","","key","j","16.662201754386043","683","380","自己","无能","Negative","ability","","","","","","","","","","",""
"1260","","j","psychophysics","22","212163","0.0-7.0-3.0-0.8","5","5","5","4","4","5","4","5","5","5","5","2","-3","2","2","2","2","2","2","5","5","5","5","5","5","5","5","5","5","5","5","6","5","5","8","6","8","8","7","7","3","7","7","7","7","3","7","6","1","5","7","6","7","7","7","7","7","6","7","6","7","4","2","3","5","7","7","7","7","7","7","3","7","6","7","7","7","7","7","786709021557137410","王","336","Male","[""好我"",""坏我"",""好他"",""坏他""]","[""强我"",""弱我"",""强他"",""弱他""]","","","","","","","","no","","","","","","","","","SRET","EW_formal","","key","j","16.662918518518563","683","380","朋友","盲目","Negative","ability","","","","","","","","","","",""
"1018","","f","psychophysics","23","214184","0.0-7.0-3.0-0.9","5","5","5","4","4","5","4","5","5","5","5","2","-3","2","2","2","2","2","2","5","5","5","5","5","5","5","5","5","5","5","5","6","5","5","8","6","8","8","7","7","3","7","7","7","7","3","7","6","1","5","7","6","7","7","7","7","7","6","7","6","7","4","2","3","5","7","7","7","7","7","7","3","7","6","7","7","7","7","7","786709021557137410","王","336","Male","[""好我"",""坏我"",""好他"",""坏他""]","[""强我"",""弱我"",""强他"",""弱他""]","","","","","","","","yes","","","","","","","","","SRET","EW_formal","","key","f","16.662183333333328","683","380","朋友","专注","Positive","ability","","","","","","","","","","",""
"1141","","f","psychophysics","24","216329","0.0-7.0-3.0-0.10","5","5","5","4","4","5","4","5","5","5","5","2","-3","2","2","2","2","2","2","5","5","5","5","5","5","5","5","5","5","5","5","6","5","5","8","6","8","8","7","7","3","7","7","7","7","3","7","6","1","5","7","6","7","7","7","7","7","6","7","6","7","4","2","3","5","7","7","7","7","7","7","3","7","6","7","7","7","7","7","786709021557137410","王","336","Male","[""好我"",""坏我"",""好他"",""坏他""]","[""强我"",""弱我"",""强他"",""弱他""]","","","","","","","","yes","","","","","","","","","SRET","EW_formal","","key","f","16.79339370078739","683","380","自己","思辨","Positive","ability","","","","","","","","","","",""
"1061","","f","psychophysics","25","218393","0.0-7.0-3.0-0.11","5","5","5","4","4","5","4","5","5","5","5","2","-3","2","2","2","2","2","2","5","5","5","5","5","5","5","5","5","5","5","5","6","5","5","8","6","8","8","7","7","3","7","7","7","7","3","7","6","1","5","7","6","7","7","7","7","7","6","7","6","7","4","2","3","5","7","7","7","7","7","7","3","7","6","7","7","7","7","7","786709021557137410","王","336","Male","[""好我"",""坏我"",""好他"",""坏他""]","[""强我"",""弱我"",""强他"",""弱他""]","","","","","","","","yes","","","","","","","","","SRET","EW_formal","","key","f","16.662487804878086","683","380","自己","义气","Positive","morality","","","","","","","","","","",""
"858","","j","psychophysics","26","220256","0.0-7.0-3.0-0.12","5","5","5","4","4","5","4","5","5","5","5","2","-3","2","2","2","2","2","2","5","5","5","5","5","5","5","5","5","5","5","5","6","5","5","8","6","8","8","7","7","3","7","7","7","7","3","7","6","1","5","7","6","7","7","7","7","7","6","7","6","7","4","2","3","5","7","7","7","7","7","7","3","7","6","7","7","7","7","7","786709021557137410","王","336","Male","[""好我"",""坏我"",""好他"",""坏他""]","[""强我"",""弱我"",""强他"",""弱他""]","","","","","","","","no","","","","","","","","","SRET","EW_formal","","key","j","16.661799999999825","683","380","朋友","犹豫","Negative","ability","","","","","","","","","","",""
"1133","","j","psychophysics","27","222395","0.0-7.0-3.0-0.13","5","5","5","4","4","5","4","5","5","5","5","2","-3","2","2","2","2","2","2","5","5","5","5","5","5","5","5","5","5","5","5","6","5","5","8","6","8","8","7","7","3","7","7","7","7","3","7","6","1","5","7","6","7","7","7","7","7","6","7","6","7","4","2","3","5","7","7","7","7","7","7","3","7","6","7","7","7","7","7","786709021557137410","王","336","Male","[""好我"",""坏我"",""好他"",""坏他""]","[""强我"",""弱我"",""强他"",""弱他""]","","","","","","","","no","","","","","","","","","SRET","EW_formal","","key","j","16.662351562499907","683","380","自己","拜金","Negative","morality","","","","","","","","","","",""
"1362","","j","psychophysics","28","224761","0.0-7.0-3.0-0.14","5","5","5","4","4","5","4","5","5","5","5","2","-3","2","2","2","2","2","2","5","5","5","5","5","5","5","5","5","5","5","5","6","5","5","8","6","8","8","7","7","3","7","7","7","7","3","7","6","1","5","7","6","7","7","7","7","7","6","7","6","7","4","2","3","5","7","7","7","7","7","7","3","7","6","7","7","7","7","7","786709021557137410","王","336","Male","[""好我"",""坏我"",""好他"",""坏他""]","[""强我"",""弱我"",""强他"",""弱他""]","","","","","","","","no","","","","","","","","","SRET","EW_formal","","key","j","16.662371428571557","683","380","自己","短浅","Negative","ability","","","","","","","","","","",""
"988","","j","psychophysics","29","226757","0.0-7.0-3.0-0.15","5","5","5","4","4","5","4","5","5","5","5","2","-3","2","2","2","2","2","2","5","5","5","5","5","5","5","5","5","5","5","5","6","5","5","8","6","8","8","7","7","3","7","7","7","7","3","7","6","1","5","7","6","7","7","7","7","7","6","7","6","7","4","2","3","5","7","7","7","7","7","7","3","7","6","7","7","7","7","7","786709021557137410","王","336","Male","[""好我"",""坏我"",""好他"",""坏他""]","[""强我"",""弱我"",""强他"",""弱他""]","","","","","","","","no","","","","","","","","","SRET","EW_formal","","key","j","17.53921929824553","683","380","自己","龌龊","Negative","morality","","","","","","","","","","",""
"1165","","f","psychophysics","30","228926","0.0-7.0-3.0-0.16","5","5","5","4","4","5","4","5","5","5","5","2","-3","2","2","2","2","2","2","5","5","5","5","5","5","5","5","5","5","5","5","6","5","5","8","6","8","8","7","7","3","7","7","7","7","3","7","6","1","5","7","6","7","7","7","7","7","6","7","6","7","4","2","3","5","7","7","7","7","7","7","3","7","6","7","7","7","7","7","786709021557137410","王","336","Male","[""好我"",""坏我"",""好他"",""坏他""]","[""强我"",""弱我"",""强他"",""弱他""]","","","","","","","","yes","","","","","","","","","SRET","EW_formal","","key","f","16.66232558139537","683","380","朋友","热心","Positive","morality","","","","","","","","","","",""
"946","","j","psychophysics","31","230875","0.0-7.0-3.0-0.17","5","5","5","4","4","5","4","5","5","5","5","2","-3","2","2","2","2","2","2","5","5","5","5","5","5","5","5","5","5","5","5","6","5","5","8","6","8","8","7","7","3","7","7","7","7","3","7","6","1","5","7","6","7","7","7","7","7","6","7","6","7","4","2","3","5","7","7","7","7","7","7","3","7","6","7","7","7","7","7","786709021557137410","王","336","Male","[""好我"",""坏我"",""好他"",""坏他""]","[""强我"",""弱我"",""强他"",""弱他""]","","","","","","","","no","","","","","","","","","SRET","EW_formal","","key","j","16.66209482758608","683","380","朋友","拖延","Negative","ability","","","","","","","","","","",""
"855","","j","psychophysics","32","232733","0.0-7.0-3.0-0.18","5","5","5","4","4","5","4","5","5","5","5","2","-3","2","2","2","2","2","2","5","5","5","5","5","5","5","5","5","5","5","5","6","5","5","8","6","8","8","7","7","3","7","7","7","7","3","7","6","1","5","7","6","7","7","7","7","7","6","7","6","7","4","2","3","5","7","7","7","7","7","7","3","7","6","7","7","7","7","7","786709021557137410","王","336","Male","[""好我"",""坏我"",""好他"",""坏他""]","[""强我"",""弱我"",""强他"",""弱他""]","","","","","","","","no","","","","","","","","","SRET","EW_formal","","key","j","16.662472727272753","683","380","朋友","罪恶","Negative","morality","","","","","","","","","","",""
"1335","","f","psychophysics","33","235075","0.0-7.0-3.0-0.19","5","5","5","4","4","5","4","5","5","5","5","2","-3","2","2","2","2","2","2","5","5","5","5","5","5","5","5","5","5","5","5","6","5","5","8","6","8","8","7","7","3","7","7","7","7","3","7","6","1","5","7","6","7","7","7","7","7","6","7","6","7","4","2","3","5","7","7","7","7","7","7","3","7","6","7","7","7","7","7","786709021557137410","王","336","Male","[""好我"",""坏我"",""好他"",""坏他""]","[""强我"",""弱我"",""强他"",""弱他""]","","","","","","","","yes","","","","","","","","","SRET","EW_formal","","key","f","16.662821428571313","683","380","自己","变通","Positive","ability","","","","","","","","","","",""
"977","","j","psychophysics","34","237055","0.0-7.0-3.0-0.20","5","5","5","4","4","5","4","5","5","5","5","2","-3","2","2","2","2","2","2","5","5","5","5","5","5","5","5","5","5","5","5","6","5","5","8","6","8","8","7","7","3","7","7","7","7","3","7","6","1","5","7","6","7","7","7","7","7","6","7","6","7","4","2","3","5","7","7","7","7","7","7","3","7","6","7","7","7","7","7","786709021557137410","王","336","Male","[""好我"",""坏我"",""好他"",""坏他""]","[""强我"",""弱我"",""强他"",""弱他""]","","","","","","","","no","","","","","","","","","SRET","EW_formal","","key","j","16.661863247863202","683","380","自己","谦逊","Positive","morality","","","","","","","","","","",""
"973","","f","psychophysics","35","239032","0.0-7.0-3.0-0.21","5","5","5","4","4","5","4","5","5","5","5","2","-3","2","2","2","2","2","2","5","5","5","5","5","5","5","5","5","5","5","5","6","5","5","8","6","8","8","7","7","3","7","7","7","7","3","7","6","1","5","7","6","7","7","7","7","7","6","7","6","7","4","2","3","5","7","7","7","7","7","7","3","7","6","7","7","7","7","7","786709021557137410","王","336","Male","[""好我"",""坏我"",""好他"",""坏他""]","[""强我"",""弱我"",""强他"",""弱他""]","","","","","","","","yes","","","","","","","","","SRET","EW_formal","","key","f","16.661762711864313","683","380","自己","稳健","Positive","ability","","","","","","","","","","",""
"1018","","j","psychophysics","36","241057","0.0-7.0-3.0-0.22","5","5","5","4","4","5","4","5","5","5","5","2","-3","2","2","2","2","2","2","5","5","5","5","5","5","5","5","5","5","5","5","6","5","5","8","6","8","8","7","7","3","7","7","7","7","3","7","6","1","5","7","6","7","7","7","7","7","6","7","6","7","4","2","3","5","7","7","7","7","7","7","3","7","6","7","7","7","7","7","786709021557137410","王","336","Male","[""好我"",""坏我"",""好他"",""坏他""]","[""强我"",""弱我"",""强他"",""弱他""]","","","","","","","","no","","","","","","","","","SRET","EW_formal","","key","j","16.66261983471071","683","380","自己","狡狯","Negative","morality","","","","","","","","","","",""
"880","","j","psychophysics","37","242940","0.0-7.0-3.0-0.23","5","5","5","4","4","5","4","5","5","5","5","2","-3","2","2","2","2","2","2","5","5","5","5","5","5","5","5","5","5","5","5","6","5","5","8","6","8","8","7","7","3","7","7","7","7","3","7","6","1","5","7","6","7","7","7","7","7","6","7","6","7","4","2","3","5","7","7","7","7","7","7","3","7","6","7","7","7","7","7","786709021557137410","王","336","Male","[""好我"",""坏我"",""好他"",""坏他""]","[""强我"",""弱我"",""强他"",""弱他""]","","","","","","","","no","","","","","","","","","SRET","EW_formal","","key","j","16.66245535714292","683","380","朋友","失信","Negative","morality","","","","","","","","","","",""
"866","","f","psychophysics","38","244809","0.0-7.0-3.0-0.24","5","5","5","4","4","5","4","5","5","5","5","2","-3","2","2","2","2","2","2","5","5","5","5","5","5","5","5","5","5","5","5","6","5","5","8","6","8","8","7","7","3","7","7","7","7","3","7","6","1","5","7","6","7","7","7","7","7","6","7","6","7","4","2","3","5","7","7","7","7","7","7","3","7","6","7","7","7","7","7","786709021557137410","王","336","Male","[""好我"",""坏我"",""好他"",""坏他""]","[""强我"",""弱我"",""强他"",""弱他""]","","","","","","","","yes","","","","","","","","","SRET","EW_formal","","key","f","16.662315315315247","683","380","朋友","坦荡","Positive","morality","","","","","","","","","","",""
"941","","j","psychophysics","39","246754","0.0-7.0-3.0-0.25","5","5","5","4","4","5","4","5","5","5","5","2","-3","2","2","2","2","2","2","5","5","5","5","5","5","5","5","5","5","5","5","6","5","5","8","6","8","8","7","7","3","7","7","7","7","3","7","6","1","5","7","6","7","7","7","7","7","6","7","6","7","4","2","3","5","7","7","7","7","7","7","3","7","6","7","7","7","7","7","786709021557137410","王","336","Male","[""好我"",""坏我"",""好他"",""坏他""]","[""强我"",""弱我"",""强他"",""弱他""]","","","","","","","","no","","","","","","","","","SRET","EW_formal","","key","j","16.66240000000006","683","380","自己","差生","Negative","ability","","","","","","","","","","",""
"1336","","j","psychophysics","40","249093","0.0-7.0-3.0-0.26","5","5","5","4","4","5","4","5","5","5","5","2","-3","2","2","2","2","2","2","5","5","5","5","5","5","5","5","5","5","5","5","6","5","5","8","6","8","8","7","7","3","7","7","7","7","3","7","6","1","5","7","6","7","7","7","7","7","6","7","6","7","4","2","3","5","7","7","7","7","7","7","3","7","6","7","7","7","7","7","786709021557137410","王","336","Male","[""好我"",""坏我"",""好他"",""坏他""]","[""强我"",""弱我"",""强他"",""弱他""]","","","","","","","","no","","","","","","","","","SRET","EW_formal","","key","j","16.78216546762583","683","380","朋友","怠惰","Negative","ability","","","","","","","","","","",""
"1055","","j","psychophysics","41","251151","0.0-7.0-3.0-0.27","5","5","5","4","4","5","4","5","5","5","5","2","-3","2","2","2","2","2","2","5","5","5","5","5","5","5","5","5","5","5","5","6","5","5","8","6","8","8","7","7","3","7","7","7","7","3","7","6","1","5","7","6","7","7","7","7","7","6","7","6","7","4","2","3","5","7","7","7","7","7","7","3","7","6","7","7","7","7","7","786709021557137410","王","336","Male","[""好我"",""坏我"",""好他"",""坏他""]","[""强我"",""弱我"",""强他"",""弱他""]","","","","","","","","no","","","","","","","","","SRET","EW_formal","","key","j","16.66226829268295","683","380","朋友","伪善","Negative","morality","","","","","","","","","","",""
"1930","","j","psychophysics","42","254084","0.0-7.0-3.0-0.28","5","5","5","4","4","5","4","5","5","5","5","2","-3","2","2","2","2","2","2","5","5","5","5","5","5","5","5","5","5","5","5","6","5","5","8","6","8","8","7","7","3","7","7","7","7","3","7","6","1","5","7","6","7","7","7","7","7","6","7","6","7","4","2","3","5","7","7","7","7","7","7","3","7","6","7","7","7","7","7","786709021557137410","王","336","Male","[""好我"",""坏我"",""好他"",""坏他""]","[""强我"",""弱我"",""强他"",""弱他""]","","","","","","","","no","","","","","","","","","SRET","EW_formal","","key","j","16.662331428571406","683","380","朋友","独断","Negative","ability","","","","","","","","","","",""
"802","","j","psychophysics","43","255890","0.0-7.0-3.0-0.29","5","5","5","4","4","5","4","5","5","5","5","2","-3","2","2","2","2","2","2","5","5","5","5","5","5","5","5","5","5","5","5","6","5","5","8","6","8","8","7","7","3","7","7","7","7","3","7","6","1","5","7","6","7","7","7","7","7","6","7","6","7","4","2","3","5","7","7","7","7","7","7","3","7","6","7","7","7","7","7","786709021557137410","王","336","Male","[""好我"",""坏我"",""好他"",""坏他""]","[""强我"",""弱我"",""强他"",""弱他""]","","","","","","","","no","","","","","","","","","SRET","EW_formal","","key","j","16.66171962616826","683","380","朋友","腐败","Negative","morality","","","","","","","","","","",""
"996","","f","psychophysics","44","257890","0.0-7.0-3.0-0.30","5","5","5","4","4","5","4","5","5","5","5","2","-3","2","2","2","2","2","2","5","5","5","5","5","5","5","5","5","5","5","5","6","5","5","8","6","8","8","7","7","3","7","7","7","7","3","7","6","1","5","7","6","7","7","7","7","7","6","7","6","7","4","2","3","5","7","7","7","7","7","7","3","7","6","7","7","7","7","7","786709021557137410","王","336","Male","[""好我"",""坏我"",""好他"",""坏他""]","[""强我"",""弱我"",""强他"",""弱他""]","","","","","","","","yes","","","","","","","","","SRET","EW_formal","","key","f","16.803169491525466","683","380","自己","努力","Positive","ability","","","","","","","","","","",""
"1220","","j","psychophysics","45","260114","0.0-7.0-3.0-0.31","5","5","5","4","4","5","4","5","5","5","5","2","-3","2","2","2","2","2","2","5","5","5","5","5","5","5","5","5","5","5","5","6","5","5","8","6","8","8","7","7","3","7","7","7","7","3","7","6","1","5","7","6","7","7","7","7","7","6","7","6","7","4","2","3","5","7","7","7","7","7","7","3","7","6","7","7","7","7","7","786709021557137410","王","336","Male","[""好我"",""坏我"",""好他"",""坏他""]","[""强我"",""弱我"",""强他"",""弱他""]","","","","","","","","no","","","","","","","","","SRET","EW_formal","","key","j","16.66236363636364","683","380","朋友","畏难","Negative","ability","","","","","","","","","","",""
"878","","j","psychophysics","46","261997","0.0-7.0-3.0-0.32","5","5","5","4","4","5","4","5","5","5","5","2","-3","2","2","2","2","2","2","5","5","5","5","5","5","5","5","5","5","5","5","6","5","5","8","6","8","8","7","7","3","7","7","7","7","3","7","6","1","5","7","6","7","7","7","7","7","6","7","6","7","4","2","3","5","7","7","7","7","7","7","3","7","6","7","7","7","7","7","786709021557137410","王","336","Male","[""好我"",""坏我"",""好他"",""坏他""]","[""强我"",""弱我"",""强他"",""弱他""]","","","","","","","","no","","","","","","","","","SRET","EW_formal","","key","j","16.662473214285846","683","380","自己","贪腐","Negative","morality","","","","","","","","","","",""
"1134","","f","psychophysics","47","264135","0.0-7.0-3.0-0.33","5","5","5","4","4","5","4","5","5","5","5","2","-3","2","2","2","2","2","2","5","5","5","5","5","5","5","5","5","5","5","5","6","5","5","8","6","8","8","7","7","3","7","7","7","7","3","7","6","1","5","7","6","7","7","7","7","7","6","7","6","7","4","2","3","5","7","7","7","7","7","7","3","7","6","7","7","7","7","7","786709021557137410","王","336","Male","[""好我"",""坏我"",""好他"",""坏他""]","[""强我"",""弱我"",""强他"",""弱他""]","","","","","","","","yes","","","","","","","","","SRET","EW_formal","","key","f","16.662351562500135","683","380","朋友","慈悲","Positive","morality","","","","","","","","","","",""
"978","","f","psychophysics","48","266116","0.0-7.0-3.0-0.34","5","5","5","4","4","5","4","5","5","5","5","2","-3","2","2","2","2","2","2","5","5","5","5","5","5","5","5","5","5","5","5","6","5","5","8","6","8","8","7","7","3","7","7","7","7","3","7","6","1","5","7","6","7","7","7","7","7","6","7","6","7","4","2","3","5","7","7","7","7","7","7","3","7","6","7","7","7","7","7","786709021557137410","王","336","Male","[""好我"",""坏我"",""好他"",""坏他""]","[""强我"",""弱我"",""强他"",""弱他""]","","","","","","","","yes","","","","","","","","","SRET","EW_formal","","key","f","16.80535897435909","683","380","朋友","能干","Positive","ability","","","","","","","","","","",""
"944","","j","psychophysics","49","268063","0.0-7.0-3.0-0.35","5","5","5","4","4","5","4","5","5","5","5","2","-3","2","2","2","2","2","2","5","5","5","5","5","5","5","5","5","5","5","5","6","5","5","8","6","8","8","7","7","3","7","7","7","7","3","7","6","1","5","7","6","7","7","7","7","7","6","7","6","7","4","2","3","5","7","7","7","7","7","7","3","7","6","7","7","7","7","7","786709021557137410","王","336","Male","[""好我"",""坏我"",""好他"",""坏他""]","[""强我"",""弱我"",""强他"",""弱他""]","","","","","","","","no","","","","","","","","","SRET","EW_formal","","key","j","16.662103448275893","683","380","自己","短视","Negative","ability","","","","","","","","","","",""
"1107","","f","psychophysics","50","270173","0.0-7.0-3.0-0.36","5","5","5","4","4","5","4","5","5","5","5","2","-3","2","2","2","2","2","2","5","5","5","5","5","5","5","5","5","5","5","5","6","5","5","8","6","8","8","7","7","3","7","7","7","7","3","7","6","1","5","7","6","7","7","7","7","7","6","7","6","7","4","2","3","5","7","7","7","7","7","7","3","7","6","7","7","7","7","7","786709021557137410","王","336","Male","[""好我"",""坏我"",""好他"",""坏他""]","[""强我"",""弱我"",""强他"",""弱他""]","","","","","","","","yes","","","","","","","","","SRET","EW_formal","","key","f","16.662007999999915","683","380","自己","细心","Positive","ability","","","","","","","","","","",""
"882","","j","psychophysics","51","272061","0.0-7.0-3.0-0.37","5","5","5","4","4","5","4","5","5","5","5","2","-3","2","2","2","2","2","2","5","5","5","5","5","5","5","5","5","5","5","5","6","5","5","8","6","8","8","7","7","3","7","7","7","7","3","7","6","1","5","7","6","7","7","7","7","7","6","7","6","7","4","2","3","5","7","7","7","7","7","7","3","7","6","7","7","7","7","7","786709021557137410","王","336","Male","[""好我"",""坏我"",""好他"",""坏他""]","[""强我"",""弱我"",""强他"",""弱他""]","","","","","","","","no","","","","","","","","","SRET","EW_formal","","key","j","16.662115044247944","683","380","自己","蛇蝎","Negative","morality","","","","","","","","","","",""
"1035","","f","psychophysics","52","274100","0.0-7.0-3.0-0.38","5","5","5","4","4","5","4","5","5","5","5","2","-3","2","2","2","2","2","2","5","5","5","5","5","5","5","5","5","5","5","5","6","5","5","8","6","8","8","7","7","3","7","7","7","7","3","7","6","1","5","7","6","7","7","7","7","7","6","7","6","7","4","2","3","5","7","7","7","7","7","7","3","7","6","7","7","7","7","7","786709021557137410","王","336","Male","[""好我"",""坏我"",""好他"",""坏他""]","[""强我"",""弱我"",""强他"",""弱他""]","","","","","","","","yes","","","","","","","","","SRET","EW_formal","","key","f","16.66250413223141","683","380","自己","博识","Positive","ability","","","","","","","","","","",""
"960","","f","psychophysics","53","276064","0.0-7.0-3.0-0.39","5","5","5","4","4","5","4","5","5","5","5","2","-3","2","2","2","2","2","2","5","5","5","5","5","5","5","5","5","5","5","5","6","5","5","8","6","8","8","7","7","3","7","7","7","7","3","7","6","1","5","7","6","7","7","7","7","7","6","7","6","7","4","2","3","5","7","7","7","7","7","7","3","7","6","7","7","7","7","7","786709021557137410","王","336","Male","[""好我"",""坏我"",""好他"",""坏他""]","[""强我"",""弱我"",""强他"",""弱他""]","","","","","","","","yes","","","","","","","","","SRET","EW_formal","","key","f","16.66175213675204","683","380","朋友","有力","Positive","ability","","","","","","","","","","",""
"759","","j","psychophysics","54","277828","0.0-7.0-3.0-0.40","5","5","5","4","4","5","4","5","5","5","5","2","-3","2","2","2","2","2","2","5","5","5","5","5","5","5","5","5","5","5","5","6","5","5","8","6","8","8","7","7","3","7","7","7","7","3","7","6","1","5","7","6","7","7","7","7","7","6","7","6","7","4","2","3","5","7","7","7","7","7","7","3","7","6","7","7","7","7","7","786709021557137410","王","336","Male","[""好我"",""坏我"",""好他"",""坏他""]","[""强我"",""弱我"",""强他"",""弱他""]","","","","","","","","no","","","","","","","","","SRET","EW_formal","","key","j","16.662352380952576","683","380","自己","歹毒","Negative","morality","","","","","","","","","","",""
"1051","","f","psychophysics","55","279881","0.0-7.0-3.0-0.41","5","5","5","4","4","5","4","5","5","5","5","2","-3","2","2","2","2","2","2","5","5","5","5","5","5","5","5","5","5","5","5","6","5","5","8","6","8","8","7","7","3","7","7","7","7","3","7","6","1","5","7","6","7","7","7","7","7","6","7","6","7","4","2","3","5","7","7","7","7","7","7","3","7","6","7","7","7","7","7","786709021557137410","王","336","Male","[""好我"",""坏我"",""好他"",""坏他""]","[""强我"",""弱我"",""强他"",""弱他""]","","","","","","","","yes","","","","","","","","","SRET","EW_formal","","key","f","16.662868852458978","683","380","自己","好心","Positive","morality","","","","","","","","","","",""
"760","","j","psychophysics","56","281645","0.0-7.0-3.0-0.42","5","5","5","4","4","5","4","5","5","5","5","2","-3","2","2","2","2","2","2","5","5","5","5","5","5","5","5","5","5","5","5","6","5","5","8","6","8","8","7","7","3","7","7","7","7","3","7","6","1","5","7","6","7","7","7","7","7","6","7","6","7","4","2","3","5","7","7","7","7","7","7","3","7","6","7","7","7","7","7","786709021557137410","王","336","Male","[""好我"",""坏我"",""好他"",""坏他""]","[""强我"",""弱我"",""强他"",""弱他""]","","","","","","","","no","","","","","","","","","SRET","EW_formal","","key","j","16.662504761904433","683","380","自己","缺德","Negative","morality","","","","","","","","","","",""
"881","","f","psychophysics","57","283529","0.0-7.0-3.0-0.43","5","5","5","4","4","5","4","5","5","5","5","2","-3","2","2","2","2","2","2","5","5","5","5","5","5","5","5","5","5","5","5","6","5","5","8","6","8","8","7","7","3","7","7","7","7","3","7","6","1","5","7","6","7","7","7","7","7","6","7","6","7","4","2","3","5","7","7","7","7","7","7","3","7","6","7","7","7","7","7","786709021557137410","王","336","Male","[""好我"",""坏我"",""好他"",""坏他""]","[""强我"",""弱我"",""强他"",""弱他""]","","","","","","","","yes","","","","","","","","","SRET","EW_formal","","key","f","16.66227678571418","683","380","自己","顶事","Positive","ability","","","","","","","","","","",""
"912","","f","psychophysics","58","285444","0.0-7.0-3.0-0.44","5","5","5","4","4","5","4","5","5","5","5","2","-3","2","2","2","2","2","2","5","5","5","5","5","5","5","5","5","5","5","5","6","5","5","8","6","8","8","7","7","3","7","7","7","7","3","7","6","1","5","7","6","7","7","7","7","7","6","7","6","7","4","2","3","5","7","7","7","7","7","7","3","7","6","7","7","7","7","7","786709021557137410","王","336","Male","[""好我"",""坏我"",""好他"",""坏他""]","[""强我"",""弱我"",""强他"",""弱他""]","","","","","","","","yes","","","","","","","","","SRET","EW_formal","","key","f","16.66185087719299","683","380","朋友","上进","Positive","ability","","","","","","","","","","",""
"841","","j","psychophysics","59","287290","0.0-7.0-3.0-0.45","5","5","5","4","4","5","4","5","5","5","5","2","-3","2","2","2","2","2","2","5","5","5","5","5","5","5","5","5","5","5","5","6","5","5","8","6","8","8","7","7","3","7","7","7","7","3","7","6","1","5","7","6","7","7","7","7","7","6","7","6","7","4","2","3","5","7","7","7","7","7","7","3","7","6","7","7","7","7","7","786709021557137410","王","336","Male","[""好我"",""坏我"",""好他"",""坏他""]","[""强我"",""弱我"",""强他"",""弱他""]","","","","","","","","no","","","","","","","","","SRET","EW_formal","","key","j","17.296923809523495","683","380","朋友","笨蛋","Negative","ability","","","","","","","","","","",""
"913","","j","psychophysics","60","289208","0.0-7.0-3.0-0.46","5","5","5","4","4","5","4","5","5","5","5","2","-3","2","2","2","2","2","2","5","5","5","5","5","5","5","5","5","5","5","5","6","5","5","8","6","8","8","7","7","3","7","7","7","7","3","7","6","1","5","7","6","7","7","7","7","7","6","7","6","7","4","2","3","5","7","7","7","7","7","7","3","7","6","7","7","7","7","7","786709021557137410","王","336","Male","[""好我"",""坏我"",""好他"",""坏他""]","[""强我"",""弱我"",""强他"",""弱他""]","","","","","","","","no","","","","","","","","","SRET","EW_formal","","key","j","16.80847368421025","683","380","自己","无知","Negative","ability","","","","","","","","","","",""
"869","","j","psychophysics","61","291080","0.0-7.0-3.0-0.47","5","5","5","4","4","5","4","5","5","5","5","2","-3","2","2","2","2","2","2","5","5","5","5","5","5","5","5","5","5","5","5","6","5","5","8","6","8","8","7","7","3","7","7","7","7","3","7","6","1","5","7","6","7","7","7","7","7","6","7","6","7","4","2","3","5","7","7","7","7","7","7","3","7","6","7","7","7","7","7","786709021557137410","王","336","Male","[""好我"",""坏我"",""好他"",""坏他""]","[""强我"",""弱我"",""强他"",""弱他""]","","","","","","","","no","","","","","","","","","SRET","EW_formal","","key","j","16.662315315315247","683","380","自己","逞能","Negative","ability","","","","","","","","","","",""
"1018","","f","psychophysics","62","293101","0.0-7.0-3.0-0.48","5","5","5","4","4","5","4","5","5","5","5","2","-3","2","2","2","2","2","2","5","5","5","5","5","5","5","5","5","5","5","5","6","5","5","8","6","8","8","7","7","3","7","7","7","7","3","7","6","1","5","7","6","7","7","7","7","7","6","7","6","7","4","2","3","5","7","7","7","7","7","7","3","7","6","7","7","7","7","7","786709021557137410","王","336","Male","[""好我"",""坏我"",""好他"",""坏他""]","[""强我"",""弱我"",""强他"",""弱他""]","","","","","","","","yes","","","","","","","","","SRET","EW_formal","","key","f","16.944889830508746","683","380","朋友","清廉","Positive","morality","","","","","","","","","","",""
"1394","","f","psychophysics","63","295503","0.0-7.0-3.0-0.49","5","5","5","4","4","5","4","5","5","5","5","2","-3","2","2","2","2","2","2","5","5","5","5","5","5","5","5","5","5","5","5","6","5","5","8","6","8","8","7","7","3","7","7","7","7","3","7","6","1","5","7","6","7","7","7","7","7","6","7","6","7","4","2","3","5","7","7","7","7","7","7","3","7","6","7","7","7","7","7","786709021557137410","王","336","Male","[""好我"",""坏我"",""好他"",""坏他""]","[""强我"",""弱我"",""强他"",""弱他""]","","","","","","","","yes","","","","","","","","","SRET","EW_formal","","key","f","16.66251748251742","683","380","朋友","无敌","Positive","ability","","","","","","","","","","",""
"1215","","f","psychophysics","64","297724","0.0-7.0-3.0-0.50","5","5","5","4","4","5","4","5","5","5","5","2","-3","2","2","2","2","2","2","5","5","5","5","5","5","5","5","5","5","5","5","6","5","5","8","6","8","8","7","7","3","7","7","7","7","3","7","6","1","5","7","6","7","7","7","7","7","6","7","6","7","4","2","3","5","7","7","7","7","7","7","3","7","6","7","7","7","7","7","786709021557137410","王","336","Male","[""好我"",""坏我"",""好他"",""坏他""]","[""强我"",""弱我"",""强他"",""弱他""]","","","","","","","","yes","","","","","","","","","SRET","EW_formal","","key","f","17.04684615384635","683","380","自己","依靠","Negative","ability","","","","","","","","","","",""
"1308","","f","psychophysics","65","300036","0.0-7.0-3.0-0.51","5","5","5","4","4","5","4","5","5","5","5","2","-3","2","2","2","2","2","2","5","5","5","5","5","5","5","5","5","5","5","5","6","5","5","8","6","8","8","7","7","3","7","7","7","7","3","7","6","1","5","7","6","7","7","7","7","7","6","7","6","7","4","2","3","5","7","7","7","7","7","7","3","7","6","7","7","7","7","7","786709021557137410","王","336","Male","[""好我"",""坏我"",""好他"",""坏他""]","[""强我"",""弱我"",""强他"",""弱他""]","","","","","","","","yes","","","","","","","","","SRET","EW_formal","","key","f","16.785294117646973","683","380","朋友","高尚","Positive","morality","","","","","","","","","","",""
"967","","f","psychophysics","66","302007","0.0-7.0-3.0-0.52","5","5","5","4","4","5","4","5","5","5","5","2","-3","2","2","2","2","2","2","5","5","5","5","5","5","5","5","5","5","5","5","6","5","5","8","6","8","8","7","7","3","7","7","7","7","3","7","6","1","5","7","6","7","7","7","7","7","6","7","6","7","4","2","3","5","7","7","7","7","7","7","3","7","6","7","7","7","7","7","786709021557137410","王","336","Male","[""好我"",""坏我"",""好他"",""坏他""]","[""强我"",""弱我"",""强他"",""弱他""]","","","","","","","","yes","","","","","","","","","SRET","EW_formal","","key","f","16.662194915254446","683","380","朋友","坚持","Positive","ability","","","","","","","","","","",""
"899","","f","psychophysics","67","303909","0.0-7.0-3.0-0.53","5","5","5","4","4","5","4","5","5","5","5","2","-3","2","2","2","2","2","2","5","5","5","5","5","5","5","5","5","5","5","5","6","5","5","8","6","8","8","7","7","3","7","7","7","7","3","7","6","1","5","7","6","7","7","7","7","7","6","7","6","7","4","2","3","5","7","7","7","7","7","7","3","7","6","7","7","7","7","7","786709021557137410","王","336","Male","[""好我"",""坏我"",""好他"",""坏他""]","[""强我"",""弱我"",""强他"",""弱他""]","","","","","","","","yes","","","","","","","","","SRET","EW_formal","","key","f","16.66223008849553","683","380","朋友","干练","Positive","ability","","","","","","","","","","",""
"808","","j","psychophysics","68","305721","0.0-7.0-3.0-0.54","5","5","5","4","4","5","4","5","5","5","5","2","-3","2","2","2","2","2","2","5","5","5","5","5","5","5","5","5","5","5","5","6","5","5","8","6","8","8","7","7","3","7","7","7","7","3","7","6","1","5","7","6","7","7","7","7","7","6","7","6","7","4","2","3","5","7","7","7","7","7","7","3","7","6","7","7","7","7","7","786709021557137410","王","336","Male","[""好我"",""坏我"",""好他"",""坏他""]","[""强我"",""弱我"",""强他"",""弱他""]","","","","","","","","no","","","","","","","","","SRET","EW_formal","","key","j","17.30258653846193","683","380","自己","弱智","Negative","ability","","","","","","","","","","",""
"1132","","j","psychophysics","69","307857","0.0-7.0-3.0-0.55","5","5","5","4","4","5","4","5","5","5","5","2","-3","2","2","2","2","2","2","5","5","5","5","5","5","5","5","5","5","5","5","6","5","5","8","6","8","8","7","7","3","7","7","7","7","3","7","6","1","5","7","6","7","7","7","7","7","6","7","6","7","4","2","3","5","7","7","7","7","7","7","3","7","6","7","7","7","7","7","786709021557137410","王","336","Male","[""好我"",""坏我"",""好他"",""坏他""]","[""强我"",""弱我"",""强他"",""弱他""]","","","","","","","","no","","","","","","","","","SRET","EW_formal","","key","j","16.663023622047","683","380","自己","虚假","Negative","morality","","","","","","","","","","",""
"964","","f","psychophysics","70","309825","0.0-7.0-3.0-0.56","5","5","5","4","4","5","4","5","5","5","5","2","-3","2","2","2","2","2","2","5","5","5","5","5","5","5","5","5","5","5","5","6","5","5","8","6","8","8","7","7","3","7","7","7","7","3","7","6","1","5","7","6","7","7","7","7","7","6","7","6","7","4","2","3","5","7","7","7","7","7","7","3","7","6","7","7","7","7","7","786709021557137410","王","336","Male","[""好我"",""坏我"",""好他"",""坏他""]","[""强我"",""弱我"",""强他"",""弱他""]","","","","","","","","yes","","","","","","","","","SRET","EW_formal","","key","f","16.662512820512536","683","380","朋友","忠义","Positive","morality","","","","","","","","","","",""
"936","","f","psychophysics","71","311765","0.0-7.0-3.0-0.57","5","5","5","4","4","5","4","5","5","5","5","2","-3","2","2","2","2","2","2","5","5","5","5","5","5","5","5","5","5","5","5","6","5","5","8","6","8","8","7","7","3","7","7","7","7","3","7","6","1","5","7","6","7","7","7","7","7","6","7","6","7","4","2","3","5","7","7","7","7","7","7","3","7","6","7","7","7","7","7","786709021557137410","王","336","Male","[""好我"",""坏我"",""好他"",""坏他""]","[""强我"",""弱我"",""强他"",""弱他""]","","","","","","","","yes","","","","","","","","","SRET","EW_formal","","key","f","16.66174782608717","683","380","朋友","廉明","Positive","morality","","","","","","","","","","",""
"872","","j","psychophysics","72","313642","0.0-7.0-3.0-0.58","5","5","5","4","4","5","4","5","5","5","5","2","-3","2","2","2","2","2","2","5","5","5","5","5","5","5","5","5","5","5","5","6","5","5","8","6","8","8","7","7","3","7","7","7","7","3","7","6","1","5","7","6","7","7","7","7","7","6","7","6","7","4","2","3","5","7","7","7","7","7","7","3","7","6","7","7","7","7","7","786709021557137410","王","336","Male","[""好我"",""坏我"",""好他"",""坏他""]","[""强我"",""弱我"",""强他"",""弱他""]","","","","","","","","no","","","","","","","","","SRET","EW_formal","","key","j","16.66285714285706","683","380","自己","无赖","Negative","morality","","","","","","","","","","",""
"1480","","j","psychophysics","73","316125","0.0-7.0-3.0-0.59","5","5","5","4","4","5","4","5","5","5","5","2","-3","2","2","2","2","2","2","5","5","5","5","5","5","5","5","5","5","5","5","6","5","5","8","6","8","8","7","7","3","7","7","7","7","3","7","6","1","5","7","6","7","7","7","7","7","6","7","6","7","4","2","3","5","7","7","7","7","7","7","3","7","6","7","7","7","7","7","786709021557137410","王","336","Male","[""好我"",""坏我"",""好他"",""坏他""]","[""强我"",""弱我"",""强他"",""弱他""]","","","","","","","","no","","","","","","","","","SRET","EW_formal","","key","j","16.775095238095325","683","380","朋友","庸碌","Negative","ability","","","","","","","","","","",""
"815","","j","psychophysics","74","317943","0.0-7.0-3.0-0.60","5","5","5","4","4","5","4","5","5","5","5","2","-3","2","2","2","2","2","2","5","5","5","5","5","5","5","5","5","5","5","5","6","5","5","8","6","8","8","7","7","3","7","7","7","7","3","7","6","1","5","7","6","7","7","7","7","7","6","7","6","7","4","2","3","5","7","7","7","7","7","7","3","7","6","7","7","7","7","7","786709021557137410","王","336","Male","[""好我"",""坏我"",""好他"",""坏他""]","[""强我"",""弱我"",""强他"",""弱他""]","","","","","","","","no","","","","","","","","","SRET","EW_formal","","key","j","17.138085714285815","683","380","朋友","奸诈","Negative","morality","","","","","","","","","","",""
"1414","","f","psychophysics","75","320359","0.0-7.0-3.0-0.61","5","5","5","4","4","5","4","5","5","5","5","2","-3","2","2","2","2","2","2","5","5","5","5","5","5","5","5","5","5","5","5","6","5","5","8","6","8","8","7","7","3","7","7","7","7","3","7","6","1","5","7","6","7","7","7","7","7","6","7","6","7","4","2","3","5","7","7","7","7","7","7","3","7","6","7","7","7","7","7","786709021557137410","王","336","Male","[""好我"",""坏我"",""好他"",""坏他""]","[""强我"",""弱我"",""强他"",""弱他""]","","","","","","","","yes","","","","","","","","","SRET","EW_formal","","key","f","16.662333333333258","683","380","朋友","淡泊","Positive","morality","","","","","","","","","","",""
"961","","j","psychophysics","76","322330","0.0-7.0-3.0-0.62","5","5","5","4","4","5","4","5","5","5","5","2","-3","2","2","2","2","2","2","5","5","5","5","5","5","5","5","5","5","5","5","6","5","5","8","6","8","8","7","7","3","7","7","7","7","3","7","6","1","5","7","6","7","7","7","7","7","6","7","6","7","4","2","3","5","7","7","7","7","7","7","3","7","6","7","7","7","7","7","786709021557137410","王","336","Male","[""好我"",""坏我"",""好他"",""坏他""]","[""强我"",""弱我"",""强他"",""弱他""]","","","","","","","","no","","","","","","","","","SRET","EW_formal","","key","j","16.662452991453346","683","380","朋友","愚钝","Negative","ability","","","","","","","","","","",""
"916","","f","psychophysics","77","324250","0.0-7.0-3.0-0.63","5","5","5","4","4","5","4","5","5","5","5","2","-3","2","2","2","2","2","2","5","5","5","5","5","5","5","5","5","5","5","5","6","5","5","8","6","8","8","7","7","3","7","7","7","7","3","7","6","1","5","7","6","7","7","7","7","7","6","7","6","7","4","2","3","5","7","7","7","7","7","7","3","7","6","7","7","7","7","7","786709021557137410","王","336","Male","[""好我"",""坏我"",""好他"",""坏他""]","[""强我"",""弱我"",""强他"",""弱他""]","","","","","","","","yes","","","","","","","","","SRET","EW_formal","","key","f","16.808517543859924","683","380","朋友","礼貌","Positive","morality","","","","","","","","","","",""
"947","","f","psychophysics","78","326200","0.0-7.0-3.0-0.64","5","5","5","4","4","5","4","5","5","5","5","2","-3","2","2","2","2","2","2","5","5","5","5","5","5","5","5","5","5","5","5","6","5","5","8","6","8","8","7","7","3","7","7","7","7","3","7","6","1","5","7","6","7","7","7","7","7","6","7","6","7","4","2","3","5","7","7","7","7","7","7","3","7","6","7","7","7","7","7","786709021557137410","王","336","Male","[""好我"",""坏我"",""好他"",""坏他""]","[""强我"",""弱我"",""强他"",""弱他""]","","","","","","","","yes","","","","","","","","","SRET","EW_formal","","key","f","17.105495575221514","683","380","朋友","敏捷","Positive","ability","","","","","","","","","","",""
"1294","","f","psychophysics","79","328498","0.0-7.0-3.0-0.65","5","5","5","4","4","5","4","5","5","5","5","2","-3","2","2","2","2","2","2","5","5","5","5","5","5","5","5","5","5","5","5","6","5","5","8","6","8","8","7","7","3","7","7","7","7","3","7","6","1","5","7","6","7","7","7","7","7","6","7","6","7","4","2","3","5","7","7","7","7","7","7","3","7","6","7","7","7","7","7","786709021557137410","王","336","Male","[""好我"",""坏我"",""好他"",""坏他""]","[""强我"",""弱我"",""强他"",""弱他""]","","","","","","","","yes","","","","","","","","","SRET","EW_formal","","key","f","16.66250364963487","683","380","自己","厚道","Positive","morality","","","","","","","","","","",""
"1141","","f","psychophysics","80","330644","0.0-7.0-3.0-0.66","5","5","5","4","4","5","4","5","5","5","5","2","-3","2","2","2","2","2","2","5","5","5","5","5","5","5","5","5","5","5","5","6","5","5","8","6","8","8","7","7","3","7","7","7","7","3","7","6","1","5","7","6","7","7","7","7","7","6","7","6","7","4","2","3","5","7","7","7","7","7","7","3","7","6","7","7","7","7","7","786709021557137410","王","336","Male","[""好我"",""坏我"",""好他"",""坏他""]","[""强我"",""弱我"",""强他"",""弱他""]","","","","","","","","yes","","","","","","","","","SRET","EW_formal","","key","f","16.66191338582696","683","380","朋友","博学","Positive","ability","","","","","","","","","","",""
"1090","","f","psychophysics","81","332739","0.0-7.0-3.0-0.67","5","5","5","4","4","5","4","5","5","5","5","2","-3","2","2","2","2","2","2","5","5","5","5","5","5","5","5","5","5","5","5","6","5","5","8","6","8","8","7","7","3","7","7","7","7","3","7","6","1","5","7","6","7","7","7","7","7","6","7","6","7","4","2","3","5","7","7","7","7","7","7","3","7","6","7","7","7","7","7","786709021557137410","王","336","Male","[""好我"",""坏我"",""好他"",""坏他""]","[""强我"",""弱我"",""强他"",""弱他""]","","","","","","","","yes","","","","","","","","","SRET","EW_formal","","key","f","16.796185483871078","683","380","自己","善心","Positive","morality","","","","","","","","","","",""
"869","","j","psychophysics","82","334615","0.0-7.0-3.0-0.68","5","5","5","4","4","5","4","5","5","5","5","2","-3","2","2","2","2","2","2","5","5","5","5","5","5","5","5","5","5","5","5","6","5","5","8","6","8","8","7","7","3","7","7","7","7","3","7","6","1","5","7","6","7","7","7","7","7","6","7","6","7","4","2","3","5","7","7","7","7","7","7","3","7","6","7","7","7","7","7","786709021557137410","王","336","Male","[""好我"",""坏我"",""好他"",""坏他""]","[""强我"",""弱我"",""强他"",""弱他""]","","","","","","","","no","","","","","","","","","SRET","EW_formal","","key","j","16.96518181818167","683","380","朋友","下流","Negative","morality","","","","","","","","","","",""
"1052","","j","psychophysics","83","336669","0.0-7.0-3.0-0.69","5","5","5","4","4","5","4","5","5","5","5","2","-3","2","2","2","2","2","2","5","5","5","5","5","5","5","5","5","5","5","5","6","5","5","8","6","8","8","7","7","3","7","7","7","7","3","7","6","1","5","7","6","7","7","7","7","7","6","7","6","7","4","2","3","5","7","7","7","7","7","7","3","7","6","7","7","7","7","7","786709021557137410","王","336","Male","[""好我"",""坏我"",""好他"",""坏他""]","[""强我"",""弱我"",""强他"",""弱他""]","","","","","","","","no","","","","","","","","","SRET","EW_formal","","key","j","16.66233606557371","683","380","自己","阴毒","Negative","morality","","","","","","","","","","",""
"1076","","j","psychophysics","84","338747","0.0-7.0-3.0-0.70","5","5","5","4","4","5","4","5","5","5","5","2","-3","2","2","2","2","2","2","5","5","5","5","5","5","5","5","5","5","5","5","6","5","5","8","6","8","8","7","7","3","7","7","7","7","3","7","6","1","5","7","6","7","7","7","7","7","6","7","6","7","4","2","3","5","7","7","7","7","7","7","3","7","6","7","7","7","7","7","786709021557137410","王","336","Male","[""好我"",""坏我"",""好他"",""坏他""]","[""强我"",""弱我"",""强他"",""弱他""]","","","","","","","","no","","","","","","","","","SRET","EW_formal","","key","j","16.66216129032264","683","380","自己","驽钝","Negative","ability","","","","","","","","","","",""
"1261","","f","psychophysics","85","341013","0.0-7.0-3.0-0.71","5","5","5","4","4","5","4","5","5","5","5","2","-3","2","2","2","2","2","2","5","5","5","5","5","5","5","5","5","5","5","5","6","5","5","8","6","8","8","7","7","3","7","7","7","7","3","7","6","1","5","7","6","7","7","7","7","7","6","7","6","7","4","2","3","5","7","7","7","7","7","7","3","7","6","7","7","7","7","7","786709021557137410","王","336","Male","[""好我"",""坏我"",""好他"",""坏他""]","[""强我"",""弱我"",""强他"",""弱他""]","","","","","","","","yes","","","","","","","","","SRET","EW_formal","","key","f","16.662311111110764","683","380","自己","毅力","Positive","ability","","","","","","","","","","",""
"832","","j","psychophysics","86","342847","0.0-7.0-3.0-0.72","5","5","5","4","4","5","4","5","5","5","5","2","-3","2","2","2","2","2","2","5","5","5","5","5","5","5","5","5","5","5","5","6","5","5","8","6","8","8","7","7","3","7","7","7","7","3","7","6","1","5","7","6","7","7","7","7","7","6","7","6","7","4","2","3","5","7","7","7","7","7","7","3","7","6","7","7","7","7","7","786709021557137410","王","336","Male","[""好我"",""坏我"",""好他"",""坏他""]","[""强我"",""弱我"",""强他"",""弱他""]","","","","","","","","no","","","","","","","","","SRET","EW_formal","","key","j","16.81627777777774","683","380","朋友","虚伪","Negative","morality","","","","","","","","","","",""
"1177","","f","psychophysics","87","345028","0.0-7.0-3.0-0.73","5","5","5","4","4","5","4","5","5","5","5","2","-3","2","2","2","2","2","2","5","5","5","5","5","5","5","5","5","5","5","5","6","5","5","8","6","8","8","7","7","3","7","7","7","7","3","7","6","1","5","7","6","7","7","7","7","7","6","7","6","7","4","2","3","5","7","7","7","7","7","7","3","7","6","7","7","7","7","7","786709021557137410","王","336","Male","[""好我"",""坏我"",""好他"",""坏他""]","[""强我"",""弱我"",""强他"",""弱他""]","","","","","","","","yes","","","","","","","","","SRET","EW_formal","","key","f","16.66232307692318","683","380","朋友","精干","Positive","ability","","","","","","","","","","",""
"1128","","j","psychophysics","88","347160","0.0-7.0-3.0-0.74","5","5","5","4","4","5","4","5","5","5","5","2","-3","2","2","2","2","2","2","5","5","5","5","5","5","5","5","5","5","5","5","6","5","5","8","6","8","8","7","7","3","7","7","7","7","3","7","6","1","5","7","6","7","7","7","7","7","6","7","6","7","4","2","3","5","7","7","7","7","7","7","3","7","6","7","7","7","7","7","786709021557137410","王","336","Male","[""好我"",""坏我"",""好他"",""坏他""]","[""强我"",""弱我"",""强他"",""弱他""]","","","","","","","","no","","","","","","","","","SRET","EW_formal","","key","j","16.9287919999999","683","380","自己","高明","Positive","ability","","","","","","","","","","",""
"1136","","f","psychophysics","89","349299","0.0-7.0-3.0-0.75","5","5","5","4","4","5","4","5","5","5","5","2","-3","2","2","2","2","2","2","5","5","5","5","5","5","5","5","5","5","5","5","6","5","5","8","6","8","8","7","7","3","7","7","7","7","3","7","6","1","5","7","6","7","7","7","7","7","6","7","6","7","4","2","3","5","7","7","7","7","7","7","3","7","6","7","7","7","7","7","786709021557137410","王","336","Male","[""好我"",""坏我"",""好他"",""坏他""]","[""强我"",""弱我"",""强他"",""弱他""]","","","","","","","","yes","","","","","","","","","SRET","EW_formal","","key","f","16.66231496062993","683","380","自己","忠良","Positive","morality","","","","","","","","","","",""
"1029","","f","psychophysics","90","351332","0.0-7.0-3.0-0.76","5","5","5","4","4","5","4","5","5","5","5","2","-3","2","2","2","2","2","2","5","5","5","5","5","5","5","5","5","5","5","5","6","5","5","8","6","8","8","7","7","3","7","7","7","7","3","7","6","1","5","7","6","7","7","7","7","7","6","7","6","7","4","2","3","5","7","7","7","7","7","7","3","7","6","7","7","7","7","7","786709021557137410","王","336","Male","[""好我"",""坏我"",""好他"",""坏他""]","[""强我"",""弱我"",""强他"",""弱他""]","","","","","","","","yes","","","","","","","","","SRET","EW_formal","","key","f","16.662322314049614","683","380","自己","廉正","Positive","morality","","","","","","","","","","",""
"1010","","f","psychophysics","91","353345","0.0-7.0-3.0-0.77","5","5","5","4","4","5","4","5","5","5","5","2","-3","2","2","2","2","2","2","5","5","5","5","5","5","5","5","5","5","5","5","6","5","5","8","6","8","8","7","7","3","7","7","7","7","3","7","6","1","5","7","6","7","7","7","7","7","6","7","6","7","4","2","3","5","7","7","7","7","7","7","3","7","6","7","7","7","7","7","786709021557137410","王","336","Male","[""好我"",""坏我"",""好他"",""坏他""]","[""强我"",""弱我"",""强他"",""弱他""]","","","","","","","","yes","","","","","","","","","SRET","EW_formal","","key","f","16.662116666666893","683","380","自己","敬业","Positive","morality","","","","","","","","","","",""
"1386","","j","psychophysics","92","355733","0.0-7.0-3.0-0.78","5","5","5","4","4","5","4","5","5","5","5","2","-3","2","2","2","2","2","2","5","5","5","5","5","5","5","5","5","5","5","5","6","5","5","8","6","8","8","7","7","3","7","7","7","7","3","7","6","1","5","7","6","7","7","7","7","7","6","7","6","7","4","2","3","5","7","7","7","7","7","7","3","7","6","7","7","7","7","7","786709021557137410","王","336","Male","[""好我"",""坏我"",""好他"",""坏他""]","[""强我"",""弱我"",""强他"",""弱他""]","","","","","","","","no","","","","","","","","","SRET","EW_formal","","key","j","16.66247183098589","683","380","朋友","利己","Negative","morality","","","","","","","","","","",""
"1010","","f","psychophysics","93","357749","0.0-7.0-3.0-0.79","5","5","5","4","4","5","4","5","5","5","5","2","-3","2","2","2","2","2","2","5","5","5","5","5","5","5","5","5","5","5","5","6","5","5","8","6","8","8","7","7","3","7","7","7","7","3","7","6","1","5","7","6","7","7","7","7","7","6","7","6","7","4","2","3","5","7","7","7","7","7","7","3","7","6","7","7","7","7","7","786709021557137410","王","336","Male","[""好我"",""坏我"",""好他"",""坏他""]","[""强我"",""弱我"",""强他"",""弱他""]","","","","","","","","yes","","","","","","","","","SRET","EW_formal","","key","f","16.66181666666671","683","380","自己","孝顺","Positive","morality","","","","","","","","","","",""
"787","","f","psychophysics","94","359542","0.0-7.0-3.0-0.80","5","5","5","4","4","5","4","5","5","5","5","2","-3","2","2","2","2","2","2","5","5","5","5","5","5","5","5","5","5","5","5","6","5","5","8","6","8","8","7","7","3","7","7","7","7","3","7","6","1","5","7","6","7","7","7","7","7","6","7","6","7","4","2","3","5","7","7","7","7","7","7","3","7","6","7","7","7","7","7","786709021557137410","王","336","Male","[""好我"",""坏我"",""好他"",""坏他""]","[""强我"",""弱我"",""强他"",""弱他""]","","","","","","","","yes","","","","","","","","","SRET","EW_formal","","key","f","16.662373831775803","683","380","自己","慷慨","Positive","morality","","","","","","","","","","",""
"880","","j","psychophysics","95","361425","0.0-7.0-3.0-0.81","5","5","5","4","4","5","4","5","5","5","5","2","-3","2","2","2","2","2","2","5","5","5","5","5","5","5","5","5","5","5","5","6","5","5","8","6","8","8","7","7","3","7","7","7","7","3","7","6","1","5","7","6","7","7","7","7","7","6","7","6","7","4","2","3","5","7","7","7","7","7","7","3","7","6","7","7","7","7","7","786709021557137410","王","336","Male","[""好我"",""坏我"",""好他"",""坏他""]","[""强我"",""弱我"",""强他"",""弱他""]","","","","","","","","no","","","","","","","","","SRET","EW_formal","","key","j","16.662160714285815","683","380","朋友","愚痴","Negative","ability","","","","","","","","","","",""
"1328","","j","psychophysics","96","363757","0.0-7.0-3.0-0.82","5","5","5","4","4","5","4","5","5","5","5","2","-3","2","2","2","2","2","2","5","5","5","5","5","5","5","5","5","5","5","5","6","5","5","8","6","8","8","7","7","3","7","7","7","7","3","7","6","1","5","7","6","7","7","7","7","7","6","7","6","7","4","2","3","5","7","7","7","7","7","7","3","7","6","7","7","7","7","7","786709021557137410","王","336","Male","[""好我"",""坏我"",""好他"",""坏他""]","[""强我"",""弱我"",""强他"",""弱他""]","","","","","","","","no","","","","","","","","","SRET","EW_formal","","key","j","16.783702898550814","683","380","自己","远见","Positive","ability","","","","","","","","","","",""
"1047","","f","psychophysics","97","365807","0.0-7.0-3.0-0.83","5","5","5","4","4","5","4","5","5","5","5","2","-3","2","2","2","2","2","2","5","5","5","5","5","5","5","5","5","5","5","5","6","5","5","8","6","8","8","7","7","3","7","7","7","7","3","7","6","1","5","7","6","7","7","7","7","7","6","7","6","7","4","2","3","5","7","7","7","7","7","7","3","7","6","7","7","7","7","7","786709021557137410","王","336","Male","[""好我"",""坏我"",""好他"",""坏他""]","[""强我"",""弱我"",""强他"",""弱他""]","","","","","","","","yes","","","","","","","","","SRET","EW_formal","","key","f","16.661975409836053","683","380","朋友","无私","Positive","morality","","","","","","","","","","",""
"1020","","f","psychophysics","98","367830","0.0-7.0-3.0-0.84","5","5","5","4","4","5","4","5","5","5","5","2","-3","2","2","2","2","2","2","5","5","5","5","5","5","5","5","5","5","5","5","6","5","5","8","6","8","8","7","7","3","7","7","7","7","3","7","6","1","5","7","6","7","7","7","7","7","6","7","6","7","4","2","3","5","7","7","7","7","7","7","3","7","6","7","7","7","7","7","786709021557137410","王","336","Male","[""好我"",""坏我"",""好他"",""坏他""]","[""强我"",""弱我"",""强他"",""弱他""]","","","","","","","","yes","","","","","","","","","SRET","EW_formal","","key","f","16.66169166666659","683","380","朋友","素养","Positive","morality","","","","","","","","","","",""
"679","","j","psychophysics","99","369515","0.0-7.0-3.0-0.85","5","5","5","4","4","5","4","5","5","5","5","2","-3","2","2","2","2","2","2","5","5","5","5","5","5","5","5","5","5","5","5","6","5","5","8","6","8","8","7","7","3","7","7","7","7","3","7","6","1","5","7","6","7","7","7","7","7","6","7","6","7","4","2","3","5","7","7","7","7","7","7","3","7","6","7","7","7","7","7","786709021557137410","王","336","Male","[""好我"",""坏我"",""好他"",""坏他""]","[""强我"",""弱我"",""强他"",""弱他""]","","","","","","","","no","","","","","","","","","SRET","EW_formal","","key","j","16.66150000000023","683","380","自己","缓慢","Negative","ability","","","","","","","","","","",""
"799","","f","psychophysics","100","371321","0.0-7.0-3.0-0.86","5","5","5","4","4","5","4","5","5","5","5","2","-3","2","2","2","2","2","2","5","5","5","5","5","5","5","5","5","5","5","5","6","5","5","8","6","8","8","7","7","3","7","7","7","7","3","7","6","1","5","7","6","7","7","7","7","7","6","7","6","7","4","2","3","5","7","7","7","7","7","7","3","7","6","7","7","7","7","7","786709021557137410","王","336","Male","[""好我"",""坏我"",""好他"",""坏他""]","[""强我"",""弱我"",""强他"",""弱他""]","","","","","","","","yes","","","","","","","","","SRET","EW_formal","","key","f","16.81893457943915","683","380","自己","主见","Positive","ability","","","","","","","","","","",""
"703","","j","psychophysics","101","373027","0.0-7.0-3.0-0.87","5","5","5","4","4","5","4","5","5","5","5","2","-3","2","2","2","2","2","2","5","5","5","5","5","5","5","5","5","5","5","5","6","5","5","8","6","8","8","7","7","3","7","7","7","7","3","7","6","1","5","7","6","7","7","7","7","7","6","7","6","7","4","2","3","5","7","7","7","7","7","7","3","7","6","7","7","7","7","7","786709021557137410","王","336","Male","[""好我"",""坏我"",""好他"",""坏他""]","[""强我"",""弱我"",""强他"",""弱他""]","","","","","","","","no","","","","","","","","","SRET","EW_formal","","key","j","16.66188118811858","683","380","朋友","低俗","Negative","morality","","","","","","","","","","",""
"6412","
    <p><div style='color:white;font-size:35px; line-height:20px;'>计算任务</div></p><br>
    <p><div style='color:red;font-size:25px; line-height:20px;'>接下来，您将看到一些四则运算题，<b>请从键盘选择 0-9 进行反应。</b></div></p>
    <p><div style='color:red;font-size:25px; line-height:20px;'>请尽可能快地进行计算，计算的速度和正确率将影响报酬的发放。</div></p>
    <p><div class='footer' style='color:white;font-size:25px; line-height:20px;'>如果对本实验还有不清楚之处，请立即向实验员咨询。</p><p style='color:white;font-size:25px; line-height:20px;'>如果您明白了规则：</p><p style='color:white;font-size:22px; line-height:20px;'>请按 继续 进入练习</p>
    </div>
    ","0","html-button-response","102","379443","0.0-7.0-4.0","5","5","5","4","4","5","4","5","5","5","5","2","-3","2","2","2","2","2","2","5","5","5","5","5","5","5","5","5","5","5","5","6","5","5","8","6","8","8","7","7","3","7","7","7","7","3","7","6","1","5","7","6","7","7","7","7","7","6","7","6","7","4","2","3","5","7","7","7","7","7","7","3","7","6","7","7","7","7","7","786709021557137410","王","336","Male","[""好我"",""坏我"",""好他"",""坏他""]","[""强我"",""弱我"",""强他"",""弱他""]","","","","","","","","","","","","","","","","","SRET_math","math_instructions","Tue Dec 26 2023 21:16:30 GMT+0800 (中国标准时间)","","","","","","","","","","","","","","","","","","","",""
"2358","","4","psychophysics","103","381812","0.0-7.0-5.0-0.0","5","5","5","4","4","5","4","5","5","5","5","2","-3","2","2","2","2","2","2","5","5","5","5","5","5","5","5","5","5","5","5","6","5","5","8","6","8","8","7","7","3","7","7","7","7","3","7","6","1","5","7","6","7","7","7","7","7","6","7","6","7","4","2","3","5","7","7","7","7","7","7","3","7","6","7","7","7","7","7","786709021557137410","王","336","Male","[""好我"",""坏我"",""好他"",""坏他""]","[""强我"",""弱我"",""强他"",""弱他""]","","","","","","","","4","","","","","","","","","SRET","SRET_math_calculate","","key","4","16.66230281690155","683","380","","","","","9-5= ?","4","1","","","","","","","",""
"2609","","9","psychophysics","104","384434","0.0-7.0-5.0-0.1","5","5","5","4","4","5","4","5","5","5","5","2","-3","2","2","2","2","2","2","5","5","5","5","5","5","5","5","5","5","5","5","6","5","5","8","6","8","8","7","7","3","7","7","7","7","3","7","6","1","5","7","6","7","7","7","7","7","6","7","6","7","4","2","3","5","7","7","7","7","7","7","3","7","6","7","7","7","7","7","786709021557137410","王","336","Male","[""好我"",""坏我"",""好他"",""坏他""]","[""强我"",""弱我"",""强他"",""弱他""]","","","","","","","","9","","","","","","","","","SRET","SRET_math_calculate","","key","9","16.769685897435874","683","380","","","","","81/9= ?","9","1","","","","","","","",""
"2399","","5","psychophysics","105","386839","0.0-7.0-5.0-0.2","5","5","5","4","4","5","4","5","5","5","5","2","-3","2","2","2","2","2","2","5","5","5","5","5","5","5","5","5","5","5","5","6","5","5","8","6","8","8","7","7","3","7","7","7","7","3","7","6","1","5","7","6","7","7","7","7","7","6","7","6","7","4","2","3","5","7","7","7","7","7","7","3","7","6","7","7","7","7","7","786709021557137410","王","336","Male","[""好我"",""坏我"",""好他"",""坏他""]","[""强我"",""弱我"",""强他"",""弱他""]","","","","","","","","5","","","","","","","","","SRET","SRET_math_calculate","","key","5","16.662377622377836","683","380","","","","","10-5= ?","5","1","","","","","","","",""
"2211","","4","psychophysics","106","389066","0.0-7.0-5.0-0.3","5","5","5","4","4","5","4","5","5","5","5","2","-3","2","2","2","2","2","2","5","5","5","5","5","5","5","5","5","5","5","5","6","5","5","8","6","8","8","7","7","3","7","7","7","7","3","7","6","1","5","7","6","7","7","7","7","7","6","7","6","7","4","2","3","5","7","7","7","7","7","7","3","7","6","7","7","7","7","7","786709021557137410","王","336","Male","[""好我"",""坏我"",""好他"",""坏他""]","[""强我"",""弱我"",""强他"",""弱他""]","","","","","","","","4","","","","","","","","","SRET","SRET_math_calculate","","key","4","16.6619624060148","683","380","","","","","2+2= ?","4","1","","","","","","","",""
"2768","","2","psychophysics","107","391858","0.0-7.0-5.0-0.4","5","5","5","4","4","5","4","5","5","5","5","2","-3","2","2","2","2","2","2","5","5","5","5","5","5","5","5","5","5","5","5","6","5","5","8","6","8","8","7","7","3","7","7","7","7","3","7","6","1","5","7","6","7","7","7","7","7","6","7","6","7","4","2","3","5","7","7","7","7","7","7","3","7","6","7","7","7","7","7","786709021557137410","王","336","Male","[""好我"",""坏我"",""好他"",""坏他""]","[""强我"",""弱我"",""强他"",""弱他""]","","","","","","","","2","","","","","","","","","SRET","SRET_math_calculate","","key","2","16.662692771084586","683","380","","","","","18/9= ?","2","1","","","","","","","",""
"2431","","5","psychophysics","108","394301","0.0-7.0-5.0-0.5","5","5","5","4","4","5","4","5","5","5","5","2","-3","2","2","2","2","2","2","5","5","5","5","5","5","5","5","5","5","5","5","6","5","5","8","6","8","8","7","7","3","7","7","7","7","3","7","6","1","5","7","6","7","7","7","7","7","6","7","6","7","4","2","3","5","7","7","7","7","7","7","3","7","6","7","7","7","7","7","786709021557137410","王","336","Male","[""好我"",""坏我"",""好他"",""坏他""]","[""强我"",""弱我"",""强他"",""弱他""]","","","","","","","","5","","","","","","","","","SRET","SRET_math_calculate","","key","5","16.662335616438362","683","380","","","","","17-12= ? ","5","1","","","","","","","",""
"2464","","7","psychophysics","109","396770","0.0-7.0-5.0-0.6","5","5","5","4","4","5","4","5","5","5","5","2","-3","2","2","2","2","2","2","5","5","5","5","5","5","5","5","5","5","5","5","6","5","5","8","6","8","8","7","7","3","7","7","7","7","3","7","6","1","5","7","6","7","7","7","7","7","6","7","6","7","4","2","3","5","7","7","7","7","7","7","3","7","6","7","7","7","7","7","786709021557137410","王","336","Male","[""好我"",""坏我"",""好他"",""坏他""]","[""强我"",""弱我"",""强他"",""弱他""]","","","","","","","","7","","","","","","","","","SRET","SRET_math_calculate","","key","7","16.66240816326538","683","380","","","","","6+1= ?","7","1","","","","","","","",""
"2248","","1","psychophysics","110","399033","0.0-7.0-5.0-0.7","5","5","5","4","4","5","4","5","5","5","5","2","-3","2","2","2","2","2","2","5","5","5","5","5","5","5","5","5","5","5","5","6","5","5","8","6","8","8","7","7","3","7","7","7","7","3","7","6","1","5","7","6","7","7","7","7","7","6","7","6","7","4","2","3","5","7","7","7","7","7","7","3","7","6","7","7","7","7","7","786709021557137410","王","336","Male","[""好我"",""坏我"",""好他"",""坏他""]","[""强我"",""弱我"",""强他"",""弱他""]","","","","","","","","1","","","","","","","","","SRET","SRET_math_calculate","","key","1","16.662392592592663","683","380","","","","","4/4= ?","1","1","","","","","","","",""
"2589","","6","psychophysics","111","401629","0.0-7.0-5.0-0.8","5","5","5","4","4","5","4","5","5","5","5","2","-3","2","2","2","2","2","2","5","5","5","5","5","5","5","5","5","5","5","5","6","5","5","8","6","8","8","7","7","3","7","7","7","7","3","7","6","1","5","7","6","7","7","7","7","7","6","7","6","7","4","2","3","5","7","7","7","7","7","7","3","7","6","7","7","7","7","7","786709021557137410","王","336","Male","[""好我"",""坏我"",""好他"",""坏他""]","[""强我"",""弱我"",""强他"",""弱他""]","","","","","","","","6","","","","","","","","","SRET","SRET_math_calculate","","key","6","16.662458064516017","683","380","","","","","3+3= ?","6","1","","","","","","","",""
"2217","","4","psychophysics","112","403851","0.0-7.0-5.0-0.9","5","5","5","4","4","5","4","5","5","5","5","2","-3","2","2","2","2","2","2","5","5","5","5","5","5","5","5","5","5","5","5","6","5","5","8","6","8","8","7","7","3","7","7","7","7","3","7","6","1","5","7","6","7","7","7","7","7","6","7","6","7","4","2","3","5","7","7","7","7","7","7","3","7","6","7","7","7","7","7","786709021557137410","王","336","Male","[""好我"",""坏我"",""好他"",""坏他""]","[""强我"",""弱我"",""强他"",""弱他""]","","","","","","","","4","","","","","","","","","SRET","SRET_math_calculate","","key","4","16.661977272727228","683","380","","","","","4*1= ?","4","1","","","","","","","",""
"2354","","5","psychophysics","113","406218","0.0-7.0-5.0-0.10","5","5","5","4","4","5","4","5","5","5","5","2","-3","2","2","2","2","2","2","5","5","5","5","5","5","5","5","5","5","5","5","6","5","5","8","6","8","8","7","7","3","7","7","7","7","3","7","6","1","5","7","6","7","7","7","7","7","6","7","6","7","4","2","3","5","7","7","7","7","7","7","3","7","6","7","7","7","7","7","786709021557137410","王","336","Male","[""好我"",""坏我"",""好他"",""坏他""]","[""强我"",""弱我"",""强他"",""弱他""]","","","","","","","","5","","","","","","","","","SRET","SRET_math_calculate","","key","5","16.661992907801523","683","380","","","","","9-4= ?","5","1","","","","","","","",""
"2921","","6","psychophysics","114","409144","0.0-7.0-5.0-0.11","5","5","5","4","4","5","4","5","5","5","5","2","-3","2","2","2","2","2","2","5","5","5","5","5","5","5","5","5","5","5","5","6","5","5","8","6","8","8","7","7","3","7","7","7","7","3","7","6","1","5","7","6","7","7","7","7","7","6","7","6","7","4","2","3","5","7","7","7","7","7","7","3","7","6","7","7","7","7","7","786709021557137410","王","336","Male","[""好我"",""坏我"",""好他"",""坏他""]","[""强我"",""弱我"",""强他"",""弱他""]","","","","","","","","6","","","","","","","","","SRET","SRET_math_calculate","","key","6","16.662262857142903","683","380","","","","","9-3= ?","6","1","","","","","","","",""
"3294","","7","psychophysics","115","412480","0.0-7.0-5.0-0.12","5","5","5","4","4","5","4","5","5","5","5","2","-3","2","2","2","2","2","2","5","5","5","5","5","5","5","5","5","5","5","5","6","5","5","8","6","8","8","7","7","3","7","7","7","7","3","7","6","1","5","7","6","7","7","7","7","7","6","7","6","7","4","2","3","5","7","7","7","7","7","7","3","7","6","7","7","7","7","7","786709021557137410","王","336","Male","[""好我"",""坏我"",""好他"",""坏他""]","[""强我"",""弱我"",""强他"",""弱他""]","","","","","","","","7","","","","","","","","","SRET","SRET_math_calculate","","key","7","16.662442211055282","683","380","","","","","49/7 = ?","7","1","","","","","","","",""
"2361","","2","psychophysics","116","414881","0.0-7.0-5.0-0.13","5","5","5","4","4","5","4","5","5","5","5","2","-3","2","2","2","2","2","2","5","5","5","5","5","5","5","5","5","5","5","5","6","5","5","8","6","8","8","7","7","3","7","7","7","7","3","7","6","1","5","7","6","7","7","7","7","7","6","7","6","7","4","2","3","5","7","7","7","7","7","7","3","7","6","7","7","7","7","7","786709021557137410","王","336","Male","[""好我"",""坏我"",""好他"",""坏他""]","[""强我"",""弱我"",""强他"",""弱他""]","","","","","","","","2","","","","","","","","","SRET","SRET_math_calculate","","key","2","16.780161971831365","683","380","","","","","21/7=  ?","3","0","","","","","","","",""
"2357","","9","psychophysics","117","417243","0.0-7.0-5.0-0.14","5","5","5","4","4","5","4","5","5","5","5","2","-3","2","2","2","2","2","2","5","5","5","5","5","5","5","5","5","5","5","5","6","5","5","8","6","8","8","7","7","3","7","7","7","7","3","7","6","1","5","7","6","7","7","7","7","7","6","7","6","7","4","2","3","5","7","7","7","7","7","7","3","7","6","7","7","7","7","7","786709021557137410","王","336","Male","[""好我"",""坏我"",""好他"",""坏他""]","[""强我"",""弱我"",""强他"",""弱他""]","","","","","","","","9","","","","","","","","","SRET","SRET_math_calculate","","key","9","16.780957142856952","683","380","","","","","3*3= ?","9","1","","","","","","","",""
"2569","","5","psychophysics","118","419817","0.0-7.0-5.0-0.15","5","5","5","4","4","5","4","5","5","5","5","2","-3","2","2","2","2","2","2","5","5","5","5","5","5","5","5","5","5","5","5","6","5","5","8","6","8","8","7","7","3","7","7","7","7","3","7","6","1","5","7","6","7","7","7","7","7","6","7","6","7","4","2","3","5","7","7","7","7","7","7","3","7","6","7","7","7","7","7","786709021557137410","王","336","Male","[""好我"",""坏我"",""好他"",""坏他""]","[""强我"",""弱我"",""强他"",""弱他""]","","","","","","","","5","","","","","","","","","SRET","SRET_math_calculate","","key","5","16.662764705882296","683","380","","","","","12-7= ?","5","1","","","","","","","",""
"2265","","5","psychophysics","119","422132","0.0-7.0-5.0-0.16","5","5","5","4","4","5","4","5","5","5","5","2","-3","2","2","2","2","2","2","5","5","5","5","5","5","5","5","5","5","5","5","6","5","5","8","6","8","8","7","7","3","7","7","7","7","3","7","6","1","5","7","6","7","7","7","7","7","6","7","6","7","4","2","3","5","7","7","7","7","7","7","3","7","6","7","7","7","7","7","786709021557137410","王","336","Male","[""好我"",""坏我"",""好他"",""坏他""]","[""强我"",""弱我"",""强他"",""弱他""]","","","","","","","","5","","","","","","","","","SRET","SRET_math_calculate","","key","5","16.784043795620363","683","380","","","","","8-3= ? ","5","1","","","","","","","",""
"3083","","0","psychophysics","120","425230","0.0-7.0-5.0-0.17","5","5","5","4","4","5","4","5","5","5","5","2","-3","2","2","2","2","2","2","5","5","5","5","5","5","5","5","5","5","5","5","6","5","5","8","6","8","8","7","7","3","7","7","7","7","3","7","6","1","5","7","6","7","7","7","7","7","6","7","6","7","4","2","3","5","7","7","7","7","7","7","3","7","6","7","7","7","7","7","786709021557137410","王","336","Male","[""好我"",""坏我"",""好他"",""坏他""]","[""强我"",""弱我"",""强他"",""弱他""]","","","","","","","","0","","","","","","","","","SRET","SRET_math_calculate","","key","0","16.661967567567764","683","380","","","","","1-1= ?","0","1","","","","","","","",""
"2176","","2","psychophysics","121","427448","0.0-7.0-5.0-0.18","5","5","5","4","4","5","4","5","5","5","5","2","-3","2","2","2","2","2","2","5","5","5","5","5","5","5","5","5","5","5","5","6","5","5","8","6","8","8","7","7","3","7","7","7","7","3","7","6","1","5","7","6","7","7","7","7","7","6","7","6","7","4","2","3","5","7","7","7","7","7","7","3","7","6","7","7","7","7","7","786709021557137410","王","336","Male","[""好我"",""坏我"",""好他"",""坏他""]","[""强我"",""弱我"",""强他"",""弱他""]","","","","","","","","2","","","","","","","","","SRET","SRET_math_calculate","","key","2","16.78952671755736","683","380","","","","","5-3= ?","2","1","","","","","","","",""
"2407","","7","psychophysics","122","429866","0.0-7.0-5.0-0.19","5","5","5","4","4","5","4","5","5","5","5","2","-3","2","2","2","2","2","2","5","5","5","5","5","5","5","5","5","5","5","5","6","5","5","8","6","8","8","7","7","3","7","7","7","7","3","7","6","1","5","7","6","7","7","7","7","7","6","7","6","7","4","2","3","5","7","7","7","7","7","7","3","7","6","7","7","7","7","7","786709021557137410","王","336","Male","[""好我"",""坏我"",""好他"",""坏他""]","[""强我"",""弱我"",""强他"",""弱他""]","","","","","","","","7","","","","","","","","","SRET","SRET_math_calculate","","key","7","16.662548611111156","683","380","","","","","21/3= ? ","7","1","","","","","","","",""
"2205","","3","psychophysics","123","432080","0.0-7.0-5.0-0.20","5","5","5","4","4","5","4","5","5","5","5","2","-3","2","2","2","2","2","2","5","5","5","5","5","5","5","5","5","5","5","5","6","5","5","8","6","8","8","7","7","3","7","7","7","7","3","7","6","1","5","7","6","7","7","7","7","7","6","7","6","7","4","2","3","5","7","7","7","7","7","7","3","7","6","7","7","7","7","7","786709021557137410","王","336","Male","[""好我"",""坏我"",""好他"",""坏他""]","[""强我"",""弱我"",""强他"",""弱他""]","","","","","","","","3","","","","","","","","","SRET","SRET_math_calculate","","key","3","16.662446969697186","683","380","","","","","9/3= ?","3","1","","","","","","","",""
"2339","","1","psychophysics","124","434435","0.0-7.0-5.0-0.21","5","5","5","4","4","5","4","5","5","5","5","2","-3","2","2","2","2","2","2","5","5","5","5","5","5","5","5","5","5","5","5","6","5","5","8","6","8","8","7","7","3","7","7","7","7","3","7","6","1","5","7","6","7","7","7","7","7","6","7","6","7","4","2","3","5","7","7","7","7","7","7","3","7","6","7","7","7","7","7","786709021557137410","王","336","Male","[""好我"",""坏我"",""好他"",""坏他""]","[""强我"",""弱我"",""强他"",""弱他""]","","","","","","","","1","","","","","","","","","SRET","SRET_math_calculate","","key","1","16.78174820143885","683","380","","","","","9-8= ?","1","1","","","","","","","",""
"2259","","3","psychophysics","125","436710","0.0-7.0-5.0-0.22","5","5","5","4","4","5","4","5","5","5","5","2","-3","2","2","2","2","2","2","5","5","5","5","5","5","5","5","5","5","5","5","6","5","5","8","6","8","8","7","7","3","7","7","7","7","3","7","6","1","5","7","6","7","7","7","7","7","6","7","6","7","4","2","3","5","7","7","7","7","7","7","3","7","6","7","7","7","7","7","786709021557137410","王","336","Male","[""好我"",""坏我"",""好他"",""坏他""]","[""强我"",""弱我"",""强他"",""弱他""]","","","","","","","","3","","","","","","","","","SRET","SRET_math_calculate","","key","3","16.66207352941188","683","380","","","","","11-8= ?","3","1","","","","","","","",""
"2833","","2","psychophysics","126","439559","0.0-7.0-5.0-0.23","5","5","5","4","4","5","4","5","5","5","5","2","-3","2","2","2","2","2","2","5","5","5","5","5","5","5","5","5","5","5","5","6","5","5","8","6","8","8","7","7","3","7","7","7","7","3","7","6","1","5","7","6","7","7","7","7","7","6","7","6","7","4","2","3","5","7","7","7","7","7","7","3","7","6","7","7","7","7","7","786709021557137410","王","336","Male","[""好我"",""坏我"",""好他"",""坏他""]","[""强我"",""弱我"",""强他"",""弱他""]","","","","","","","","2","","","","","","","","","SRET","SRET_math_calculate","","key","2","16.860720238095382","683","380","","","","","12/6= ?","2","1","","","","","","","",""
"3286","","8","psychophysics","127","442850","0.0-7.0-5.0-0.24","5","5","5","4","4","5","4","5","5","5","5","2","-3","2","2","2","2","2","2","5","5","5","5","5","5","5","5","5","5","5","5","6","5","5","8","6","8","8","7","7","3","7","7","7","7","3","7","6","1","5","7","6","7","7","7","7","7","6","7","6","7","4","2","3","5","7","7","7","7","7","7","3","7","6","7","7","7","7","7","786709021557137410","王","336","Male","[""好我"",""坏我"",""好他"",""坏他""]","[""强我"",""弱我"",""强他"",""弱他""]","","","","","","","","8","","","","","","","","","SRET","SRET_math_calculate","","key","8","16.662416243654743","683","380","","","","","11-4= ?","7","0","","","","","","","",""
"2865","","5","psychophysics","128","445720","0.0-7.0-5.0-0.25","5","5","5","4","4","5","4","5","5","5","5","2","-3","2","2","2","2","2","2","5","5","5","5","5","5","5","5","5","5","5","5","6","5","5","8","6","8","8","7","7","3","7","7","7","7","3","7","6","1","5","7","6","7","7","7","7","7","6","7","6","7","4","2","3","5","7","7","7","7","7","7","3","7","6","7","7","7","7","7","786709021557137410","王","336","Male","[""好我"",""坏我"",""好他"",""坏他""]","[""强我"",""弱我"",""强他"",""弱他""]","","","","","","","","5","","","","","","","","","SRET","SRET_math_calculate","","key","5","16.85944378698216","683","380","","","","","5/1= ?","5","1","","","","","","","",""
"2576","","6","psychophysics","129","448301","0.0-7.0-5.0-0.26","5","5","5","4","4","5","4","5","5","5","5","2","-3","2","2","2","2","2","2","5","5","5","5","5","5","5","5","5","5","5","5","6","5","5","8","6","8","8","7","7","3","7","7","7","7","3","7","6","1","5","7","6","7","7","7","7","7","6","7","6","7","4","2","3","5","7","7","7","7","7","7","3","7","6","7","7","7","7","7","786709021557137410","王","336","Male","[""好我"",""坏我"",""好他"",""坏他""]","[""强我"",""弱我"",""强他"",""弱他""]","","","","","","","","6","","","","","","","","","SRET","SRET_math_calculate","","key","6","16.662448051948004","683","380","","","","","2*3= ?","6","1","","","","","","","",""
"2542","","5","psychophysics","130","450850","0.0-7.0-5.0-0.27","5","5","5","4","4","5","4","5","5","5","5","2","-3","2","2","2","2","2","2","5","5","5","5","5","5","5","5","5","5","5","5","6","5","5","8","6","8","8","7","7","3","7","7","7","7","3","7","6","1","5","7","6","7","7","7","7","7","6","7","6","7","4","2","3","5","7","7","7","7","7","7","3","7","6","7","7","7","7","7","786709021557137410","王","336","Male","[""好我"",""坏我"",""好他"",""坏他""]","[""强我"",""弱我"",""强他"",""弱他""]","","","","","","","","5","","","","","","","","","SRET","SRET_math_calculate","","key","5","16.662118421052583","683","380","","","","","15-10= ?","5","1","","","","","","","",""
"2326","","5","psychophysics","131","453182","0.0-7.0-5.0-0.28","5","5","5","4","4","5","4","5","5","5","5","2","-3","2","2","2","2","2","2","5","5","5","5","5","5","5","5","5","5","5","5","6","5","5","8","6","8","8","7","7","3","7","7","7","7","3","7","6","1","5","7","6","7","7","7","7","7","6","7","6","7","4","2","3","5","7","7","7","7","7","7","3","7","6","7","7","7","7","7","786709021557137410","王","336","Male","[""好我"",""坏我"",""好他"",""坏他""]","[""强我"",""弱我"",""强他"",""弱他""]","","","","","","","","5","","","","","","","","","SRET","SRET_math_calculate","","key","5","16.66246043165464","683","380","","","","","4+1= ?","5","1","","","","","","","",""
"2428","","9","psychophysics","132","455616","0.0-7.0-5.0-0.29","5","5","5","4","4","5","4","5","5","5","5","2","-3","2","2","2","2","2","2","5","5","5","5","5","5","5","5","5","5","5","5","6","5","5","8","6","8","8","7","7","3","7","7","7","7","3","7","6","1","5","7","6","7","7","7","7","7","6","7","6","7","4","2","3","5","7","7","7","7","7","7","3","7","6","7","7","7","7","7","786709021557137410","王","336","Male","[""好我"",""坏我"",""好他"",""坏他""]","[""强我"",""弱我"",""强他"",""弱他""]","","","","","","","","9","","","","","","","","","SRET","SRET_math_calculate","","key","9","16.662262068965457","683","380","","","","","7+2= ?","9","1","","","","","","","",""
"2945","","7","psychophysics","133","458567","0.0-7.0-5.0-0.30","5","5","5","4","4","5","4","5","5","5","5","2","-3","2","2","2","2","2","2","5","5","5","5","5","5","5","5","5","5","5","5","6","5","5","8","6","8","8","7","7","3","7","7","7","7","3","7","6","1","5","7","6","7","7","7","7","7","6","7","6","7","4","2","3","5","7","7","7","7","7","7","3","7","6","7","7","7","7","7","786709021557137410","王","336","Male","[""好我"",""坏我"",""好他"",""坏他""]","[""强我"",""弱我"",""强他"",""弱他""]","","","","","","","","7","","","","","","","","","SRET","SRET_math_calculate","","key","7","16.662488636363626","683","380","","","","","12-5= ?","7","1","","","","","","","",""
"2324","","7","psychophysics","134","460896","0.0-7.0-5.0-0.31","5","5","5","4","4","5","4","5","5","5","5","2","-3","2","2","2","2","2","2","5","5","5","5","5","5","5","5","5","5","5","5","6","5","5","8","6","8","8","7","7","3","7","7","7","7","3","7","6","1","5","7","6","7","7","7","7","7","6","7","6","7","4","2","3","5","7","7","7","7","7","7","3","7","6","7","7","7","7","7","786709021557137410","王","336","Male","[""好我"",""坏我"",""好他"",""坏他""]","[""强我"",""弱我"",""强他"",""弱他""]","","","","","","","","7","","","","","","","","","SRET","SRET_math_calculate","","key","7","16.66211510791356","683","380","","","","","7*1=  ?","7","1","","","","","","","",""
"2343","","3","psychophysics","135","463246","0.0-7.0-5.0-0.32","5","5","5","4","4","5","4","5","5","5","5","2","-3","2","2","2","2","2","2","5","5","5","5","5","5","5","5","5","5","5","5","6","5","5","8","6","8","8","7","7","3","7","7","7","7","3","7","6","1","5","7","6","7","7","7","7","7","6","7","6","7","4","2","3","5","7","7","7","7","7","7","3","7","6","7","7","7","7","7","786709021557137410","王","336","Male","[""好我"",""坏我"",""好他"",""坏他""]","[""强我"",""弱我"",""强他"",""弱他""]","","","","","","","","3","","","","","","","","","SRET","SRET_math_calculate","","key","3","16.662092857142643","683","380","","","","","6/2= ?","3","1","","","","","","","",""
"3045","","8","psychophysics","136","466298","0.0-7.0-5.0-0.33","5","5","5","4","4","5","4","5","5","5","5","2","-3","2","2","2","2","2","2","5","5","5","5","5","5","5","5","5","5","5","5","6","5","5","8","6","8","8","7","7","3","7","7","7","7","3","7","6","1","5","7","6","7","7","7","7","7","6","7","6","7","4","2","3","5","7","7","7","7","7","7","3","7","6","7","7","7","7","7","786709021557137410","王","336","Male","[""好我"",""坏我"",""好他"",""坏他""]","[""强我"",""弱我"",""强他"",""弱他""]","","","","","","","","8","","","","","","","","","SRET","SRET_math_calculate","","key","8","16.66224175824171","683","380","","","","","72/9= ?","8","1","","","","","","","",""
"2417","","8","psychophysics","137","468720","0.0-7.0-5.0-0.34","5","5","5","4","4","5","4","5","5","5","5","2","-3","2","2","2","2","2","2","5","5","5","5","5","5","5","5","5","5","5","5","6","5","5","8","6","8","8","7","7","3","7","7","7","7","3","7","6","1","5","7","6","7","7","7","7","7","6","7","6","7","4","2","3","5","7","7","7","7","7","7","3","7","6","7","7","7","7","7","786709021557137410","王","336","Male","[""好我"",""坏我"",""好他"",""坏他""]","[""强我"",""弱我"",""强他"",""弱他""]","","","","","","","","8","","","","","","","","","SRET","SRET_math_calculate","","key","8","16.662340277778032","683","380","","","","","4+4= ?","8","1","","","","","","","",""
"2217","","1","psychophysics","138","470947","0.0-7.0-5.0-0.35","5","5","5","4","4","5","4","5","5","5","5","2","-3","2","2","2","2","2","2","5","5","5","5","5","5","5","5","5","5","5","5","6","5","5","8","6","8","8","7","7","3","7","7","7","7","3","7","6","1","5","7","6","7","7","7","7","7","6","7","6","7","4","2","3","5","7","7","7","7","7","7","3","7","6","7","7","7","7","7","786709021557137410","王","336","Male","[""好我"",""坏我"",""好他"",""坏他""]","[""强我"",""弱我"",""强他"",""弱他""]","","","","","","","","1","","","","","","","","","SRET","SRET_math_calculate","","key","1","16.662323308270512","683","380","","","","","10-9= ?","1","1","","","","","","","",""
"2855","","6","psychophysics","139","473810","0.0-7.0-5.0-0.36","5","5","5","4","4","5","4","5","5","5","5","2","-3","2","2","2","2","2","2","5","5","5","5","5","5","5","5","5","5","5","5","6","5","5","8","6","8","8","7","7","3","7","7","7","7","3","7","6","1","5","7","6","7","7","7","7","7","6","7","6","7","4","2","3","5","7","7","7","7","7","7","3","7","6","7","7","7","7","7","786709021557137410","王","336","Male","[""好我"",""坏我"",""好他"",""坏他""]","[""强我"",""弱我"",""强他"",""弱他""]","","","","","","","","6","","","","","","","","","SRET","SRET_math_calculate","","key","6","16.66222222222217","683","380","","","","","3*2= ?","6","1","","","","","","","",""
"2217","","8","psychophysics","140","476071","0.0-7.0-5.0-0.37","5","5","5","4","4","5","4","5","5","5","5","2","-3","2","2","2","2","2","2","5","5","5","5","5","5","5","5","5","5","5","5","6","5","5","8","6","8","8","7","7","3","7","7","7","7","3","7","6","1","5","7","6","7","7","7","7","7","6","7","6","7","4","2","3","5","7","7","7","7","7","7","3","7","6","7","7","7","7","7","786709021557137410","王","336","Male","[""好我"",""坏我"",""好他"",""坏他""]","[""强我"",""弱我"",""强他"",""弱他""]","","","","","","","","8","","","","","","","","","SRET","SRET_math_calculate","","key","8","16.6629402985077","683","380","","","","","3+5= ?","8","1","","","","","","","",""
"2818","","6","psychophysics","141","478901","0.0-7.0-5.0-0.38","5","5","5","4","4","5","4","5","5","5","5","2","-3","2","2","2","2","2","2","5","5","5","5","5","5","5","5","5","5","5","5","6","5","5","8","6","8","8","7","7","3","7","7","7","7","3","7","6","1","5","7","6","7","7","7","7","7","6","7","6","7","4","2","3","5","7","7","7","7","7","7","3","7","6","7","7","7","7","7","786709021557137410","王","336","Male","[""好我"",""坏我"",""好他"",""坏他""]","[""强我"",""弱我"",""强他"",""弱他""]","","","","","","","","6","","","","","","","","","SRET","SRET_math_calculate","","key","6","16.662337278106495","683","380","","","","","11-5= ?","6","1","","","","","","","",""
"2848","","9","psychophysics","142","481765","0.0-7.0-5.0-0.39","5","5","5","4","4","5","4","5","5","5","5","2","-3","2","2","2","2","2","2","5","5","5","5","5","5","5","5","5","5","5","5","6","5","5","8","6","8","8","7","7","3","7","7","7","7","3","7","6","1","5","7","6","7","7","7","7","7","6","7","6","7","4","2","3","5","7","7","7","7","7","7","3","7","6","7","7","7","7","7","786709021557137410","王","336","Male","[""好我"",""坏我"",""好他"",""坏他""]","[""强我"",""弱我"",""强他"",""弱他""]","","","","","","","","9","","","","","","","","","SRET","SRET_math_calculate","","key","9","16.7599411764706","683","380","","","","","18/2= ?","9","1","","","","","","","",""
