"rt","stimulus","response","trial_type","trial_index","time_elapsed","internal_node_id","swb_1","swb_2","swb_3","swb_4","swb_5","LOT_1","LOT_2","LOT_3","LOT_4","LOT_5","LOT_6","IPC_1","IPC_2","IPC_3","IPC_4","IPC_5","IPC_6","IPC_7","IPC_8","MorIden_1","MorIden_2","MorIden_3","MorIden_4","MorIden_5","MorIden_6","MorIden_7","MorIden_8","MorIden_9","MorIden_10","moralSeImag_1","moralSeImag_2","moralSeImag_3","moralSeImag_4","moralSeImag_5","moralSeImag_6","moralSeImag_7","moralSeImag_8","moralSeImag_9","sde_1","sde_2","sde_3","sde_4","sde_5","sde_6","sde_7","sde_8","sde_9","sde_10","trap2","sde_11","sde_12","sde_13","sde_14","sde_15","sde_16","sde_17","sde_18","sde_19","sde_20","IM_1","IM_2","IM_3","IM_4","IM_5","IM_6","IM_7","IM_8","IM_9","IM_10","IM_11","IM_12","IM_13","IM_14","IM_15","IM_16","IM_17","IM_18","IM_19","IM_20","subj_idx","friend_name","ParticipantID","Sex","Word","Word2","value","success","timeout","failed_images","failed_audio","failed_video","user_agent","responses","item_order","radio_event_ids","radio_event_times","key_event_times","mouse_event_times","straightlining","zigzagging","honeypot","view_history","response_type","key_press","avg_frame_time","center_x","center_y","correct_response","correct","identity","Image","word","condition","task_id","screen_id","time_stamp","person","valence","domain","math","status","duration","question_order","trap2_item"
"1603","
   <p><div style='color:white; font-size: 25px'>您好，欢迎参加本次实验。</div></p>
   <p><div style='color:white; font-size: 25px'>为充分保障您的权利，请确保您已经知晓并同意《参与实验同意书》以及《数据公开知情同意书》。</div></p>
   <p><div style='color:white; font-size: 25px'>如果您未见过上述内容，请咨询实验员。</div></p>
   <p style='color:white; font-size: 25px'>如果您选择继续实验，则表示您已经清楚两份知情同意书的内容并同意。</p>
   <p><div style = ""color: pink;font-size:30px;"">请确保您记得day0的实验编号，您将在本次实验输入该编号，若您忘记，请咨询实验员后作答。</div></p>
   <p><div style = ""color:lightblue;font-size:25px;"">请您尽可能认真地作答，我们将依据您在各问卷和按键任务中的作答质量发放报酬。</div></p>
   <p> <div style = ""color: green""><按空格键至下页></div> </p>
   "," ","html-keyboard-response","0","1605","0.0-0.0","7","7","7","7","7","5","5","5","5","5","5","2","0","2","2","0","1","2","2","5","5","5","5","5","5","5","5","5","5","5","5","5","6","5","5","5","5","5","7","7","7","7","7","7","7","7","7","7","1","7","7","7","7","7","7","7","7","7","7","7","7","7","7","7","7","7","7","7","7","7","7","7","7","7","7","7","7","7","7","618876128202850304","范","470","Male","[""好他"",""坏我"",""好我"",""坏他""]","[""强他"",""弱我"",""强我"",""弱他""]","","","","","","","","","","","","","","","","","","","","","","","","","","","","","","","","","","","","","","",""
"","","","call-function","1","1606","0.0-1.0-0.0","7","7","7","7","7","5","5","5","5","5","5","2","0","2","2","0","1","2","2","5","5","5","5","5","5","5","5","5","5","5","5","5","6","5","5","5","5","5","7","7","7","7","7","7","7","7","7","7","1","7","7","7","7","7","7","7","7","7","7","7","7","7","7","7","7","7","7","7","7","7","7","7","7","7","7","7","7","7","7","618876128202850304","范","470","Male","[""好他"",""坏我"",""好我"",""坏他""]","[""强他"",""弱我"",""强我"",""弱他""]","","","","","","","","","","","","","","","","","","","","","","","","","","","","","","","","","","","","","","",""
"9183","","[{""name"":""Sex"",""value"":""0""},{""name"":""friend_name"",""value"":""范""},{""name"":""ParticipantID"",""value"":""470""}]","survey-html-form","2","10790","0.0-1.0-1.0","7","7","7","7","7","5","5","5","5","5","5","2","0","2","2","0","1","2","2","5","5","5","5","5","5","5","5","5","5","5","5","5","6","5","5","5","5","5","7","7","7","7","7","7","7","7","7","7","1","7","7","7","7","7","7","7","7","7","7","7","7","7","7","7","7","7","7","7","7","7","7","7","7","7","7","7","7","7","7","618876128202850304","范","470","Male","[""好他"",""坏我"",""好我"",""坏他""]","[""强他"",""弱我"",""强我"",""弱他""]","","","","","","","","","","","","","","","","","","","","","","","","","","","","","","","","","","","","","","",""
"","","","preload","3","10933","0.0-2.0","7","7","7","7","7","5","5","5","5","5","5","2","0","2","2","0","1","2","2","5","5","5","5","5","5","5","5","5","5","5","5","5","6","5","5","5","5","5","7","7","7","7","7","7","7","7","7","7","1","7","7","7","7","7","7","7","7","7","7","7","7","7","7","7","7","7","7","7","7","7","7","7","7","7","7","7","7","7","7","618876128202850304","范","470","Male","[""好他"",""坏我"",""好我"",""坏他""]","[""强他"",""弱我"",""强我"",""弱他""]","","true","false","[]","[]","[]","","","","","","","","","","","","","","","","","","","","","","","","","","","","","","","","",""
"","","","fullscreen","4","12269","0.0-3.0","7","7","7","7","7","5","5","5","5","5","5","2","0","2","2","0","1","2","2","5","5","5","5","5","5","5","5","5","5","5","5","5","6","5","5","5","5","5","7","7","7","7","7","7","7","7","7","7","1","7","7","7","7","7","7","7","7","7","7","7","7","7","7","7","7","7","7","7","7","7","7","7","7","7","7","7","7","7","7","618876128202850304","范","470","Male","[""好他"",""坏我"",""好我"",""坏他""]","[""强他"",""弱我"",""强我"",""弱他""]","","true","","","","","{}","","","","","","","","","","","","","","","","","","","","","","","","","","","","","","","",""
"13125.800000071526","","{""Q01"":""7"",""Q02"":""7"",""Q03"":""7"",""Q04"":""7"",""Q05"":""7""}","survey-template","5","25396","0.0-4.0","7","7","7","7","7","5","5","5","5","5","5","2","0","2","2","0","1","2","2","5","5","5","5","5","5","5","5","5","5","5","5","5","6","5","5","5","5","5","7","7","7","7","7","7","7","7","7","7","1","7","7","7","7","7","7","7","7","7","7","7","7","7","7","7","7","7","7","7","7","7","7","7","7","7","7","7","7","7","7","618876128202850304","范","470","Male","[""好他"",""坏我"",""好我"",""坏他""]","[""强他"",""弱我"",""强我"",""弱他""]","","","","","","","","{""Q01"":""7"",""Q02"":""7"",""Q03"":""7"",""Q04"":""7"",""Q05"":""7""}","[0,1,2,3,4]","[""Q01"",""Q02"",""Q03"",""Q04"",""Q05""]","[3297.399999976158,6653.600000023842,7885.5,9369.399999976158,11629.800000071526]","[]","[3297.399999976158,5053.800000071526,6653.600000023842,7885.5,9369.399999976158,11629.800000071526,13124.899999976158]","1","0","0","","","","","","","","","","","","","","","","","","","","","","",""
"16815.200000047684","","{""Q01"":""5"",""Q02"":""5"",""Q03"":""5"",""Q04"":""5"",""Q05"":""5"",""Q06"":""5""}","survey-template","6","42215","0.0-5.0","7","7","7","7","7","5","5","5","5","5","5","2","0","2","2","0","1","2","2","5","5","5","5","5","5","5","5","5","5","5","5","5","6","5","5","5","5","5","7","7","7","7","7","7","7","7","7","7","1","7","7","7","7","7","7","7","7","7","7","7","7","7","7","7","7","7","7","7","7","7","7","7","7","7","7","7","7","7","7","618876128202850304","范","470","Male","[""好他"",""坏我"",""好我"",""坏他""]","[""强他"",""弱我"",""强我"",""弱他""]","","","","","","","","{""Q01"":""5"",""Q02"":""5"",""Q03"":""5"",""Q04"":""5"",""Q05"":""5"",""Q06"":""5""}","[0,1,2,3,4,5]","[""Q01"",""Q02"",""Q03"",""Q04"",""Q05"",""Q06""]","[2939.7000000476837,7978.200000047684,9911.100000023842,12034.399999976158,13321.200000047684,15745.800000071526]","[]","[2939.7000000476837,7978.200000047684,9911.100000023842,12034.399999976158,13321.200000047684,15745.800000071526,16814.100000023842]","0.5","0.8","0","","","","","","","","","","","","","","","","","","","","","","",""
"21487.300000071526","","{""Q01"":""2"",""Q02"":""0"",""Q03"":""2"",""Q04"":""2"",""Q05"":""0"",""Q06"":""1"",""Q07"":""2"",""Q08"":""2""}","survey-template","7","63705","0.0-6.0","7","7","7","7","7","5","5","5","5","5","5","2","0","2","2","0","1","2","2","5","5","5","5","5","5","5","5","5","5","5","5","5","6","5","5","5","5","5","7","7","7","7","7","7","7","7","7","7","1","7","7","7","7","7","7","7","7","7","7","7","7","7","7","7","7","7","7","7","7","7","7","7","7","7","7","7","7","7","7","618876128202850304","范","470","Male","[""好他"",""坏我"",""好我"",""坏他""]","[""强他"",""弱我"",""强我"",""弱他""]","","","","","","","","{""Q01"":""2"",""Q02"":""0"",""Q03"":""2"",""Q04"":""2"",""Q05"":""0"",""Q06"":""1"",""Q07"":""2"",""Q08"":""2""}","[0,1,2,3,4,5,6,7]","[""Q01"",""Q02"",""Q03"",""Q04"",""Q05"",""Q06"",""Q07"",""Q08""]","[2030.9000000953674,5897.300000071526,9076.5,10880.900000095367,14005.300000071526,15454.200000047684,18613.800000071526,20505.600000023842]","[]","[2030.9000000953674,3774.2000000476837,5897.300000071526,9076.5,10880.900000095367,14005.300000071526,15454.200000047684,18613.800000071526,20505.600000023842,21486.300000071526]","0.625","0.2857142857142857","0","","","","","","","","","","","","","","","","","","","","","","",""
"2836","","","instructions","8","66542","0.0-7.0","7","7","7","7","7","5","5","5","5","5","5","2","0","2","2","0","1","2","2","5","5","5","5","5","5","5","5","5","5","5","5","5","6","5","5","5","5","5","7","7","7","7","7","7","7","7","7","7","1","7","7","7","7","7","7","7","7","7","7","7","7","7","7","7","7","7","7","7","7","7","7","7","7","7","7","7","7","7","7","618876128202850304","范","470","Male","[""好他"",""坏我"",""好我"",""坏他""]","[""强他"",""弱我"",""强我"",""弱他""]","","","","","","","","","","","","","","","","","[{""page_index"":0,""viewing_time"":2836}]","","","","","","","","","","","","","","","","","","","","","",""
"116883","","","instructions","9","183427","0.0-8.0-1.0-0.0","7","7","7","7","7","5","5","5","5","5","5","2","0","2","2","0","1","2","2","5","5","5","5","5","5","5","5","5","5","5","5","5","6","5","5","5","5","5","7","7","7","7","7","7","7","7","7","7","1","7","7","7","7","7","7","7","7","7","7","7","7","7","7","7","7","7","7","7","7","7","7","7","7","7","7","7","7","7","7","618876128202850304","范","470","Male","[""好他"",""坏我"",""好我"",""坏他""]","[""强他"",""弱我"",""强我"",""弱他""]","","","","","","","","","","","","","","","","","[{""page_index"":0,""viewing_time"":15342},{""page_index"":1,""viewing_time"":97648},{""page_index"":2,""viewing_time"":2091},{""page_index"":3,""viewing_time"":1802}]","","","","","","","","","","","","","","","","","","","","","",""
"869","","f","psychophysics","10","185299","0.0-8.0-1.0-1.0-0.0-0.0","7","7","7","7","7","5","5","5","5","5","5","2","0","2","2","0","1","2","2","5","5","5","5","5","5","5","5","5","5","5","5","5","6","5","5","5","5","5","7","7","7","7","7","7","7","7","7","7","1","7","7","7","7","7","7","7","7","7","7","7","7","7","7","7","7","7","7","7","7","7","7","7","7","7","7","7","7","7","7","618876128202850304","范","470","Male","[""好他"",""坏我"",""好我"",""坏他""]","[""强他"",""弱我"",""强我"",""弱他""]","","","","","","","","match","","","","","","","","","","key","f","16.65807142857141","640","356","j","false","nonmatch","img/square.png","强我","强他","prac_ALT2_ability","practice_ability","","","","","","","","",""
"null","<span style='color:red; font-size: 70px;'>错误! </span>","null","html-keyboard-response","11","185800","0.0-8.0-1.0-1.0-0.0-1.0","7","7","7","7","7","5","5","5","5","5","5","2","0","2","2","0","1","2","2","5","5","5","5","5","5","5","5","5","5","5","5","5","6","5","5","5","5","5","7","7","7","7","7","7","7","7","7","7","1","7","7","7","7","7","7","7","7","7","7","7","7","7","7","7","7","7","7","7","7","7","7","7","7","7","7","7","7","7","7","618876128202850304","范","470","Male","[""好他"",""坏我"",""好我"",""坏他""]","[""强他"",""弱我"",""强我"",""弱他""]","","","","","","","","","","","","","","","","","","","","","","","","","","","","","","feedback_test","","","","","","","","",""
"null","","null","psychophysics","12","188004","0.0-8.0-1.0-1.0-0.0-0.1","7","7","7","7","7","5","5","5","5","5","5","2","0","2","2","0","1","2","2","5","5","5","5","5","5","5","5","5","5","5","5","5","6","5","5","5","5","5","7","7","7","7","7","7","7","7","7","7","1","7","7","7","7","7","7","7","7","7","7","7","7","7","7","7","7","7","7","7","7","7","7","7","7","7","7","7","7","7","7","618876128202850304","范","470","Male","[""好他"",""坏我"",""好我"",""坏他""]","[""强他"",""弱我"",""强我"",""弱他""]","","","","","","","","null","","","","","","","","","","key","null","16.653133858267747","640","356","f","false","match","img/ellipse.png","强我","强我","prac_ALT2_ability","practice_ability","","","","","","","","",""
"null","<span class='add_' style='color:yellow; font-size: 70px;'> 太慢! </span>","null","html-keyboard-response","13","188505","0.0-8.0-1.0-1.0-0.0-1.1","7","7","7","7","7","5","5","5","5","5","5","2","0","2","2","0","1","2","2","5","5","5","5","5","5","5","5","5","5","5","5","5","6","5","5","5","5","5","7","7","7","7","7","7","7","7","7","7","1","7","7","7","7","7","7","7","7","7","7","7","7","7","7","7","7","7","7","7","7","7","7","7","7","7","7","7","7","7","7","618876128202850304","范","470","Male","[""好他"",""坏我"",""好我"",""坏他""]","[""强他"",""弱我"",""强我"",""弱他""]","","","","","","","","","","","","","","","","","","","","","","","","","","","","","","feedback_test","","","","","","","","",""
"1140","","j","psychophysics","14","190648","0.0-8.0-1.0-1.0-0.0-0.2","7","7","7","7","7","5","5","5","5","5","5","2","0","2","2","0","1","2","2","5","5","5","5","5","5","5","5","5","5","5","5","5","6","5","5","5","5","5","7","7","7","7","7","7","7","7","7","7","1","7","7","7","7","7","7","7","7","7","7","7","7","7","7","7","7","7","7","7","7","7","7","7","7","7","7","7","7","7","7","618876128202850304","范","470","Male","[""好他"",""坏我"",""好我"",""坏他""]","[""强他"",""弱我"",""强我"",""弱他""]","","","","","","","","nonmatch","","","","","","","","","","key","j","16.65599999999986","640","356","f","false","match","img/triangle.png","弱他","弱他","prac_ALT2_ability","practice_ability","","","","","","","","",""
"null","<span style='color:red; font-size: 70px;'>错误! </span>","null","html-keyboard-response","15","191149","0.0-8.0-1.0-1.0-0.0-1.2","7","7","7","7","7","5","5","5","5","5","5","2","0","2","2","0","1","2","2","5","5","5","5","5","5","5","5","5","5","5","5","5","6","5","5","5","5","5","7","7","7","7","7","7","7","7","7","7","1","7","7","7","7","7","7","7","7","7","7","7","7","7","7","7","7","7","7","7","7","7","7","7","7","7","7","7","7","7","7","618876128202850304","范","470","Male","[""好他"",""坏我"",""好我"",""坏他""]","[""强他"",""弱我"",""强我"",""弱他""]","","","","","","","","","","","","","","","","","","","","","","","","","","","","","","feedback_test","","","","","","","","",""
"null","","null","psychophysics","16","193351","0.0-8.0-1.0-1.0-0.0-0.3","7","7","7","7","7","5","5","5","5","5","5","2","0","2","2","0","1","2","2","5","5","5","5","5","5","5","5","5","5","5","5","5","6","5","5","5","5","5","7","7","7","7","7","7","7","7","7","7","1","7","7","7","7","7","7","7","7","7","7","7","7","7","7","7","7","7","7","7","7","7","7","7","7","7","7","7","7","7","7","618876128202850304","范","470","Male","[""好他"",""坏我"",""好我"",""坏他""]","[""强他"",""弱我"",""强我"",""弱他""]","","","","","","","","null","","","","","","","","","","key","null","16.649228346456617","640","356","j","false","nonmatch","img/triangle.png","弱我","弱他","prac_ALT2_ability","practice_ability","","","","","","","","",""
"null","<span class='add_' style='color:yellow; font-size: 70px;'> 太慢! </span>","null","html-keyboard-response","17","193853","0.0-8.0-1.0-1.0-0.0-1.3","7","7","7","7","7","5","5","5","5","5","5","2","0","2","2","0","1","2","2","5","5","5","5","5","5","5","5","5","5","5","5","5","6","5","5","5","5","5","7","7","7","7","7","7","7","7","7","7","1","7","7","7","7","7","7","7","7","7","7","7","7","7","7","7","7","7","7","7","7","7","7","7","7","7","7","7","7","7","7","618876128202850304","范","470","Male","[""好他"",""坏我"",""好我"",""坏他""]","[""强他"",""弱我"",""强我"",""弱他""]","","","","","","","","","","","","","","","","","","","","","","","","","","","","","","feedback_test","","","","","","","","",""
"1084","","f","psychophysics","18","195938","0.0-8.0-1.0-1.0-0.0-0.4","7","7","7","7","7","5","5","5","5","5","5","2","0","2","2","0","1","2","2","5","5","5","5","5","5","5","5","5","5","5","5","5","6","5","5","5","5","5","7","7","7","7","7","7","7","7","7","7","1","7","7","7","7","7","7","7","7","7","7","7","7","7","7","7","7","7","7","7","7","7","7","7","7","7","7","7","7","7","7","618876128202850304","范","470","Male","[""好他"",""坏我"",""好我"",""坏他""]","[""强他"",""弱我"",""强我"",""弱他""]","","","","","","","","match","","","","","","","","","","key","f","16.65047107438012","640","356","f","true","match","img/square.png","强他","强他","prac_ALT2_ability","practice_ability","","","","","","","","",""
"null","<span style='color:GreenYellow; font-size: 70px;'>正确! </span>","null","html-keyboard-response","19","196440","0.0-8.0-1.0-1.0-0.0-1.4","7","7","7","7","7","5","5","5","5","5","5","2","0","2","2","0","1","2","2","5","5","5","5","5","5","5","5","5","5","5","5","5","6","5","5","5","5","5","7","7","7","7","7","7","7","7","7","7","1","7","7","7","7","7","7","7","7","7","7","7","7","7","7","7","7","7","7","7","7","7","7","7","7","7","7","7","7","7","7","618876128202850304","范","470","Male","[""好他"",""坏我"",""好我"",""坏他""]","[""强他"",""弱我"",""强我"",""弱他""]","","","","","","","","","","","","","","","","","","","","","","","","","","","","","","feedback_test","","","","","","","","",""
"null","","null","psychophysics","20","198643","0.0-8.0-1.0-1.0-0.0-0.5","7","7","7","7","7","5","5","5","5","5","5","2","0","2","2","0","1","2","2","5","5","5","5","5","5","5","5","5","5","5","5","5","6","5","5","5","5","5","7","7","7","7","7","7","7","7","7","7","1","7","7","7","7","7","7","7","7","7","7","7","7","7","7","7","7","7","7","7","7","7","7","7","7","7","7","7","7","7","7","618876128202850304","范","470","Male","[""好他"",""坏我"",""好我"",""坏他""]","[""强他"",""弱我"",""强我"",""弱他""]","","","","","","","","null","","","","","","","","","","key","null","16.655055118110084","640","356","f","false","match","img/pentagon.png","弱我","弱我","prac_ALT2_ability","practice_ability","","","","","","","","",""
"null","<span class='add_' style='color:yellow; font-size: 70px;'> 太慢! </span>","null","html-keyboard-response","21","199145","0.0-8.0-1.0-1.0-0.0-1.5","7","7","7","7","7","5","5","5","5","5","5","2","0","2","2","0","1","2","2","5","5","5","5","5","5","5","5","5","5","5","5","5","6","5","5","5","5","5","7","7","7","7","7","7","7","7","7","7","1","7","7","7","7","7","7","7","7","7","7","7","7","7","7","7","7","7","7","7","7","7","7","7","7","7","7","7","7","7","7","618876128202850304","范","470","Male","[""好他"",""坏我"",""好我"",""坏他""]","[""强他"",""弱我"",""强我"",""弱他""]","","","","","","","","","","","","","","","","","","","","","","","","","","","","","","feedback_test","","","","","","","","",""
"null","","null","psychophysics","22","201348","0.0-8.0-1.0-1.0-0.0-0.6","7","7","7","7","7","5","5","5","5","5","5","2","0","2","2","0","1","2","2","5","5","5","5","5","5","5","5","5","5","5","5","5","6","5","5","5","5","5","7","7","7","7","7","7","7","7","7","7","1","7","7","7","7","7","7","7","7","7","7","7","7","7","7","7","7","7","7","7","7","7","7","7","7","7","7","7","7","7","7","618876128202850304","范","470","Male","[""好他"",""坏我"",""好我"",""坏他""]","[""强他"",""弱我"",""强我"",""弱他""]","","","","","","","","null","","","","","","","","","","key","null","16.656653543307005","640","356","j","false","nonmatch","img/triangle.png","强我","弱他","prac_ALT2_ability","practice_ability","","","","","","","","",""
"null","<span class='add_' style='color:yellow; font-size: 70px;'> 太慢! </span>","null","html-keyboard-response","23","201850","0.0-8.0-1.0-1.0-0.0-1.6","7","7","7","7","7","5","5","5","5","5","5","2","0","2","2","0","1","2","2","5","5","5","5","5","5","5","5","5","5","5","5","5","6","5","5","5","5","5","7","7","7","7","7","7","7","7","7","7","1","7","7","7","7","7","7","7","7","7","7","7","7","7","7","7","7","7","7","7","7","7","7","7","7","7","7","7","7","7","7","618876128202850304","范","470","Male","[""好他"",""坏我"",""好我"",""坏他""]","[""强他"",""弱我"",""强我"",""弱他""]","","","","","","","","","","","","","","","","","","","","","","","","","","","","","","feedback_test","","","","","","","","",""
"704","","f","psychophysics","24","203556","0.0-8.0-1.0-1.0-0.0-0.7","7","7","7","7","7","5","5","5","5","5","5","2","0","2","2","0","1","2","2","5","5","5","5","5","5","5","5","5","5","5","5","5","6","5","5","5","5","5","7","7","7","7","7","7","7","7","7","7","1","7","7","7","7","7","7","7","7","7","7","7","7","7","7","7","7","7","7","7","7","7","7","7","7","7","7","7","7","7","7","618876128202850304","范","470","Male","[""好他"",""坏我"",""好我"",""坏他""]","[""强他"",""弱我"",""强我"",""弱他""]","","","","","","","","match","","","","","","","","","","key","f","16.65573267326725","640","356","j","false","nonmatch","img/square.png","弱他","强他","prac_ALT2_ability","practice_ability","","","","","","","","",""
"null","<span style='color:red; font-size: 70px;'>错误! </span>","null","html-keyboard-response","25","204057","0.0-8.0-1.0-1.0-0.0-1.7","7","7","7","7","7","5","5","5","5","5","5","2","0","2","2","0","1","2","2","5","5","5","5","5","5","5","5","5","5","5","5","5","6","5","5","5","5","5","7","7","7","7","7","7","7","7","7","7","1","7","7","7","7","7","7","7","7","7","7","7","7","7","7","7","7","7","7","7","7","7","7","7","7","7","7","7","7","7","7","618876128202850304","范","470","Male","[""好他"",""坏我"",""好我"",""坏他""]","[""强他"",""弱我"",""强我"",""弱他""]","","","","","","","","","","","","","","","","","","","","","","","","","","","","","","feedback_test","","","","","","","","",""
"959","","f","psychophysics","26","206018","0.0-8.0-1.0-1.0-0.0-0.8","7","7","7","7","7","5","5","5","5","5","5","2","0","2","2","0","1","2","2","5","5","5","5","5","5","5","5","5","5","5","5","5","6","5","5","5","5","5","7","7","7","7","7","7","7","7","7","7","1","7","7","7","7","7","7","7","7","7","7","7","7","7","7","7","7","7","7","7","7","7","7","7","7","7","7","7","7","7","7","618876128202850304","范","470","Male","[""好他"",""坏我"",""好我"",""坏他""]","[""强他"",""弱我"",""强我"",""弱他""]","","","","","","","","match","","","","","","","","","","key","f","16.653179487179415","640","356","j","false","nonmatch","img/pentagon.png","强他","弱我","prac_ALT2_ability","practice_ability","","","","","","","","",""
"null","<span style='color:red; font-size: 70px;'>错误! </span>","null","html-keyboard-response","27","206520","0.0-8.0-1.0-1.0-0.0-1.8","7","7","7","7","7","5","5","5","5","5","5","2","0","2","2","0","1","2","2","5","5","5","5","5","5","5","5","5","5","5","5","5","6","5","5","5","5","5","7","7","7","7","7","7","7","7","7","7","1","7","7","7","7","7","7","7","7","7","7","7","7","7","7","7","7","7","7","7","7","7","7","7","7","7","7","7","7","7","7","618876128202850304","范","470","Male","[""好他"",""坏我"",""好我"",""坏他""]","[""强他"",""弱我"",""强我"",""弱他""]","","","","","","","","","","","","","","","","","","","","","","","","","","","","","","feedback_test","","","","","","","","",""
"870","","j","psychophysics","28","208391","0.0-8.0-1.0-1.0-0.0-0.9","7","7","7","7","7","5","5","5","5","5","5","2","0","2","2","0","1","2","2","5","5","5","5","5","5","5","5","5","5","5","5","5","6","5","5","5","5","5","7","7","7","7","7","7","7","7","7","7","1","7","7","7","7","7","7","7","7","7","7","7","7","7","7","7","7","7","7","7","7","7","7","7","7","7","7","7","7","7","7","618876128202850304","范","470","Male","[""好他"",""坏我"",""好我"",""坏他""]","[""强他"",""弱我"",""强我"",""弱他""]","","","","","","","","nonmatch","","","","","","","","","","key","j","16.65661261261253","640","356","f","false","match","img/pentagon.png","弱我","弱我","prac_ALT2_ability","practice_ability","","","","","","","","",""
"null","<span style='color:red; font-size: 70px;'>错误! </span>","null","html-keyboard-response","29","208892","0.0-8.0-1.0-1.0-0.0-1.9","7","7","7","7","7","5","5","5","5","5","5","2","0","2","2","0","1","2","2","5","5","5","5","5","5","5","5","5","5","5","5","5","6","5","5","5","5","5","7","7","7","7","7","7","7","7","7","7","1","7","7","7","7","7","7","7","7","7","7","7","7","7","7","7","7","7","7","7","7","7","7","7","7","7","7","7","7","7","7","618876128202850304","范","470","Male","[""好他"",""坏我"",""好我"",""坏他""]","[""强他"",""弱我"",""强我"",""弱他""]","","","","","","","","","","","","","","","","","","","","","","","","","","","","","","feedback_test","","","","","","","","",""
"749","","j","psychophysics","30","210642","0.0-8.0-1.0-1.0-0.0-0.10","7","7","7","7","7","5","5","5","5","5","5","2","0","2","2","0","1","2","2","5","5","5","5","5","5","5","5","5","5","5","5","5","6","5","5","5","5","5","7","7","7","7","7","7","7","7","7","7","1","7","7","7","7","7","7","7","7","7","7","7","7","7","7","7","7","7","7","7","7","7","7","7","7","7","7","7","7","7","7","618876128202850304","范","470","Male","[""好他"",""坏我"",""好我"",""坏他""]","[""强他"",""弱我"",""强我"",""弱他""]","","","","","","","","nonmatch","","","","","","","","","","key","j","16.649538461538423","640","356","j","true","nonmatch","img/pentagon.png","弱他","弱我","prac_ALT2_ability","practice_ability","","","","","","","","",""
"null","<span style='color:GreenYellow; font-size: 70px;'>正确! </span>","null","html-keyboard-response","31","211143","0.0-8.0-1.0-1.0-0.0-1.10","7","7","7","7","7","5","5","5","5","5","5","2","0","2","2","0","1","2","2","5","5","5","5","5","5","5","5","5","5","5","5","5","6","5","5","5","5","5","7","7","7","7","7","7","7","7","7","7","1","7","7","7","7","7","7","7","7","7","7","7","7","7","7","7","7","7","7","7","7","7","7","7","7","7","7","7","7","7","7","618876128202850304","范","470","Male","[""好他"",""坏我"",""好我"",""坏他""]","[""强他"",""弱我"",""强我"",""弱他""]","","","","","","","","","","","","","","","","","","","","","","","","","","","","","","feedback_test","","","","","","","","",""
"861","","f","psychophysics","32","213006","0.0-8.0-1.0-1.0-0.0-0.11","7","7","7","7","7","5","5","5","5","5","5","2","0","2","2","0","1","2","2","5","5","5","5","5","5","5","5","5","5","5","5","5","6","5","5","5","5","5","7","7","7","7","7","7","7","7","7","7","1","7","7","7","7","7","7","7","7","7","7","7","7","7","7","7","7","7","7","7","7","7","7","7","7","7","7","7","7","7","7","618876128202850304","范","470","Male","[""好他"",""坏我"",""好我"",""坏他""]","[""强他"",""弱我"",""强我"",""弱他""]","","","","","","","","match","","","","","","","","","","key","f","16.65417272727275","640","356","f","true","match","img/ellipse.png","强我","强我","prac_ALT2_ability","practice_ability","","","","","","","","",""
"null","<span style='color:GreenYellow; font-size: 70px;'>正确! </span>","null","html-keyboard-response","33","213507","0.0-8.0-1.0-1.0-0.0-1.11","7","7","7","7","7","5","5","5","5","5","5","2","0","2","2","0","1","2","2","5","5","5","5","5","5","5","5","5","5","5","5","5","6","5","5","5","5","5","7","7","7","7","7","7","7","7","7","7","1","7","7","7","7","7","7","7","7","7","7","7","7","7","7","7","7","7","7","7","7","7","7","7","7","7","7","7","7","7","7","618876128202850304","范","470","Male","[""好他"",""坏我"",""好我"",""坏他""]","[""强他"",""弱我"",""强我"",""弱他""]","","","","","","","","","","","","","","","","","","","","","","","","","","","","","","feedback_test","","","","","","","","",""
"915","","j","psychophysics","34","215425","0.0-8.0-1.0-1.0-0.0-0.12","7","7","7","7","7","5","5","5","5","5","5","2","0","2","2","0","1","2","2","5","5","5","5","5","5","5","5","5","5","5","5","5","6","5","5","5","5","5","7","7","7","7","7","7","7","7","7","7","1","7","7","7","7","7","7","7","7","7","7","7","7","7","7","7","7","7","7","7","7","7","7","7","7","7","7","7","7","7","7","618876128202850304","范","470","Male","[""好他"",""坏我"",""好我"",""坏他""]","[""强他"",""弱我"",""强我"",""弱他""]","","","","","","","","nonmatch","","","","","","","","","","key","j","16.655964912280947","640","356","j","true","nonmatch","img/ellipse.png","弱他","强我","prac_ALT2_ability","practice_ability","","","","","","","","",""
"null","<span style='color:GreenYellow; font-size: 70px;'>正确! </span>","null","html-keyboard-response","35","215926","0.0-8.0-1.0-1.0-0.0-1.12","7","7","7","7","7","5","5","5","5","5","5","2","0","2","2","0","1","2","2","5","5","5","5","5","5","5","5","5","5","5","5","5","6","5","5","5","5","5","7","7","7","7","7","7","7","7","7","7","1","7","7","7","7","7","7","7","7","7","7","7","7","7","7","7","7","7","7","7","7","7","7","7","7","7","7","7","7","7","7","618876128202850304","范","470","Male","[""好他"",""坏我"",""好我"",""坏他""]","[""强他"",""弱我"",""强我"",""弱他""]","","","","","","","","","","","","","","","","","","","","","","","","","","","","","","feedback_test","","","","","","","","",""
"1154","","j","psychophysics","36","218082","0.0-8.0-1.0-1.0-0.0-0.13","7","7","7","7","7","5","5","5","5","5","5","2","0","2","2","0","1","2","2","5","5","5","5","5","5","5","5","5","5","5","5","5","6","5","5","5","5","5","7","7","7","7","7","7","7","7","7","7","1","7","7","7","7","7","7","7","7","7","7","7","7","7","7","7","7","7","7","7","7","7","7","7","7","7","7","7","7","7","7","618876128202850304","范","470","Male","[""好他"",""坏我"",""好我"",""坏他""]","[""强他"",""弱我"",""强我"",""弱他""]","","","","","","","","nonmatch","","","","","","","","","","key","j","16.653234374999784","640","356","j","true","nonmatch","img/ellipse.png","弱我","强我","prac_ALT2_ability","practice_ability","","","","","","","","",""
"null","<span style='color:GreenYellow; font-size: 70px;'>正确! </span>","null","html-keyboard-response","37","218583","0.0-8.0-1.0-1.0-0.0-1.13","7","7","7","7","7","5","5","5","5","5","5","2","0","2","2","0","1","2","2","5","5","5","5","5","5","5","5","5","5","5","5","5","6","5","5","5","5","5","7","7","7","7","7","7","7","7","7","7","1","7","7","7","7","7","7","7","7","7","7","7","7","7","7","7","7","7","7","7","7","7","7","7","7","7","7","7","7","7","7","618876128202850304","范","470","Male","[""好他"",""坏我"",""好我"",""坏他""]","[""强他"",""弱我"",""强我"",""弱他""]","","","","","","","","","","","","","","","","","","","","","","","","","","","","","","feedback_test","","","","","","","","",""
"898","","j","psychophysics","38","220482","0.0-8.0-1.0-1.0-0.0-0.14","7","7","7","7","7","5","5","5","5","5","5","2","0","2","2","0","1","2","2","5","5","5","5","5","5","5","5","5","5","5","5","5","6","5","5","5","5","5","7","7","7","7","7","7","7","7","7","7","1","7","7","7","7","7","7","7","7","7","7","7","7","7","7","7","7","7","7","7","7","7","7","7","7","7","7","7","7","7","7","618876128202850304","范","470","Male","[""好他"",""坏我"",""好我"",""坏他""]","[""强他"",""弱我"",""强我"",""弱他""]","","","","","","","","nonmatch","","","","","","","","","","key","j","16.64850892857144","640","356","f","false","match","img/triangle.png","弱他","弱他","prac_ALT2_ability","practice_ability","","","","","","","","",""
"null","<span style='color:red; font-size: 70px;'>错误! </span>","null","html-keyboard-response","39","220983","0.0-8.0-1.0-1.0-0.0-1.14","7","7","7","7","7","5","5","5","5","5","5","2","0","2","2","0","1","2","2","5","5","5","5","5","5","5","5","5","5","5","5","5","6","5","5","5","5","5","7","7","7","7","7","7","7","7","7","7","1","7","7","7","7","7","7","7","7","7","7","7","7","7","7","7","7","7","7","7","7","7","7","7","7","7","7","7","7","7","7","618876128202850304","范","470","Male","[""好他"",""坏我"",""好我"",""坏他""]","[""强他"",""弱我"",""强我"",""弱他""]","","","","","","","","","","","","","","","","","","","","","","","","","","","","","","feedback_test","","","","","","","","",""
"964","","j","psychophysics","40","222949","0.0-8.0-1.0-1.0-0.0-0.15","7","7","7","7","7","5","5","5","5","5","5","2","0","2","2","0","1","2","2","5","5","5","5","5","5","5","5","5","5","5","5","5","6","5","5","5","5","5","7","7","7","7","7","7","7","7","7","7","1","7","7","7","7","7","7","7","7","7","7","7","7","7","7","7","7","7","7","7","7","7","7","7","7","7","7","7","7","7","7","618876128202850304","范","470","Male","[""好他"",""坏我"",""好我"",""坏他""]","[""强他"",""弱我"",""强我"",""弱他""]","","","","","","","","nonmatch","","","","","","","","","","key","j","16.650717948717872","640","356","j","true","nonmatch","img/square.png","弱我","强他","prac_ALT2_ability","practice_ability","","","","","","","","",""
"null","<span style='color:GreenYellow; font-size: 70px;'>正确! </span>","null","html-keyboard-response","41","223450","0.0-8.0-1.0-1.0-0.0-1.15","7","7","7","7","7","5","5","5","5","5","5","2","0","2","2","0","1","2","2","5","5","5","5","5","5","5","5","5","5","5","5","5","6","5","5","5","5","5","7","7","7","7","7","7","7","7","7","7","1","7","7","7","7","7","7","7","7","7","7","7","7","7","7","7","7","7","7","7","7","7","7","7","7","7","7","7","7","7","7","618876128202850304","范","470","Male","[""好他"",""坏我"",""好我"",""坏他""]","[""强他"",""弱我"",""强我"",""弱他""]","","","","","","","","","","","","","","","","","","","","","","","","","","","","","","feedback_test","","","","","","","","",""
"826","","f","psychophysics","42","225278","0.0-8.0-1.0-1.0-0.0-0.16","7","7","7","7","7","5","5","5","5","5","5","2","0","2","2","0","1","2","2","5","5","5","5","5","5","5","5","5","5","5","5","5","6","5","5","5","5","5","7","7","7","7","7","7","7","7","7","7","1","7","7","7","7","7","7","7","7","7","7","7","7","7","7","7","7","7","7","7","7","7","7","7","7","7","7","7","7","7","7","618876128202850304","范","470","Male","[""好他"",""坏我"",""好我"",""坏他""]","[""强他"",""弱我"",""强我"",""弱他""]","","","","","","","","match","","","","","","","","","","key","f","16.66291666666668","640","356","f","true","match","img/square.png","强他","强他","prac_ALT2_ability","practice_ability","","","","","","","","",""
"null","<span style='color:GreenYellow; font-size: 70px;'>正确! </span>","null","html-keyboard-response","43","225779","0.0-8.0-1.0-1.0-0.0-1.16","7","7","7","7","7","5","5","5","5","5","5","2","0","2","2","0","1","2","2","5","5","5","5","5","5","5","5","5","5","5","5","5","6","5","5","5","5","5","7","7","7","7","7","7","7","7","7","7","1","7","7","7","7","7","7","7","7","7","7","7","7","7","7","7","7","7","7","7","7","7","7","7","7","7","7","7","7","7","7","618876128202850304","范","470","Male","[""好他"",""坏我"",""好我"",""坏他""]","[""强他"",""弱我"",""强我"",""弱他""]","","","","","","","","","","","","","","","","","","","","","","","","","","","","","","feedback_test","","","","","","","","",""
"800","","j","psychophysics","44","227581","0.0-8.0-1.0-1.0-0.0-0.17","7","7","7","7","7","5","5","5","5","5","5","2","0","2","2","0","1","2","2","5","5","5","5","5","5","5","5","5","5","5","5","5","6","5","5","5","5","5","7","7","7","7","7","7","7","7","7","7","1","7","7","7","7","7","7","7","7","7","7","7","7","7","7","7","7","7","7","7","7","7","7","7","7","7","7","7","7","7","7","618876128202850304","范","470","Male","[""好他"",""坏我"",""好我"",""坏他""]","[""强他"",""弱我"",""强我"",""弱他""]","","","","","","","","nonmatch","","","","","","","","","","key","j","16.656121495326982","640","356","f","false","match","img/triangle.png","弱他","弱他","prac_ALT2_ability","practice_ability","","","","","","","","",""
"null","<span style='color:red; font-size: 70px;'>错误! </span>","null","html-keyboard-response","45","228082","0.0-8.0-1.0-1.0-0.0-1.17","7","7","7","7","7","5","5","5","5","5","5","2","0","2","2","0","1","2","2","5","5","5","5","5","5","5","5","5","5","5","5","5","6","5","5","5","5","5","7","7","7","7","7","7","7","7","7","7","1","7","7","7","7","7","7","7","7","7","7","7","7","7","7","7","7","7","7","7","7","7","7","7","7","7","7","7","7","7","7","618876128202850304","范","470","Male","[""好他"",""坏我"",""好我"",""坏他""]","[""强他"",""弱我"",""强我"",""弱他""]","","","","","","","","","","","","","","","","","","","","","","","","","","","","","","feedback_test","","","","","","","","",""
"865","","j","psychophysics","46","229959","0.0-8.0-1.0-1.0-0.0-0.18","7","7","7","7","7","5","5","5","5","5","5","2","0","2","2","0","1","2","2","5","5","5","5","5","5","5","5","5","5","5","5","5","6","5","5","5","5","5","7","7","7","7","7","7","7","7","7","7","1","7","7","7","7","7","7","7","7","7","7","7","7","7","7","7","7","7","7","7","7","7","7","7","7","7","7","7","7","7","7","618876128202850304","范","470","Male","[""好他"",""坏我"",""好我"",""坏他""]","[""强他"",""弱我"",""强我"",""弱他""]","","","","","","","","nonmatch","","","","","","","","","","key","j","16.653216216216066","640","356","f","false","match","img/pentagon.png","弱我","弱我","prac_ALT2_ability","practice_ability","","","","","","","","",""
"null","<span style='color:red; font-size: 70px;'>错误! </span>","null","html-keyboard-response","47","230459","0.0-8.0-1.0-1.0-0.0-1.18","7","7","7","7","7","5","5","5","5","5","5","2","0","2","2","0","1","2","2","5","5","5","5","5","5","5","5","5","5","5","5","5","6","5","5","5","5","5","7","7","7","7","7","7","7","7","7","7","1","7","7","7","7","7","7","7","7","7","7","7","7","7","7","7","7","7","7","7","7","7","7","7","7","7","7","7","7","7","7","618876128202850304","范","470","Male","[""好他"",""坏我"",""好我"",""坏他""]","[""强他"",""弱我"",""强我"",""弱他""]","","","","","","","","","","","","","","","","","","","","","","","","","","","","","","feedback_test","","","","","","","","",""
"958","","j","psychophysics","48","232419","0.0-8.0-1.0-1.0-0.0-0.19","7","7","7","7","7","5","5","5","5","5","5","2","0","2","2","0","1","2","2","5","5","5","5","5","5","5","5","5","5","5","5","5","6","5","5","5","5","5","7","7","7","7","7","7","7","7","7","7","1","7","7","7","7","7","7","7","7","7","7","7","7","7","7","7","7","7","7","7","7","7","7","7","7","7","7","7","7","7","7","618876128202850304","范","470","Male","[""好他"",""坏我"",""好我"",""坏他""]","[""强他"",""弱我"",""强我"",""弱他""]","","","","","","","","nonmatch","","","","","","","","","","key","j","16.654120689655148","640","356","f","false","match","img/square.png","强他","强他","prac_ALT2_ability","practice_ability","","","","","","","","",""
"null","<span style='color:red; font-size: 70px;'>错误! </span>","null","html-keyboard-response","49","232919","0.0-8.0-1.0-1.0-0.0-1.19","7","7","7","7","7","5","5","5","5","5","5","2","0","2","2","0","1","2","2","5","5","5","5","5","5","5","5","5","5","5","5","5","6","5","5","5","5","5","7","7","7","7","7","7","7","7","7","7","1","7","7","7","7","7","7","7","7","7","7","7","7","7","7","7","7","7","7","7","7","7","7","7","7","7","7","7","7","7","7","618876128202850304","范","470","Male","[""好他"",""坏我"",""好我"",""坏他""]","[""强他"",""弱我"",""强我"",""弱他""]","","","","","","","","","","","","","","","","","","","","","","","","","","","","","","feedback_test","","","","","","","","",""
"925","","j","psychophysics","50","234846","0.0-8.0-1.0-1.0-0.0-0.20","7","7","7","7","7","5","5","5","5","5","5","2","0","2","2","0","1","2","2","5","5","5","5","5","5","5","5","5","5","5","5","5","6","5","5","5","5","5","7","7","7","7","7","7","7","7","7","7","1","7","7","7","7","7","7","7","7","7","7","7","7","7","7","7","7","7","7","7","7","7","7","7","7","7","7","7","7","7","7","618876128202850304","范","470","Male","[""好他"",""坏我"",""好我"",""坏他""]","[""强他"",""弱我"",""强我"",""弱他""]","","","","","","","","nonmatch","","","","","","","","","","key","j","16.656069565217425","640","356","j","true","nonmatch","img/pentagon.png","强我","弱我","prac_ALT2_ability","practice_ability","","","","","","","","",""
"null","<span style='color:GreenYellow; font-size: 70px;'>正确! </span>","null","html-keyboard-response","51","235347","0.0-8.0-1.0-1.0-0.0-1.20","7","7","7","7","7","5","5","5","5","5","5","2","0","2","2","0","1","2","2","5","5","5","5","5","5","5","5","5","5","5","5","5","6","5","5","5","5","5","7","7","7","7","7","7","7","7","7","7","1","7","7","7","7","7","7","7","7","7","7","7","7","7","7","7","7","7","7","7","7","7","7","7","7","7","7","7","7","7","7","618876128202850304","范","470","Male","[""好他"",""坏我"",""好我"",""坏他""]","[""强他"",""弱我"",""强我"",""弱他""]","","","","","","","","","","","","","","","","","","","","","","","","","","","","","","feedback_test","","","","","","","","",""
"936","","j","psychophysics","52","237284","0.0-8.0-1.0-1.0-0.0-0.21","7","7","7","7","7","5","5","5","5","5","5","2","0","2","2","0","1","2","2","5","5","5","5","5","5","5","5","5","5","5","5","5","6","5","5","5","5","5","7","7","7","7","7","7","7","7","7","7","1","7","7","7","7","7","7","7","7","7","7","7","7","7","7","7","7","7","7","7","7","7","7","7","7","7","7","7","7","7","7","618876128202850304","范","470","Male","[""好他"",""坏我"",""好我"",""坏他""]","[""强他"",""弱我"",""强我"",""弱他""]","","","","","","","","nonmatch","","","","","","","","","","key","j","16.653695652173813","640","356","j","true","nonmatch","img/ellipse.png","强他","强我","prac_ALT2_ability","practice_ability","","","","","","","","",""
"null","<span style='color:GreenYellow; font-size: 70px;'>正确! </span>","null","html-keyboard-response","53","237785","0.0-8.0-1.0-1.0-0.0-1.21","7","7","7","7","7","5","5","5","5","5","5","2","0","2","2","0","1","2","2","5","5","5","5","5","5","5","5","5","5","5","5","5","6","5","5","5","5","5","7","7","7","7","7","7","7","7","7","7","1","7","7","7","7","7","7","7","7","7","7","7","7","7","7","7","7","7","7","7","7","7","7","7","7","7","7","7","7","7","7","618876128202850304","范","470","Male","[""好他"",""坏我"",""好我"",""坏他""]","[""强他"",""弱我"",""强我"",""弱他""]","","","","","","","","","","","","","","","","","","","","","","","","","","","","","","feedback_test","","","","","","","","",""
"868","","f","psychophysics","54","239656","0.0-8.0-1.0-1.0-0.0-0.22","7","7","7","7","7","5","5","5","5","5","5","2","0","2","2","0","1","2","2","5","5","5","5","5","5","5","5","5","5","5","5","5","6","5","5","5","5","5","7","7","7","7","7","7","7","7","7","7","1","7","7","7","7","7","7","7","7","7","7","7","7","7","7","7","7","7","7","7","7","7","7","7","7","7","7","7","7","7","7","618876128202850304","范","470","Male","[""好他"",""坏我"",""好我"",""坏他""]","[""强他"",""弱我"",""强我"",""弱他""]","","","","","","","","match","","","","","","","","","","key","f","16.649036036036083","640","356","j","false","nonmatch","img/triangle.png","强他","弱他","prac_ALT2_ability","practice_ability","","","","","","","","",""
"null","<span style='color:red; font-size: 70px;'>错误! </span>","null","html-keyboard-response","55","240157","0.0-8.0-1.0-1.0-0.0-1.22","7","7","7","7","7","5","5","5","5","5","5","2","0","2","2","0","1","2","2","5","5","5","5","5","5","5","5","5","5","5","5","5","6","5","5","5","5","5","7","7","7","7","7","7","7","7","7","7","1","7","7","7","7","7","7","7","7","7","7","7","7","7","7","7","7","7","7","7","7","7","7","7","7","7","7","7","7","7","7","618876128202850304","范","470","Male","[""好他"",""坏我"",""好我"",""坏他""]","[""强他"",""弱我"",""强我"",""弱他""]","","","","","","","","","","","","","","","","","","","","","","","","","","","","","","feedback_test","","","","","","","","",""
"900","","j","psychophysics","56","242059","0.0-8.0-1.0-1.0-0.0-0.23","7","7","7","7","7","5","5","5","5","5","5","2","0","2","2","0","1","2","2","5","5","5","5","5","5","5","5","5","5","5","5","5","6","5","5","5","5","5","7","7","7","7","7","7","7","7","7","7","1","7","7","7","7","7","7","7","7","7","7","7","7","7","7","7","7","7","7","7","7","7","7","7","7","7","7","7","7","7","7","618876128202850304","范","470","Male","[""好他"",""坏我"",""好我"",""坏他""]","[""强他"",""弱我"",""强我"",""弱他""]","","","","","","","","nonmatch","","","","","","","","","","key","j","16.655911504424928","640","356","f","false","match","img/ellipse.png","强我","强我","prac_ALT2_ability","practice_ability","","","","","","","","",""
"null","<span style='color:red; font-size: 70px;'>错误! </span>","null","html-keyboard-response","57","242560","0.0-8.0-1.0-1.0-0.0-1.23","7","7","7","7","7","5","5","5","5","5","5","2","0","2","2","0","1","2","2","5","5","5","5","5","5","5","5","5","5","5","5","5","6","5","5","5","5","5","7","7","7","7","7","7","7","7","7","7","1","7","7","7","7","7","7","7","7","7","7","7","7","7","7","7","7","7","7","7","7","7","7","7","7","7","7","7","7","7","7","618876128202850304","范","470","Male","[""好他"",""坏我"",""好我"",""坏他""]","[""强他"",""弱我"",""强我"",""弱他""]","","","","","","","","","","","","","","","","","","","","","","","","","","","","","","feedback_test","","","","","","","","",""
"830","","f","psychophysics","58","244395","0.0-8.0-1.0-1.0-0.0-0.24","7","7","7","7","7","5","5","5","5","5","5","2","0","2","2","0","1","2","2","5","5","5","5","5","5","5","5","5","5","5","5","5","6","5","5","5","5","5","7","7","7","7","7","7","7","7","7","7","1","7","7","7","7","7","7","7","7","7","7","7","7","7","7","7","7","7","7","7","7","7","7","7","7","7","7","7","7","7","7","618876128202850304","范","470","Male","[""好他"",""坏我"",""好我"",""坏他""]","[""强他"",""弱我"",""强我"",""弱他""]","","","","","","","","match","","","","","","","","","","key","f","16.655917431192616","640","356","f","true","match","img/ellipse.png","强我","强我","prac_ALT2_ability","practice_ability","","","","","","","","",""
"null","<span style='color:GreenYellow; font-size: 70px;'>正确! </span>","null","html-keyboard-response","59","244896","0.0-8.0-1.0-1.0-0.0-1.24","7","7","7","7","7","5","5","5","5","5","5","2","0","2","2","0","1","2","2","5","5","5","5","5","5","5","5","5","5","5","5","5","6","5","5","5","5","5","7","7","7","7","7","7","7","7","7","7","1","7","7","7","7","7","7","7","7","7","7","7","7","7","7","7","7","7","7","7","7","7","7","7","7","7","7","7","7","7","7","618876128202850304","范","470","Male","[""好他"",""坏我"",""好我"",""坏他""]","[""强他"",""弱我"",""强我"",""弱他""]","","","","","","","","","","","","","","","","","","","","","","","","","","","","","","feedback_test","","","","","","","","",""
"1002","","f","psychophysics","60","246899","0.0-8.0-1.0-1.0-0.0-0.25","7","7","7","7","7","5","5","5","5","5","5","2","0","2","2","0","1","2","2","5","5","5","5","5","5","5","5","5","5","5","5","5","6","5","5","5","5","5","7","7","7","7","7","7","7","7","7","7","1","7","7","7","7","7","7","7","7","7","7","7","7","7","7","7","7","7","7","7","7","7","7","7","7","7","7","7","7","7","7","618876128202850304","范","470","Male","[""好他"",""坏我"",""好我"",""坏他""]","[""强他"",""弱我"",""强我"",""弱他""]","","","","","","","","match","","","","","","","","","","key","f","16.65599159663861","640","356","f","true","match","img/pentagon.png","弱我","弱我","prac_ALT2_ability","practice_ability","","","","","","","","",""
"null","<span style='color:GreenYellow; font-size: 70px;'>正确! </span>","null","html-keyboard-response","61","247400","0.0-8.0-1.0-1.0-0.0-1.25","7","7","7","7","7","5","5","5","5","5","5","2","0","2","2","0","1","2","2","5","5","5","5","5","5","5","5","5","5","5","5","5","6","5","5","5","5","5","7","7","7","7","7","7","7","7","7","7","1","7","7","7","7","7","7","7","7","7","7","7","7","7","7","7","7","7","7","7","7","7","7","7","7","7","7","7","7","7","7","618876128202850304","范","470","Male","[""好他"",""坏我"",""好我"",""坏他""]","[""强他"",""弱我"",""强我"",""弱他""]","","","","","","","","","","","","","","","","","","","","","","","","","","","","","","feedback_test","","","","","","","","",""
"879","","f","psychophysics","62","249281","0.0-8.0-1.0-1.0-0.0-0.26","7","7","7","7","7","5","5","5","5","5","5","2","0","2","2","0","1","2","2","5","5","5","5","5","5","5","5","5","5","5","5","5","6","5","5","5","5","5","7","7","7","7","7","7","7","7","7","7","1","7","7","7","7","7","7","7","7","7","7","7","7","7","7","7","7","7","7","7","7","7","7","7","7","7","7","7","7","7","7","618876128202850304","范","470","Male","[""好他"",""坏我"",""好我"",""坏他""]","[""强他"",""弱我"",""强我"",""弱他""]","","","","","","","","match","","","","","","","","","","key","f","16.657366071428573","640","356","j","false","nonmatch","img/square.png","弱他","强他","prac_ALT2_ability","practice_ability","","","","","","","","",""
"null","<span style='color:red; font-size: 70px;'>错误! </span>","null","html-keyboard-response","63","249790","0.0-8.0-1.0-1.0-0.0-1.26","7","7","7","7","7","5","5","5","5","5","5","2","0","2","2","0","1","2","2","5","5","5","5","5","5","5","5","5","5","5","5","5","6","5","5","5","5","5","7","7","7","7","7","7","7","7","7","7","1","7","7","7","7","7","7","7","7","7","7","7","7","7","7","7","7","7","7","7","7","7","7","7","7","7","7","7","7","7","7","618876128202850304","范","470","Male","[""好他"",""坏我"",""好我"",""坏他""]","[""强他"",""弱我"",""强我"",""弱他""]","","","","","","","","","","","","","","","","","","","","","","","","","","","","","","feedback_test","","","","","","","","",""
"938","","j","psychophysics","64","251730","0.0-8.0-1.0-1.0-0.0-0.27","7","7","7","7","7","5","5","5","5","5","5","2","0","2","2","0","1","2","2","5","5","5","5","5","5","5","5","5","5","5","5","5","6","5","5","5","5","5","7","7","7","7","7","7","7","7","7","7","1","7","7","7","7","7","7","7","7","7","7","7","7","7","7","7","7","7","7","7","7","7","7","7","7","7","7","7","7","7","7","618876128202850304","范","470","Male","[""好他"",""坏我"",""好我"",""坏他""]","[""强他"",""弱我"",""强我"",""弱他""]","","","","","","","","nonmatch","","","","","","","","","","key","j","16.65344827586197","640","356","j","true","nonmatch","img/pentagon.png","强我","弱我","prac_ALT2_ability","practice_ability","","","","","","","","",""
"null","<span style='color:GreenYellow; font-size: 70px;'>正确! </span>","null","html-keyboard-response","65","252231","0.0-8.0-1.0-1.0-0.0-1.27","7","7","7","7","7","5","5","5","5","5","5","2","0","2","2","0","1","2","2","5","5","5","5","5","5","5","5","5","5","5","5","5","6","5","5","5","5","5","7","7","7","7","7","7","7","7","7","7","1","7","7","7","7","7","7","7","7","7","7","7","7","7","7","7","7","7","7","7","7","7","7","7","7","7","7","7","7","7","7","618876128202850304","范","470","Male","[""好他"",""坏我"",""好我"",""坏他""]","[""强他"",""弱我"",""强我"",""弱他""]","","","","","","","","","","","","","","","","","","","","","","","","","","","","","","feedback_test","","","","","","","","",""
"923","","j","psychophysics","66","254155","0.0-8.0-1.0-1.0-0.0-0.28","7","7","7","7","7","5","5","5","5","5","5","2","0","2","2","0","1","2","2","5","5","5","5","5","5","5","5","5","5","5","5","5","6","5","5","5","5","5","7","7","7","7","7","7","7","7","7","7","1","7","7","7","7","7","7","7","7","7","7","7","7","7","7","7","7","7","7","7","7","7","7","7","7","7","7","7","7","7","7","618876128202850304","范","470","Male","[""好他"",""坏我"",""好我"",""坏他""]","[""强他"",""弱我"",""强我"",""弱他""]","","","","","","","","nonmatch","","","","","","","","","","key","j","16.653894736842055","640","356","j","true","nonmatch","img/square.png","弱我","强他","prac_ALT2_ability","practice_ability","","","","","","","","",""
"null","<span style='color:GreenYellow; font-size: 70px;'>正确! </span>","null","html-keyboard-response","67","254656","0.0-8.0-1.0-1.0-0.0-1.28","7","7","7","7","7","5","5","5","5","5","5","2","0","2","2","0","1","2","2","5","5","5","5","5","5","5","5","5","5","5","5","5","6","5","5","5","5","5","7","7","7","7","7","7","7","7","7","7","1","7","7","7","7","7","7","7","7","7","7","7","7","7","7","7","7","7","7","7","7","7","7","7","7","7","7","7","7","7","7","618876128202850304","范","470","Male","[""好他"",""坏我"",""好我"",""坏他""]","[""强他"",""弱我"",""强我"",""弱他""]","","","","","","","","","","","","","","","","","","","","","","","","","","","","","","feedback_test","","","","","","","","",""
"777","","f","psychophysics","68","256434","0.0-8.0-1.0-1.0-0.0-0.29","7","7","7","7","7","5","5","5","5","5","5","2","0","2","2","0","1","2","2","5","5","5","5","5","5","5","5","5","5","5","5","5","6","5","5","5","5","5","7","7","7","7","7","7","7","7","7","7","1","7","7","7","7","7","7","7","7","7","7","7","7","7","7","7","7","7","7","7","7","7","7","7","7","7","7","7","7","7","7","618876128202850304","范","470","Male","[""好他"",""坏我"",""好我"",""坏他""]","[""强他"",""弱我"",""强我"",""弱他""]","","","","","","","","match","","","","","","","","","","key","f","16.653295238095424","640","356","f","true","match","img/pentagon.png","弱我","弱我","prac_ALT2_ability","practice_ability","","","","","","","","",""
"null","<span style='color:GreenYellow; font-size: 70px;'>正确! </span>","null","html-keyboard-response","69","256935","0.0-8.0-1.0-1.0-0.0-1.29","7","7","7","7","7","5","5","5","5","5","5","2","0","2","2","0","1","2","2","5","5","5","5","5","5","5","5","5","5","5","5","5","6","5","5","5","5","5","7","7","7","7","7","7","7","7","7","7","1","7","7","7","7","7","7","7","7","7","7","7","7","7","7","7","7","7","7","7","7","7","7","7","7","7","7","7","7","7","7","618876128202850304","范","470","Male","[""好他"",""坏我"",""好我"",""坏他""]","[""强他"",""弱我"",""强我"",""弱他""]","","","","","","","","","","","","","","","","","","","","","","","","","","","","","","feedback_test","","","","","","","","",""
"790","","f","psychophysics","70","258726","0.0-8.0-1.0-1.0-0.0-0.30","7","7","7","7","7","5","5","5","5","5","5","2","0","2","2","0","1","2","2","5","5","5","5","5","5","5","5","5","5","5","5","5","6","5","5","5","5","5","7","7","7","7","7","7","7","7","7","7","1","7","7","7","7","7","7","7","7","7","7","7","7","7","7","7","7","7","7","7","7","7","7","7","7","7","7","7","7","7","7","618876128202850304","范","470","Male","[""好他"",""坏我"",""好我"",""坏他""]","[""强他"",""弱我"",""强我"",""弱他""]","","","","","","","","match","","","","","","","","","","key","f","16.655644859813172","640","356","f","true","match","img/pentagon.png","弱我","弱我","prac_ALT2_ability","practice_ability","","","","","","","","",""
"null","<span style='color:GreenYellow; font-size: 70px;'>正确! </span>","null","html-keyboard-response","71","259228","0.0-8.0-1.0-1.0-0.0-1.30","7","7","7","7","7","5","5","5","5","5","5","2","0","2","2","0","1","2","2","5","5","5","5","5","5","5","5","5","5","5","5","5","6","5","5","5","5","5","7","7","7","7","7","7","7","7","7","7","1","7","7","7","7","7","7","7","7","7","7","7","7","7","7","7","7","7","7","7","7","7","7","7","7","7","7","7","7","7","7","618876128202850304","范","470","Male","[""好他"",""坏我"",""好我"",""坏他""]","[""强他"",""弱我"",""强我"",""弱他""]","","","","","","","","","","","","","","","","","","","","","","","","","","","","","","feedback_test","","","","","","","","",""
"1025","","f","psychophysics","72","261254","0.0-8.0-1.0-1.0-0.0-0.31","7","7","7","7","7","5","5","5","5","5","5","2","0","2","2","0","1","2","2","5","5","5","5","5","5","5","5","5","5","5","5","5","6","5","5","5","5","5","7","7","7","7","7","7","7","7","7","7","1","7","7","7","7","7","7","7","7","7","7","7","7","7","7","7","7","7","7","7","7","7","7","7","7","7","7","7","7","7","7","618876128202850304","范","470","Male","[""好他"",""坏我"",""好我"",""坏他""]","[""强他"",""弱我"",""强我"",""弱他""]","","","","","","","","match","","","","","","","","","","key","f","16.656553719008258","640","356","f","true","match","img/triangle.png","弱他","弱他","prac_ALT2_ability","practice_ability","","","","","","","","",""
"null","<span style='color:GreenYellow; font-size: 70px;'>正确! </span>","null","html-keyboard-response","73","261755","0.0-8.0-1.0-1.0-0.0-1.31","7","7","7","7","7","5","5","5","5","5","5","2","0","2","2","0","1","2","2","5","5","5","5","5","5","5","5","5","5","5","5","5","6","5","5","5","5","5","7","7","7","7","7","7","7","7","7","7","1","7","7","7","7","7","7","7","7","7","7","7","7","7","7","7","7","7","7","7","7","7","7","7","7","7","7","7","7","7","7","618876128202850304","范","470","Male","[""好他"",""坏我"",""好我"",""坏他""]","[""强他"",""弱我"",""强我"",""弱他""]","","","","","","","","","","","","","","","","","","","","","","","","","","","","","","feedback_test","","","","","","","","",""
"711","","f","psychophysics","74","263468","0.0-8.0-1.0-1.0-0.0-0.32","7","7","7","7","7","5","5","5","5","5","5","2","0","2","2","0","1","2","2","5","5","5","5","5","5","5","5","5","5","5","5","5","6","5","5","5","5","5","7","7","7","7","7","7","7","7","7","7","1","7","7","7","7","7","7","7","7","7","7","7","7","7","7","7","7","7","7","7","7","7","7","7","7","7","7","7","7","7","7","618876128202850304","范","470","Male","[""好他"",""坏我"",""好我"",""坏他""]","[""强他"",""弱我"",""强我"",""弱他""]","","","","","","","","match","","","","","","","","","","key","f","16.651715686274283","640","356","f","true","match","img/triangle.png","弱他","弱他","prac_ALT2_ability","practice_ability","","","","","","","","",""
"null","<span style='color:GreenYellow; font-size: 70px;'>正确! </span>","null","html-keyboard-response","75","263982","0.0-8.0-1.0-1.0-0.0-1.32","7","7","7","7","7","5","5","5","5","5","5","2","0","2","2","0","1","2","2","5","5","5","5","5","5","5","5","5","5","5","5","5","6","5","5","5","5","5","7","7","7","7","7","7","7","7","7","7","1","7","7","7","7","7","7","7","7","7","7","7","7","7","7","7","7","7","7","7","7","7","7","7","7","7","7","7","7","7","7","618876128202850304","范","470","Male","[""好他"",""坏我"",""好我"",""坏他""]","[""强他"",""弱我"",""强我"",""弱他""]","","","","","","","","","","","","","","","","","","","","","","","","","","","","","","feedback_test","","","","","","","","",""
"806","","f","psychophysics","76","265790","0.0-8.0-1.0-1.0-0.0-0.33","7","7","7","7","7","5","5","5","5","5","5","2","0","2","2","0","1","2","2","5","5","5","5","5","5","5","5","5","5","5","5","5","6","5","5","5","5","5","7","7","7","7","7","7","7","7","7","7","1","7","7","7","7","7","7","7","7","7","7","7","7","7","7","7","7","7","7","7","7","7","7","7","7","7","7","7","7","7","7","618876128202850304","范","470","Male","[""好他"",""坏我"",""好我"",""坏他""]","[""强他"",""弱我"",""强我"",""弱他""]","","","","","","","","match","","","","","","","","","","key","f","16.654028037383448","640","356","j","false","nonmatch","img/ellipse.png","弱我","强我","prac_ALT2_ability","practice_ability","","","","","","","","",""
"null","<span style='color:red; font-size: 70px;'>错误! </span>","null","html-keyboard-response","77","266291","0.0-8.0-1.0-1.0-0.0-1.33","7","7","7","7","7","5","5","5","5","5","5","2","0","2","2","0","1","2","2","5","5","5","5","5","5","5","5","5","5","5","5","5","6","5","5","5","5","5","7","7","7","7","7","7","7","7","7","7","1","7","7","7","7","7","7","7","7","7","7","7","7","7","7","7","7","7","7","7","7","7","7","7","7","7","7","7","7","7","7","618876128202850304","范","470","Male","[""好他"",""坏我"",""好我"",""坏他""]","[""强他"",""弱我"",""强我"",""弱他""]","","","","","","","","","","","","","","","","","","","","","","","","","","","","","","feedback_test","","","","","","","","",""
"922","","f","psychophysics","78","268216","0.0-8.0-1.0-1.0-0.0-0.34","7","7","7","7","7","5","5","5","5","5","5","2","0","2","2","0","1","2","2","5","5","5","5","5","5","5","5","5","5","5","5","5","6","5","5","5","5","5","7","7","7","7","7","7","7","7","7","7","1","7","7","7","7","7","7","7","7","7","7","7","7","7","7","7","7","7","7","7","7","7","7","7","7","7","7","7","7","7","7","618876128202850304","范","470","Male","[""好他"",""坏我"",""好我"",""坏他""]","[""强他"",""弱我"",""强我"",""弱他""]","","","","","","","","match","","","","","","","","","","key","f","16.65394782608719","640","356","f","true","match","img/ellipse.png","强我","强我","prac_ALT2_ability","practice_ability","","","","","","","","",""
"null","<span style='color:GreenYellow; font-size: 70px;'>正确! </span>","null","html-keyboard-response","79","268717","0.0-8.0-1.0-1.0-0.0-1.34","7","7","7","7","7","5","5","5","5","5","5","2","0","2","2","0","1","2","2","5","5","5","5","5","5","5","5","5","5","5","5","5","6","5","5","5","5","5","7","7","7","7","7","7","7","7","7","7","1","7","7","7","7","7","7","7","7","7","7","7","7","7","7","7","7","7","7","7","7","7","7","7","7","7","7","7","7","7","7","618876128202850304","范","470","Male","[""好他"",""坏我"",""好我"",""坏他""]","[""强他"",""弱我"",""强我"",""弱他""]","","","","","","","","","","","","","","","","","","","","","","","","","","","","","","feedback_test","","","","","","","","",""
"1136","","f","psychophysics","80","270854","0.0-8.0-1.0-1.0-0.0-0.35","7","7","7","7","7","5","5","5","5","5","5","2","0","2","2","0","1","2","2","5","5","5","5","5","5","5","5","5","5","5","5","5","6","5","5","5","5","5","7","7","7","7","7","7","7","7","7","7","1","7","7","7","7","7","7","7","7","7","7","7","7","7","7","7","7","7","7","7","7","7","7","7","7","7","7","7","7","7","7","618876128202850304","范","470","Male","[""好他"",""坏我"",""好我"",""坏他""]","[""强他"",""弱我"",""强我"",""弱他""]","","","","","","","","match","","","","","","","","","","key","f","16.656606299212793","640","356","j","false","nonmatch","img/square.png","强我","强他","prac_ALT2_ability","practice_ability","","","","","","","","",""
"null","<span style='color:red; font-size: 70px;'>错误! </span>","null","html-keyboard-response","81","271355","0.0-8.0-1.0-1.0-0.0-1.35","7","7","7","7","7","5","5","5","5","5","5","2","0","2","2","0","1","2","2","5","5","5","5","5","5","5","5","5","5","5","5","5","6","5","5","5","5","5","7","7","7","7","7","7","7","7","7","7","1","7","7","7","7","7","7","7","7","7","7","7","7","7","7","7","7","7","7","7","7","7","7","7","7","7","7","7","7","7","7","618876128202850304","范","470","Male","[""好他"",""坏我"",""好我"",""坏他""]","[""强他"",""弱我"",""强我"",""弱他""]","","","","","","","","","","","","","","","","","","","","","","","","","","","","","","feedback_test","","","","","","","","",""
"null","","null","psychophysics","82","273558","0.0-8.0-1.0-1.0-0.0-0.36","7","7","7","7","7","5","5","5","5","5","5","2","0","2","2","0","1","2","2","5","5","5","5","5","5","5","5","5","5","5","5","5","6","5","5","5","5","5","7","7","7","7","7","7","7","7","7","7","1","7","7","7","7","7","7","7","7","7","7","7","7","7","7","7","7","7","7","7","7","7","7","7","7","7","7","7","7","7","7","618876128202850304","范","470","Male","[""好他"",""坏我"",""好我"",""坏他""]","[""强他"",""弱我"",""强我"",""弱他""]","","","","","","","","null","","","","","","","","","","key","null","16.65390151515153","640","356","j","false","nonmatch","img/pentagon.png","强他","弱我","prac_ALT2_ability","practice_ability","","","","","","","","",""
"null","<span class='add_' style='color:yellow; font-size: 70px;'> 太慢! </span>","null","html-keyboard-response","83","274059","0.0-8.0-1.0-1.0-0.0-1.36","7","7","7","7","7","5","5","5","5","5","5","2","0","2","2","0","1","2","2","5","5","5","5","5","5","5","5","5","5","5","5","5","6","5","5","5","5","5","7","7","7","7","7","7","7","7","7","7","1","7","7","7","7","7","7","7","7","7","7","7","7","7","7","7","7","7","7","7","7","7","7","7","7","7","7","7","7","7","7","618876128202850304","范","470","Male","[""好他"",""坏我"",""好我"",""坏他""]","[""强他"",""弱我"",""强我"",""弱他""]","","","","","","","","","","","","","","","","","","","","","","","","","","","","","","feedback_test","","","","","","","","",""
"683","","f","psychophysics","84","275744","0.0-8.0-1.0-1.0-0.0-0.37","7","7","7","7","7","5","5","5","5","5","5","2","0","2","2","0","1","2","2","5","5","5","5","5","5","5","5","5","5","5","5","5","6","5","5","5","5","5","7","7","7","7","7","7","7","7","7","7","1","7","7","7","7","7","7","7","7","7","7","7","7","7","7","7","7","7","7","7","7","7","7","7","7","7","7","7","7","7","7","618876128202850304","范","470","Male","[""好他"",""坏我"",""好我"",""坏他""]","[""强他"",""弱我"",""强我"",""弱他""]","","","","","","","","match","","","","","","","","","","key","f","16.65670999999973","640","356","f","true","match","img/square.png","强他","强他","prac_ALT2_ability","practice_ability","","","","","","","","",""
"null","<span style='color:GreenYellow; font-size: 70px;'>正确! </span>","null","html-keyboard-response","85","276245","0.0-8.0-1.0-1.0-0.0-1.37","7","7","7","7","7","5","5","5","5","5","5","2","0","2","2","0","1","2","2","5","5","5","5","5","5","5","5","5","5","5","5","5","6","5","5","5","5","5","7","7","7","7","7","7","7","7","7","7","1","7","7","7","7","7","7","7","7","7","7","7","7","7","7","7","7","7","7","7","7","7","7","7","7","7","7","7","7","7","7","618876128202850304","范","470","Male","[""好他"",""坏我"",""好我"",""坏他""]","[""强他"",""弱我"",""强我"",""弱他""]","","","","","","","","","","","","","","","","","","","","","","","","","","","","","","feedback_test","","","","","","","","",""
"1102","","f","psychophysics","86","278349","0.0-8.0-1.0-1.0-0.0-0.38","7","7","7","7","7","5","5","5","5","5","5","2","0","2","2","0","1","2","2","5","5","5","5","5","5","5","5","5","5","5","5","5","6","5","5","5","5","5","7","7","7","7","7","7","7","7","7","7","1","7","7","7","7","7","7","7","7","7","7","7","7","7","7","7","7","7","7","7","7","7","7","7","7","7","7","7","7","7","7","618876128202850304","范","470","Male","[""好他"",""坏我"",""好我"",""坏他""]","[""强他"",""弱我"",""强我"",""弱他""]","","","","","","","","match","","","","","","","","","","key","f","16.65864000000013","640","356","f","true","match","img/triangle.png","弱他","弱他","prac_ALT2_ability","practice_ability","","","","","","","","",""
"null","<span style='color:GreenYellow; font-size: 70px;'>正确! </span>","null","html-keyboard-response","87","278850","0.0-8.0-1.0-1.0-0.0-1.38","7","7","7","7","7","5","5","5","5","5","5","2","0","2","2","0","1","2","2","5","5","5","5","5","5","5","5","5","5","5","5","5","6","5","5","5","5","5","7","7","7","7","7","7","7","7","7","7","1","7","7","7","7","7","7","7","7","7","7","7","7","7","7","7","7","7","7","7","7","7","7","7","7","7","7","7","7","7","7","618876128202850304","范","470","Male","[""好他"",""坏我"",""好我"",""坏他""]","[""强他"",""弱我"",""强我"",""弱他""]","","","","","","","","","","","","","","","","","","","","","","","","","","","","","","feedback_test","","","","","","","","",""
"1032","","f","psychophysics","88","280883","0.0-8.0-1.0-1.0-0.0-0.39","7","7","7","7","7","5","5","5","5","5","5","2","0","2","2","0","1","2","2","5","5","5","5","5","5","5","5","5","5","5","5","5","6","5","5","5","5","5","7","7","7","7","7","7","7","7","7","7","1","7","7","7","7","7","7","7","7","7","7","7","7","7","7","7","7","7","7","7","7","7","7","7","7","7","7","7","7","7","7","618876128202850304","范","470","Male","[""好他"",""坏我"",""好我"",""坏他""]","[""强他"",""弱我"",""强我"",""弱他""]","","","","","","","","match","","","","","","","","","","key","f","16.652165289256292","640","356","j","false","nonmatch","img/ellipse.png","弱他","强我","prac_ALT2_ability","practice_ability","","","","","","","","",""
"null","<span style='color:red; font-size: 70px;'>错误! </span>","null","html-keyboard-response","89","281384","0.0-8.0-1.0-1.0-0.0-1.39","7","7","7","7","7","5","5","5","5","5","5","2","0","2","2","0","1","2","2","5","5","5","5","5","5","5","5","5","5","5","5","5","6","5","5","5","5","5","7","7","7","7","7","7","7","7","7","7","1","7","7","7","7","7","7","7","7","7","7","7","7","7","7","7","7","7","7","7","7","7","7","7","7","7","7","7","7","7","7","618876128202850304","范","470","Male","[""好他"",""坏我"",""好我"",""坏他""]","[""强他"",""弱我"",""强我"",""弱他""]","","","","","","","","","","","","","","","","","","","","","","","","","","","","","","feedback_test","","","","","","","","",""
"1063","","j","psychophysics","90","283449","0.0-8.0-1.0-1.0-0.0-0.40","7","7","7","7","7","5","5","5","5","5","5","2","0","2","2","0","1","2","2","5","5","5","5","5","5","5","5","5","5","5","5","5","6","5","5","5","5","5","7","7","7","7","7","7","7","7","7","7","1","7","7","7","7","7","7","7","7","7","7","7","7","7","7","7","7","7","7","7","7","7","7","7","7","7","7","7","7","7","7","618876128202850304","范","470","Male","[""好他"",""坏我"",""好我"",""坏他""]","[""强他"",""弱我"",""强我"",""弱他""]","","","","","","","","nonmatch","","","","","","","","","","key","j","16.6480650406504","640","356","j","true","nonmatch","img/triangle.png","强他","弱他","prac_ALT2_ability","practice_ability","","","","","","","","",""
"null","<span style='color:GreenYellow; font-size: 70px;'>正确! </span>","null","html-keyboard-response","91","283951","0.0-8.0-1.0-1.0-0.0-1.40","7","7","7","7","7","5","5","5","5","5","5","2","0","2","2","0","1","2","2","5","5","5","5","5","5","5","5","5","5","5","5","5","6","5","5","5","5","5","7","7","7","7","7","7","7","7","7","7","1","7","7","7","7","7","7","7","7","7","7","7","7","7","7","7","7","7","7","7","7","7","7","7","7","7","7","7","7","7","7","618876128202850304","范","470","Male","[""好他"",""坏我"",""好我"",""坏他""]","[""强他"",""弱我"",""强我"",""弱他""]","","","","","","","","","","","","","","","","","","","","","","","","","","","","","","feedback_test","","","","","","","","",""
"1102","","f","psychophysics","92","286056","0.0-8.0-1.0-1.0-0.0-0.41","7","7","7","7","7","5","5","5","5","5","5","2","0","2","2","0","1","2","2","5","5","5","5","5","5","5","5","5","5","5","5","5","6","5","5","5","5","5","7","7","7","7","7","7","7","7","7","7","1","7","7","7","7","7","7","7","7","7","7","7","7","7","7","7","7","7","7","7","7","7","7","7","7","7","7","7","7","7","7","618876128202850304","范","470","Male","[""好他"",""坏我"",""好我"",""坏他""]","[""强他"",""弱我"",""强我"",""弱他""]","","","","","","","","match","","","","","","","","","","key","f","16.6563759999997","640","356","f","true","match","img/square.png","强他","强他","prac_ALT2_ability","practice_ability","","","","","","","","",""
"null","<span style='color:GreenYellow; font-size: 70px;'>正确! </span>","null","html-keyboard-response","93","286558","0.0-8.0-1.0-1.0-0.0-1.41","7","7","7","7","7","5","5","5","5","5","5","2","0","2","2","0","1","2","2","5","5","5","5","5","5","5","5","5","5","5","5","5","6","5","5","5","5","5","7","7","7","7","7","7","7","7","7","7","1","7","7","7","7","7","7","7","7","7","7","7","7","7","7","7","7","7","7","7","7","7","7","7","7","7","7","7","7","7","7","618876128202850304","范","470","Male","[""好他"",""坏我"",""好我"",""坏他""]","[""强他"",""弱我"",""强我"",""弱他""]","","","","","","","","","","","","","","","","","","","","","","","","","","","","","","feedback_test","","","","","","","","",""
"747","","f","psychophysics","94","288306","0.0-8.0-1.0-1.0-0.0-0.42","7","7","7","7","7","5","5","5","5","5","5","2","0","2","2","0","1","2","2","5","5","5","5","5","5","5","5","5","5","5","5","5","6","5","5","5","5","5","7","7","7","7","7","7","7","7","7","7","1","7","7","7","7","7","7","7","7","7","7","7","7","7","7","7","7","7","7","7","7","7","7","7","7","7","7","7","7","7","7","618876128202850304","范","470","Male","[""好他"",""坏我"",""好我"",""坏他""]","[""强他"",""弱我"",""强我"",""弱他""]","","","","","","","","match","","","","","","","","","","key","f","16.653701923076788","640","356","f","true","match","img/square.png","强他","强他","prac_ALT2_ability","practice_ability","","","","","","","","",""
"null","<span style='color:GreenYellow; font-size: 70px;'>正确! </span>","null","html-keyboard-response","95","288807","0.0-8.0-1.0-1.0-0.0-1.42","7","7","7","7","7","5","5","5","5","5","5","2","0","2","2","0","1","2","2","5","5","5","5","5","5","5","5","5","5","5","5","5","6","5","5","5","5","5","7","7","7","7","7","7","7","7","7","7","1","7","7","7","7","7","7","7","7","7","7","7","7","7","7","7","7","7","7","7","7","7","7","7","7","7","7","7","7","7","7","618876128202850304","范","470","Male","[""好他"",""坏我"",""好我"",""坏他""]","[""强他"",""弱我"",""强我"",""弱他""]","","","","","","","","","","","","","","","","","","","","","","","","","","","","","","feedback_test","","","","","","","","",""
"1031","","j","psychophysics","96","290840","0.0-8.0-1.0-1.0-0.0-0.43","7","7","7","7","7","5","5","5","5","5","5","2","0","2","2","0","1","2","2","5","5","5","5","5","5","5","5","5","5","5","5","5","6","5","5","5","5","5","7","7","7","7","7","7","7","7","7","7","1","7","7","7","7","7","7","7","7","7","7","7","7","7","7","7","7","7","7","7","7","7","7","7","7","7","7","7","7","7","7","618876128202850304","范","470","Male","[""好他"",""坏我"",""好我"",""坏他""]","[""强他"",""弱我"",""强我"",""弱他""]","","","","","","","","nonmatch","","","","","","","","","","key","j","16.656074380165368","640","356","j","true","nonmatch","img/pentagon.png","弱他","弱我","prac_ALT2_ability","practice_ability","","","","","","","","",""
"null","<span style='color:GreenYellow; font-size: 70px;'>正确! </span>","null","html-keyboard-response","97","291342","0.0-8.0-1.0-1.0-0.0-1.43","7","7","7","7","7","5","5","5","5","5","5","2","0","2","2","0","1","2","2","5","5","5","5","5","5","5","5","5","5","5","5","5","6","5","5","5","5","5","7","7","7","7","7","7","7","7","7","7","1","7","7","7","7","7","7","7","7","7","7","7","7","7","7","7","7","7","7","7","7","7","7","7","7","7","7","7","7","7","7","618876128202850304","范","470","Male","[""好他"",""坏我"",""好我"",""坏他""]","[""强他"",""弱我"",""强我"",""弱他""]","","","","","","","","","","","","","","","","","","","","","","","","","","","","","","feedback_test","","","","","","","","",""
"804","","f","psychophysics","98","293147","0.0-8.0-1.0-1.0-0.0-0.44","7","7","7","7","7","5","5","5","5","5","5","2","0","2","2","0","1","2","2","5","5","5","5","5","5","5","5","5","5","5","5","5","6","5","5","5","5","5","7","7","7","7","7","7","7","7","7","7","1","7","7","7","7","7","7","7","7","7","7","7","7","7","7","7","7","7","7","7","7","7","7","7","7","7","7","7","7","7","7","618876128202850304","范","470","Male","[""好他"",""坏我"",""好我"",""坏他""]","[""强他"",""弱我"",""强我"",""弱他""]","","","","","","","","match","","","","","","","","","","key","f","16.653074766355285","640","356","f","true","match","img/ellipse.png","强我","强我","prac_ALT2_ability","practice_ability","","","","","","","","",""
"null","<span style='color:GreenYellow; font-size: 70px;'>正确! </span>","null","html-keyboard-response","99","293648","0.0-8.0-1.0-1.0-0.0-1.44","7","7","7","7","7","5","5","5","5","5","5","2","0","2","2","0","1","2","2","5","5","5","5","5","5","5","5","5","5","5","5","5","6","5","5","5","5","5","7","7","7","7","7","7","7","7","7","7","1","7","7","7","7","7","7","7","7","7","7","7","7","7","7","7","7","7","7","7","7","7","7","7","7","7","7","7","7","7","7","618876128202850304","范","470","Male","[""好他"",""坏我"",""好我"",""坏他""]","[""强他"",""弱我"",""强我"",""弱他""]","","","","","","","","","","","","","","","","","","","","","","","","","","","","","","feedback_test","","","","","","","","",""
"1043","","j","psychophysics","100","295693","0.0-8.0-1.0-1.0-0.0-0.45","7","7","7","7","7","5","5","5","5","5","5","2","0","2","2","0","1","2","2","5","5","5","5","5","5","5","5","5","5","5","5","5","6","5","5","5","5","5","7","7","7","7","7","7","7","7","7","7","1","7","7","7","7","7","7","7","7","7","7","7","7","7","7","7","7","7","7","7","7","7","7","7","7","7","7","7","7","7","7","618876128202850304","范","470","Male","[""好他"",""坏我"",""好我"",""坏他""]","[""强他"",""弱我"",""强我"",""弱他""]","","","","","","","","nonmatch","","","","","","","","","","key","j","16.652131147540963","640","356","j","true","nonmatch","img/ellipse.png","强他","强我","prac_ALT2_ability","practice_ability","","","","","","","","",""
"null","<span style='color:GreenYellow; font-size: 70px;'>正确! </span>","null","html-keyboard-response","101","296195","0.0-8.0-1.0-1.0-0.0-1.45","7","7","7","7","7","5","5","5","5","5","5","2","0","2","2","0","1","2","2","5","5","5","5","5","5","5","5","5","5","5","5","5","6","5","5","5","5","5","7","7","7","7","7","7","7","7","7","7","1","7","7","7","7","7","7","7","7","7","7","7","7","7","7","7","7","7","7","7","7","7","7","7","7","7","7","7","7","7","7","618876128202850304","范","470","Male","[""好他"",""坏我"",""好我"",""坏他""]","[""强他"",""弱我"",""强我"",""弱他""]","","","","","","","","","","","","","","","","","","","","","","","","","","","","","","feedback_test","","","","","","","","",""
"1126","","f","psychophysics","102","298324","0.0-8.0-1.0-1.0-0.0-0.46","7","7","7","7","7","5","5","5","5","5","5","2","0","2","2","0","1","2","2","5","5","5","5","5","5","5","5","5","5","5","5","5","6","5","5","5","5","5","7","7","7","7","7","7","7","7","7","7","1","7","7","7","7","7","7","7","7","7","7","7","7","7","7","7","7","7","7","7","7","7","7","7","7","7","7","7","7","7","7","618876128202850304","范","470","Male","[""好他"",""坏我"",""好我"",""坏他""]","[""强他"",""弱我"",""强我"",""弱他""]","","","","","","","","match","","","","","","","","","","key","f","16.65648031496034","640","356","j","false","nonmatch","img/triangle.png","弱我","弱他","prac_ALT2_ability","practice_ability","","","","","","","","",""
"null","<span style='color:red; font-size: 70px;'>错误! </span>","null","html-keyboard-response","103","298825","0.0-8.0-1.0-1.0-0.0-1.46","7","7","7","7","7","5","5","5","5","5","5","2","0","2","2","0","1","2","2","5","5","5","5","5","5","5","5","5","5","5","5","5","6","5","5","5","5","5","7","7","7","7","7","7","7","7","7","7","1","7","7","7","7","7","7","7","7","7","7","7","7","7","7","7","7","7","7","7","7","7","7","7","7","7","7","7","7","7","7","618876128202850304","范","470","Male","[""好他"",""坏我"",""好我"",""坏他""]","[""强他"",""弱我"",""强我"",""弱他""]","","","","","","","","","","","","","","","","","","","","","","","","","","","","","","feedback_test","","","","","","","","",""
"1139","","f","psychophysics","104","300965","0.0-8.0-1.0-1.0-0.0-0.47","7","7","7","7","7","5","5","5","5","5","5","2","0","2","2","0","1","2","2","5","5","5","5","5","5","5","5","5","5","5","5","5","6","5","5","5","5","5","7","7","7","7","7","7","7","7","7","7","1","7","7","7","7","7","7","7","7","7","7","7","7","7","7","7","7","7","7","7","7","7","7","7","7","7","7","7","7","7","7","618876128202850304","范","470","Male","[""好他"",""坏我"",""好我"",""坏他""]","[""强他"",""弱我"",""强我"",""弱他""]","","","","","","","","match","","","","","","","","","","key","f","16.65381889763805","640","356","j","false","nonmatch","img/triangle.png","强我","弱他","prac_ALT2_ability","practice_ability","","","","","","","","",""
"null","<span style='color:red; font-size: 70px;'>错误! </span>","null","html-keyboard-response","105","301467","0.0-8.0-1.0-1.0-0.0-1.47","7","7","7","7","7","5","5","5","5","5","5","2","0","2","2","0","1","2","2","5","5","5","5","5","5","5","5","5","5","5","5","5","6","5","5","5","5","5","7","7","7","7","7","7","7","7","7","7","1","7","7","7","7","7","7","7","7","7","7","7","7","7","7","7","7","7","7","7","7","7","7","7","7","7","7","7","7","7","7","618876128202850304","范","470","Male","[""好他"",""坏我"",""好我"",""坏他""]","[""强他"",""弱我"",""强我"",""弱他""]","","","","","","","","","","","","","","","","","","","","","","","","","","","","","","feedback_test","","","","","","","","",""
"23760","<style>.context{color:white; font-size: 35px; line-height:40px}</style>                          <div><p class='context'>您正确回答了54% 的试次。</p><p class='context'>您的平均反应时为920毫秒。</p><p class='context'>恭喜您完成练习。按空格键继续。</p></div>"," ","html-keyboard-response","106","325230","0.0-8.0-1.0-1.0-1.0-0.0","7","7","7","7","7","5","5","5","5","5","5","2","0","2","2","0","1","2","2","5","5","5","5","5","5","5","5","5","5","5","5","5","6","5","5","5","5","5","7","7","7","7","7","7","7","7","7","7","1","7","7","7","7","7","7","7","7","7","7","7","7","7","7","7","7","7","7","7","7","7","7","7","7","7","7","7","7","7","7","618876128202850304","范","470","Male","[""好他"",""坏我"",""好我"",""坏他""]","[""强他"",""弱我"",""强我"",""弱他""]","","","","","","","","","","","","","","","","","","","","","","","","","","","","","","","","","","","","","","",""
"64569","","","instructions","107","389804","0.0-8.0-1.0-1.0-1.0-1.0","7","7","7","7","7","5","5","5","5","5","5","2","0","2","2","0","1","2","2","5","5","5","5","5","5","5","5","5","5","5","5","5","6","5","5","5","5","5","7","7","7","7","7","7","7","7","7","7","1","7","7","7","7","7","7","7","7","7","7","7","7","7","7","7","7","7","7","7","7","7","7","7","7","7","7","7","7","7","7","618876128202850304","范","470","Male","[""好他"",""坏我"",""好我"",""坏他""]","[""强他"",""弱我"",""强我"",""弱他""]","","","","","","","","","","","","","","","","","[{""page_index"":0,""viewing_time"":1463},{""page_index"":1,""viewing_time"":47041},{""page_index"":2,""viewing_time"":16065}]","","","","","","","","","","","","","","","","","","","","","",""
"1111","","j","psychophysics","108","391916","0.0-8.0-1.0-1.1-0.1-0.48","7","7","7","7","7","5","5","5","5","5","5","2","0","2","2","0","1","2","2","5","5","5","5","5","5","5","5","5","5","5","5","5","6","5","5","5","5","5","7","7","7","7","7","7","7","7","7","7","1","7","7","7","7","7","7","7","7","7","7","7","7","7","7","7","7","7","7","7","7","7","7","7","7","7","7","7","7","7","7","618876128202850304","范","470","Male","[""好他"",""坏我"",""好我"",""坏他""]","[""强他"",""弱我"",""强我"",""弱他""]","","","","","","","","nonmatch","","","","","","","","","","key","j","16.653246031746097","640","356","f","false","match","img/triangle.png","弱他","弱他","prac_ALT2_ability","practice_ability","","","","","","","","",""
"null","<span style='color:red; font-size: 70px;'>错误! </span>","null","html-keyboard-response","109","392418","0.0-8.0-1.0-1.1-0.1-1.48","7","7","7","7","7","5","5","5","5","5","5","2","0","2","2","0","1","2","2","5","5","5","5","5","5","5","5","5","5","5","5","5","6","5","5","5","5","5","7","7","7","7","7","7","7","7","7","7","1","7","7","7","7","7","7","7","7","7","7","7","7","7","7","7","7","7","7","7","7","7","7","7","7","7","7","7","7","7","7","618876128202850304","范","470","Male","[""好他"",""坏我"",""好我"",""坏他""]","[""强他"",""弱我"",""强我"",""弱他""]","","","","","","","","","","","","","","","","","","","","","","","","","","","","","","feedback_test","","","","","","","","",""
"916","","j","psychophysics","110","394335","0.0-8.0-1.0-1.1-0.1-0.49","7","7","7","7","7","5","5","5","5","5","5","2","0","2","2","0","1","2","2","5","5","5","5","5","5","5","5","5","5","5","5","5","6","5","5","5","5","5","7","7","7","7","7","7","7","7","7","7","1","7","7","7","7","7","7","7","7","7","7","7","7","7","7","7","7","7","7","7","7","7","7","7","7","7","7","7","7","7","7","618876128202850304","范","470","Male","[""好他"",""坏我"",""好我"",""坏他""]","[""强他"",""弱我"",""强我"",""弱他""]","","","","","","","","nonmatch","","","","","","","","","","key","j","16.652692982456198","640","356","j","true","nonmatch","img/square.png","强我","强他","prac_ALT2_ability","practice_ability","","","","","","","","",""
"null","<span style='color:GreenYellow; font-size: 70px;'>正确! </span>","null","html-keyboard-response","111","394836","0.0-8.0-1.0-1.1-0.1-1.49","7","7","7","7","7","5","5","5","5","5","5","2","0","2","2","0","1","2","2","5","5","5","5","5","5","5","5","5","5","5","5","5","6","5","5","5","5","5","7","7","7","7","7","7","7","7","7","7","1","7","7","7","7","7","7","7","7","7","7","7","7","7","7","7","7","7","7","7","7","7","7","7","7","7","7","7","7","7","7","618876128202850304","范","470","Male","[""好他"",""坏我"",""好我"",""坏他""]","[""强他"",""弱我"",""强我"",""弱他""]","","","","","","","","","","","","","","","","","","","","","","","","","","","","","","feedback_test","","","","","","","","",""
"847","","f","psychophysics","112","396685","0.0-8.0-1.0-1.1-0.1-0.50","7","7","7","7","7","5","5","5","5","5","5","2","0","2","2","0","1","2","2","5","5","5","5","5","5","5","5","5","5","5","5","5","6","5","5","5","5","5","7","7","7","7","7","7","7","7","7","7","1","7","7","7","7","7","7","7","7","7","7","7","7","7","7","7","7","7","7","7","7","7","7","7","7","7","7","7","7","7","7","618876128202850304","范","470","Male","[""好他"",""坏我"",""好我"",""坏他""]","[""强他"",""弱我"",""强我"",""弱他""]","","","","","","","","match","","","","","","","","","","key","f","16.656800000000196","640","356","f","true","match","img/ellipse.png","强我","强我","prac_ALT2_ability","practice_ability","","","","","","","","",""
"null","<span style='color:GreenYellow; font-size: 70px;'>正确! </span>","null","html-keyboard-response","113","397186","0.0-8.0-1.0-1.1-0.1-1.50","7","7","7","7","7","5","5","5","5","5","5","2","0","2","2","0","1","2","2","5","5","5","5","5","5","5","5","5","5","5","5","5","6","5","5","5","5","5","7","7","7","7","7","7","7","7","7","7","1","7","7","7","7","7","7","7","7","7","7","7","7","7","7","7","7","7","7","7","7","7","7","7","7","7","7","7","7","7","7","618876128202850304","范","470","Male","[""好他"",""坏我"",""好我"",""坏他""]","[""强他"",""弱我"",""强我"",""弱他""]","","","","","","","","","","","","","","","","","","","","","","","","","","","","","","feedback_test","","","","","","","","",""
"994","","f","psychophysics","114","399181","0.0-8.0-1.0-1.1-0.1-0.51","7","7","7","7","7","5","5","5","5","5","5","2","0","2","2","0","1","2","2","5","5","5","5","5","5","5","5","5","5","5","5","5","6","5","5","5","5","5","7","7","7","7","7","7","7","7","7","7","1","7","7","7","7","7","7","7","7","7","7","7","7","7","7","7","7","7","7","7","7","7","7","7","7","7","7","7","7","7","7","618876128202850304","范","470","Male","[""好他"",""坏我"",""好我"",""坏他""]","[""强他"",""弱我"",""强我"",""弱他""]","","","","","","","","match","","","","","","","","","","key","f","16.651355932203764","640","356","j","false","nonmatch","img/pentagon.png","强他","弱我","prac_ALT2_ability","practice_ability","","","","","","","","",""
"null","<span style='color:red; font-size: 70px;'>错误! </span>","null","html-keyboard-response","115","399682","0.0-8.0-1.0-1.1-0.1-1.51","7","7","7","7","7","5","5","5","5","5","5","2","0","2","2","0","1","2","2","5","5","5","5","5","5","5","5","5","5","5","5","5","6","5","5","5","5","5","7","7","7","7","7","7","7","7","7","7","1","7","7","7","7","7","7","7","7","7","7","7","7","7","7","7","7","7","7","7","7","7","7","7","7","7","7","7","7","7","7","618876128202850304","范","470","Male","[""好他"",""坏我"",""好我"",""坏他""]","[""强他"",""弱我"",""强我"",""弱他""]","","","","","","","","","","","","","","","","","","","","","","","","","","","","","","feedback_test","","","","","","","","",""
"936","","j","psychophysics","116","401620","0.0-8.0-1.0-1.1-0.1-0.52","7","7","7","7","7","5","5","5","5","5","5","2","0","2","2","0","1","2","2","5","5","5","5","5","5","5","5","5","5","5","5","5","6","5","5","5","5","5","7","7","7","7","7","7","7","7","7","7","1","7","7","7","7","7","7","7","7","7","7","7","7","7","7","7","7","7","7","7","7","7","7","7","7","7","7","7","7","7","7","618876128202850304","范","470","Male","[""好他"",""坏我"",""好我"",""坏他""]","[""强他"",""弱我"",""强我"",""弱他""]","","","","","","","","nonmatch","","","","","","","","","","key","j","16.65367241379311","640","356","j","true","nonmatch","img/triangle.png","强我","弱他","prac_ALT2_ability","practice_ability","","","","","","","","",""
"null","<span style='color:GreenYellow; font-size: 70px;'>正确! </span>","null","html-keyboard-response","117","402121","0.0-8.0-1.0-1.1-0.1-1.52","7","7","7","7","7","5","5","5","5","5","5","2","0","2","2","0","1","2","2","5","5","5","5","5","5","5","5","5","5","5","5","5","6","5","5","5","5","5","7","7","7","7","7","7","7","7","7","7","1","7","7","7","7","7","7","7","7","7","7","7","7","7","7","7","7","7","7","7","7","7","7","7","7","7","7","7","7","7","7","618876128202850304","范","470","Male","[""好他"",""坏我"",""好我"",""坏他""]","[""强他"",""弱我"",""强我"",""弱他""]","","","","","","","","","","","","","","","","","","","","","","","","","","","","","","feedback_test","","","","","","","","",""
"993","","j","psychophysics","118","404116","0.0-8.0-1.0-1.1-0.1-0.53","7","7","7","7","7","5","5","5","5","5","5","2","0","2","2","0","1","2","2","5","5","5","5","5","5","5","5","5","5","5","5","5","6","5","5","5","5","5","7","7","7","7","7","7","7","7","7","7","1","7","7","7","7","7","7","7","7","7","7","7","7","7","7","7","7","7","7","7","7","7","7","7","7","7","7","7","7","7","7","618876128202850304","范","470","Male","[""好他"",""坏我"",""好我"",""坏他""]","[""强他"",""弱我"",""强我"",""弱他""]","","","","","","","","nonmatch","","","","","","","","","","key","j","16.652327731092257","640","356","j","true","nonmatch","img/square.png","弱他","强他","prac_ALT2_ability","practice_ability","","","","","","","","",""
"null","<span style='color:GreenYellow; font-size: 70px;'>正确! </span>","null","html-keyboard-response","119","404619","0.0-8.0-1.0-1.1-0.1-1.53","7","7","7","7","7","5","5","5","5","5","5","2","0","2","2","0","1","2","2","5","5","5","5","5","5","5","5","5","5","5","5","5","6","5","5","5","5","5","7","7","7","7","7","7","7","7","7","7","1","7","7","7","7","7","7","7","7","7","7","7","7","7","7","7","7","7","7","7","7","7","7","7","7","7","7","7","7","7","7","618876128202850304","范","470","Male","[""好他"",""坏我"",""好我"",""坏他""]","[""强他"",""弱我"",""强我"",""弱他""]","","","","","","","","","","","","","","","","","","","","","","","","","","","","","","feedback_test","","","","","","","","",""
"1013","","j","psychophysics","120","406634","0.0-8.0-1.0-1.1-0.1-0.54","7","7","7","7","7","5","5","5","5","5","5","2","0","2","2","0","1","2","2","5","5","5","5","5","5","5","5","5","5","5","5","5","6","5","5","5","5","5","7","7","7","7","7","7","7","7","7","7","1","7","7","7","7","7","7","7","7","7","7","7","7","7","7","7","7","7","7","7","7","7","7","7","7","7","7","7","7","7","7","618876128202850304","范","470","Male","[""好他"",""坏我"",""好我"",""坏他""]","[""强他"",""弱我"",""强我"",""弱他""]","","","","","","","","nonmatch","","","","","","","","","","key","j","16.65335833333326","640","356","j","true","nonmatch","img/pentagon.png","强我","弱我","prac_ALT2_ability","practice_ability","","","","","","","","",""
"null","<span style='color:GreenYellow; font-size: 70px;'>正确! </span>","null","html-keyboard-response","121","407136","0.0-8.0-1.0-1.1-0.1-1.54","7","7","7","7","7","5","5","5","5","5","5","2","0","2","2","0","1","2","2","5","5","5","5","5","5","5","5","5","5","5","5","5","6","5","5","5","5","5","7","7","7","7","7","7","7","7","7","7","1","7","7","7","7","7","7","7","7","7","7","7","7","7","7","7","7","7","7","7","7","7","7","7","7","7","7","7","7","7","7","618876128202850304","范","470","Male","[""好他"",""坏我"",""好我"",""坏他""]","[""强他"",""弱我"",""强我"",""弱他""]","","","","","","","","","","","","","","","","","","","","","","","","","","","","","","feedback_test","","","","","","","","",""
"979","","j","psychophysics","122","409117","0.0-8.0-1.0-1.1-0.1-0.55","7","7","7","7","7","5","5","5","5","5","5","2","0","2","2","0","1","2","2","5","5","5","5","5","5","5","5","5","5","5","5","5","6","5","5","5","5","5","7","7","7","7","7","7","7","7","7","7","1","7","7","7","7","7","7","7","7","7","7","7","7","7","7","7","7","7","7","7","7","7","7","7","7","7","7","7","7","7","7","618876128202850304","范","470","Male","[""好他"",""坏我"",""好我"",""坏他""]","[""强他"",""弱我"",""强我"",""弱他""]","","","","","","","","nonmatch","","","","","","","","","","key","j","16.6537457627118","640","356","f","false","match","img/triangle.png","弱他","弱他","prac_ALT2_ability","practice_ability","","","","","","","","",""
"null","<span style='color:red; font-size: 70px;'>错误! </span>","null","html-keyboard-response","123","409618","0.0-8.0-1.0-1.1-0.1-1.55","7","7","7","7","7","5","5","5","5","5","5","2","0","2","2","0","1","2","2","5","5","5","5","5","5","5","5","5","5","5","5","5","6","5","5","5","5","5","7","7","7","7","7","7","7","7","7","7","1","7","7","7","7","7","7","7","7","7","7","7","7","7","7","7","7","7","7","7","7","7","7","7","7","7","7","7","7","7","7","618876128202850304","范","470","Male","[""好他"",""坏我"",""好我"",""坏他""]","[""强他"",""弱我"",""强我"",""弱他""]","","","","","","","","","","","","","","","","","","","","","","","","","","","","","","feedback_test","","","","","","","","",""
"1049","","f","psychophysics","124","411668","0.0-8.0-1.0-1.1-0.1-0.56","7","7","7","7","7","5","5","5","5","5","5","2","0","2","2","0","1","2","2","5","5","5","5","5","5","5","5","5","5","5","5","5","6","5","5","5","5","5","7","7","7","7","7","7","7","7","7","7","1","7","7","7","7","7","7","7","7","7","7","7","7","7","7","7","7","7","7","7","7","7","7","7","7","7","7","7","7","7","7","618876128202850304","范","470","Male","[""好他"",""坏我"",""好我"",""坏他""]","[""强他"",""弱我"",""强我"",""弱他""]","","","","","","","","match","","","","","","","","","","key","f","16.652524590163996","640","356","f","true","match","img/pentagon.png","弱我","弱我","prac_ALT2_ability","practice_ability","","","","","","","","",""
"null","<span style='color:GreenYellow; font-size: 70px;'>正确! </span>","null","html-keyboard-response","125","412170","0.0-8.0-1.0-1.1-0.1-1.56","7","7","7","7","7","5","5","5","5","5","5","2","0","2","2","0","1","2","2","5","5","5","5","5","5","5","5","5","5","5","5","5","6","5","5","5","5","5","7","7","7","7","7","7","7","7","7","7","1","7","7","7","7","7","7","7","7","7","7","7","7","7","7","7","7","7","7","7","7","7","7","7","7","7","7","7","7","7","7","618876128202850304","范","470","Male","[""好他"",""坏我"",""好我"",""坏他""]","[""强他"",""弱我"",""强我"",""弱他""]","","","","","","","","","","","","","","","","","","","","","","","","","","","","","","feedback_test","","","","","","","","",""
"1037","","j","psychophysics","126","414208","0.0-8.0-1.0-1.1-0.1-0.57","7","7","7","7","7","5","5","5","5","5","5","2","0","2","2","0","1","2","2","5","5","5","5","5","5","5","5","5","5","5","5","5","6","5","5","5","5","5","7","7","7","7","7","7","7","7","7","7","1","7","7","7","7","7","7","7","7","7","7","7","7","7","7","7","7","7","7","7","7","7","7","7","7","7","7","7","7","7","7","618876128202850304","范","470","Male","[""好他"",""坏我"",""好我"",""坏他""]","[""强他"",""弱我"",""强我"",""弱他""]","","","","","","","","nonmatch","","","","","","","","","","key","j","16.65297540983607","640","356","j","true","nonmatch","img/square.png","弱我","强他","prac_ALT2_ability","practice_ability","","","","","","","","",""
"null","<span style='color:GreenYellow; font-size: 70px;'>正确! </span>","null","html-keyboard-response","127","414709","0.0-8.0-1.0-1.1-0.1-1.57","7","7","7","7","7","5","5","5","5","5","5","2","0","2","2","0","1","2","2","5","5","5","5","5","5","5","5","5","5","5","5","5","6","5","5","5","5","5","7","7","7","7","7","7","7","7","7","7","1","7","7","7","7","7","7","7","7","7","7","7","7","7","7","7","7","7","7","7","7","7","7","7","7","7","7","7","7","7","7","618876128202850304","范","470","Male","[""好他"",""坏我"",""好我"",""坏他""]","[""强他"",""弱我"",""强我"",""弱他""]","","","","","","","","","","","","","","","","","","","","","","","","","","","","","","feedback_test","","","","","","","","",""
"1097","","j","psychophysics","128","416807","0.0-8.0-1.0-1.1-0.1-0.58","7","7","7","7","7","5","5","5","5","5","5","2","0","2","2","0","1","2","2","5","5","5","5","5","5","5","5","5","5","5","5","5","6","5","5","5","5","5","7","7","7","7","7","7","7","7","7","7","1","7","7","7","7","7","7","7","7","7","7","7","7","7","7","7","7","7","7","7","7","7","7","7","7","7","7","7","7","7","7","618876128202850304","范","470","Male","[""好他"",""坏我"",""好我"",""坏他""]","[""强他"",""弱我"",""强我"",""弱他""]","","","","","","","","nonmatch","","","","","","","","","","key","j","16.655056000000332","640","356","j","true","nonmatch","img/pentagon.png","弱他","弱我","prac_ALT2_ability","practice_ability","","","","","","","","",""
"null","<span style='color:GreenYellow; font-size: 70px;'>正确! </span>","null","html-keyboard-response","129","417308","0.0-8.0-1.0-1.1-0.1-1.58","7","7","7","7","7","5","5","5","5","5","5","2","0","2","2","0","1","2","2","5","5","5","5","5","5","5","5","5","5","5","5","5","6","5","5","5","5","5","7","7","7","7","7","7","7","7","7","7","1","7","7","7","7","7","7","7","7","7","7","7","7","7","7","7","7","7","7","7","7","7","7","7","7","7","7","7","7","7","7","618876128202850304","范","470","Male","[""好他"",""坏我"",""好我"",""坏他""]","[""强他"",""弱我"",""强我"",""弱他""]","","","","","","","","","","","","","","","","","","","","","","","","","","","","","","feedback_test","","","","","","","","",""
"997","","j","psychophysics","130","419307","0.0-8.0-1.0-1.1-0.1-0.59","7","7","7","7","7","5","5","5","5","5","5","2","0","2","2","0","1","2","2","5","5","5","5","5","5","5","5","5","5","5","5","5","6","5","5","5","5","5","7","7","7","7","7","7","7","7","7","7","1","7","7","7","7","7","7","7","7","7","7","7","7","7","7","7","7","7","7","7","7","7","7","7","7","7","7","7","7","7","7","618876128202850304","范","470","Male","[""好他"",""坏我"",""好我"",""坏他""]","[""强他"",""弱我"",""强我"",""弱他""]","","","","","","","","nonmatch","","","","","","","","","","key","j","16.65740336134478","640","356","j","true","nonmatch","img/ellipse.png","强他","强我","prac_ALT2_ability","practice_ability","","","","","","","","",""
"null","<span style='color:GreenYellow; font-size: 70px;'>正确! </span>","null","html-keyboard-response","131","419809","0.0-8.0-1.0-1.1-0.1-1.59","7","7","7","7","7","5","5","5","5","5","5","2","0","2","2","0","1","2","2","5","5","5","5","5","5","5","5","5","5","5","5","5","6","5","5","5","5","5","7","7","7","7","7","7","7","7","7","7","1","7","7","7","7","7","7","7","7","7","7","7","7","7","7","7","7","7","7","7","7","7","7","7","7","7","7","7","7","7","7","618876128202850304","范","470","Male","[""好他"",""坏我"",""好我"",""坏他""]","[""强他"",""弱我"",""强我"",""弱他""]","","","","","","","","","","","","","","","","","","","","","","","","","","","","","","feedback_test","","","","","","","","",""
"744","","f","psychophysics","132","421554","0.0-8.0-1.0-1.1-0.1-0.60","7","7","7","7","7","5","5","5","5","5","5","2","0","2","2","0","1","2","2","5","5","5","5","5","5","5","5","5","5","5","5","5","6","5","5","5","5","5","7","7","7","7","7","7","7","7","7","7","1","7","7","7","7","7","7","7","7","7","7","7","7","7","7","7","7","7","7","7","7","7","7","7","7","7","7","7","7","7","7","618876128202850304","范","470","Male","[""好他"",""坏我"",""好我"",""坏他""]","[""强他"",""弱我"",""强我"",""弱他""]","","","","","","","","match","","","","","","","","","","key","f","16.65268269230728","640","356","f","true","match","img/square.png","强他","强他","prac_ALT2_ability","practice_ability","","","","","","","","",""
"null","<span style='color:GreenYellow; font-size: 70px;'>正确! </span>","null","html-keyboard-response","133","422055","0.0-8.0-1.0-1.1-0.1-1.60","7","7","7","7","7","5","5","5","5","5","5","2","0","2","2","0","1","2","2","5","5","5","5","5","5","5","5","5","5","5","5","5","6","5","5","5","5","5","7","7","7","7","7","7","7","7","7","7","1","7","7","7","7","7","7","7","7","7","7","7","7","7","7","7","7","7","7","7","7","7","7","7","7","7","7","7","7","7","7","618876128202850304","范","470","Male","[""好他"",""坏我"",""好我"",""坏他""]","[""强他"",""弱我"",""强我"",""弱他""]","","","","","","","","","","","","","","","","","","","","","","","","","","","","","","feedback_test","","","","","","","","",""
"984","","f","psychophysics","134","424041","0.0-8.0-1.0-1.1-0.1-0.61","7","7","7","7","7","5","5","5","5","5","5","2","0","2","2","0","1","2","2","5","5","5","5","5","5","5","5","5","5","5","5","5","6","5","5","5","5","5","7","7","7","7","7","7","7","7","7","7","1","7","7","7","7","7","7","7","7","7","7","7","7","7","7","7","7","7","7","7","7","7","7","7","7","7","7","7","7","7","7","618876128202850304","范","470","Male","[""好他"",""坏我"",""好我"",""坏他""]","[""强他"",""弱我"",""强我"",""弱他""]","","","","","","","","match","","","","","","","","","","key","f","16.650254237287978","640","356","f","true","match","img/triangle.png","弱他","弱他","prac_ALT2_ability","practice_ability","","","","","","","","",""
"null","<span style='color:GreenYellow; font-size: 70px;'>正确! </span>","null","html-keyboard-response","135","424542","0.0-8.0-1.0-1.1-0.1-1.61","7","7","7","7","7","5","5","5","5","5","5","2","0","2","2","0","1","2","2","5","5","5","5","5","5","5","5","5","5","5","5","5","6","5","5","5","5","5","7","7","7","7","7","7","7","7","7","7","1","7","7","7","7","7","7","7","7","7","7","7","7","7","7","7","7","7","7","7","7","7","7","7","7","7","7","7","7","7","7","618876128202850304","范","470","Male","[""好他"",""坏我"",""好我"",""坏他""]","[""强他"",""弱我"",""强我"",""弱他""]","","","","","","","","","","","","","","","","","","","","","","","","","","","","","","feedback_test","","","","","","","","",""
"1018","","j","psychophysics","136","426561","0.0-8.0-1.0-1.1-0.1-0.62","7","7","7","7","7","5","5","5","5","5","5","2","0","2","2","0","1","2","2","5","5","5","5","5","5","5","5","5","5","5","5","5","6","5","5","5","5","5","7","7","7","7","7","7","7","7","7","7","1","7","7","7","7","7","7","7","7","7","7","7","7","7","7","7","7","7","7","7","7","7","7","7","7","7","7","7","7","7","7","618876128202850304","范","470","Male","[""好他"",""坏我"",""好我"",""坏他""]","[""强他"",""弱我"",""强我"",""弱他""]","","","","","","","","nonmatch","","","","","","","","","","key","j","16.655274999999772","640","356","j","true","nonmatch","img/ellipse.png","弱我","强我","prac_ALT2_ability","practice_ability","","","","","","","","",""
"null","<span style='color:GreenYellow; font-size: 70px;'>正确! </span>","null","html-keyboard-response","137","427061","0.0-8.0-1.0-1.1-0.1-1.62","7","7","7","7","7","5","5","5","5","5","5","2","0","2","2","0","1","2","2","5","5","5","5","5","5","5","5","5","5","5","5","5","6","5","5","5","5","5","7","7","7","7","7","7","7","7","7","7","1","7","7","7","7","7","7","7","7","7","7","7","7","7","7","7","7","7","7","7","7","7","7","7","7","7","7","7","7","7","7","618876128202850304","范","470","Male","[""好他"",""坏我"",""好我"",""坏他""]","[""强他"",""弱我"",""强我"",""弱他""]","","","","","","","","","","","","","","","","","","","","","","","","","","","","","","feedback_test","","","","","","","","",""
"1138","","f","psychophysics","138","429200","0.0-8.0-1.0-1.1-0.1-0.63","7","7","7","7","7","5","5","5","5","5","5","2","0","2","2","0","1","2","2","5","5","5","5","5","5","5","5","5","5","5","5","5","6","5","5","5","5","5","7","7","7","7","7","7","7","7","7","7","1","7","7","7","7","7","7","7","7","7","7","7","7","7","7","7","7","7","7","7","7","7","7","7","7","7","7","7","7","7","7","618876128202850304","范","470","Male","[""好他"",""坏我"",""好我"",""坏他""]","[""强他"",""弱我"",""强我"",""弱他""]","","","","","","","","match","","","","","","","","","","key","f","16.644519685039306","640","356","f","true","match","img/square.png","强他","强他","prac_ALT2_ability","practice_ability","","","","","","","","",""
