"rt","stimulus","response","trial_type","trial_index","time_elapsed","internal_node_id","swb_1","swb_2","swb_3","swb_4","swb_5","LOT_1","LOT_2","LOT_3","LOT_4","LOT_5","LOT_6","IPC_1","IPC_2","IPC_3","IPC_4","IPC_5","IPC_6","IPC_7","IPC_8","MorIden_1","MorIden_2","MorIden_3","MorIden_4","MorIden_5","MorIden_6","MorIden_7","MorIden_8","MorIden_9","MorIden_10","moralSeImag_1","moralSeImag_2","moralSeImag_3","moralSeImag_4","moralSeImag_5","moralSeImag_6","moralSeImag_7","moralSeImag_8","moralSeImag_9","sde_1","sde_2","sde_3","sde_4","sde_5","sde_6","sde_7","sde_8","sde_9","sde_10","trap2","sde_11","sde_12","sde_13","sde_14","sde_15","sde_16","sde_17","sde_18","sde_19","sde_20","IM_1","IM_2","IM_3","IM_4","IM_5","IM_6","IM_7","IM_8","IM_9","IM_10","IM_11","IM_12","IM_13","IM_14","IM_15","IM_16","IM_17","IM_18","IM_19","IM_20","subj_idx","friend_name","ParticipantID","Sex","Word","Word2","value","success","timeout","failed_images","failed_audio","failed_video","user_agent","responses","item_order","radio_event_ids","radio_event_times","key_event_times","mouse_event_times","straightlining","zigzagging","honeypot","task_id","screen_id","time_stamp","response_type","key_press","avg_frame_time","center_x","center_y","person","word","valence","domain","math","correct_response","correct","status","view_history","identity","duration","Image","condition","question_order","trap2_item"
"1616","
   <p><div style='color:white; font-size: 25px'>您好，欢迎参加本次实验。</div></p>
   <p><div style='color:white; font-size: 25px'>为充分保障您的权利，请确保您已经知晓并同意《参与实验同意书》以及《数据公开知情同意书》。</div></p>
   <p><div style='color:white; font-size: 25px'>如果您未见过上述内容，请咨询实验员。</div></p>
   <p style='color:white; font-size: 25px'>如果您选择继续实验，则表示您已经清楚两份知情同意书的内容并同意。</p>
   <p><div style = ""color: pink;font-size:30px;"">请确保您记得day0的实验编号，您将在本次实验输入该编号，若您忘记，请咨询实验员后作答。</div></p>
   <p><div style = ""color:lightblue;font-size:25px;"">请您尽可能认真地作答，我们将依据您在各问卷和按键任务中的作答质量发放报酬。</div></p>
   <p> <div style = ""color: green""><按空格键至下页></div> </p>
   "," ","html-keyboard-response","0","1621","0.0-0.0","7","7","7","7","7","5","5","5","5","5","5","2","0","2","2","2","2","2","2","5","5","5","1","5","5","5","5","5","5","5","5","5","5","5","5","5","5","5","7","7","7","7","7","7","7","1","7","7","1","7","7","7","7","7","7","7","7","7","7","7","7","7","7","7","7","7","7","7","7","7","7","7","7","7","7","7","7","7","7","618773298611748864","袁","273","Male","[""坏我"",""好他"",""坏他"",""好我""]","[""弱我"",""强他"",""弱他"",""强我""]","","","","","","","","","","","","","","","","","","","","","","","","","","","","","","","","","","","","","","",""
"","","","call-function","1","1622","0.0-1.0-0.0","7","7","7","7","7","5","5","5","5","5","5","2","0","2","2","2","2","2","2","5","5","5","1","5","5","5","5","5","5","5","5","5","5","5","5","5","5","5","7","7","7","7","7","7","7","1","7","7","1","7","7","7","7","7","7","7","7","7","7","7","7","7","7","7","7","7","7","7","7","7","7","7","7","7","7","7","7","7","7","618773298611748864","袁","273","Male","[""坏我"",""好他"",""坏他"",""好我""]","[""弱我"",""强他"",""弱他"",""强我""]","","","","","","","","","","","","","","","","","","","","","","","","","","","","","","","","","","","","","","",""
"41407","","[{""name"":""Sex"",""value"":""0""},{""name"":""friend_name"",""value"":""袁""},{""name"":""ParticipantID"",""value"":""273""}]","survey-html-form","2","43030","0.0-1.0-1.0","7","7","7","7","7","5","5","5","5","5","5","2","0","2","2","2","2","2","2","5","5","5","1","5","5","5","5","5","5","5","5","5","5","5","5","5","5","5","7","7","7","7","7","7","7","1","7","7","1","7","7","7","7","7","7","7","7","7","7","7","7","7","7","7","7","7","7","7","7","7","7","7","7","7","7","7","7","7","7","618773298611748864","袁","273","Male","[""坏我"",""好他"",""坏他"",""好我""]","[""弱我"",""强他"",""弱他"",""强我""]","","","","","","","","","","","","","","","","","","","","","","","","","","","","","","","","","","","","","","",""
"","","","preload","3","44133","0.0-2.0","7","7","7","7","7","5","5","5","5","5","5","2","0","2","2","2","2","2","2","5","5","5","1","5","5","5","5","5","5","5","5","5","5","5","5","5","5","5","7","7","7","7","7","7","7","1","7","7","1","7","7","7","7","7","7","7","7","7","7","7","7","7","7","7","7","7","7","7","7","7","7","7","7","7","7","7","7","7","7","618773298611748864","袁","273","Male","[""坏我"",""好他"",""坏他"",""好我""]","[""弱我"",""强他"",""弱他"",""强我""]","","true","false","[]","[]","[]","","","","","","","","","","","","","","","","","","","","","","","","","","","","","","","","",""
"","","","fullscreen","4","45602","0.0-3.0","7","7","7","7","7","5","5","5","5","5","5","2","0","2","2","2","2","2","2","5","5","5","1","5","5","5","5","5","5","5","5","5","5","5","5","5","5","5","7","7","7","7","7","7","7","1","7","7","1","7","7","7","7","7","7","7","7","7","7","7","7","7","7","7","7","7","7","7","7","7","7","7","7","7","7","7","7","7","7","618773298611748864","袁","273","Male","[""坏我"",""好他"",""坏他"",""好我""]","[""弱我"",""强他"",""弱他"",""强我""]","","true","","","","","{}","","","","","","","","","","","","","","","","","","","","","","","","","","","","","","","",""
"18100.700000047684","","{""Q01"":""7"",""Q02"":""7"",""Q03"":""7"",""Q04"":""7"",""Q05"":""7""}","survey-template","5","63705","0.0-4.0","7","7","7","7","7","5","5","5","5","5","5","2","0","2","2","2","2","2","2","5","5","5","1","5","5","5","5","5","5","5","5","5","5","5","5","5","5","5","7","7","7","7","7","7","7","1","7","7","1","7","7","7","7","7","7","7","7","7","7","7","7","7","7","7","7","7","7","7","7","7","7","7","7","7","7","7","7","7","7","618773298611748864","袁","273","Male","[""坏我"",""好他"",""坏他"",""好我""]","[""弱我"",""强他"",""弱他"",""强我""]","","","","","","","","{""Q01"":""7"",""Q02"":""7"",""Q03"":""7"",""Q04"":""7"",""Q05"":""7""}","[0,1,2,3,4]","[""Q01"",""Q02"",""Q03"",""Q04"",""Q05""]","[2903.4000000953674,4113.300000071526,6606.700000047684,9754.400000095367,16868.600000023842]","[]","[2903.4000000953674,4113.300000071526,5162.400000095367,6606.700000047684,9754.400000095367,16868.600000023842,18099.100000023842]","1","0","0","","","","","","","","","","","","","","","","","","","","","","",""
"24079.5","","{""Q01"":""5"",""Q02"":""5"",""Q03"":""5"",""Q04"":""5"",""Q05"":""5"",""Q06"":""5""}","survey-template","6","87791","0.0-5.0","7","7","7","7","7","5","5","5","5","5","5","2","0","2","2","2","2","2","2","5","5","5","1","5","5","5","5","5","5","5","5","5","5","5","5","5","5","5","7","7","7","7","7","7","7","1","7","7","1","7","7","7","7","7","7","7","7","7","7","7","7","7","7","7","7","7","7","7","7","7","7","7","7","7","7","7","7","7","7","618773298611748864","袁","273","Male","[""坏我"",""好他"",""坏他"",""好我""]","[""弱我"",""强他"",""弱他"",""强我""]","","","","","","","","{""Q01"":""5"",""Q02"":""5"",""Q03"":""5"",""Q04"":""5"",""Q05"":""5"",""Q06"":""5""}","[0,1,2,3,4,5]","[""Q01"",""Q02"",""Q03"",""Q04"",""Q05"",""Q06""]","[2222.100000023842,8585.600000023842,10649.800000071526,15268.400000095367,16401.400000095367,18277.300000071526]","[]","[2222.100000023842,8585.600000023842,10649.800000071526,15268.400000095367,16401.400000095367,18277.300000071526,24078.400000095367]","0.5","0.8","0","","","","","","","","","","","","","","","","","","","","","","",""
"52789","","{""Q01"":""2"",""Q02"":""0"",""Q03"":""2"",""Q04"":""2"",""Q05"":""2"",""Q06"":""2"",""Q07"":""2"",""Q08"":""2""}","survey-template","7","140585","0.0-6.0","7","7","7","7","7","5","5","5","5","5","5","2","0","2","2","2","2","2","2","5","5","5","1","5","5","5","5","5","5","5","5","5","5","5","5","5","5","5","7","7","7","7","7","7","7","1","7","7","1","7","7","7","7","7","7","7","7","7","7","7","7","7","7","7","7","7","7","7","7","7","7","7","7","7","7","7","7","7","7","618773298611748864","袁","273","Male","[""坏我"",""好他"",""坏他"",""好我""]","[""弱我"",""强他"",""弱他"",""强我""]","","","","","","","","{""Q01"":""2"",""Q02"":""0"",""Q03"":""2"",""Q04"":""2"",""Q05"":""2"",""Q06"":""2"",""Q07"":""2"",""Q08"":""2""}","[0,1,2,3,4,5,6,7]","[""Q02"",""Q01"",""Q03"",""Q04"",""Q05"",""Q06"",""Q07"",""Q08""]","[5607.300000071526,7746.800000071526,11929.899999976158,14736.5,33036.5,34369.60000002384,38352.5,48035.800000071526]","[]","[2911.8000000715256,4648,5607.300000071526,7746.800000071526,11929.899999976158,14736.5,26736.899999976158,26790.399999976158,28172.800000071526,32105.200000047684,33036.5,34369.60000002384,38352.5,48035.800000071526,52787.39999997616]","0.875","0","0","","","","","","","","","","","","","","","","","","","","","","",""
"13598","
    <p><div style='color:white;font-size:35px; line-height:20px;'>词汇评估任务</div></p><br>
    <p><div style='color:white;font-size:25px; line-height:20px;'>请再次回忆该亲密的朋友，你们至少2年前就认识了，并且最近2年经常见面。</div></p>
    <p><div style='color:white;font-size:25px; line-height:20px;'>在本实验中，您将会看到一些形容词。</div></p>
    <p><div style='color:yellow;font-size:25px; line-height:20px;'>您的任务是判断这些形容词是否符合对您自己或您的朋友的描述。</div></p><p style='font-size:35px'>符合按<span style=""color:lightgreen""> j 键</span>，不符合按<span style=""color:red""> f 键</span></p>","0","html-button-response","8","154187","0.0-7.0-0.0","7","7","7","7","7","5","5","5","5","5","5","2","0","2","2","2","2","2","2","5","5","5","1","5","5","5","5","5","5","5","5","5","5","5","5","5","5","5","7","7","7","7","7","7","7","1","7","7","1","7","7","7","7","7","7","7","7","7","7","7","7","7","7","7","7","7","7","7","7","7","7","7","7","7","7","7","7","7","7","618773298611748864","袁","273","Male","[""坏我"",""好他"",""坏他"",""好我""]","[""弱我"",""强他"",""弱他"",""强我""]","","","","","","","","","","","","","","","","","SRET_EW","EW_instructions","Mon Dec 25 2023 17:10:03 GMT+0800 (中国标准时间)","","","","","","","","","","","","","","","","","","","",""
"1526","","f","psychophysics","9","156718","0.0-7.0-1.0-0.0","7","7","7","7","7","5","5","5","5","5","5","2","0","2","2","2","2","2","2","5","5","5","1","5","5","5","5","5","5","5","5","5","5","5","5","5","5","5","7","7","7","7","7","7","7","1","7","7","1","7","7","7","7","7","7","7","7","7","7","7","7","7","7","7","7","7","7","7","7","7","7","7","7","7","7","7","7","7","7","618773298611748864","袁","273","Male","[""坏我"",""好他"",""坏他"",""好我""]","[""弱我"",""强他"",""弱他"",""强我""]","","","","","","","","no","","","","","","","","","SRET_EW","EW_practice","","key","f","16.65277631578934","640","356","自己","刻板","Negative","ability","","","","","","","","","","",""
"1383","","j","psychophysics","10","159104","0.0-7.0-1.0-0.1","7","7","7","7","7","5","5","5","5","5","5","2","0","2","2","2","2","2","2","5","5","5","1","5","5","5","5","5","5","5","5","5","5","5","5","5","5","5","7","7","7","7","7","7","7","1","7","7","1","7","7","7","7","7","7","7","7","7","7","7","7","7","7","7","7","7","7","7","7","7","7","7","7","7","7","7","7","7","7","618773298611748864","袁","273","Male","[""坏我"",""好他"",""坏他"",""好我""]","[""弱我"",""强他"",""弱他"",""强我""]","","","","","","","","yes","","","","","","","","","SRET_EW","EW_practice","","key","j","16.653140845070315","640","356","朋友","忠实","Positive","morality","","","","","","","","","","",""
"927","","j","psychophysics","11","161032","0.0-7.0-1.0-0.2","7","7","7","7","7","5","5","5","5","5","5","2","0","2","2","2","2","2","2","5","5","5","1","5","5","5","5","5","5","5","5","5","5","5","5","5","5","5","7","7","7","7","7","7","7","1","7","7","1","7","7","7","7","7","7","7","7","7","7","7","7","7","7","7","7","7","7","7","7","7","7","7","7","7","7","7","7","7","7","618773298611748864","袁","273","Male","[""坏我"",""好他"",""坏他"",""好我""]","[""弱我"",""强他"",""弱他"",""强我""]","","","","","","","","yes","","","","","","","","","SRET_EW","EW_practice","","key","j","16.65253913043467","640","356","自己","严谨","Positive","ability","","","","","","","","","","",""
"1617","","f","psychophysics","12","163651","0.0-7.0-1.0-0.3","7","7","7","7","7","5","5","5","5","5","5","2","0","2","2","2","2","2","2","5","5","5","1","5","5","5","5","5","5","5","5","5","5","5","5","5","5","5","7","7","7","7","7","7","7","1","7","7","1","7","7","7","7","7","7","7","7","7","7","7","7","7","7","7","7","7","7","7","7","7","7","7","7","7","7","7","7","7","7","618773298611748864","袁","273","Male","[""坏我"",""好他"",""坏他"",""好我""]","[""弱我"",""强他"",""弱他"",""强我""]","","","","","","","","no","","","","","","","","","SRET_EW","EW_practice","","key","f","16.653006410256264","640","356","朋友","徇私","Negative","morality","","","","","","","","","","",""
"3443","
    <p><div style='color:white;font-size:35px; line-height:20px;'>请您再次阅读实验要求</div></p><br>
    <p><div style='color:white;font-size:25px; line-height:20px;'>请回忆某一个亲密的朋友，你们至少2年前就认识了，并且最近2年经常见面。</div></p>
    <p><div style='color:white;font-size:25px; line-height:20px;'>在本实验中，您将会看到一些形容词。</div></p>
    <p><div style='color:yellow;font-size:25px; line-height:20px;'>您的任务是判断这些形容词是否符合对您自己或您的朋友的描述。</div></p>
    <p><div class='footer' style='font-size:25px; line-height:20px;'>如果对本实验还有不清楚之处，请立即向实验员咨询。</p><p style='font-size:25px; line-height:20px;'>如果您明白了规则：</p><p style='font-size:22px; line-height:20px;'>请按 继续 进入正式实验</p>
    </div>
    <p style='font-size:35px'>符合按<span style=""color:lightgreen""> j 键</span>，不符合按<span style=""color:red""> f 键</span></p>","0","html-button-response","13","167096","0.0-7.0-2.0","7","7","7","7","7","5","5","5","5","5","5","2","0","2","2","2","2","2","2","5","5","5","1","5","5","5","5","5","5","5","5","5","5","5","5","5","5","5","7","7","7","7","7","7","7","1","7","7","1","7","7","7","7","7","7","7","7","7","7","7","7","7","7","7","7","7","7","7","7","7","7","7","7","7","7","7","7","7","7","618773298611748864","袁","273","Male","[""坏我"",""好他"",""坏他"",""好我""]","[""弱我"",""强他"",""弱他"",""强我""]","","","","","","","","","","","","","","","","","SRET_EW","prac_instructions","Mon Dec 25 2023 17:10:03 GMT+0800 (中国标准时间)","","","","","","","","","","","","","","","","","","","",""
"1096","","f","psychophysics","14","169194","0.0-7.0-3.0-0.0","7","7","7","7","7","5","5","5","5","5","5","2","0","2","2","2","2","2","2","5","5","5","1","5","5","5","5","5","5","5","5","5","5","5","5","5","5","5","7","7","7","7","7","7","7","1","7","7","1","7","7","7","7","7","7","7","7","7","7","7","7","7","7","7","7","7","7","7","7","7","7","7","7","7","7","7","7","7","7","618773298611748864","袁","273","Male","[""坏我"",""好他"",""坏他"",""好我""]","[""弱我"",""强他"",""弱他"",""强我""]","","","","","","","","no","","","","","","","","","SRET","EW_formal","","key","f","16.65261904761913","640","356","朋友","迷糊","Negative","ability","","","","","","","","","","",""
"1734","","j","psychophysics","15","171929","0.0-7.0-3.0-0.1","7","7","7","7","7","5","5","5","5","5","5","2","0","2","2","2","2","2","2","5","5","5","1","5","5","5","5","5","5","5","5","5","5","5","5","5","5","5","7","7","7","7","7","7","7","1","7","7","1","7","7","7","7","7","7","7","7","7","7","7","7","7","7","7","7","7","7","7","7","7","7","7","7","7","7","7","7","7","7","618773298611748864","袁","273","Male","[""坏我"",""好他"",""坏他"",""好我""]","[""弱我"",""强他"",""弱他"",""强我""]","","","","","","","","yes","","","","","","","","","SRET","EW_formal","","key","j","16.65306748466247","640","356","自己","坚贞","Positive","morality","","","","","","","","","","",""
"1548","","f","psychophysics","16","174480","0.0-7.0-3.0-0.2","7","7","7","7","7","5","5","5","5","5","5","2","0","2","2","2","2","2","2","5","5","5","1","5","5","5","5","5","5","5","5","5","5","5","5","5","5","5","7","7","7","7","7","7","7","1","7","7","1","7","7","7","7","7","7","7","7","7","7","7","7","7","7","7","7","7","7","7","7","7","7","7","7","7","7","7","7","7","7","618773298611748864","袁","273","Male","[""坏我"",""好他"",""坏他"",""好我""]","[""弱我"",""强他"",""弱他"",""强我""]","","","","","","","","no","","","","","","","","","SRET","EW_formal","","key","f","16.65262091503265","640","356","自己","说谎","Negative","morality","","","","","","","","","","",""
"1157","","f","psychophysics","17","176639","0.0-7.0-3.0-0.3","7","7","7","7","7","5","5","5","5","5","5","2","0","2","2","2","2","2","2","5","5","5","1","5","5","5","5","5","5","5","5","5","5","5","5","5","5","5","7","7","7","7","7","7","7","1","7","7","1","7","7","7","7","7","7","7","7","7","7","7","7","7","7","7","7","7","7","7","7","7","7","7","7","7","7","7","7","7","7","618773298611748864","袁","273","Male","[""坏我"",""好他"",""坏他"",""好我""]","[""弱我"",""强他"",""弱他"",""强我""]","","","","","","","","no","","","","","","","","","SRET","EW_formal","","key","f","16.652656250000064","640","356","朋友","务实","Positive","ability","","","","","","","","","","",""
"1400","","j","psychophysics","18","179041","0.0-7.0-3.0-0.4","7","7","7","7","7","5","5","5","5","5","5","2","0","2","2","2","2","2","2","5","5","5","1","5","5","5","5","5","5","5","5","5","5","5","5","5","5","5","7","7","7","7","7","7","7","1","7","7","1","7","7","7","7","7","7","7","7","7","7","7","7","7","7","7","7","7","7","7","7","7","7","7","7","7","7","7","7","7","7","618773298611748864","袁","273","Male","[""坏我"",""好他"",""坏他"",""好我""]","[""弱我"",""强他"",""弱他"",""强我""]","","","","","","","","yes","","","","","","","","","SRET","EW_formal","","key","j","16.652657342657456","640","356","朋友","坦荡","Positive","morality","","","","","","","","","","",""
"723","","j","psychophysics","19","180767","0.0-7.0-3.0-0.5","7","7","7","7","7","5","5","5","5","5","5","2","0","2","2","2","2","2","2","5","5","5","1","5","5","5","5","5","5","5","5","5","5","5","5","5","5","5","7","7","7","7","7","7","7","1","7","7","1","7","7","7","7","7","7","7","7","7","7","7","7","7","7","7","7","7","7","7","7","7","7","7","7","7","7","7","7","7","7","618773298611748864","袁","273","Male","[""坏我"",""好他"",""坏他"",""好我""]","[""弱我"",""强他"",""弱他"",""强我""]","","","","","","","","yes","","","","","","","","","SRET","EW_formal","","key","j","16.65264077669883","640","356","自己","勤恳","Positive","morality","","","","","","","","","","",""
"1623","","j","psychophysics","20","183393","0.0-7.0-3.0-0.6","7","7","7","7","7","5","5","5","5","5","5","2","0","2","2","2","2","2","2","5","5","5","1","5","5","5","5","5","5","5","5","5","5","5","5","5","5","5","7","7","7","7","7","7","7","1","7","7","1","7","7","7","7","7","7","7","7","7","7","7","7","7","7","7","7","7","7","7","7","7","7","7","7","7","7","7","7","7","7","618773298611748864","袁","273","Male","[""坏我"",""好他"",""坏他"",""好我""]","[""弱我"",""强他"",""弱他"",""强我""]","","","","","","","","yes","","","","","","","","","SRET","EW_formal","","key","j","16.652700636942594","640","356","自己","果断","Positive","ability","","","","","","","","","","",""
"1057","","j","psychophysics","21","185453","0.0-7.0-3.0-0.7","7","7","7","7","7","5","5","5","5","5","5","2","0","2","2","2","2","2","2","5","5","5","1","5","5","5","5","5","5","5","5","5","5","5","5","5","5","5","7","7","7","7","7","7","7","1","7","7","1","7","7","7","7","7","7","7","7","7","7","7","7","7","7","7","7","7","7","7","7","7","7","7","7","7","7","7","7","7","7","618773298611748864","袁","273","Male","[""坏我"",""好他"",""坏他"",""好我""]","[""弱我"",""强他"",""弱他"",""强我""]","","","","","","","","yes","","","","","","","","","SRET","EW_formal","","key","j","16.65240163934421","640","356","朋友","自律","Positive","ability","","","","","","","","","","",""
"1100","","j","psychophysics","22","187555","0.0-7.0-3.0-0.8","7","7","7","7","7","5","5","5","5","5","5","2","0","2","2","2","2","2","2","5","5","5","1","5","5","5","5","5","5","5","5","5","5","5","5","5","5","5","7","7","7","7","7","7","7","1","7","7","1","7","7","7","7","7","7","7","7","7","7","7","7","7","7","7","7","7","7","7","7","7","7","7","7","7","7","7","7","7","7","618773298611748864","袁","273","Male","[""坏我"",""好他"",""坏他"",""好我""]","[""弱我"",""强他"",""弱他"",""强我""]","","","","","","","","yes","","","","","","","","","SRET","EW_formal","","key","j","16.652865079365068","640","356","朋友","谦逊","Positive","morality","","","","","","","","","","",""
"1348","","f","psychophysics","23","189905","0.0-7.0-3.0-0.9","7","7","7","7","7","5","5","5","5","5","5","2","0","2","2","2","2","2","2","5","5","5","1","5","5","5","5","5","5","5","5","5","5","5","5","5","5","5","7","7","7","7","7","7","7","1","7","7","1","7","7","7","7","7","7","7","7","7","7","7","7","7","7","7","7","7","7","7","7","7","7","7","7","7","7","7","7","7","7","618773298611748864","袁","273","Male","[""坏我"",""好他"",""坏他"",""好我""]","[""弱我"",""强他"",""弱他"",""强我""]","","","","","","","","no","","","","","","","","","SRET","EW_formal","","key","f","16.653114285714402","640","356","朋友","逞强","Negative","ability","","","","","","","","","","",""
"1597","","j","psychophysics","24","192504","0.0-7.0-3.0-0.10","7","7","7","7","7","5","5","5","5","5","5","2","0","2","2","2","2","2","2","5","5","5","1","5","5","5","5","5","5","5","5","5","5","5","5","5","5","5","7","7","7","7","7","7","7","1","7","7","1","7","7","7","7","7","7","7","7","7","7","7","7","7","7","7","7","7","7","7","7","7","7","7","7","7","7","7","7","7","7","618773298611748864","袁","273","Male","[""坏我"",""好他"",""坏他"",""好我""]","[""弱我"",""强他"",""弱他"",""强我""]","","","","","","","","yes","","","","","","","","","SRET","EW_formal","","key","j","16.652993548387144","640","356","朋友","坚持","Positive","ability","","","","","","","","","","",""
"1070","","f","psychophysics","25","194576","0.0-7.0-3.0-0.11","7","7","7","7","7","5","5","5","5","5","5","2","0","2","2","2","2","2","2","5","5","5","1","5","5","5","5","5","5","5","5","5","5","5","5","5","5","5","7","7","7","7","7","7","7","1","7","7","1","7","7","7","7","7","7","7","7","7","7","7","7","7","7","7","7","7","7","7","7","7","7","7","7","7","7","7","7","7","7","618773298611748864","袁","273","Male","[""坏我"",""好他"",""坏他"",""好我""]","[""弱我"",""强他"",""弱他"",""强我""]","","","","","","","","no","","","","","","","","","SRET","EW_formal","","key","f","16.652227642276557","640","356","朋友","业余","Negative","ability","","","","","","","","","","",""
"1541","","f","psychophysics","26","197119","0.0-7.0-3.0-0.12","7","7","7","7","7","5","5","5","5","5","5","2","0","2","2","2","2","2","2","5","5","5","1","5","5","5","5","5","5","5","5","5","5","5","5","5","5","5","7","7","7","7","7","7","7","1","7","7","1","7","7","7","7","7","7","7","7","7","7","7","7","7","7","7","7","7","7","7","7","7","7","7","7","7","7","7","7","7","7","618773298611748864","袁","273","Male","[""坏我"",""好他"",""坏他"",""好我""]","[""弱我"",""强他"",""弱他"",""强我""]","","","","","","","","no","","","","","","","","","SRET","EW_formal","","key","f","16.6551118421052","640","356","朋友","奸险","Negative","morality","","","","","","","","","","",""
"1099","","f","psychophysics","27","199221","0.0-7.0-3.0-0.13","7","7","7","7","7","5","5","5","5","5","5","2","0","2","2","2","2","2","2","5","5","5","1","5","5","5","5","5","5","5","5","5","5","5","5","5","5","5","7","7","7","7","7","7","7","1","7","7","1","7","7","7","7","7","7","7","7","7","7","7","7","7","7","7","7","7","7","7","7","7","7","7","7","7","7","7","7","7","7","618773298611748864","袁","273","Male","[""坏我"",""好他"",""坏他"",""好我""]","[""弱我"",""强他"",""弱他"",""强我""]","","","","","","","","no","","","","","","","","","SRET","EW_formal","","key","f","16.65477600000007","640","356","朋友","不孝","Negative","morality","","","","","","","","","","",""
"1176","","j","psychophysics","28","201399","0.0-7.0-3.0-0.14","7","7","7","7","7","5","5","5","5","5","5","2","0","2","2","2","2","2","2","5","5","5","1","5","5","5","5","5","5","5","5","5","5","5","5","5","5","5","7","7","7","7","7","7","7","1","7","7","1","7","7","7","7","7","7","7","7","7","7","7","7","7","7","7","7","7","7","7","7","7","7","7","7","7","7","7","7","7","7","618773298611748864","袁","273","Male","[""坏我"",""好他"",""坏他"",""好我""]","[""弱我"",""强他"",""弱他"",""强我""]","","","","","","","","yes","","","","","","","","","SRET","EW_formal","","key","j","16.652746153846294","640","356","自己","仗义","Positive","morality","","","","","","","","","","",""
"1166","","f","psychophysics","29","203567","0.0-7.0-3.0-0.15","7","7","7","7","7","5","5","5","5","5","5","2","0","2","2","2","2","2","2","5","5","5","1","5","5","5","5","5","5","5","5","5","5","5","5","5","5","5","7","7","7","7","7","7","7","1","7","7","1","7","7","7","7","7","7","7","7","7","7","7","7","7","7","7","7","7","7","7","7","7","7","7","7","7","7","7","7","7","7","618773298611748864","袁","273","Male","[""坏我"",""好他"",""坏他"",""好我""]","[""弱我"",""强他"",""弱他"",""强我""]","","","","","","","","no","","","","","","","","","SRET","EW_formal","","key","f","16.654193798449636","640","356","朋友","拙笨","Negative","ability","","","","","","","","","","",""
"1298","","f","psychophysics","30","205867","0.0-7.0-3.0-0.16","7","7","7","7","7","5","5","5","5","5","5","2","0","2","2","2","2","2","2","5","5","5","1","5","5","5","5","5","5","5","5","5","5","5","5","5","5","5","7","7","7","7","7","7","7","1","7","7","1","7","7","7","7","7","7","7","7","7","7","7","7","7","7","7","7","7","7","7","7","7","7","7","7","7","7","7","7","7","7","618773298611748864","袁","273","Male","[""坏我"",""好他"",""坏他"",""好我""]","[""弱我"",""强他"",""弱他"",""强我""]","","","","","","","","no","","","","","","","","","SRET","EW_formal","","key","f","16.652846715328483","640","356","朋友","罪恶","Negative","morality","","","","","","","","","","",""
"1317","","f","psychophysics","31","208186","0.0-7.0-3.0-0.17","7","7","7","7","7","5","5","5","5","5","5","2","0","2","2","2","2","2","2","5","5","5","1","5","5","5","5","5","5","5","5","5","5","5","5","5","5","5","7","7","7","7","7","7","7","1","7","7","1","7","7","7","7","7","7","7","7","7","7","7","7","7","7","7","7","7","7","7","7","7","7","7","7","7","7","7","7","7","7","618773298611748864","袁","273","Male","[""坏我"",""好他"",""坏他"",""好我""]","[""弱我"",""强他"",""弱他"",""强我""]","","","","","","","","no","","","","","","","","","SRET","EW_formal","","key","f","16.652791366906353","640","356","自己","小人","Negative","morality","","","","","","","","","","",""
"1372","","j","psychophysics","32","210560","0.0-7.0-3.0-0.18","7","7","7","7","7","5","5","5","5","5","5","2","0","2","2","2","2","2","2","5","5","5","1","5","5","5","5","5","5","5","5","5","5","5","5","5","5","5","7","7","7","7","7","7","7","1","7","7","1","7","7","7","7","7","7","7","7","7","7","7","7","7","7","7","7","7","7","7","7","7","7","7","7","7","7","7","7","7","7","618773298611748864","袁","273","Male","[""坏我"",""好他"",""坏他"",""好我""]","[""弱我"",""强他"",""弱他"",""强我""]","","","","","","","","yes","","","","","","","","","SRET","EW_formal","","key","j","16.651078014184368","640","356","朋友","远见","Positive","ability","","","","","","","","","","",""
"1522","","j","psychophysics","33","213085","0.0-7.0-3.0-0.19","7","7","7","7","7","5","5","5","5","5","5","2","0","2","2","2","2","2","2","5","5","5","1","5","5","5","5","5","5","5","5","5","5","5","5","5","5","5","7","7","7","7","7","7","7","1","7","7","1","7","7","7","7","7","7","7","7","7","7","7","7","7","7","7","7","7","7","7","7","7","7","7","7","7","7","7","7","7","7","618773298611748864","袁","273","Male","[""坏我"",""好他"",""坏他"",""好我""]","[""弱我"",""强他"",""弱他"",""强我""]","","","","","","","","yes","","","","","","","","","SRET","EW_formal","","key","j","16.652748344370877","640","356","朋友","毅力","Positive","ability","","","","","","","","","","",""
"1370","","j","psychophysics","34","215456","0.0-7.0-3.0-0.20","7","7","7","7","7","5","5","5","5","5","5","2","0","2","2","2","2","2","2","5","5","5","1","5","5","5","5","5","5","5","5","5","5","5","5","5","5","5","7","7","7","7","7","7","7","1","7","7","1","7","7","7","7","7","7","7","7","7","7","7","7","7","7","7","7","7","7","7","7","7","7","7","7","7","7","7","7","7","7","618773298611748864","袁","273","Male","[""坏我"",""好他"",""坏他"",""好我""]","[""弱我"",""强他"",""弱他"",""强我""]","","","","","","","","yes","","","","","","","","","SRET","EW_formal","","key","j","16.65396453900711","640","356","自己","忠义","Positive","morality","","","","","","","","","","",""
"1754","","f","psychophysics","35","218212","0.0-7.0-3.0-0.21","7","7","7","7","7","5","5","5","5","5","5","2","0","2","2","2","2","2","2","5","5","5","1","5","5","5","5","5","5","5","5","5","5","5","5","5","5","5","7","7","7","7","7","7","7","1","7","7","1","7","7","7","7","7","7","7","7","7","7","7","7","7","7","7","7","7","7","7","7","7","7","7","7","7","7","7","7","7","7","618773298611748864","袁","273","Male","[""坏我"",""好他"",""坏他"",""好我""]","[""弱我"",""强他"",""弱他"",""强我""]","","","","","","","","no","","","","","","","","","SRET","EW_formal","","key","f","16.654260606060657","640","356","朋友","浅薄","Negative","ability","","","","","","","","","","",""
"1461","","j","psychophysics","36","220674","0.0-7.0-3.0-0.22","7","7","7","7","7","5","5","5","5","5","5","2","0","2","2","2","2","2","2","5","5","5","1","5","5","5","5","5","5","5","5","5","5","5","5","5","5","5","7","7","7","7","7","7","7","1","7","7","1","7","7","7","7","7","7","7","7","7","7","7","7","7","7","7","7","7","7","7","7","7","7","7","7","7","7","7","7","7","7","618773298611748864","袁","273","Male","[""坏我"",""好他"",""坏他"",""好我""]","[""弱我"",""强他"",""弱他"",""强我""]","","","","","","","","yes","","","","","","","","","SRET","EW_formal","","key","j","16.652856164383632","640","356","朋友","上进","Positive","ability","","","","","","","","","","",""
"1372","","f","psychophysics","37","223048","0.0-7.0-3.0-0.23","7","7","7","7","7","5","5","5","5","5","5","2","0","2","2","2","2","2","2","5","5","5","1","5","5","5","5","5","5","5","5","5","5","5","5","5","5","5","7","7","7","7","7","7","7","1","7","7","1","7","7","7","7","7","7","7","7","7","7","7","7","7","7","7","7","7","7","7","7","7","7","7","7","7","7","7","7","7","7","618773298611748864","袁","273","Male","[""坏我"",""好他"",""坏他"",""好我""]","[""弱我"",""强他"",""弱他"",""强我""]","","","","","","","","no","","","","","","","","","SRET","EW_formal","","key","f","16.654823943662077","640","356","朋友","不仁","Negative","morality","","","","","","","","","","",""
"1413","","j","psychophysics","38","225463","0.0-7.0-3.0-0.24","7","7","7","7","7","5","5","5","5","5","5","2","0","2","2","2","2","2","2","5","5","5","1","5","5","5","5","5","5","5","5","5","5","5","5","5","5","5","7","7","7","7","7","7","7","1","7","7","1","7","7","7","7","7","7","7","7","7","7","7","7","7","7","7","7","7","7","7","7","7","7","7","7","7","7","7","7","7","7","618773298611748864","袁","273","Male","[""坏我"",""好他"",""坏他"",""好我""]","[""弱我"",""强他"",""弱他"",""强我""]","","","","","","","","yes","","","","","","","","","SRET","EW_formal","","key","j","16.654972222222366","640","356","朋友","守信","Positive","morality","","","","","","","","","","",""
"1489","","f","psychophysics","39","227953","0.0-7.0-3.0-0.25","7","7","7","7","7","5","5","5","5","5","5","2","0","2","2","2","2","2","2","5","5","5","1","5","5","5","5","5","5","5","5","5","5","5","5","5","5","5","7","7","7","7","7","7","7","1","7","7","1","7","7","7","7","7","7","7","7","7","7","7","7","7","7","7","7","7","7","7","7","7","7","7","7","7","7","7","7","7","7","618773298611748864","袁","273","Male","[""坏我"",""好他"",""坏他"",""好我""]","[""弱我"",""强他"",""弱他"",""强我""]","","","","","","","","no","","","","","","","","","SRET","EW_formal","","key","f","16.65125503355712","640","356","自己","自私","Negative","morality","","","","","","","","","","",""
"1831","","j","psychophysics","40","230786","0.0-7.0-3.0-0.26","7","7","7","7","7","5","5","5","5","5","5","2","0","2","2","2","2","2","2","5","5","5","1","5","5","5","5","5","5","5","5","5","5","5","5","5","5","5","7","7","7","7","7","7","7","1","7","7","1","7","7","7","7","7","7","7","7","7","7","7","7","7","7","7","7","7","7","7","7","7","7","7","7","7","7","7","7","7","7","618773298611748864","袁","273","Male","[""坏我"",""好他"",""坏他"",""好我""]","[""弱我"",""强他"",""弱他"",""强我""]","","","","","","","","yes","","","","","","","","","SRET","EW_formal","","key","j","16.65381656804731","640","356","自己","肯干","Positive","ability","","","","","","","","","","",""
"1250","","j","psychophysics","41","233038","0.0-7.0-3.0-0.27","7","7","7","7","7","5","5","5","5","5","5","2","0","2","2","2","2","2","2","5","5","5","1","5","5","5","5","5","5","5","5","5","5","5","5","5","5","5","7","7","7","7","7","7","7","1","7","7","1","7","7","7","7","7","7","7","7","7","7","7","7","7","7","7","7","7","7","7","7","7","7","7","7","7","7","7","7","7","7","618773298611748864","袁","273","Male","[""坏我"",""好他"",""坏他"",""好我""]","[""弱我"",""强他"",""弱他"",""强我""]","","","","","","","","yes","","","","","","","","","SRET","EW_formal","","key","j","16.652134328358198","640","356","朋友","廉正","Positive","morality","","","","","","","","","","",""
"1118","","f","psychophysics","42","235158","0.0-7.0-3.0-0.28","7","7","7","7","7","5","5","5","5","5","5","2","0","2","2","2","2","2","2","5","5","5","1","5","5","5","5","5","5","5","5","5","5","5","5","5","5","5","7","7","7","7","7","7","7","1","7","7","1","7","7","7","7","7","7","7","7","7","7","7","7","7","7","7","7","7","7","7","7","7","7","7","7","7","7","7","7","7","7","618773298611748864","袁","273","Male","[""坏我"",""好他"",""坏他"",""好我""]","[""弱我"",""强他"",""弱他"",""强我""]","","","","","","","","no","","","","","","","","","SRET","EW_formal","","key","f","16.653817460317413","640","356","朋友","邪恶","Negative","morality","","","","","","","","","","",""
"1399","","f","psychophysics","43","237559","0.0-7.0-3.0-0.29","7","7","7","7","7","5","5","5","5","5","5","2","0","2","2","2","2","2","2","5","5","5","1","5","5","5","5","5","5","5","5","5","5","5","5","5","5","5","7","7","7","7","7","7","7","1","7","7","1","7","7","7","7","7","7","7","7","7","7","7","7","7","7","7","7","7","7","7","7","7","7","7","7","7","7","7","7","7","7","618773298611748864","袁","273","Male","[""坏我"",""好他"",""坏他"",""好我""]","[""弱我"",""强他"",""弱他"",""强我""]","","","","","","","","no","","","","","","","","","SRET","EW_formal","","key","f","16.654881118881026","640","356","自己","不良","Negative","morality","","","","","","","","","","",""
"1530","","f","psychophysics","44","240092","0.0-7.0-3.0-0.30","7","7","7","7","7","5","5","5","5","5","5","2","0","2","2","2","2","2","2","5","5","5","1","5","5","5","5","5","5","5","5","5","5","5","5","5","5","5","7","7","7","7","7","7","7","1","7","7","1","7","7","7","7","7","7","7","7","7","7","7","7","7","7","7","7","7","7","7","7","7","7","7","7","7","7","7","7","7","7","618773298611748864","袁","273","Male","[""坏我"",""好他"",""坏他"",""好我""]","[""弱我"",""强他"",""弱他"",""强我""]","","","","","","","","no","","","","","","","","","SRET","EW_formal","","key","f","16.653245033112483","640","356","自己","奸诈","Negative","morality","","","","","","","","","","",""
"1725","","f","psychophysics","45","242818","0.0-7.0-3.0-0.31","7","7","7","7","7","5","5","5","5","5","5","2","0","2","2","2","2","2","2","5","5","5","1","5","5","5","5","5","5","5","5","5","5","5","5","5","5","5","7","7","7","7","7","7","7","1","7","7","1","7","7","7","7","7","7","7","7","7","7","7","7","7","7","7","7","7","7","7","7","7","7","7","7","7","7","7","7","7","7","618773298611748864","袁","273","Male","[""坏我"",""好他"",""坏他"",""好我""]","[""弱我"",""强他"",""弱他"",""强我""]","","","","","","","","no","","","","","","","","","SRET","EW_formal","","key","f","16.654613496932456","640","356","朋友","无能","Negative","ability","","","","","","","","","","",""
"1424","","f","psychophysics","46","245244","0.0-7.0-3.0-0.32","7","7","7","7","7","5","5","5","5","5","5","2","0","2","2","2","2","2","2","5","5","5","1","5","5","5","5","5","5","5","5","5","5","5","5","5","5","5","7","7","7","7","7","7","7","1","7","7","1","7","7","7","7","7","7","7","7","7","7","7","7","7","7","7","7","7","7","7","7","7","7","7","7","7","7","7","7","7","7","618773298611748864","袁","273","Male","[""坏我"",""好他"",""坏他"",""好我""]","[""弱我"",""强他"",""弱他"",""强我""]","","","","","","","","no","","","","","","","","","SRET","EW_formal","","key","f","16.65462068965526","640","356","自己","腐败","Negative","morality","","","","","","","","","","",""
"1662","","j","psychophysics","47","247908","0.0-7.0-3.0-0.33","7","7","7","7","7","5","5","5","5","5","5","2","0","2","2","2","2","2","2","5","5","5","1","5","5","5","5","5","5","5","5","5","5","5","5","5","5","5","7","7","7","7","7","7","7","1","7","7","1","7","7","7","7","7","7","7","7","7","7","7","7","7","7","7","7","7","7","7","7","7","7","7","7","7","7","7","7","7","7","618773298611748864","袁","273","Male","[""坏我"",""好他"",""坏他"",""好我""]","[""弱我"",""强他"",""弱他"",""强我""]","","","","","","","","yes","","","","","","","","","SRET","EW_formal","","key","j","16.65383018867926","640","356","自己","爱国","Positive","morality","","","","","","","","","","",""
"1392","","f","psychophysics","48","250302","0.0-7.0-3.0-0.34","7","7","7","7","7","5","5","5","5","5","5","2","0","2","2","2","2","2","2","5","5","5","1","5","5","5","5","5","5","5","5","5","5","5","5","5","5","5","7","7","7","7","7","7","7","1","7","7","1","7","7","7","7","7","7","7","7","7","7","7","7","7","7","7","7","7","7","7","7","7","7","7","7","7","7","7","7","7","7","618773298611748864","袁","273","Male","[""坏我"",""好他"",""坏他"",""好我""]","[""弱我"",""强他"",""弱他"",""强我""]","","","","","","","","no","","","","","","","","","SRET","EW_formal","","key","f","16.653999999999982","640","356","自己","贪腐","Negative","morality","","","","","","","","","","",""
"1613","","j","psychophysics","49","252928","0.0-7.0-3.0-0.35","7","7","7","7","7","5","5","5","5","5","5","2","0","2","2","2","2","2","2","5","5","5","1","5","5","5","5","5","5","5","5","5","5","5","5","5","5","5","7","7","7","7","7","7","7","1","7","7","1","7","7","7","7","7","7","7","7","7","7","7","7","7","7","7","7","7","7","7","7","7","7","7","7","7","7","7","7","7","7","618773298611748864","袁","273","Male","[""坏我"",""好他"",""坏他"",""好我""]","[""弱我"",""强他"",""弱他"",""强我""]","","","","","","","","yes","","","","","","","","","SRET","EW_formal","","key","j","16.65244871794876","640","356","自己","稳健","Positive","ability","","","","","","","","","","",""
"1262","","f","psychophysics","50","255191","0.0-7.0-3.0-0.36","7","7","7","7","7","5","5","5","5","5","5","2","0","2","2","2","2","2","2","5","5","5","1","5","5","5","5","5","5","5","5","5","5","5","5","5","5","5","7","7","7","7","7","7","7","1","7","7","1","7","7","7","7","7","7","7","7","7","7","7","7","7","7","7","7","7","7","7","7","7","7","7","7","7","7","7","7","7","7","618773298611748864","袁","273","Male","[""坏我"",""好他"",""坏他"",""好我""]","[""弱我"",""强他"",""弱他"",""强我""]","","","","","","","","no","","","","","","","","","SRET","EW_formal","","key","f","16.65518518518527","640","356","自己","缺德","Negative","morality","","","","","","","","","","",""
"1426","","f","psychophysics","51","257619","0.0-7.0-3.0-0.37","7","7","7","7","7","5","5","5","5","5","5","2","0","2","2","2","2","2","2","5","5","5","1","5","5","5","5","5","5","5","5","5","5","5","5","5","5","5","7","7","7","7","7","7","7","1","7","7","1","7","7","7","7","7","7","7","7","7","7","7","7","7","7","7","7","7","7","7","7","7","7","7","7","7","7","7","7","7","7","618773298611748864","袁","273","Male","[""坏我"",""好他"",""坏他"",""好我""]","[""弱我"",""强他"",""弱他"",""强我""]","","","","","","","","no","","","","","","","","","SRET","EW_formal","","key","f","16.65361379310348","640","356","朋友","犹豫","Negative","ability","","","","","","","","","","",""
"1089","","j","psychophysics","52","259710","0.0-7.0-3.0-0.38","7","7","7","7","7","5","5","5","5","5","5","2","0","2","2","2","2","2","2","5","5","5","1","5","5","5","5","5","5","5","5","5","5","5","5","5","5","5","7","7","7","7","7","7","7","1","7","7","1","7","7","7","7","7","7","7","7","7","7","7","7","7","7","7","7","7","7","7","7","7","7","7","7","7","7","7","7","7","7","618773298611748864","袁","273","Male","[""坏我"",""好他"",""坏他"",""好我""]","[""弱我"",""强他"",""弱他"",""强我""]","","","","","","","","yes","","","","","","","","","SRET","EW_formal","","key","j","16.652871999999743","640","356","自己","骁勇","Positive","ability","","","","","","","","","","",""
"1383","","j","psychophysics","53","262096","0.0-7.0-3.0-0.39","7","7","7","7","7","5","5","5","5","5","5","2","0","2","2","2","2","2","2","5","5","5","1","5","5","5","5","5","5","5","5","5","5","5","5","5","5","5","7","7","7","7","7","7","7","1","7","7","1","7","7","7","7","7","7","7","7","7","7","7","7","7","7","7","7","7","7","7","7","7","7","7","7","7","7","7","7","7","7","618773298611748864","袁","273","Male","[""坏我"",""好他"",""坏他"",""好我""]","[""弱我"",""强他"",""弱他"",""强我""]","","","","","","","","yes","","","","","","","","","SRET","EW_formal","","key","j","16.656309859154902","640","356","朋友","仁爱","Positive","morality","","","","","","","","","","",""
"1045","","j","psychophysics","54","264143","0.0-7.0-3.0-0.40","7","7","7","7","7","5","5","5","5","5","5","2","0","2","2","2","2","2","2","5","5","5","1","5","5","5","5","5","5","5","5","5","5","5","5","5","5","5","7","7","7","7","7","7","7","1","7","7","1","7","7","7","7","7","7","7","7","7","7","7","7","7","7","7","7","7","7","7","7","7","7","7","7","7","7","7","7","7","7","618773298611748864","袁","273","Male","[""坏我"",""好他"",""坏他"",""好我""]","[""弱我"",""强他"",""弱他"",""强我""]","","","","","","","","yes","","","","","","","","","SRET","EW_formal","","key","j","16.65478688524559","640","356","朋友","学霸","Positive","ability","","","","","","","","","","",""
"1723","","j","psychophysics","55","266868","0.0-7.0-3.0-0.41","7","7","7","7","7","5","5","5","5","5","5","2","0","2","2","2","2","2","2","5","5","5","1","5","5","5","5","5","5","5","5","5","5","5","5","5","5","5","7","7","7","7","7","7","7","1","7","7","1","7","7","7","7","7","7","7","7","7","7","7","7","7","7","7","7","7","7","7","7","7","7","7","7","7","7","7","7","7","7","618773298611748864","袁","273","Male","[""坏我"",""好他"",""坏他"",""好我""]","[""弱我"",""强他"",""弱他"",""强我""]","","","","","","","","yes","","","","","","","","","SRET","EW_formal","","key","j","16.65277777777778","640","356","自己","宽容","Positive","morality","","","","","","","","","","",""
"1051","","j","psychophysics","56","268921","0.0-7.0-3.0-0.42","7","7","7","7","7","5","5","5","5","5","5","2","0","2","2","2","2","2","2","5","5","5","1","5","5","5","5","5","5","5","5","5","5","5","5","5","5","5","7","7","7","7","7","7","7","1","7","7","1","7","7","7","7","7","7","7","7","7","7","7","7","7","7","7","7","7","7","7","7","7","7","7","7","7","7","7","7","7","7","618773298611748864","袁","273","Male","[""坏我"",""好他"",""坏他"",""好我""]","[""弱我"",""强他"",""弱他"",""强我""]","","","","","","","","yes","","","","","","","","","SRET","EW_formal","","key","j","16.653756097561068","640","356","自己","高效","Positive","ability","","","","","","","","","","",""
"844","","j","psychophysics","57","270767","0.0-7.0-3.0-0.43","7","7","7","7","7","5","5","5","5","5","5","2","0","2","2","2","2","2","2","5","5","5","1","5","5","5","5","5","5","5","5","5","5","5","5","5","5","5","7","7","7","7","7","7","7","1","7","7","1","7","7","7","7","7","7","7","7","7","7","7","7","7","7","7","7","7","7","7","7","7","7","7","7","7","7","7","7","7","7","618773298611748864","袁","273","Male","[""坏我"",""好他"",""坏他"",""好我""]","[""弱我"",""强他"",""弱他"",""强我""]","","","","","","","","yes","","","","","","","","","SRET","EW_formal","","key","j","16.652654545454688","640","356","自己","仁厚","Positive","morality","","","","","","","","","","",""
"883","","f","psychophysics","58","272652","0.0-7.0-3.0-0.44","7","7","7","7","7","5","5","5","5","5","5","2","0","2","2","2","2","2","2","5","5","5","1","5","5","5","5","5","5","5","5","5","5","5","5","5","5","5","7","7","7","7","7","7","7","1","7","7","1","7","7","7","7","7","7","7","7","7","7","7","7","7","7","7","7","7","7","7","7","7","7","7","7","7","7","7","7","7","7","618773298611748864","袁","273","Male","[""坏我"",""好他"",""坏他"",""好我""]","[""弱我"",""强他"",""弱他"",""强我""]","","","","","","","","no","","","","","","","","","SRET","EW_formal","","key","f","16.655464285713865","640","356","朋友","无耻","Negative","morality","","","","","","","","","","",""
"1014","","f","psychophysics","59","274668","0.0-7.0-3.0-0.45","7","7","7","7","7","5","5","5","5","5","5","2","0","2","2","2","2","2","2","5","5","5","1","5","5","5","5","5","5","5","5","5","5","5","5","5","5","5","7","7","7","7","7","7","7","1","7","7","1","7","7","7","7","7","7","7","7","7","7","7","7","7","7","7","7","7","7","7","7","7","7","7","7","7","7","7","7","7","7","618773298611748864","袁","273","Male","[""坏我"",""好他"",""坏他"",""好我""]","[""弱我"",""强他"",""弱他"",""强我""]","","","","","","","","no","","","","","","","","","SRET","EW_formal","","key","f","16.65275833333338","640","356","朋友","驽钝","Negative","ability","","","","","","","","","","",""
"1523","","j","psychophysics","60","277194","0.0-7.0-3.0-0.46","7","7","7","7","7","5","5","5","5","5","5","2","0","2","2","2","2","2","2","5","5","5","1","5","5","5","5","5","5","5","5","5","5","5","5","5","5","5","7","7","7","7","7","7","7","1","7","7","1","7","7","7","7","7","7","7","7","7","7","7","7","7","7","7","7","7","7","7","7","7","7","7","7","7","7","7","7","7","7","618773298611748864","袁","273","Male","[""坏我"",""好他"",""坏他"",""好我""]","[""弱我"",""强他"",""弱他"",""强我""]","","","","","","","","yes","","","","","","","","","SRET","EW_formal","","key","j","16.653040000000036","640","356","自己","利己","Negative","morality","","","","","","","","","","",""
"1475","","f","psychophysics","61","279671","0.0-7.0-3.0-0.47","7","7","7","7","7","5","5","5","5","5","5","2","0","2","2","2","2","2","2","5","5","5","1","5","5","5","5","5","5","5","5","5","5","5","5","5","5","5","7","7","7","7","7","7","7","1","7","7","1","7","7","7","7","7","7","7","7","7","7","7","7","7","7","7","7","7","7","7","7","7","7","7","7","7","7","7","7","7","7","618773298611748864","袁","273","Male","[""坏我"",""好他"",""坏他"",""好我""]","[""弱我"",""强他"",""弱他"",""强我""]","","","","","","","","no","","","","","","","","","SRET","EW_formal","","key","f","16.652952702703015","640","356","朋友","刻薄","Negative","morality","","","","","","","","","","",""
"1140","","j","psychophysics","62","281812","0.0-7.0-3.0-0.48","7","7","7","7","7","5","5","5","5","5","5","2","0","2","2","2","2","2","2","5","5","5","1","5","5","5","5","5","5","5","5","5","5","5","5","5","5","5","7","7","7","7","7","7","7","1","7","7","1","7","7","7","7","7","7","7","7","7","7","7","7","7","7","7","7","7","7","7","7","7","7","7","7","7","7","7","7","7","7","618773298611748864","袁","273","Male","[""坏我"",""好他"",""坏他"",""好我""]","[""弱我"",""强他"",""弱他"",""强我""]","","","","","","","","yes","","","","","","","","","SRET","EW_formal","","key","j","16.652875000000222","640","356","朋友","扎实","Positive","ability","","","","","","","","","","",""
"839","","j","psychophysics","63","283653","0.0-7.0-3.0-0.49","7","7","7","7","7","5","5","5","5","5","5","2","0","2","2","2","2","2","2","5","5","5","1","5","5","5","5","5","5","5","5","5","5","5","5","5","5","5","7","7","7","7","7","7","7","1","7","7","1","7","7","7","7","7","7","7","7","7","7","7","7","7","7","7","7","7","7","7","7","7","7","7","7","7","7","7","7","7","7","618773298611748864","袁","273","Male","[""坏我"",""好他"",""坏他"",""好我""]","[""弱我"",""强他"",""弱他"",""强我""]","","","","","","","","yes","","","","","","","","","SRET","EW_formal","","key","j","16.656412844036687","640","356","自己","廉明","Positive","morality","","","","","","","","","","",""
"1340","","j","psychophysics","64","285995","0.0-7.0-3.0-0.50","7","7","7","7","7","5","5","5","5","5","5","2","0","2","2","2","2","2","2","5","5","5","1","5","5","5","5","5","5","5","5","5","5","5","5","5","5","5","7","7","7","7","7","7","7","1","7","7","1","7","7","7","7","7","7","7","7","7","7","7","7","7","7","7","7","7","7","7","7","7","7","7","7","7","7","7","7","7","7","618773298611748864","袁","273","Male","[""坏我"",""好他"",""坏他"",""好我""]","[""弱我"",""强他"",""弱他"",""强我""]","","","","","","","","yes","","","","","","","","","SRET","EW_formal","","key","j","16.655664285714323","640","356","自己","干练","Positive","ability","","","","","","","","","","",""
"885","","f","psychophysics","65","287882","0.0-7.0-3.0-0.51","7","7","7","7","7","5","5","5","5","5","5","2","0","2","2","2","2","2","2","5","5","5","1","5","5","5","5","5","5","5","5","5","5","5","5","5","5","5","7","7","7","7","7","7","7","1","7","7","1","7","7","7","7","7","7","7","7","7","7","7","7","7","7","7","7","7","7","7","7","7","7","7","7","7","7","7","7","7","7","618773298611748864","袁","273","Male","[""坏我"",""好他"",""坏他"",""好我""]","[""弱我"",""强他"",""弱他"",""强我""]","","","","","","","","no","","","","","","","","","SRET","EW_formal","","key","f","16.652714285714215","640","356","朋友","窝囊","Negative","ability","","","","","","","","","","",""
"1211","","f","psychophysics","66","290094","0.0-7.0-3.0-0.52","7","7","7","7","7","5","5","5","5","5","5","2","0","2","2","2","2","2","2","5","5","5","1","5","5","5","5","5","5","5","5","5","5","5","5","5","5","5","7","7","7","7","7","7","7","1","7","7","1","7","7","7","7","7","7","7","7","7","7","7","7","7","7","7","7","7","7","7","7","7","7","7","7","7","7","7","7","7","7","618773298611748864","袁","273","Male","[""坏我"",""好他"",""坏他"",""好我""]","[""弱我"",""强他"",""弱他"",""强我""]","","","","","","","","no","","","","","","","","","SRET","EW_formal","","key","f","16.653856060605683","640","356","自己","马虎","Negative","ability","","","","","","","","","","",""
"1153","","j","psychophysics","67","292249","0.0-7.0-3.0-0.53","7","7","7","7","7","5","5","5","5","5","5","2","0","2","2","2","2","2","2","5","5","5","1","5","5","5","5","5","5","5","5","5","5","5","5","5","5","5","7","7","7","7","7","7","7","1","7","7","1","7","7","7","7","7","7","7","7","7","7","7","7","7","7","7","7","7","7","7","7","7","7","7","7","7","7","7","7","7","7","618773298611748864","袁","273","Male","[""坏我"",""好他"",""坏他"",""好我""]","[""弱我"",""强他"",""弱他"",""强我""]","","","","","","","","yes","","","","","","","","","SRET","EW_formal","","key","j","16.652828124999814","640","356","朋友","文明","Positive","morality","","","","","","","","","","",""
"712","","j","psychophysics","68","293962","0.0-7.0-3.0-0.54","7","7","7","7","7","5","5","5","5","5","5","2","0","2","2","2","2","2","2","5","5","5","1","5","5","5","5","5","5","5","5","5","5","5","5","5","5","5","7","7","7","7","7","7","7","1","7","7","1","7","7","7","7","7","7","7","7","7","7","7","7","7","7","7","7","7","7","7","7","7","7","7","7","7","7","7","7","7","7","618773298611748864","袁","273","Male","[""坏我"",""好他"",""坏他"",""好我""]","[""弱我"",""强他"",""弱他"",""强我""]","","","","","","","","yes","","","","","","","","","SRET","EW_formal","","key","j","16.652598039215707","640","356","自己","能干","Positive","ability","","","","","","","","","","",""
"1395","","f","psychophysics","69","296359","0.0-7.0-3.0-0.55","7","7","7","7","7","5","5","5","5","5","5","2","0","2","2","2","2","2","2","5","5","5","1","5","5","5","5","5","5","5","5","5","5","5","5","5","5","5","7","7","7","7","7","7","7","1","7","7","1","7","7","7","7","7","7","7","7","7","7","7","7","7","7","7","7","7","7","7","7","7","7","7","7","7","7","7","7","7","7","618773298611748864","袁","273","Male","[""坏我"",""好他"",""坏他"",""好我""]","[""弱我"",""强他"",""弱他"",""强我""]","","","","","","","","no","","","","","","","","","SRET","EW_formal","","key","f","16.654734265734117","640","356","朋友","昏庸","Negative","ability","","","","","","","","","","",""
"1499","","j","psychophysics","70","298860","0.0-7.0-3.0-0.56","7","7","7","7","7","5","5","5","5","5","5","2","0","2","2","2","2","2","2","5","5","5","1","5","5","5","5","5","5","5","5","5","5","5","5","5","5","5","7","7","7","7","7","7","7","1","7","7","1","7","7","7","7","7","7","7","7","7","7","7","7","7","7","7","7","7","7","7","7","7","7","7","7","7","7","7","7","7","7","618773298611748864","袁","273","Male","[""坏我"",""好他"",""坏他"",""好我""]","[""弱我"",""强他"",""弱他"",""强我""]","","","","","","","","yes","","","","","","","","","SRET","EW_formal","","key","j","16.65329530201352","640","356","朋友","精干","Positive","ability","","","","","","","","","","",""
"1186","","j","psychophysics","71","301049","0.0-7.0-3.0-0.57","7","7","7","7","7","5","5","5","5","5","5","2","0","2","2","2","2","2","2","5","5","5","1","5","5","5","5","5","5","5","5","5","5","5","5","5","5","5","7","7","7","7","7","7","7","1","7","7","1","7","7","7","7","7","7","7","7","7","7","7","7","7","7","7","7","7","7","7","7","7","7","7","7","7","7","7","7","7","7","618773298611748864","袁","273","Male","[""坏我"",""好他"",""坏他"",""好我""]","[""弱我"",""强他"",""弱他"",""强我""]","","","","","","","","yes","","","","","","","","","SRET","EW_formal","","key","j","16.653259541984657","640","356","朋友","依靠","Negative","ability","","","","","","","","","","",""
"1132","","f","psychophysics","72","303182","0.0-7.0-3.0-0.58","7","7","7","7","7","5","5","5","5","5","5","2","0","2","2","2","2","2","2","5","5","5","1","5","5","5","5","5","5","5","5","5","5","5","5","5","5","5","7","7","7","7","7","7","7","1","7","7","1","7","7","7","7","7","7","7","7","7","7","7","7","7","7","7","7","7","7","7","7","7","7","7","7","7","7","7","7","7","7","618773298611748864","袁","273","Male","[""坏我"",""好他"",""坏他"",""好我""]","[""弱我"",""强他"",""弱他"",""强我""]","","","","","","","","no","","","","","","","","","SRET","EW_formal","","key","f","16.65381102362193","640","356","自己","狡诈","Negative","morality","","","","","","","","","","",""
"1376","","f","psychophysics","73","305560","0.0-7.0-3.0-0.59","7","7","7","7","7","5","5","5","5","5","5","2","0","2","2","2","2","2","2","5","5","5","1","5","5","5","5","5","5","5","5","5","5","5","5","5","5","5","7","7","7","7","7","7","7","1","7","7","1","7","7","7","7","7","7","7","7","7","7","7","7","7","7","7","7","7","7","7","7","7","7","7","7","7","7","7","7","7","7","618773298611748864","袁","273","Male","[""坏我"",""好他"",""坏他"",""好我""]","[""弱我"",""强他"",""弱他"",""强我""]","","","","","","","","no","","","","","","","","","SRET","EW_formal","","key","f","16.655274647887317","640","356","自己","迟钝","Negative","ability","","","","","","","","","","",""
"1276","","f","psychophysics","74","307838","0.0-7.0-3.0-0.60","7","7","7","7","7","5","5","5","5","5","5","2","0","2","2","2","2","2","2","5","5","5","1","5","5","5","5","5","5","5","5","5","5","5","5","5","5","5","7","7","7","7","7","7","7","1","7","7","1","7","7","7","7","7","7","7","7","7","7","7","7","7","7","7","7","7","7","7","7","7","7","7","7","7","7","7","7","7","7","618773298611748864","袁","273","Male","[""坏我"",""好他"",""坏他"",""好我""]","[""弱我"",""强他"",""弱他"",""强我""]","","","","","","","","no","","","","","","","","","SRET","EW_formal","","key","f","16.653102941176364","640","356","朋友","诡诈","Negative","morality","","","","","","","","","","",""
"1248","","f","psychophysics","75","310088","0.0-7.0-3.0-0.61","7","7","7","7","7","5","5","5","5","5","5","2","0","2","2","2","2","2","2","5","5","5","1","5","5","5","5","5","5","5","5","5","5","5","5","5","5","5","7","7","7","7","7","7","7","1","7","7","1","7","7","7","7","7","7","7","7","7","7","7","7","7","7","7","7","7","7","7","7","7","7","7","7","7","7","7","7","7","7","618773298611748864","袁","273","Male","[""坏我"",""好他"",""坏他"",""好我""]","[""弱我"",""强他"",""弱他"",""强我""]","","","","","","","","no","","","","","","","","","SRET","EW_formal","","key","f","16.654656716417815","640","356","自己","博学","Positive","ability","","","","","","","","","","",""
"1406","","f","psychophysics","76","312496","0.0-7.0-3.0-0.62","7","7","7","7","7","5","5","5","5","5","5","2","0","2","2","2","2","2","2","5","5","5","1","5","5","5","5","5","5","5","5","5","5","5","5","5","5","5","7","7","7","7","7","7","7","1","7","7","1","7","7","7","7","7","7","7","7","7","7","7","7","7","7","7","7","7","7","7","7","7","7","7","7","7","7","7","7","7","7","618773298611748864","袁","273","Male","[""坏我"",""好他"",""坏他"",""好我""]","[""弱我"",""强他"",""弱他"",""强我""]","","","","","","","","no","","","","","","","","","SRET","EW_formal","","key","f","16.651433566433763","640","356","自己","庸碌","Negative","ability","","","","","","","","","","",""
"957","","j","psychophysics","77","314455","0.0-7.0-3.0-0.63","7","7","7","7","7","5","5","5","5","5","5","2","0","2","2","2","2","2","2","5","5","5","1","5","5","5","5","5","5","5","5","5","5","5","5","5","5","5","7","7","7","7","7","7","7","1","7","7","1","7","7","7","7","7","7","7","7","7","7","7","7","7","7","7","7","7","7","7","7","7","7","7","7","7","7","7","7","7","7","618773298611748864","袁","273","Male","[""坏我"",""好他"",""坏他"",""好我""]","[""弱我"",""强他"",""弱他"",""强我""]","","","","","","","","yes","","","","","","","","","SRET","EW_formal","","key","j","16.652692307692227","640","356","自己","全才","Positive","ability","","","","","","","","","","",""
"1023","","j","psychophysics","78","316481","0.0-7.0-3.0-0.64","7","7","7","7","7","5","5","5","5","5","5","2","0","2","2","2","2","2","2","5","5","5","1","5","5","5","5","5","5","5","5","5","5","5","5","5","5","5","7","7","7","7","7","7","7","1","7","7","1","7","7","7","7","7","7","7","7","7","7","7","7","7","7","7","7","7","7","7","7","7","7","7","7","7","7","7","7","7","7","618773298611748864","袁","273","Male","[""坏我"",""好他"",""坏他"",""好我""]","[""弱我"",""强他"",""弱他"",""强我""]","","","","","","","","yes","","","","","","","","","SRET","EW_formal","","key","j","16.65284297520666","640","356","朋友","思辨","Positive","ability","","","","","","","","","","",""
"815","","j","psychophysics","79","318297","0.0-7.0-3.0-0.65","7","7","7","7","7","5","5","5","5","5","5","2","0","2","2","2","2","2","2","5","5","5","1","5","5","5","5","5","5","5","5","5","5","5","5","5","5","5","7","7","7","7","7","7","7","1","7","7","1","7","7","7","7","7","7","7","7","7","7","7","7","7","7","7","7","7","7","7","7","7","7","7","7","7","7","7","7","7","7","618773298611748864","袁","273","Male","[""坏我"",""好他"",""坏他"",""好我""]","[""弱我"",""强他"",""弱他"",""强我""]","","","","","","","","yes","","","","","","","","","SRET","EW_formal","","key","j","16.653231481481473","640","356","自己","厚道","Positive","morality","","","","","","","","","","",""
"825","","f","psychophysics","80","320124","0.0-7.0-3.0-0.66","7","7","7","7","7","5","5","5","5","5","5","2","0","2","2","2","2","2","2","5","5","5","1","5","5","5","5","5","5","5","5","5","5","5","5","5","5","5","7","7","7","7","7","7","7","1","7","7","1","7","7","7","7","7","7","7","7","7","7","7","7","7","7","7","7","7","7","7","7","7","7","7","7","7","7","7","7","7","7","618773298611748864","袁","273","Male","[""坏我"",""好他"",""坏他"",""好我""]","[""弱我"",""强他"",""弱他"",""强我""]","","","","","","","","no","","","","","","","","","SRET","EW_formal","","key","f","16.652694444444258","640","356","自己","拖拉","Negative","ability","","","","","","","","","","",""
"934","","f","psychophysics","81","322060","0.0-7.0-3.0-0.67","7","7","7","7","7","5","5","5","5","5","5","2","0","2","2","2","2","2","2","5","5","5","1","5","5","5","5","5","5","5","5","5","5","5","5","5","5","5","7","7","7","7","7","7","7","1","7","7","1","7","7","7","7","7","7","7","7","7","7","7","7","7","7","7","7","7","7","7","7","7","7","7","7","7","7","7","7","7","7","618773298611748864","袁","273","Male","[""坏我"",""好他"",""坏他"",""好我""]","[""弱我"",""强他"",""弱他"",""强我""]","","","","","","","","no","","","","","","","","","SRET","EW_formal","","key","f","16.652956896551366","640","356","朋友","黑心","Negative","morality","","","","","","","","","","",""
"1358","","f","psychophysics","82","324419","0.0-7.0-3.0-0.68","7","7","7","7","7","5","5","5","5","5","5","2","0","2","2","2","2","2","2","5","5","5","1","5","5","5","5","5","5","5","5","5","5","5","5","5","5","5","7","7","7","7","7","7","7","1","7","7","1","7","7","7","7","7","7","7","7","7","7","7","7","7","7","7","7","7","7","7","7","7","7","7","7","7","7","7","7","7","7","618773298611748864","袁","273","Male","[""坏我"",""好他"",""坏他"",""好我""]","[""弱我"",""强他"",""弱他"",""强我""]","","","","","","","","no","","","","","","","","","SRET","EW_formal","","key","f","16.650071428571493","640","356","自己","阴毒","Negative","morality","","","","","","","","","","",""
"1065","","f","psychophysics","83","326487","0.0-7.0-3.0-0.69","7","7","7","7","7","5","5","5","5","5","5","2","0","2","2","2","2","2","2","5","5","5","1","5","5","5","5","5","5","5","5","5","5","5","5","5","5","5","7","7","7","7","7","7","7","1","7","7","1","7","7","7","7","7","7","7","7","7","7","7","7","7","7","7","7","7","7","7","7","7","7","7","7","7","7","7","7","7","7","618773298611748864","袁","273","Male","[""坏我"",""好他"",""坏他"",""好我""]","[""弱我"",""强他"",""弱他"",""强我""]","","","","","","","","no","","","","","","","","","SRET","EW_formal","","key","f","16.653138211382196","640","356","自己","弱智","Negative","ability","","","","","","","","","","",""
"765","","j","psychophysics","84","328253","0.0-7.0-3.0-0.70","7","7","7","7","7","5","5","5","5","5","5","2","0","2","2","2","2","2","2","5","5","5","1","5","5","5","5","5","5","5","5","5","5","5","5","5","5","5","7","7","7","7","7","7","7","1","7","7","1","7","7","7","7","7","7","7","7","7","7","7","7","7","7","7","7","7","7","7","7","7","7","7","7","7","7","7","7","7","7","618773298611748864","袁","273","Male","[""坏我"",""好他"",""坏他"",""好我""]","[""弱我"",""强他"",""弱他"",""强我""]","","","","","","","","yes","","","","","","","","","SRET","EW_formal","","key","j","16.65284905660368","640","356","朋友","义气","Positive","morality","","","","","","","","","","",""
"955","","j","psychophysics","85","330210","0.0-7.0-3.0-0.71","7","7","7","7","7","5","5","5","5","5","5","2","0","2","2","2","2","2","2","5","5","5","1","5","5","5","5","5","5","5","5","5","5","5","5","5","5","5","7","7","7","7","7","7","7","1","7","7","1","7","7","7","7","7","7","7","7","7","7","7","7","7","7","7","7","7","7","7","7","7","7","7","7","7","7","7","7","7","7","618773298611748864","袁","273","Male","[""坏我"",""好他"",""坏他"",""好我""]","[""弱我"",""强他"",""弱他"",""强我""]","","","","","","","","yes","","","","","","","","","SRET","EW_formal","","key","j","16.65700862068956","640","356","朋友","正气","Positive","morality","","","","","","","","","","",""
"1325","","f","psychophysics","86","332536","0.0-7.0-3.0-0.72","7","7","7","7","7","5","5","5","5","5","5","2","0","2","2","2","2","2","2","5","5","5","1","5","5","5","5","5","5","5","5","5","5","5","5","5","5","5","7","7","7","7","7","7","7","1","7","7","1","7","7","7","7","7","7","7","7","7","7","7","7","7","7","7","7","7","7","7","7","7","7","7","7","7","7","7","7","7","7","618773298611748864","袁","273","Male","[""坏我"",""好他"",""坏他"",""好我""]","[""弱我"",""强他"",""弱他"",""强我""]","","","","","","","","no","","","","","","","","","SRET","EW_formal","","key","f","16.654215827338454","640","356","自己","差生","Negative","ability","","","","","","","","","","",""
"808","","j","psychophysics","87","334347","0.0-7.0-3.0-0.73","7","7","7","7","7","5","5","5","5","5","5","2","0","2","2","2","2","2","2","5","5","5","1","5","5","5","5","5","5","5","5","5","5","5","5","5","5","5","7","7","7","7","7","7","7","1","7","7","1","7","7","7","7","7","7","7","7","7","7","7","7","7","7","7","7","7","7","7","7","7","7","7","7","7","7","7","7","7","7","618773298611748864","袁","273","Male","[""坏我"",""好他"",""坏他"",""好我""]","[""弱我"",""强他"",""弱他"",""强我""]","","","","","","","","yes","","","","","","","","","SRET","EW_formal","","key","j","16.656654205607907","640","356","自己","礼貌","Positive","morality","","","","","","","","","","",""
"911","","j","psychophysics","88","336259","0.0-7.0-3.0-0.74","7","7","7","7","7","5","5","5","5","5","5","2","0","2","2","2","2","2","2","5","5","5","1","5","5","5","5","5","5","5","5","5","5","5","5","5","5","5","7","7","7","7","7","7","7","1","7","7","1","7","7","7","7","7","7","7","7","7","7","7","7","7","7","7","7","7","7","7","7","7","7","7","7","7","7","7","7","7","7","618773298611748864","袁","273","Male","[""坏我"",""好他"",""坏他"",""好我""]","[""弱我"",""强他"",""弱他"",""强我""]","","","","","","","","yes","","","","","","","","","SRET","EW_formal","","key","j","16.655070175438723","640","356","朋友","守时","Positive","morality","","","","","","","","","","",""
"1112","","f","psychophysics","89","338373","0.0-7.0-3.0-0.75","7","7","7","7","7","5","5","5","5","5","5","2","0","2","2","2","2","2","2","5","5","5","1","5","5","5","5","5","5","5","5","5","5","5","5","5","5","5","7","7","7","7","7","7","7","1","7","7","1","7","7","7","7","7","7","7","7","7","7","7","7","7","7","7","7","7","7","7","7","7","7","7","7","7","7","7","7","7","7","618773298611748864","袁","273","Male","[""坏我"",""好他"",""坏他"",""好我""]","[""弱我"",""强他"",""弱他"",""强我""]","","","","","","","","no","","","","","","","","","SRET","EW_formal","","key","f","16.65313492063479","640","356","自己","拖延","Negative","ability","","","","","","","","","","",""
"722","","j","psychophysics","90","340097","0.0-7.0-3.0-0.76","7","7","7","7","7","5","5","5","5","5","5","2","0","2","2","2","2","2","2","5","5","5","1","5","5","5","5","5","5","5","5","5","5","5","5","5","5","5","7","7","7","7","7","7","7","1","7","7","1","7","7","7","7","7","7","7","7","7","7","7","7","7","7","7","7","7","7","7","7","7","7","7","7","7","7","7","7","7","7","618773298611748864","袁","273","Male","[""坏我"",""好他"",""坏他"",""好我""]","[""弱我"",""强他"",""弱他"",""强我""]","","","","","","","","yes","","","","","","","","","SRET","EW_formal","","key","j","16.653300970873584","640","356","朋友","善良","Positive","morality","","","","","","","","","","",""
"1313","","j","psychophysics","91","342412","0.0-7.0-3.0-0.77","7","7","7","7","7","5","5","5","5","5","5","2","0","2","2","2","2","2","2","5","5","5","1","5","5","5","5","5","5","5","5","5","5","5","5","5","5","5","7","7","7","7","7","7","7","1","7","7","1","7","7","7","7","7","7","7","7","7","7","7","7","7","7","7","7","7","7","7","7","7","7","7","7","7","7","7","7","7","7","618773298611748864","袁","273","Male","[""坏我"",""好他"",""坏他"",""好我""]","[""弱我"",""强他"",""弱他"",""强我""]","","","","","","","","yes","","","","","","","","","SRET","EW_formal","","key","j","16.6529057971012","640","356","朋友","有力","Positive","ability","","","","","","","","","","",""
"1683","","j","psychophysics","92","345096","0.0-7.0-3.0-0.78","7","7","7","7","7","5","5","5","5","5","5","2","0","2","2","2","2","2","2","5","5","5","1","5","5","5","5","5","5","5","5","5","5","5","5","5","5","5","7","7","7","7","7","7","7","1","7","7","1","7","7","7","7","7","7","7","7","7","7","7","7","7","7","7","7","7","7","7","7","7","7","7","7","7","7","7","7","7","7","618773298611748864","袁","273","Male","[""坏我"",""好他"",""坏他"",""好我""]","[""弱我"",""强他"",""弱他"",""强我""]","","","","","","","","yes","","","","","","","","","SRET","EW_formal","","key","j","16.649874999999884","640","356","自己","独断","Negative","ability","","","","","","","","","","",""
"976","","f","psychophysics","93","347074","0.0-7.0-3.0-0.79","7","7","7","7","7","5","5","5","5","5","5","2","0","2","2","2","2","2","2","5","5","5","1","5","5","5","5","5","5","5","5","5","5","5","5","5","5","5","7","7","7","7","7","7","7","1","7","7","1","7","7","7","7","7","7","7","7","7","7","7","7","7","7","7","7","7","7","7","7","7","7","7","7","7","7","7","7","7","7","618773298611748864","袁","273","Male","[""坏我"",""好他"",""坏他"",""好我""]","[""弱我"",""强他"",""弱他"",""强我""]","","","","","","","","no","","","","","","","","","SRET","EW_formal","","key","f","16.65621186440694","640","356","自己","愚痴","Negative","ability","","","","","","","","","","",""
"971","","f","psychophysics","94","349047","0.0-7.0-3.0-0.80","7","7","7","7","7","5","5","5","5","5","5","2","0","2","2","2","2","2","2","5","5","5","1","5","5","5","5","5","5","5","5","5","5","5","5","5","5","5","7","7","7","7","7","7","7","1","7","7","1","7","7","7","7","7","7","7","7","7","7","7","7","7","7","7","7","7","7","7","7","7","7","7","7","7","7","7","7","7","7","618773298611748864","袁","273","Male","[""坏我"",""好他"",""坏他"",""好我""]","[""弱我"",""强他"",""弱他"",""强我""]","","","","","","","","no","","","","","","","","","SRET","EW_formal","","key","f","16.655230769230865","640","356","朋友","狡狯","Negative","morality","","","","","","","","","","",""
"1389","","j","psychophysics","95","351437","0.0-7.0-3.0-0.81","7","7","7","7","7","5","5","5","5","5","5","2","0","2","2","2","2","2","2","5","5","5","1","5","5","5","5","5","5","5","5","5","5","5","5","5","5","5","7","7","7","7","7","7","7","1","7","7","1","7","7","7","7","7","7","7","7","7","7","7","7","7","7","7","7","7","7","7","7","7","7","7","7","7","7","7","7","7","7","618773298611748864","袁","273","Male","[""坏我"",""好他"",""坏他"",""好我""]","[""弱我"",""强他"",""弱他"",""强我""]","","","","","","","","yes","","","","","","","","","SRET","EW_formal","","key","j","16.656727272727352","640","356","自己","淡泊","Positive","morality","","","","","","","","","","",""
"1445","","f","psychophysics","96","353885","0.0-7.0-3.0-0.82","7","7","7","7","7","5","5","5","5","5","5","2","0","2","2","2","2","2","2","5","5","5","1","5","5","5","5","5","5","5","5","5","5","5","5","5","5","5","7","7","7","7","7","7","7","1","7","7","1","7","7","7","7","7","7","7","7","7","7","7","7","7","7","7","7","7","7","7","7","7","7","7","7","7","7","7","7","7","7","618773298611748864","袁","273","Male","[""坏我"",""好他"",""坏他"",""好我""]","[""弱我"",""强他"",""弱他"",""强我""]","","","","","","","","no","","","","","","","","","SRET","EW_formal","","key","f","16.65532191780839","640","356","自己","盲目","Negative","ability","","","","","","","","","","",""
"1454","","f","psychophysics","97","356341","0.0-7.0-3.0-0.83","7","7","7","7","7","5","5","5","5","5","5","2","0","2","2","2","2","2","2","5","5","5","1","5","5","5","5","5","5","5","5","5","5","5","5","5","5","5","7","7","7","7","7","7","7","1","7","7","1","7","7","7","7","7","7","7","7","7","7","7","7","7","7","7","7","7","7","7","7","7","7","7","7","7","7","7","7","7","7","618773298611748864","袁","273","Male","[""坏我"",""好他"",""坏他"",""好我""]","[""弱我"",""强他"",""弱他"",""强我""]","","","","","","","","no","","","","","","","","","SRET","EW_formal","","key","f","16.654609589040923","640","356","自己","无敌","Positive","ability","","","","","","","","","","",""
"1675","","f","psychophysics","98","359018","0.0-7.0-3.0-0.84","7","7","7","7","7","5","5","5","5","5","5","2","0","2","2","2","2","2","2","5","5","5","1","5","5","5","5","5","5","5","5","5","5","5","5","5","5","5","7","7","7","7","7","7","7","1","7","7","1","7","7","7","7","7","7","7","7","7","7","7","7","7","7","7","7","7","7","7","7","7","7","7","7","7","7","7","7","7","7","618773298611748864","袁","273","Male","[""坏我"",""好他"",""坏他"",""好我""]","[""弱我"",""强他"",""弱他"",""强我""]","","","","","","","","no","","","","","","","","","SRET","EW_formal","","key","f","16.654068749999716","640","356","自己","缓慢","Negative","ability","","","","","","","","","","",""
"1482","","j","psychophysics","99","361501","0.0-7.0-3.0-0.85","7","7","7","7","7","5","5","5","5","5","5","2","0","2","2","2","2","2","2","5","5","5","1","5","5","5","5","5","5","5","5","5","5","5","5","5","5","5","7","7","7","7","7","7","7","1","7","7","1","7","7","7","7","7","7","7","7","7","7","7","7","7","7","7","7","7","7","7","7","7","7","7","7","7","7","7","7","7","7","618773298611748864","袁","273","Male","[""坏我"",""好他"",""坏他"",""好我""]","[""弱我"",""强他"",""弱他"",""强我""]","","","","","","","","yes","","","","","","","","","SRET","EW_formal","","key","j","16.652986486486437","640","356","朋友","素养","Positive","morality","","","","","","","","","","",""
"1354","","f","psychophysics","100","363857","0.0-7.0-3.0-0.86","7","7","7","7","7","5","5","5","5","5","5","2","0","2","2","2","2","2","2","5","5","5","1","5","5","5","5","5","5","5","5","5","5","5","5","5","5","5","7","7","7","7","7","7","7","1","7","7","1","7","7","7","7","7","7","7","7","7","7","7","7","7","7","7","7","7","7","7","7","7","7","7","7","7","7","7","7","7","7","618773298611748864","袁","273","Male","[""坏我"",""好他"",""坏他"",""好我""]","[""弱我"",""强他"",""弱他"",""强我""]","","","","","","","","no","","","","","","","","","SRET","EW_formal","","key","f","16.650312056737302","640","356","朋友","低俗","Negative","morality","","","","","","","","","","",""
"1402","","j","psychophysics","101","366261","0.0-7.0-3.0-0.87","7","7","7","7","7","5","5","5","5","5","5","2","0","2","2","2","2","2","2","5","5","5","1","5","5","5","5","5","5","5","5","5","5","5","5","5","5","5","7","7","7","7","7","7","7","1","7","7","1","7","7","7","7","7","7","7","7","7","7","7","7","7","7","7","7","7","7","7","7","7","7","7","7","7","7","7","7","7","7","618773298611748864","袁","273","Male","[""坏我"",""好他"",""坏他"",""好我""]","[""弱我"",""强他"",""弱他"",""强我""]","","","","","","","","yes","","","","","","","","","SRET","EW_formal","","key","j","16.653496503496584","640","356","自己","主见","Positive","ability","","","","","","","","","","",""
"7033","
    <p><div style='color:white;font-size:35px; line-height:20px;'>计算任务</div></p><br>
    <p><div style='color:red;font-size:25px; line-height:20px;'>接下来，您将看到一些四则运算题，<b>请从键盘选择 0-9 进行反应。</b></div></p>
    <p><div style='color:red;font-size:25px; line-height:20px;'>请尽可能快地进行计算，计算的速度和正确率将影响报酬的发放。</div></p>
    <p><div class='footer' style='color:white;font-size:25px; line-height:20px;'>如果对本实验还有不清楚之处，请立即向实验员咨询。</p><p style='color:white;font-size:25px; line-height:20px;'>如果您明白了规则：</p><p style='color:white;font-size:22px; line-height:20px;'>请按 继续 进入练习</p>
    </div>
    ","0","html-button-response","102","373295","0.0-7.0-4.0","7","7","7","7","7","5","5","5","5","5","5","2","0","2","2","2","2","2","2","5","5","5","1","5","5","5","5","5","5","5","5","5","5","5","5","5","5","5","7","7","7","7","7","7","7","1","7","7","1","7","7","7","7","7","7","7","7","7","7","7","7","7","7","7","7","7","7","7","7","7","7","7","7","7","7","7","7","7","7","618773298611748864","袁","273","Male","[""坏我"",""好他"",""坏他"",""好我""]","[""弱我"",""强他"",""弱他"",""强我""]","","","","","","","","","","","","","","","","","SRET_math","math_instructions","Mon Dec 25 2023 17:10:03 GMT+0800 (中国标准时间)","","","","","","","","","","","","","","","","","","","",""
"2467","","5","psychophysics","103","375768","0.0-7.0-5.0-0.0","7","7","7","7","7","5","5","5","5","5","5","2","0","2","2","2","2","2","2","5","5","5","1","5","5","5","5","5","5","5","5","5","5","5","5","5","5","5","7","7","7","7","7","7","7","1","7","7","1","7","7","7","7","7","7","7","7","7","7","7","7","7","7","7","7","7","7","7","7","7","7","7","7","7","7","7","7","7","7","618773298611748864","袁","273","Male","[""坏我"",""好他"",""坏他"",""好我""]","[""弱我"",""强他"",""弱他"",""强我""]","","","","","","","","5","","","","","","","","","SRET","SRET_math_calculate","","key","5","16.652550335570346","640","356","","","","","16-11= ?","5","1","","","","","","","",""
"2127","","8","psychophysics","104","377897","0.0-7.0-5.0-0.1","7","7","7","7","7","5","5","5","5","5","5","2","0","2","2","2","2","2","2","5","5","5","1","5","5","5","5","5","5","5","5","5","5","5","5","5","5","5","7","7","7","7","7","7","7","1","7","7","1","7","7","7","7","7","7","7","7","7","7","7","7","7","7","7","7","7","7","7","7","7","7","7","7","7","7","7","7","7","7","618773298611748864","袁","273","Male","[""坏我"",""好他"",""坏他"",""好我""]","[""弱我"",""强他"",""弱他"",""强我""]","","","","","","","","8","","","","","","","","","SRET","SRET_math_calculate","","key","8","16.65318110236196","640","356","","","","","4*2= ?","8","1","","","","","","","",""
"1932","","7","psychophysics","105","379832","0.0-7.0-5.0-0.2","7","7","7","7","7","5","5","5","5","5","5","2","0","2","2","2","2","2","2","5","5","5","1","5","5","5","5","5","5","5","5","5","5","5","5","5","5","5","7","7","7","7","7","7","7","1","7","7","1","7","7","7","7","7","7","7","7","7","7","7","7","7","7","7","7","7","7","7","7","7","7","7","7","7","7","7","7","7","7","618773298611748864","袁","273","Male","[""坏我"",""好他"",""坏他"",""好我""]","[""弱我"",""强他"",""弱他"",""强我""]","","","","","","","","7","","","","","","","","","SRET","SRET_math_calculate","","key","7","16.65221739130439","640","356","","","","","1+6= ?","7","1","","","","","","","",""
"2418","","3","psychophysics","106","382252","0.0-7.0-5.0-0.3","7","7","7","7","7","5","5","5","5","5","5","2","0","2","2","2","2","2","2","5","5","5","1","5","5","5","5","5","5","5","5","5","5","5","5","5","5","5","7","7","7","7","7","7","7","1","7","7","1","7","7","7","7","7","7","7","7","7","7","7","7","7","7","7","7","7","7","7","7","7","7","7","7","7","7","7","7","7","7","618773298611748864","袁","273","Male","[""坏我"",""好他"",""坏他"",""好我""]","[""弱我"",""强他"",""弱他"",""强我""]","","","","","","","","3","","","","","","","","","SRET","SRET_math_calculate","","key","3","16.653326388888672","640","356","","","","","12/4= ?","3","1","","","","","","","",""
"2111","","7","psychophysics","107","384366","0.0-7.0-5.0-0.4","7","7","7","7","7","5","5","5","5","5","5","2","0","2","2","2","2","2","2","5","5","5","1","5","5","5","5","5","5","5","5","5","5","5","5","5","5","5","7","7","7","7","7","7","7","1","7","7","1","7","7","7","7","7","7","7","7","7","7","7","7","7","7","7","7","7","7","7","7","7","7","7","7","7","7","7","7","7","7","618773298611748864","袁","273","Male","[""坏我"",""好他"",""坏他"",""好我""]","[""弱我"",""强他"",""弱他"",""强我""]","","","","","","","","7","","","","","","","","","SRET","SRET_math_calculate","","key","7","16.65269841269834","640","356","","","","","12-5= ?","7","1","","","","","","","",""
"2207","","1","psychophysics","108","386576","0.0-7.0-5.0-0.5","7","7","7","7","7","5","5","5","5","5","5","2","0","2","2","2","2","2","2","5","5","5","1","5","5","5","5","5","5","5","5","5","5","5","5","5","5","5","7","7","7","7","7","7","7","1","7","7","1","7","7","7","7","7","7","7","7","7","7","7","7","7","7","7","7","7","7","7","7","7","7","7","7","7","7","7","7","7","7","618773298611748864","袁","273","Male","[""坏我"",""好他"",""坏他"",""好我""]","[""弱我"",""强他"",""弱他"",""强我""]","","","","","","","","1","","","","","","","","","SRET","SRET_math_calculate","","key","1","16.653484848484478","640","356","","","","","4/4= ?","1","1","","","","","","","",""
"2011","","7","psychophysics","109","388589","0.0-7.0-5.0-0.6","7","7","7","7","7","5","5","5","5","5","5","2","0","2","2","2","2","2","2","5","5","5","1","5","5","5","5","5","5","5","5","5","5","5","5","5","5","5","7","7","7","7","7","7","7","1","7","7","1","7","7","7","7","7","7","7","7","7","7","7","7","7","7","7","7","7","7","7","7","7","7","7","7","7","7","7","7","7","7","618773298611748864","袁","273","Male","[""坏我"",""好他"",""坏他"",""好我""]","[""弱我"",""强他"",""弱他"",""强我""]","","","","","","","","7","","","","","","","","","SRET","SRET_math_calculate","","key","7","16.656050000000203","640","356","","","","","9-2= ?","7","1","","","","","","","",""
"2453","","7","psychophysics","110","391046","0.0-7.0-5.0-0.7","7","7","7","7","7","5","5","5","5","5","5","2","0","2","2","2","2","2","2","5","5","5","1","5","5","5","5","5","5","5","5","5","5","5","5","5","5","5","7","7","7","7","7","7","7","1","7","7","1","7","7","7","7","7","7","7","7","7","7","7","7","7","7","7","7","7","7","7","7","7","7","7","7","7","7","7","7","7","7","618773298611748864","袁","273","Male","[""坏我"",""好他"",""坏他"",""好我""]","[""弱我"",""强他"",""弱他"",""强我""]","","","","","","","","7","","","","","","","","","SRET","SRET_math_calculate","","key","7","16.653089041095658","640","356","","","","","6+1= ?","7","1","","","","","","","",""
"2805","","0","psychophysics","111","393853","0.0-7.0-5.0-0.8","7","7","7","7","7","5","5","5","5","5","5","2","0","2","2","2","2","2","2","5","5","5","1","5","5","5","5","5","5","5","5","5","5","5","5","5","5","5","7","7","7","7","7","7","7","1","7","7","1","7","7","7","7","7","7","7","7","7","7","7","7","7","7","7","7","7","7","7","7","7","7","7","7","7","7","7","7","7","7","618773298611748864","袁","273","Male","[""坏我"",""好他"",""坏他"",""好我""]","[""弱我"",""强他"",""弱他"",""强我""]","","","","","","","","0","","","","","","","","","SRET","SRET_math_calculate","","key","0","16.65430952380952","640","356","","","","","6*0= ?","0","1","","","","","","","",""
"2663","","8","psychophysics","112","396518","0.0-7.0-5.0-0.9","7","7","7","7","7","5","5","5","5","5","5","2","0","2","2","2","2","2","2","5","5","5","1","5","5","5","5","5","5","5","5","5","5","5","5","5","5","5","7","7","7","7","7","7","7","1","7","7","1","7","7","7","7","7","7","7","7","7","7","7","7","7","7","7","7","7","7","7","7","7","7","7","7","7","7","7","7","7","7","618773298611748864","袁","273","Male","[""坏我"",""好他"",""坏他"",""好我""]","[""弱我"",""强他"",""弱他"",""强我""]","","","","","","","","8","","","","","","","","","SRET","SRET_math_calculate","","key","8","16.652069182389962","640","356","","","","","56/7= ?","8","1","","","","","","","",""
"2019","","7","psychophysics","113","398539","0.0-7.0-5.0-0.10","7","7","7","7","7","5","5","5","5","5","5","2","0","2","2","2","2","2","2","5","5","5","1","5","5","5","5","5","5","5","5","5","5","5","5","5","5","5","7","7","7","7","7","7","7","1","7","7","1","7","7","7","7","7","7","7","7","7","7","7","7","7","7","7","7","7","7","7","7","7","7","7","7","7","7","7","7","7","7","618773298611748864","袁","273","Male","[""坏我"",""好他"",""坏他"",""好我""]","[""弱我"",""强他"",""弱他"",""强我""]","","","","","","","","7","","","","","","","","","SRET","SRET_math_calculate","","key","7","16.65337500000023","640","356","","","","","7*1=  ?","7","1","","","","","","","",""
"2330","","1","psychophysics","114","400871","0.0-7.0-5.0-0.11","7","7","7","7","7","5","5","5","5","5","5","2","0","2","2","2","2","2","2","5","5","5","1","5","5","5","5","5","5","5","5","5","5","5","5","5","5","5","7","7","7","7","7","7","7","1","7","7","1","7","7","7","7","7","7","7","7","7","7","7","7","7","7","7","7","7","7","7","7","7","7","7","7","7","7","7","7","7","7","618773298611748864","袁","273","Male","[""坏我"",""好他"",""坏他"",""好我""]","[""弱我"",""强他"",""弱他"",""强我""]","","","","","","","","1","","","","","","","","","SRET","SRET_math_calculate","","key","1","16.652525179856124","640","356","","","","","9-8= ?","1","1","","","","","","","",""
"3564","","9","psychophysics","115","404437","0.0-7.0-5.0-0.12","7","7","7","7","7","5","5","5","5","5","5","2","0","2","2","2","2","2","2","5","5","5","1","5","5","5","5","5","5","5","5","5","5","5","5","5","5","5","7","7","7","7","7","7","7","1","7","7","1","7","7","7","7","7","7","7","7","7","7","7","7","7","7","7","7","7","7","7","7","7","7","7","7","7","7","7","7","7","7","618773298611748864","袁","273","Male","[""坏我"",""好他"",""坏他"",""好我""]","[""弱我"",""强他"",""弱他"",""强我""]","","","","","","","","9","","","","","","","","","SRET","SRET_math_calculate","","key","9","16.652460093896654","640","356","","","","","43-34= ?","9","1","","","","","","","",""
"2731","","2","psychophysics","116","407171","0.0-7.0-5.0-0.13","7","7","7","7","7","5","5","5","5","5","5","2","0","2","2","2","2","2","2","5","5","5","1","5","5","5","5","5","5","5","5","5","5","5","5","5","5","5","7","7","7","7","7","7","7","1","7","7","1","7","7","7","7","7","7","7","7","7","7","7","7","7","7","7","7","7","7","7","7","7","7","7","7","7","7","7","7","7","7","618773298611748864","袁","273","Male","[""坏我"",""好他"",""坏他"",""好我""]","[""弱我"",""强他"",""弱他"",""强我""]","","","","","","","","2","","","","","","","","","SRET","SRET_math_calculate","","key","2","16.65297560975603","640","356","","","","","19-17= ?","2","1","","","","","","","",""
"2466","","2","psychophysics","117","409639","0.0-7.0-5.0-0.14","7","7","7","7","7","5","5","5","5","5","5","2","0","2","2","2","2","2","2","5","5","5","1","5","5","5","5","5","5","5","5","5","5","5","5","5","5","5","7","7","7","7","7","7","7","1","7","7","1","7","7","7","7","7","7","7","7","7","7","7","7","7","7","7","7","7","7","7","7","7","7","7","7","7","7","7","7","7","7","618773298611748864","袁","273","Male","[""坏我"",""好他"",""坏他"",""好我""]","[""弱我"",""强他"",""弱他"",""强我""]","","","","","","","","2","","","","","","","","","SRET","SRET_math_calculate","","key","2","16.651986394557852","640","356","","","","","90/45= ?","2","1","","","","","","","",""
"1966","","2","psychophysics","118","411607","0.0-7.0-5.0-0.15","7","7","7","7","7","5","5","5","5","5","5","2","0","2","2","2","2","2","2","5","5","5","1","5","5","5","5","5","5","5","5","5","5","5","5","5","5","5","7","7","7","7","7","7","7","1","7","7","1","7","7","7","7","7","7","7","7","7","7","7","7","7","7","7","7","7","7","7","7","7","7","7","7","7","7","7","7","7","7","618773298611748864","袁","273","Male","[""坏我"",""好他"",""坏他"",""好我""]","[""弱我"",""强他"",""弱他"",""强我""]","","","","","","","","2","","","","","","","","","SRET","SRET_math_calculate","","key","2","16.650914529914587","640","356","","","","","12/6= ?","2","1","","","","","","","",""
"2278","","9","psychophysics","119","413887","0.0-7.0-5.0-0.16","7","7","7","7","7","5","5","5","5","5","5","2","0","2","2","2","2","2","2","5","5","5","1","5","5","5","5","5","5","5","5","5","5","5","5","5","5","5","7","7","7","7","7","7","7","1","7","7","1","7","7","7","7","7","7","7","7","7","7","7","7","7","7","7","7","7","7","7","7","7","7","7","7","7","7","7","7","7","7","618773298611748864","袁","273","Male","[""坏我"",""好他"",""坏他"",""好我""]","[""弱我"",""强他"",""弱他"",""强我""]","","","","","","","","9","","","","","","","","","SRET","SRET_math_calculate","","key","9","16.65217647058821","640","356","","","","","2+7= ?","9","1","","","","","","","",""
"1927","","2","psychophysics","120","415817","0.0-7.0-5.0-0.17","7","7","7","7","7","5","5","5","5","5","5","2","0","2","2","2","2","2","2","5","5","5","1","5","5","5","5","5","5","5","5","5","5","5","5","5","5","5","7","7","7","7","7","7","7","1","7","7","1","7","7","7","7","7","7","7","7","7","7","7","7","7","7","7","7","7","7","7","7","7","7","7","7","7","7","7","7","7","7","618773298611748864","袁","273","Male","[""坏我"",""好他"",""坏他"",""好我""]","[""弱我"",""强他"",""弱他"",""强我""]","","","","","","","","2","","","","","","","","","SRET","SRET_math_calculate","","key","2","16.653043478260667","640","356","","","","","8/4= ?","2","1","","","","","","","",""
"2492","","6","psychophysics","121","418310","0.0-7.0-5.0-0.18","7","7","7","7","7","5","5","5","5","5","5","2","0","2","2","2","2","2","2","5","5","5","1","5","5","5","5","5","5","5","5","5","5","5","5","5","5","5","7","7","7","7","7","7","7","1","7","7","1","7","7","7","7","7","7","7","7","7","7","7","7","7","7","7","7","7","7","7","7","7","7","7","7","7","7","7","7","7","7","618773298611748864","袁","273","Male","[""坏我"",""好他"",""坏他"",""好我""]","[""弱我"",""强他"",""弱他"",""强我""]","","","","","","","","6","","","","","","","","","SRET","SRET_math_calculate","","key","6","16.652621621621545","640","356","","","","","4+2= ?","6","1","","","","","","","",""
"2044","","9","psychophysics","122","420358","0.0-7.0-5.0-0.19","7","7","7","7","7","5","5","5","5","5","5","2","0","2","2","2","2","2","2","5","5","5","1","5","5","5","5","5","5","5","5","5","5","5","5","5","5","5","7","7","7","7","7","7","7","1","7","7","1","7","7","7","7","7","7","7","7","7","7","7","7","7","7","7","7","7","7","7","7","7","7","7","7","7","7","7","7","7","7","618773298611748864","袁","273","Male","[""坏我"",""好他"",""坏他"",""好我""]","[""弱我"",""强他"",""弱他"",""强我""]","","","","","","","","9","","","","","","","","","SRET","SRET_math_calculate","","key","9","16.65277049180357","640","356","","","","","8+1= ?","9","1","","","","","","","",""
"2252","","2","psychophysics","123","422614","0.0-7.0-5.0-0.20","7","7","7","7","7","5","5","5","5","5","5","2","0","2","2","2","2","2","2","5","5","5","1","5","5","5","5","5","5","5","5","5","5","5","5","5","5","5","7","7","7","7","7","7","7","1","7","7","1","7","7","7","7","7","7","7","7","7","7","7","7","7","7","7","7","7","7","7","7","7","7","7","7","7","7","7","7","7","7","618773298611748864","袁","273","Male","[""坏我"",""好他"",""坏他"",""好我""]","[""弱我"",""强他"",""弱他"",""强我""]","","","","","","","","2","","","","","","","","","SRET","SRET_math_calculate","","key","2","16.652822222222177","640","356","","","","","8-6= ?","2","1","","","","","","","",""
"3715","","8","psychophysics","124","426332","0.0-7.0-5.0-0.21","7","7","7","7","7","5","5","5","5","5","5","2","0","2","2","2","2","2","2","5","5","5","1","5","5","5","5","5","5","5","5","5","5","5","5","5","5","5","7","7","7","7","7","7","7","1","7","7","1","7","7","7","7","7","7","7","7","7","7","7","7","7","7","7","7","7","7","7","7","7","7","7","7","7","7","7","7","7","7","618773298611748864","袁","273","Male","[""坏我"",""好他"",""坏他"",""好我""]","[""弱我"",""强他"",""弱他"",""强我""]","","","","","","","","8","","","","","","","","","SRET","SRET_math_calculate","","key","8","16.652864864864807","640","356","","","","","11-3= ?","8","1","","","","","","","",""
"2880","","9","psychophysics","125","429214","0.0-7.0-5.0-0.22","7","7","7","7","7","5","5","5","5","5","5","2","0","2","2","2","2","2","2","5","5","5","1","5","5","5","5","5","5","5","5","5","5","5","5","5","5","5","7","7","7","7","7","7","7","1","7","7","1","7","7","7","7","7","7","7","7","7","7","7","7","7","7","7","7","7","7","7","7","7","7","7","7","7","7","7","7","7","7","618773298611748864","袁","273","Male","[""坏我"",""好他"",""坏他"",""好我""]","[""弱我"",""强他"",""弱他"",""强我""]","","","","","","","","9","","","","","","","","","SRET","SRET_math_calculate","","key","9","16.65297674418591","640","356","","","","","3*3= ?","9","1","","","","","","","",""
"2736","","2","psychophysics","126","431953","0.0-7.0-5.0-0.23","7","7","7","7","7","5","5","5","5","5","5","2","0","2","2","2","2","2","2","5","5","5","1","5","5","5","5","5","5","5","5","5","5","5","5","5","5","5","7","7","7","7","7","7","7","1","7","7","1","7","7","7","7","7","7","7","7","7","7","7","7","7","7","7","7","7","7","7","7","7","7","7","7","7","7","7","7","7","7","618773298611748864","袁","273","Male","[""坏我"",""好他"",""坏他"",""好我""]","[""弱我"",""强他"",""弱他"",""强我""]","","","","","","","","2","","","","","","","","","SRET","SRET_math_calculate","","key","2","16.654512195121754","640","356","","","","","29-27= ?","2","1","","","","","","","",""
"2423","","3","psychophysics","127","434380","0.0-7.0-5.0-0.24","7","7","7","7","7","5","5","5","5","5","5","2","0","2","2","2","2","2","2","5","5","5","1","5","5","5","5","5","5","5","5","5","5","5","5","5","5","5","7","7","7","7","7","7","7","1","7","7","1","7","7","7","7","7","7","7","7","7","7","7","7","7","7","7","7","7","7","7","7","7","7","7","7","7","7","7","7","7","7","618773298611748864","袁","273","Male","[""坏我"",""好他"",""坏他"",""好我""]","[""弱我"",""强他"",""弱他"",""强我""]","","","","","","","","3","","","","","","","","","SRET","SRET_math_calculate","","key","3","16.652506944444113","640","356","","","","","21/7=  ?","3","1","","","","","","","",""
"2983","","3","psychophysics","128","437367","0.0-7.0-5.0-0.25","7","7","7","7","7","5","5","5","5","5","5","2","0","2","2","2","2","2","2","5","5","5","1","5","5","5","5","5","5","5","5","5","5","5","5","5","5","5","7","7","7","7","7","7","7","1","7","7","1","7","7","7","7","7","7","7","7","7","7","7","7","7","7","7","7","7","7","7","7","7","7","7","7","7","7","7","7","7","7","618773298611748864","袁","273","Male","[""坏我"",""好他"",""坏他"",""好我""]","[""弱我"",""强他"",""弱他"",""强我""]","","","","","","","","3","","","","","","","","","SRET","SRET_math_calculate","","key","3","16.65315083798877","640","356","","","","","9-6= ?","3","1","","","","","","","",""
"2703","","8","psychophysics","129","440072","0.0-7.0-5.0-0.26","7","7","7","7","7","5","5","5","5","5","5","2","0","2","2","2","2","2","2","5","5","5","1","5","5","5","5","5","5","5","5","5","5","5","5","5","5","5","7","7","7","7","7","7","7","1","7","7","1","7","7","7","7","7","7","7","7","7","7","7","7","7","7","7","7","7","7","7","7","7","7","7","7","7","7","7","7","7","7","618773298611748864","袁","273","Male","[""坏我"",""好他"",""坏他"",""好我""]","[""弱我"",""强他"",""弱他"",""强我""]","","","","","","","","8","","","","","","","","","SRET","SRET_math_calculate","","key","8","16.652583850931624","640","356","","","","","1+7= ?","8","1","","","","","","","",""
"2985","","7","psychophysics","130","443059","0.0-7.0-5.0-0.27","7","7","7","7","7","5","5","5","5","5","5","2","0","2","2","2","2","2","2","5","5","5","1","5","5","5","5","5","5","5","5","5","5","5","5","5","5","5","7","7","7","7","7","7","7","1","7","7","1","7","7","7","7","7","7","7","7","7","7","7","7","7","7","7","7","7","7","7","7","7","7","7","7","7","7","7","7","7","7","618773298611748864","袁","273","Male","[""坏我"",""好他"",""坏他"",""好我""]","[""弱我"",""强他"",""弱他"",""强我""]","","","","","","","","7","","","","","","","","","SRET","SRET_math_calculate","","key","7","16.652508379888264","640","356","","","","","49/7 = ?","7","1","","","","","","","",""
"2646","","8","psychophysics","131","445707","0.0-7.0-5.0-0.28","7","7","7","7","7","5","5","5","5","5","5","2","0","2","2","2","2","2","2","5","5","5","1","5","5","5","5","5","5","5","5","5","5","5","5","5","5","5","7","7","7","7","7","7","7","1","7","7","1","7","7","7","7","7","7","7","7","7","7","7","7","7","7","7","7","7","7","7","7","7","7","7","7","7","7","7","7","7","7","618773298611748864","袁","273","Male","[""坏我"",""好他"",""坏他"",""好我""]","[""弱我"",""强他"",""弱他"",""强我""]","","","","","","","","8","","","","","","","","","SRET","SRET_math_calculate","","key","8","16.652664556962296","640","356","","","","","9-1= ?","8","1","","","","","","","",""
"3139","","7","psychophysics","132","448849","0.0-7.0-5.0-0.29","7","7","7","7","7","5","5","5","5","5","5","2","0","2","2","2","2","2","2","5","5","5","1","5","5","5","5","5","5","5","5","5","5","5","5","5","5","5","7","7","7","7","7","7","7","1","7","7","1","7","7","7","7","7","7","7","7","7","7","7","7","7","7","7","7","7","7","7","7","7","7","7","7","7","7","7","7","7","7","618773298611748864","袁","273","Male","[""坏我"",""好他"",""坏他"",""好我""]","[""弱我"",""强他"",""弱他"",""强我""]","","","","","","","","7","","","","","","","","","SRET","SRET_math_calculate","","key","7","16.653160427807503","640","356","","","","","3+4= ?","7","1","","","","","","","",""
"2343","","5","psychophysics","133","451194","0.0-7.0-5.0-0.30","7","7","7","7","7","5","5","5","5","5","5","2","0","2","2","2","2","2","2","5","5","5","1","5","5","5","5","5","5","5","5","5","5","5","5","5","5","5","7","7","7","7","7","7","7","1","7","7","1","7","7","7","7","7","7","7","7","7","7","7","7","7","7","7","7","7","7","7","7","7","7","7","7","7","7","7","7","7","7","618773298611748864","袁","273","Male","[""坏我"",""好他"",""坏他"",""好我""]","[""弱我"",""强他"",""弱他"",""强我""]","","","","","","","","5","","","","","","","","","SRET","SRET_math_calculate","","key","5","16.652907142857188","640","356","","","","","4+1= ?","5","1","","","","","","","",""
"2584","","6","psychophysics","134","453781","0.0-7.0-5.0-0.31","7","7","7","7","7","5","5","5","5","5","5","2","0","2","2","2","2","2","2","5","5","5","1","5","5","5","5","5","5","5","5","5","5","5","5","5","5","5","7","7","7","7","7","7","7","1","7","7","1","7","7","7","7","7","7","7","7","7","7","7","7","7","7","7","7","7","7","7","7","7","7","7","7","7","7","7","7","7","7","618773298611748864","袁","273","Male","[""坏我"",""好他"",""坏他"",""好我""]","[""弱我"",""强他"",""弱他"",""强我""]","","","","","","","","6","","","","","","","","","SRET","SRET_math_calculate","","key","6","16.65271428571417","640","356","","","","","9-3= ?","6","1","","","","","","","",""
"2185","","3","psychophysics","135","455971","0.0-7.0-5.0-0.32","7","7","7","7","7","5","5","5","5","5","5","2","0","2","2","2","2","2","2","5","5","5","1","5","5","5","5","5","5","5","5","5","5","5","5","5","5","5","7","7","7","7","7","7","7","1","7","7","1","7","7","7","7","7","7","7","7","7","7","7","7","7","7","7","7","7","7","7","7","7","7","7","7","7","7","7","7","7","7","618773298611748864","袁","273","Male","[""坏我"",""好他"",""坏他"",""好我""]","[""弱我"",""强他"",""弱他"",""强我""]","","","","","","","","3","","","","","","","","","SRET","SRET_math_calculate","","key","3","16.653145038167757","640","356","","","","","2+1= ?","3","1","","","","","","","",""
"2486","","6","psychophysics","136","458460","0.0-7.0-5.0-0.33","7","7","7","7","7","5","5","5","5","5","5","2","0","2","2","2","2","2","2","5","5","5","1","5","5","5","5","5","5","5","5","5","5","5","5","5","5","5","7","7","7","7","7","7","7","1","7","7","1","7","7","7","7","7","7","7","7","7","7","7","7","7","7","7","7","7","7","7","7","7","7","7","7","7","7","7","7","7","7","618773298611748864","袁","273","Male","[""坏我"",""好他"",""坏他"",""好我""]","[""弱我"",""强他"",""弱他"",""强我""]","","","","","","","","6","","","","","","","","","SRET","SRET_math_calculate","","key","6","16.653195945946013","640","356","","","","","2*3= ?","6","1","","","","","","","",""
"2027","","6","psychophysics","137","460490","0.0-7.0-5.0-0.34","7","7","7","7","7","5","5","5","5","5","5","2","0","2","2","2","2","2","2","5","5","5","1","5","5","5","5","5","5","5","5","5","5","5","5","5","5","5","7","7","7","7","7","7","7","1","7","7","1","7","7","7","7","7","7","7","7","7","7","7","7","7","7","7","7","7","7","7","7","7","7","7","7","7","7","7","7","7","7","618773298611748864","袁","273","Male","[""坏我"",""好他"",""坏他"",""好我""]","[""弱我"",""强他"",""弱他"",""强我""]","","","","","","","","6","","","","","","","","","SRET","SRET_math_calculate","","key","6","16.656735537190293","640","356","","","","","3*2= ?","6","1","","","","","","","",""
"3400","","7","psychophysics","138","463892","0.0-7.0-5.0-0.35","7","7","7","7","7","5","5","5","5","5","5","2","0","2","2","2","2","2","2","5","5","5","1","5","5","5","5","5","5","5","5","5","5","5","5","5","5","5","7","7","7","7","7","7","7","1","7","7","1","7","7","7","7","7","7","7","7","7","7","7","7","7","7","7","7","7","7","7","7","7","7","7","7","7","7","7","7","7","7","618773298611748864","袁","273","Male","[""坏我"",""好他"",""坏他"",""好我""]","[""弱我"",""强他"",""弱他"",""强我""]","","","","","","","","7","","","","","","","","","SRET","SRET_math_calculate","","key","7","16.652990196078534","640","356","","","","","13-6= ?","7","1","","","","","","","",""
"2273","","8","psychophysics","139","466167","0.0-7.0-5.0-0.36","7","7","7","7","7","5","5","5","5","5","5","2","0","2","2","2","2","2","2","5","5","5","1","5","5","5","5","5","5","5","5","5","5","5","5","5","5","5","7","7","7","7","7","7","7","1","7","7","1","7","7","7","7","7","7","7","7","7","7","7","7","7","7","7","7","7","7","7","7","7","7","7","7","7","7","7","7","7","7","618773298611748864","袁","273","Male","[""坏我"",""好他"",""坏他"",""好我""]","[""弱我"",""强他"",""弱他"",""强我""]","","","","","","","","8","","","","","","","","","SRET","SRET_math_calculate","","key","8","16.65354814814852","640","356","","","","","3+5= ?","8","1","","","","","","","",""
"2334","","9","psychophysics","140","468503","0.0-7.0-5.0-0.37","7","7","7","7","7","5","5","5","5","5","5","2","0","2","2","2","2","2","2","5","5","5","1","5","5","5","5","5","5","5","5","5","5","5","5","5","5","5","7","7","7","7","7","7","7","1","7","7","1","7","7","7","7","7","7","7","7","7","7","7","7","7","7","7","7","7","7","7","7","7","7","7","7","7","7","7","7","7","7","618773298611748864","袁","273","Male","[""坏我"",""好他"",""坏他"",""好我""]","[""弱我"",""强他"",""弱他"",""强我""]","","","","","","","","9","","","","","","","","","SRET","SRET_math_calculate","","key","9","16.652557142857194","640","356","","","","","3+6= ?","9","1","","","","","","","",""
"2155","","3","psychophysics","141","470661","0.0-7.0-5.0-0.38","7","7","7","7","7","5","5","5","5","5","5","2","0","2","2","2","2","2","2","5","5","5","1","5","5","5","5","5","5","5","5","5","5","5","5","5","5","5","7","7","7","7","7","7","7","1","7","7","1","7","7","7","7","7","7","7","7","7","7","7","7","7","7","7","7","7","7","7","7","7","7","7","7","7","7","7","7","7","7","618773298611748864","袁","273","Male","[""坏我"",""好他"",""坏他"",""好我""]","[""弱我"",""强他"",""弱他"",""强我""]","","","","","","","","3","","","","","","","","","SRET","SRET_math_calculate","","key","3","16.65274218750028","640","356","","","","","1+2= ?","3","1","","","","","","","",""
"3585","","9","psychophysics","142","474247","0.0-7.0-5.0-0.39","7","7","7","7","7","5","5","5","5","5","5","2","0","2","2","2","2","2","2","5","5","5","1","5","5","5","5","5","5","5","5","5","5","5","5","5","5","5","7","7","7","7","7","7","7","1","7","7","1","7","7","7","7","7","7","7","7","7","7","7","7","7","7","7","7","7","7","7","7","7","7","7","7","7","7","7","7","7","7","618773298611748864","袁","273","Male","[""坏我"",""好他"",""坏他"",""好我""]","[""弱我"",""强他"",""弱他"",""强我""]","","","","","","","","9","","","","","","","","","SRET","SRET_math_calculate","","key","9","16.65256074766349","640","356","","","","","32-23= ?","9","1","","","","","","","",""
