"rt","stimulus","response","trial_type","trial_index","time_elapsed","internal_node_id","swb_1","swb_2","swb_3","swb_4","swb_5","LOT_1","LOT_2","LOT_3","LOT_4","LOT_5","LOT_6","IPC_1","IPC_2","IPC_3","IPC_4","IPC_5","IPC_6","IPC_7","IPC_8","MorIden_1","MorIden_2","MorIden_3","MorIden_4","MorIden_5","MorIden_6","MorIden_7","MorIden_8","MorIden_9","MorIden_10","moralSeImag_1","moralSeImag_2","moralSeImag_3","moralSeImag_4","moralSeImag_5","moralSeImag_6","moralSeImag_7","moralSeImag_8","moralSeImag_9","sde_1","sde_2","sde_3","sde_4","sde_5","sde_6","sde_7","sde_8","sde_9","sde_10","trap2","sde_11","sde_12","sde_13","sde_14","sde_15","sde_16","sde_17","sde_18","sde_19","sde_20","IM_1","IM_2","IM_3","IM_4","IM_5","IM_6","IM_7","IM_8","IM_9","IM_10","IM_11","IM_12","IM_13","IM_14","IM_15","IM_16","IM_17","IM_18","IM_19","IM_20","subj_idx","friend_name","ParticipantID","Sex","Word","Word2","value","success","timeout","failed_images","failed_audio","failed_video","user_agent","responses","item_order","radio_event_ids","radio_event_times","key_event_times","mouse_event_times","straightlining","zigzagging","honeypot","task_id","screen_id","time_stamp","response_type","key_press","avg_frame_time","center_x","center_y","person","word","valence","domain","math","correct_response","correct","status","view_history","identity","duration","Image","condition","question_order","trap2_item"
"8247","
   <p><div style='color:white; font-size: 25px'>您好，欢迎参加本次实验。</div></p>
   <p><div style='color:white; font-size: 25px'>为充分保障您的权利，请确保您已经知晓并同意《参与实验同意书》以及《数据公开知情同意书》。</div></p>
   <p><div style='color:white; font-size: 25px'>如果您未见过上述内容，请咨询实验员。</div></p>
   <p style='color:white; font-size: 25px'>如果您选择继续实验，则表示您已经清楚两份知情同意书的内容并同意。</p>
   <p><div style = ""color: pink;font-size:30px;"">请确保您记得day0的实验编号，您将在本次实验输入该编号，若您忘记，请咨询实验员后作答。</div></p>
   <p><div style = ""color:lightblue;font-size:25px;"">请您尽可能认真地作答，我们将依据您在各问卷和按键任务中的作答质量发放报酬。</div></p>
   <p> <div style = ""color: green""><按空格键至下页></div> </p>
   "," ","html-keyboard-response","0","8251","0.0-0.0","5","3","5","3","1","4","3","4","4","5","5","0","-1","0","0","-1","1","1","1","4","4","5","4","3","4","4","4","3","4","3","6","4","6","5","4","5","5","6","5","6","5","5","5","4","5","1","5","5","1","4","5","6","3","3","3","6","5","6","4","5","5","2","3","2","5","5","6","6","5","6","5","5","5","2","5","3","6","3","3","774615163172294657","s","539","Female","[""坏我"",""坏她"",""好她"",""好我""]","[""弱我"",""弱她"",""强她"",""强我""]","","","","","","","","","","","","","","","","","","","","","","","","","","","","","","","","","","","","","","",""
"","","","call-function","1","8254","0.0-1.0-0.0","5","3","5","3","1","4","3","4","4","5","5","0","-1","0","0","-1","1","1","1","4","4","5","4","3","4","4","4","3","4","3","6","4","6","5","4","5","5","6","5","6","5","5","5","4","5","1","5","5","1","4","5","6","3","3","3","6","5","6","4","5","5","2","3","2","5","5","6","6","5","6","5","5","5","2","5","3","6","3","3","774615163172294657","s","539","Female","[""坏我"",""坏她"",""好她"",""好我""]","[""弱我"",""弱她"",""强她"",""强我""]","","","","","","","","","","","","","","","","","","","","","","","","","","","","","","","","","","","","","","",""
"21554","","[{""name"":""Sex"",""value"":""1""},{""name"":""friend_name"",""value"":""s""},{""name"":""ParticipantID"",""value"":""539""}]","survey-html-form","2","29809","0.0-1.0-1.0","5","3","5","3","1","4","3","4","4","5","5","0","-1","0","0","-1","1","1","1","4","4","5","4","3","4","4","4","3","4","3","6","4","6","5","4","5","5","6","5","6","5","5","5","4","5","1","5","5","1","4","5","6","3","3","3","6","5","6","4","5","5","2","3","2","5","5","6","6","5","6","5","5","5","2","5","3","6","3","3","774615163172294657","s","539","Female","[""坏我"",""坏她"",""好她"",""好我""]","[""弱我"",""弱她"",""强她"",""强我""]","","","","","","","","","","","","","","","","","","","","","","","","","","","","","","","","","","","","","","",""
"","","","preload","3","30945","0.0-2.0","5","3","5","3","1","4","3","4","4","5","5","0","-1","0","0","-1","1","1","1","4","4","5","4","3","4","4","4","3","4","3","6","4","6","5","4","5","5","6","5","6","5","5","5","4","5","1","5","5","1","4","5","6","3","3","3","6","5","6","4","5","5","2","3","2","5","5","6","6","5","6","5","5","5","2","5","3","6","3","3","774615163172294657","s","539","Female","[""坏我"",""坏她"",""好她"",""好我""]","[""弱我"",""弱她"",""强她"",""强我""]","","true","false","[]","[]","[]","","","","","","","","","","","","","","","","","","","","","","","","","","","","","","","","",""
"","","","fullscreen","4","53125","0.0-3.0","5","3","5","3","1","4","3","4","4","5","5","0","-1","0","0","-1","1","1","1","4","4","5","4","3","4","4","4","3","4","3","6","4","6","5","4","5","5","6","5","6","5","5","5","4","5","1","5","5","1","4","5","6","3","3","3","6","5","6","4","5","5","2","3","2","5","5","6","6","5","6","5","5","5","2","5","3","6","3","3","774615163172294657","s","539","Female","[""坏我"",""坏她"",""好她"",""好我""]","[""弱我"",""弱她"",""强她"",""强我""]","","true","","","","","{}","","","","","","","","","","","","","","","","","","","","","","","","","","","","","","","",""
"21797.600000023842","","{""Q01"":""5"",""Q02"":""3"",""Q03"":""5"",""Q04"":""3"",""Q05"":""1""}","survey-template","5","74928","0.0-4.0","5","3","5","3","1","4","3","4","4","5","5","0","-1","0","0","-1","1","1","1","4","4","5","4","3","4","4","4","3","4","3","6","4","6","5","4","5","5","6","5","6","5","5","5","4","5","1","5","5","1","4","5","6","3","3","3","6","5","6","4","5","5","2","3","2","5","5","6","6","5","6","5","5","5","2","5","3","6","3","3","774615163172294657","s","539","Female","[""坏我"",""坏她"",""好她"",""好我""]","[""弱我"",""弱她"",""强她"",""强我""]","","","","","","","","{""Q01"":""5"",""Q02"":""3"",""Q03"":""5"",""Q04"":""3"",""Q05"":""1""}","[0,1,2,3,4]","[""Q01"",""Q02"",""Q02"",""Q03"",""Q04"",""Q05""]","[8091.700000047684,10439,12079.300000071526,13765.100000023842,16374.700000047684,18106.600000023842]","[]","[8091.700000047684,10439,12079.300000071526,13765.100000023842,16374.700000047684,18106.600000023842,21795.200000047684]","0.4","0","0","","","","","","","","","","","","","","","","","","","","","","",""
"21259.899999976158","","{""Q01"":""4"",""Q02"":""3"",""Q03"":""4"",""Q04"":""4"",""Q05"":""5"",""Q06"":""5""}","survey-template","6","96200","0.0-5.0","5","3","5","3","1","4","3","4","4","5","5","0","-1","0","0","-1","1","1","1","4","4","5","4","3","4","4","4","3","4","3","6","4","6","5","4","5","5","6","5","6","5","5","5","4","5","1","5","5","1","4","5","6","3","3","3","6","5","6","4","5","5","2","3","2","5","5","6","6","5","6","5","5","5","2","5","3","6","3","3","774615163172294657","s","539","Female","[""坏我"",""坏她"",""好她"",""好我""]","[""弱我"",""弱她"",""强她"",""强我""]","","","","","","","","{""Q01"":""4"",""Q02"":""3"",""Q03"":""4"",""Q04"":""4"",""Q05"":""5"",""Q06"":""5""}","[0,1,2,3,4,5]","[""Q01"",""Q02"",""Q03"",""Q04"",""Q05"",""Q06""]","[4223.699999928474,9041.899999976158,10513.199999928474,13190.5,14672.899999976158,20028.199999928474]","[]","[4223.699999928474,9041.899999976158,10513.199999928474,13190.5,14672.899999976158,20028.199999928474,21258.299999952316]","0.3333333333333333","0.8","0","","","","","","","","","","","","","","","","","","","","","","",""
"18506.200000047684","","{""Q01"":""0"",""Q02"":""-1"",""Q03"":""0"",""Q04"":""0"",""Q05"":""-1"",""Q06"":""1"",""Q07"":""1"",""Q08"":""1""}","survey-template","7","114719","0.0-6.0","5","3","5","3","1","4","3","4","4","5","5","0","-1","0","0","-1","1","1","1","4","4","5","4","3","4","4","4","3","4","3","6","4","6","5","4","5","5","6","5","6","5","5","5","4","5","1","5","5","1","4","5","6","3","3","3","6","5","6","4","5","5","2","3","2","5","5","6","6","5","6","5","5","5","2","5","3","6","3","3","774615163172294657","s","539","Female","[""坏我"",""坏她"",""好她"",""好我""]","[""弱我"",""弱她"",""强她"",""强我""]","","","","","","","","{""Q01"":""0"",""Q02"":""-1"",""Q03"":""0"",""Q04"":""0"",""Q05"":""-1"",""Q06"":""1"",""Q07"":""1"",""Q08"":""1""}","[0,1,2,3,4,5,6,7]","[""Q01"",""Q02"",""Q03"",""Q04"",""Q05"",""Q06"",""Q07"",""Q08""]","[3020.7000000476837,5401.399999976158,7366.300000071526,9119.600000023842,10995.899999976158,12600.700000047684,14667,15994.200000047684]","[]","[3020.7000000476837,5401.399999976158,7366.300000071526,9119.600000023842,10995.899999976158,12600.700000047684,14667,15994.200000047684,18502.399999976158]","0.375","0.42857142857142855","0","","","","","","","","","","","","","","","","","","","","","","",""
"17232","
    <p><div style='color:white;font-size:35px; line-height:20px;'>词汇评估任务</div></p><br>
    <p><div style='color:white;font-size:25px; line-height:20px;'>请再次回忆该亲密的朋友，你们至少2年前就认识了，并且最近2年经常见面。</div></p>
    <p><div style='color:white;font-size:25px; line-height:20px;'>在本实验中，您将会看到一些形容词。</div></p>
    <p><div style='color:yellow;font-size:25px; line-height:20px;'>您的任务是判断这些形容词是否符合对您自己或您的朋友的描述。</div></p><p style='font-size:35px'>符合按<span style=""color:lightgreen""> j 键</span>，不符合按<span style=""color:red""> f 键</span></p>","0","html-button-response","8","131962","0.0-7.0-0.0","5","3","5","3","1","4","3","4","4","5","5","0","-1","0","0","-1","1","1","1","4","4","5","4","3","4","4","4","3","4","3","6","4","6","5","4","5","5","6","5","6","5","5","5","4","5","1","5","5","1","4","5","6","3","3","3","6","5","6","4","5","5","2","3","2","5","5","6","6","5","6","5","5","5","2","5","3","6","3","3","774615163172294657","s","539","Female","[""坏我"",""坏她"",""好她"",""好我""]","[""弱我"",""弱她"",""强她"",""强我""]","","","","","","","","","","","","","","","","","SRET_EW","EW_instructions","Mon Dec 25 2023 20:50:45 GMT+0800 (中国标准时间)","","","","","","","","","","","","","","","","","","","",""
"null","","null","psychophysics","9","134980","0.0-7.0-1.0-0.0","5","3","5","3","1","4","3","4","4","5","5","0","-1","0","0","-1","1","1","1","4","4","5","4","3","4","4","4","3","4","3","6","4","6","5","4","5","5","6","5","6","5","5","5","4","5","1","5","5","1","4","5","6","3","3","3","6","5","6","4","5","5","2","3","2","5","5","6","6","5","6","5","5","5","2","5","3","6","3","3","774615163172294657","s","539","Female","[""坏我"",""坏她"",""好她"",""好我""]","[""弱我"",""弱她"",""强她"",""强我""]","","","","","","","","","","","","","","","","","SRET_EW","EW_practice","","key","null","16.666320441988905","640","356","自己","严谨","Positive","ability","","","","","","","","","","",""
"null","","null","psychophysics","10","137985","0.0-7.0-1.0-0.1","5","3","5","3","1","4","3","4","4","5","5","0","-1","0","0","-1","1","1","1","4","4","5","4","3","4","4","4","3","4","3","6","4","6","5","4","5","5","6","5","6","5","5","5","4","5","1","5","5","1","4","5","6","3","3","3","6","5","6","4","5","5","2","3","2","5","5","6","6","5","6","5","5","5","2","5","3","6","3","3","774615163172294657","s","539","Female","[""坏我"",""坏她"",""好她"",""好我""]","[""弱我"",""弱她"",""强她"",""强我""]","","","","","","","","","","","","","","","","","SRET_EW","EW_practice","","key","null","16.66660893854751","640","356","自己","刻板","Negative","ability","","","","","","","","","","",""
"865","","j","psychophysics","11","139858","0.0-7.0-1.0-0.2","5","3","5","3","1","4","3","4","4","5","5","0","-1","0","0","-1","1","1","1","4","4","5","4","3","4","4","4","3","4","3","6","4","6","5","4","5","5","6","5","6","5","5","5","4","5","1","5","5","1","4","5","6","3","3","3","6","5","6","4","5","5","2","3","2","5","5","6","6","5","6","5","5","5","2","5","3","6","3","3","774615163172294657","s","539","Female","[""坏我"",""坏她"",""好她"",""好我""]","[""弱我"",""弱她"",""强她"",""强我""]","","","","","","","","yes","","","","","","","","","SRET_EW","EW_practice","","key","j","16.66674107142847","640","356","朋友","忠实","Positive","morality","","","","","","","","","","",""
"827","","f","psychophysics","12","141687","0.0-7.0-1.0-0.3","5","3","5","3","1","4","3","4","4","5","5","0","-1","0","0","-1","1","1","1","4","4","5","4","3","4","4","4","3","4","3","6","4","6","5","4","5","5","6","5","6","5","5","5","4","5","1","5","5","1","4","5","6","3","3","3","6","5","6","4","5","5","2","3","2","5","5","6","6","5","6","5","5","5","2","5","3","6","3","3","774615163172294657","s","539","Female","[""坏我"",""坏她"",""好她"",""好我""]","[""弱我"",""弱她"",""强她"",""强我""]","","","","","","","","no","","","","","","","","","SRET_EW","EW_practice","","key","f","16.663192660550465","640","356","朋友","徇私","Negative","morality","","","","","","","","","","",""
"11273","
    <p><div style='color:white;font-size:35px; line-height:20px;'>请您再次阅读实验要求</div></p><br>
    <p><div style='color:white;font-size:25px; line-height:20px;'>请回忆某一个亲密的朋友，你们至少2年前就认识了，并且最近2年经常见面。</div></p>
    <p><div style='color:white;font-size:25px; line-height:20px;'>在本实验中，您将会看到一些形容词。</div></p>
    <p><div style='color:yellow;font-size:25px; line-height:20px;'>您的任务是判断这些形容词是否符合对您自己或您的朋友的描述。</div></p>
    <p><div class='footer' style='font-size:25px; line-height:20px;'>如果对本实验还有不清楚之处，请立即向实验员咨询。</p><p style='font-size:25px; line-height:20px;'>如果您明白了规则：</p><p style='font-size:22px; line-height:20px;'>请按 继续 进入正式实验</p>
    </div>
    <p style='font-size:35px'>符合按<span style=""color:lightgreen""> j 键</span>，不符合按<span style=""color:red""> f 键</span></p>","0","html-button-response","13","152962","0.0-7.0-2.0","5","3","5","3","1","4","3","4","4","5","5","0","-1","0","0","-1","1","1","1","4","4","5","4","3","4","4","4","3","4","3","6","4","6","5","4","5","5","6","5","6","5","5","5","4","5","1","5","5","1","4","5","6","3","3","3","6","5","6","4","5","5","2","3","2","5","5","6","6","5","6","5","5","5","2","5","3","6","3","3","774615163172294657","s","539","Female","[""坏我"",""坏她"",""好她"",""好我""]","[""弱我"",""弱她"",""强她"",""强我""]","","","","","","","","","","","","","","","","","SRET_EW","prac_instructions","Mon Dec 25 2023 20:50:45 GMT+0800 (中国标准时间)","","","","","","","","","","","","","","","","","","","",""
"649","","j","psychophysics","14","154617","0.0-7.0-3.0-0.0","5","3","5","3","1","4","3","4","4","5","5","0","-1","0","0","-1","1","1","1","4","4","5","4","3","4","4","4","3","4","3","6","4","6","5","4","5","5","6","5","6","5","5","5","4","5","1","5","5","1","4","5","6","3","3","3","6","5","6","4","5","5","2","3","2","5","5","6","6","5","6","5","5","5","2","5","3","6","3","3","774615163172294657","s","539","Female","[""坏我"",""坏她"",""好她"",""好我""]","[""弱我"",""弱她"",""强她"",""强我""]","","","","","","","","yes","","","","","","","","","SRET","EW_formal","","key","j","16.836846938775494","640","356","朋友","迷糊","Negative","ability","","","","","","","","","","",""
"581","","j","psychophysics","15","156204","0.0-7.0-3.0-0.1","5","3","5","3","1","4","3","4","4","5","5","0","-1","0","0","-1","1","1","1","4","4","5","4","3","4","4","4","3","4","3","6","4","6","5","4","5","5","6","5","6","5","5","5","4","5","1","5","5","1","4","5","6","3","3","3","6","5","6","4","5","5","2","3","2","5","5","6","6","5","6","5","5","5","2","5","3","6","3","3","774615163172294657","s","539","Female","[""坏我"",""坏她"",""好她"",""好我""]","[""弱我"",""弱她"",""强她"",""强我""]","","","","","","","","yes","","","","","","","","","SRET","EW_formal","","key","j","16.66658947368422","640","356","自己","坚贞","Positive","morality","","","","","","","","","","",""
"608","","j","psychophysics","16","157820","0.0-7.0-3.0-0.2","5","3","5","3","1","4","3","4","4","5","5","0","-1","0","0","-1","1","1","1","4","4","5","4","3","4","4","4","3","4","3","6","4","6","5","4","5","5","6","5","6","5","5","5","4","5","1","5","5","1","4","5","6","3","3","3","6","5","6","4","5","5","2","3","2","5","5","6","6","5","6","5","5","5","2","5","3","6","3","3","774615163172294657","s","539","Female","[""坏我"",""坏她"",""好她"",""好我""]","[""弱我"",""弱她"",""强她"",""强我""]","","","","","","","","yes","","","","","","","","","SRET","EW_formal","","key","j","16.653916666666493","640","356","朋友","务实","Positive","ability","","","","","","","","","","",""
"631","","f","psychophysics","17","159459","0.0-7.0-3.0-0.3","5","3","5","3","1","4","3","4","4","5","5","0","-1","0","0","-1","1","1","1","4","4","5","4","3","4","4","4","3","4","3","6","4","6","5","4","5","5","6","5","6","5","5","5","4","5","1","5","5","1","4","5","6","3","3","3","6","5","6","4","5","5","2","3","2","5","5","6","6","5","6","5","5","5","2","5","3","6","3","3","774615163172294657","s","539","Female","[""坏我"",""坏她"",""好她"",""好我""]","[""弱我"",""弱她"",""强她"",""强我""]","","","","","","","","no","","","","","","","","","SRET","EW_formal","","key","f","16.657639175257707","640","356","自己","说谎","Negative","morality","","","","","","","","","","",""
"590","","f","psychophysics","18","161058","0.0-7.0-3.0-0.4","5","3","5","3","1","4","3","4","4","5","5","0","-1","0","0","-1","1","1","1","4","4","5","4","3","4","4","4","3","4","3","6","4","6","5","4","5","5","6","5","6","5","5","5","4","5","1","5","5","1","4","5","6","3","3","3","6","5","6","4","5","5","2","3","2","5","5","6","6","5","6","5","5","5","2","5","3","6","3","3","774615163172294657","s","539","Female","[""坏我"",""坏她"",""好她"",""好我""]","[""弱我"",""弱她"",""强她"",""强我""]","","","","","","","","no","","","","","","","","","SRET","EW_formal","","key","f","16.654115789473718","640","356","自己","淫乱","Negative","morality","","","","","","","","","","",""
"697","","j","psychophysics","19","162764","0.0-7.0-3.0-0.5","5","3","5","3","1","4","3","4","4","5","5","0","-1","0","0","-1","1","1","1","4","4","5","4","3","4","4","4","3","4","3","6","4","6","5","4","5","5","6","5","6","5","5","5","4","5","1","5","5","1","4","5","6","3","3","3","6","5","6","4","5","5","2","3","2","5","5","6","6","5","6","5","5","5","2","5","3","6","3","3","774615163172294657","s","539","Female","[""坏我"",""坏她"",""好她"",""好我""]","[""弱我"",""弱她"",""强她"",""强我""]","","","","","","","","yes","","","","","","","","","SRET","EW_formal","","key","j","16.66170297029698","640","356","朋友","慷慨","Positive","morality","","","","","","","","","","",""
"508","","j","psychophysics","20","164275","0.0-7.0-3.0-0.6","5","3","5","3","1","4","3","4","4","5","5","0","-1","0","0","-1","1","1","1","4","4","5","4","3","4","4","4","3","4","3","6","4","6","5","4","5","5","6","5","6","5","5","5","4","5","1","5","5","1","4","5","6","3","3","3","6","5","6","4","5","5","2","3","2","5","5","6","6","5","6","5","5","5","2","5","3","6","3","3","774615163172294657","s","539","Female","[""坏我"",""坏她"",""好她"",""好我""]","[""弱我"",""弱她"",""强她"",""强我""]","","","","","","","","yes","","","","","","","","","SRET","EW_formal","","key","j","16.66276666666672","640","356","朋友","刚正","Positive","morality","","","","","","","","","","",""
"598","","j","psychophysics","21","165883","0.0-7.0-3.0-0.7","5","3","5","3","1","4","3","4","4","5","5","0","-1","0","0","-1","1","1","1","4","4","5","4","3","4","4","4","3","4","3","6","4","6","5","4","5","5","6","5","6","5","5","5","4","5","1","5","5","1","4","5","6","3","3","3","6","5","6","4","5","5","2","3","2","5","5","6","6","5","6","5","5","5","2","5","3","6","3","3","774615163172294657","s","539","Female","[""坏我"",""坏她"",""好她"",""好我""]","[""弱我"",""弱她"",""强她"",""强我""]","","","","","","","","yes","","","","","","","","","SRET","EW_formal","","key","j","16.666515789473564","640","356","自己","君子","Positive","morality","","","","","","","","","","",""
"630","","j","psychophysics","22","167515","0.0-7.0-3.0-0.8","5","3","5","3","1","4","3","4","4","5","5","0","-1","0","0","-1","1","1","1","4","4","5","4","3","4","4","4","3","4","3","6","4","6","5","4","5","5","6","5","6","5","5","5","4","5","1","5","5","1","4","5","6","3","3","3","6","5","6","4","5","5","2","3","2","5","5","6","6","5","6","5","5","5","2","5","3","6","3","3","774615163172294657","s","539","Female","[""坏我"",""坏她"",""好她"",""好我""]","[""弱我"",""弱她"",""强她"",""强我""]","","","","","","","","yes","","","","","","","","","SRET","EW_formal","","key","j","16.664360824742563","640","356","朋友","博学","Positive","ability","","","","","","","","","","",""
"682","","j","psychophysics","23","169199","0.0-7.0-3.0-0.9","5","3","5","3","1","4","3","4","4","5","5","0","-1","0","0","-1","1","1","1","4","4","5","4","3","4","4","4","3","4","3","6","4","6","5","4","5","5","6","5","6","5","5","5","4","5","1","5","5","1","4","5","6","3","3","3","6","5","6","4","5","5","2","3","2","5","5","6","6","5","6","5","5","5","2","5","3","6","3","3","774615163172294657","s","539","Female","[""坏我"",""坏她"",""好她"",""好我""]","[""弱我"",""弱她"",""强她"",""强我""]","","","","","","","","yes","","","","","","","","","SRET","EW_formal","","key","j","16.66658999999985","640","356","自己","远见","Positive","ability","","","","","","","","","","",""
"665","","f","psychophysics","24","170871","0.0-7.0-3.0-0.10","5","3","5","3","1","4","3","4","4","5","5","0","-1","0","0","-1","1","1","1","4","4","5","4","3","4","4","4","3","4","3","6","4","6","5","4","5","5","6","5","6","5","5","5","4","5","1","5","5","1","4","5","6","3","3","3","6","5","6","4","5","5","2","3","2","5","5","6","6","5","6","5","5","5","2","5","3","6","3","3","774615163172294657","s","539","Female","[""坏我"",""坏她"",""好她"",""好我""]","[""弱我"",""弱她"",""强她"",""强我""]","","","","","","","","no","","","","","","","","","SRET","EW_formal","","key","f","16.666749999999883","640","356","朋友","不孝","Negative","morality","","","","","","","","","","",""
"668","","j","psychophysics","25","172543","0.0-7.0-3.0-0.11","5","3","5","3","1","4","3","4","4","5","5","0","-1","0","0","-1","1","1","1","4","4","5","4","3","4","4","4","3","4","3","6","4","6","5","4","5","5","6","5","6","5","5","5","4","5","1","5","5","1","4","5","6","3","3","3","6","5","6","4","5","5","2","3","2","5","5","6","6","5","6","5","5","5","2","5","3","6","3","3","774615163172294657","s","539","Female","[""坏我"",""坏她"",""好她"",""好我""]","[""弱我"",""弱她"",""强她"",""强我""]","","","","","","","","yes","","","","","","","","","SRET","EW_formal","","key","j","16.66172727272726","640","356","朋友","肯干","Positive","ability","","","","","","","","","","",""
"672","","j","psychophysics","26","174222","0.0-7.0-3.0-0.12","5","3","5","3","1","4","3","4","4","5","5","0","-1","0","0","-1","1","1","1","4","4","5","4","3","4","4","4","3","4","3","6","4","6","5","4","5","5","6","5","6","5","5","5","4","5","1","5","5","1","4","5","6","3","3","3","6","5","6","4","5","5","2","3","2","5","5","6","6","5","6","5","5","5","2","5","3","6","3","3","774615163172294657","s","539","Female","[""坏我"",""坏她"",""好她"",""好我""]","[""弱我"",""弱她"",""强她"",""强我""]","","","","","","","","yes","","","","","","","","","SRET","EW_formal","","key","j","16.66281000000017","640","356","自己","畏难","Negative","ability","","","","","","","","","","",""
"492","","j","psychophysics","27","175720","0.0-7.0-3.0-0.13","5","3","5","3","1","4","3","4","4","5","5","0","-1","0","0","-1","1","1","1","4","4","5","4","3","4","4","4","3","4","3","6","4","6","5","4","5","5","6","5","6","5","5","5","4","5","1","5","5","1","4","5","6","3","3","3","6","5","6","4","5","5","2","3","2","5","5","6","6","5","6","5","5","5","2","5","3","6","3","3","774615163172294657","s","539","Female","[""坏我"",""坏她"",""好她"",""好我""]","[""弱我"",""弱她"",""强她"",""强我""]","","","","","","","","yes","","","","","","","","","SRET","EW_formal","","key","j","16.662820224718875","640","356","自己","忠勇","Positive","morality","","","","","","","","","","",""
"689","","f","psychophysics","28","177415","0.0-7.0-3.0-0.14","5","3","5","3","1","4","3","4","4","5","5","0","-1","0","0","-1","1","1","1","4","4","5","4","3","4","4","4","3","4","3","6","4","6","5","4","5","5","6","5","6","5","5","5","4","5","1","5","5","1","4","5","6","3","3","3","6","5","6","4","5","5","2","3","2","5","5","6","6","5","6","5","5","5","2","5","3","6","3","3","774615163172294657","s","539","Female","[""坏我"",""坏她"",""好她"",""好我""]","[""弱我"",""弱她"",""强她"",""强我""]","","","","","","","","no","","","","","","","","","SRET","EW_formal","","key","f","16.66506000000023","640","356","自己","愚蠢","Negative","ability","","","","","","","","","","",""
"595","","j","psychophysics","29","179012","0.0-7.0-3.0-0.15","5","3","5","3","1","4","3","4","4","5","5","0","-1","0","0","-1","1","1","1","4","4","5","4","3","4","4","4","3","4","3","6","4","6","5","4","5","5","6","5","6","5","5","5","4","5","1","5","5","1","4","5","6","3","3","3","6","5","6","4","5","5","2","3","2","5","5","6","6","5","6","5","5","5","2","5","3","6","3","3","774615163172294657","s","539","Female","[""坏我"",""坏她"",""好她"",""好我""]","[""弱我"",""弱她"",""强她"",""强我""]","","","","","","","","yes","","","","","","","","","SRET","EW_formal","","key","j","16.666968421052566","640","356","朋友","短浅","Negative","ability","","","","","","","","","","",""
"702","","f","psychophysics","30","180720","0.0-7.0-3.0-0.16","5","3","5","3","1","4","3","4","4","5","5","0","-1","0","0","-1","1","1","1","4","4","5","4","3","4","4","4","3","4","3","6","4","6","5","4","5","5","6","5","6","5","5","5","4","5","1","5","5","1","4","5","6","3","3","3","6","5","6","4","5","5","2","3","2","5","5","6","6","5","6","5","5","5","2","5","3","6","3","3","774615163172294657","s","539","Female","[""坏我"",""坏她"",""好她"",""好我""]","[""弱我"",""弱她"",""强她"",""强我""]","","","","","","","","no","","","","","","","","","SRET","EW_formal","","key","f","16.665431372548838","640","356","朋友","不端","Negative","morality","","","","","","","","","","",""
"679","","f","psychophysics","31","182403","0.0-7.0-3.0-0.17","5","3","5","3","1","4","3","4","4","5","5","0","-1","0","0","-1","1","1","1","4","4","5","4","3","4","4","4","3","4","3","6","4","6","5","4","5","5","6","5","6","5","5","5","4","5","1","5","5","1","4","5","6","3","3","3","6","5","6","4","5","5","2","3","2","5","5","6","6","5","6","5","5","5","2","5","3","6","3","3","774615163172294657","s","539","Female","[""坏我"",""坏她"",""好她"",""好我""]","[""弱我"",""弱她"",""强她"",""强我""]","","","","","","","","no","","","","","","","","","SRET","EW_formal","","key","f","16.664869999999937","640","356","朋友","恶劣","Negative","morality","","","","","","","","","","",""
"549","","f","psychophysics","32","183961","0.0-7.0-3.0-0.18","5","3","5","3","1","4","3","4","4","5","5","0","-1","0","0","-1","1","1","1","4","4","5","4","3","4","4","4","3","4","3","6","4","6","5","4","5","5","6","5","6","5","5","5","4","5","1","5","5","1","4","5","6","3","3","3","6","5","6","4","5","5","2","3","2","5","5","6","6","5","6","5","5","5","2","5","3","6","3","3","774615163172294657","s","539","Female","[""坏我"",""坏她"",""好她"",""好我""]","[""弱我"",""弱她"",""强她"",""强我""]","","","","","","","","no","","","","","","","","","SRET","EW_formal","","key","f","16.662010869565204","640","356","朋友","刻苦","Positive","ability","","","","","","","","","","",""
"688","","j","psychophysics","33","185653","0.0-7.0-3.0-0.19","5","3","5","3","1","4","3","4","4","5","5","0","-1","0","0","-1","1","1","1","4","4","5","4","3","4","4","4","3","4","3","6","4","6","5","4","5","5","6","5","6","5","5","5","4","5","1","5","5","1","4","5","6","3","3","3","6","5","6","4","5","5","2","3","2","5","5","6","6","5","6","5","5","5","2","5","3","6","3","3","774615163172294657","s","539","Female","[""坏我"",""坏她"",""好她"",""好我""]","[""弱我"",""弱她"",""强她"",""强我""]","","","","","","","","yes","","","","","","","","","SRET","EW_formal","","key","j","16.66664356435649","640","356","朋友","谦逊","Positive","morality","","","","","","","","","","",""
"785","","f","psychophysics","34","187446","0.0-7.0-3.0-0.20","5","3","5","3","1","4","3","4","4","5","5","0","-1","0","0","-1","1","1","1","4","4","5","4","3","4","4","4","3","4","3","6","4","6","5","4","5","5","6","5","6","5","5","5","4","5","1","5","5","1","4","5","6","3","3","3","6","5","6","4","5","5","2","3","2","5","5","6","6","5","6","5","5","5","2","5","3","6","3","3","774615163172294657","s","539","Female","[""坏我"",""坏她"",""好她"",""好我""]","[""弱我"",""弱她"",""强她"",""强我""]","","","","","","","","no","","","","","","","","","SRET","EW_formal","","key","f","16.664698113207674","640","356","自己","依靠","Negative","ability","","","","","","","","","","",""
"903","","j","psychophysics","35","189354","0.0-7.0-3.0-0.21","5","3","5","3","1","4","3","4","4","5","5","0","-1","0","0","-1","1","1","1","4","4","5","4","3","4","4","4","3","4","3","6","4","6","5","4","5","5","6","5","6","5","5","5","4","5","1","5","5","1","4","5","6","3","3","3","6","5","6","4","5","5","2","3","2","5","5","6","6","5","6","5","5","5","2","5","3","6","3","3","774615163172294657","s","539","Female","[""坏我"",""坏她"",""好她"",""好我""]","[""弱我"",""弱她"",""强她"",""强我""]","","","","","","","","yes","","","","","","","","","SRET","EW_formal","","key","j","16.66414035087719","640","356","朋友","新手","Negative","ability","","","","","","","","","","",""
"1053","","f","psychophysics","36","191410","0.0-7.0-3.0-0.22","5","3","5","3","1","4","3","4","4","5","5","0","-1","0","0","-1","1","1","1","4","4","5","4","3","4","4","4","3","4","3","6","4","6","5","4","5","5","6","5","6","5","5","5","4","5","1","5","5","1","4","5","6","3","3","3","6","5","6","4","5","5","2","3","2","5","5","6","6","5","6","5","5","5","2","5","3","6","3","3","774615163172294657","s","539","Female","[""坏我"",""坏她"",""好她"",""好我""]","[""弱我"",""弱她"",""强她"",""强我""]","","","","","","","","no","","","","","","","","","SRET","EW_formal","","key","f","16.666573770491684","640","356","朋友","草率","Negative","ability","","","","","","","","","","",""
"626","","j","psychophysics","37","193038","0.0-7.0-3.0-0.23","5","3","5","3","1","4","3","4","4","5","5","0","-1","0","0","-1","1","1","1","4","4","5","4","3","4","4","4","3","4","3","6","4","6","5","4","5","5","6","5","6","5","5","5","4","5","1","5","5","1","4","5","6","3","3","3","6","5","6","4","5","5","2","3","2","5","5","6","6","5","6","5","5","5","2","5","3","6","3","3","774615163172294657","s","539","Female","[""坏我"",""坏她"",""好她"",""好我""]","[""弱我"",""弱她"",""强她"",""强我""]","","","","","","","","yes","","","","","","","","","SRET","EW_formal","","key","j","16.66521649484549","640","356","自己","果决","Positive","ability","","","","","","","","","","",""
"521","","f","psychophysics","38","194565","0.0-7.0-3.0-0.24","5","3","5","3","1","4","3","4","4","5","5","0","-1","0","0","-1","1","1","1","4","4","5","4","3","4","4","4","3","4","3","6","4","6","5","4","5","5","6","5","6","5","5","5","4","5","1","5","5","1","4","5","6","3","3","3","6","5","6","4","5","5","2","3","2","5","5","6","6","5","6","5","5","5","2","5","3","6","3","3","774615163172294657","s","539","Female","[""坏我"",""坏她"",""好她"",""好我""]","[""弱我"",""弱她"",""强她"",""强我""]","","","","","","","","no","","","","","","","","","SRET","EW_formal","","key","f","16.666199999999826","640","356","朋友","高明","Positive","ability","","","","","","","","","","",""
"693","","j","psychophysics","39","196261","0.0-7.0-3.0-0.25","5","3","5","3","1","4","3","4","4","5","5","0","-1","0","0","-1","1","1","1","4","4","5","4","3","4","4","4","3","4","3","6","4","6","5","4","5","5","6","5","6","5","5","5","4","5","1","5","5","1","4","5","6","3","3","3","6","5","6","4","5","5","2","3","2","5","5","6","6","5","6","5","5","5","2","5","3","6","3","3","774615163172294657","s","539","Female","[""坏我"",""坏她"",""好她"",""好我""]","[""弱我"",""弱她"",""强她"",""强我""]","","","","","","","","yes","","","","","","","","","SRET","EW_formal","","key","j","16.666188118811917","640","356","自己","忠诚","Positive","morality","","","","","","","","","","",""
"644","","f","psychophysics","40","197912","0.0-7.0-3.0-0.26","5","3","5","3","1","4","3","4","4","5","5","0","-1","0","0","-1","1","1","1","4","4","5","4","3","4","4","4","3","4","3","6","4","6","5","4","5","5","6","5","6","5","5","5","4","5","1","5","5","1","4","5","6","3","3","3","6","5","6","4","5","5","2","3","2","5","5","6","6","5","6","5","5","5","2","5","3","6","3","3","774615163172294657","s","539","Female","[""坏我"",""坏她"",""好她"",""好我""]","[""弱我"",""弱她"",""强她"",""强我""]","","","","","","","","no","","","","","","","","","SRET","EW_formal","","key","f","16.664846938775796","640","356","朋友","混账","Negative","morality","","","","","","","","","","",""
"593","","j","psychophysics","41","199509","0.0-7.0-3.0-0.27","5","3","5","3","1","4","3","4","4","5","5","0","-1","0","0","-1","1","1","1","4","4","5","4","3","4","4","4","3","4","3","6","4","6","5","4","5","5","6","5","6","5","5","5","4","5","1","5","5","1","4","5","6","3","3","3","6","5","6","4","5","5","2","3","2","5","5","6","6","5","6","5","5","5","2","5","3","6","3","3","774615163172294657","s","539","Female","[""坏我"",""坏她"",""好她"",""好我""]","[""弱我"",""弱她"",""强她"",""强我""]","","","","","","","","yes","","","","","","","","","SRET","EW_formal","","key","j","16.666400000000202","640","356","自己","干练","Positive","ability","","","","","","","","","","",""
"790","","f","psychophysics","42","201305","0.0-7.0-3.0-0.28","5","3","5","3","1","4","3","4","4","5","5","0","-1","0","0","-1","1","1","1","4","4","5","4","3","4","4","4","3","4","3","6","4","6","5","4","5","5","6","5","6","5","5","5","4","5","1","5","5","1","4","5","6","3","3","3","6","5","6","4","5","5","2","3","2","5","5","6","6","5","6","5","5","5","2","5","3","6","3","3","774615163172294657","s","539","Female","[""坏我"",""坏她"",""好她"",""好我""]","[""弱我"",""弱她"",""强她"",""强我""]","","","","","","","","no","","","","","","","","","SRET","EW_formal","","key","f","16.662682242990716","640","356","自己","高洁","Positive","morality","","","","","","","","","","",""
"762","","j","psychophysics","43","203071","0.0-7.0-3.0-0.29","5","3","5","3","1","4","3","4","4","5","5","0","-1","0","0","-1","1","1","1","4","4","5","4","3","4","4","4","3","4","3","6","4","6","5","4","5","5","6","5","6","5","5","5","4","5","1","5","5","1","4","5","6","3","3","3","6","5","6","4","5","5","2","3","2","5","5","6","6","5","6","5","5","5","2","5","3","6","3","3","774615163172294657","s","539","Female","[""坏我"",""坏她"",""好她"",""好我""]","[""弱我"",""弱她"",""强她"",""强我""]","","","","","","","","yes","","","","","","","","","SRET","EW_formal","","key","j","16.663076190476396","640","356","自己","守时","Positive","morality","","","","","","","","","","",""
"595","","j","psychophysics","44","204671","0.0-7.0-3.0-0.30","5","3","5","3","1","4","3","4","4","5","5","0","-1","0","0","-1","1","1","1","4","4","5","4","3","4","4","4","3","4","3","6","4","6","5","4","5","5","6","5","6","5","5","5","4","5","1","5","5","1","4","5","6","3","3","3","6","5","6","4","5","5","2","3","2","5","5","6","6","5","6","5","5","5","2","5","3","6","3","3","774615163172294657","s","539","Female","[""坏我"",""坏她"",""好她"",""好我""]","[""弱我"",""弱她"",""强她"",""强我""]","","","","","","","","yes","","","","","","","","","SRET","EW_formal","","key","j","16.6629789473685","640","356","朋友","廉正","Positive","morality","","","","","","","","","","",""
"486","","j","psychophysics","45","206163","0.0-7.0-3.0-0.31","5","3","5","3","1","4","3","4","4","5","5","0","-1","0","0","-1","1","1","1","4","4","5","4","3","4","4","4","3","4","3","6","4","6","5","4","5","5","6","5","6","5","5","5","4","5","1","5","5","1","4","5","6","3","3","3","6","5","6","4","5","5","2","3","2","5","5","6","6","5","6","5","5","5","2","5","3","6","3","3","774615163172294657","s","539","Female","[""坏我"",""坏她"",""好她"",""好我""]","[""弱我"",""弱她"",""强她"",""强我""]","","","","","","","","yes","","","","","","","","","SRET","EW_formal","","key","j","16.666102272727255","640","356","自己","精干","Positive","ability","","","","","","","","","","",""
"663","","f","psychophysics","46","207830","0.0-7.0-3.0-0.32","5","3","5","3","1","4","3","4","4","5","5","0","-1","0","0","-1","1","1","1","4","4","5","4","3","4","4","4","3","4","3","6","4","6","5","4","5","5","6","5","6","5","5","5","4","5","1","5","5","1","4","5","6","3","3","3","6","5","6","4","5","5","2","3","2","5","5","6","6","5","6","5","5","5","2","5","3","6","3","3","774615163172294657","s","539","Female","[""坏我"",""坏她"",""好她"",""好我""]","[""弱我"",""弱她"",""强她"",""强我""]","","","","","","","","no","","","","","","","","","SRET","EW_formal","","key","f","16.666969696969684","640","356","朋友","刻薄","Negative","morality","","","","","","","","","","",""
"584","","j","psychophysics","47","209418","0.0-7.0-3.0-0.33","5","3","5","3","1","4","3","4","4","5","5","0","-1","0","0","-1","1","1","1","4","4","5","4","3","4","4","4","3","4","3","6","4","6","5","4","5","5","6","5","6","5","5","5","4","5","1","5","5","1","4","5","6","3","3","3","6","5","6","4","5","5","2","3","2","5","5","6","6","5","6","5","5","5","2","5","3","6","3","3","774615163172294657","s","539","Female","[""坏我"",""坏她"",""好她"",""好我""]","[""弱我"",""弱她"",""强她"",""强我""]","","","","","","","","yes","","","","","","","","","SRET","EW_formal","","key","j","16.665627659574348","640","356","朋友","厚道","Positive","morality","","","","","","","","","","",""
"617","","j","psychophysics","48","211042","0.0-7.0-3.0-0.34","5","3","5","3","1","4","3","4","4","5","5","0","-1","0","0","-1","1","1","1","4","4","5","4","3","4","4","4","3","4","3","6","4","6","5","4","5","5","6","5","6","5","5","5","4","5","1","5","5","1","4","5","6","3","3","3","6","5","6","4","5","5","2","3","2","5","5","6","6","5","6","5","5","5","2","5","3","6","3","3","774615163172294657","s","539","Female","[""坏我"",""坏她"",""好她"",""好我""]","[""弱我"",""弱她"",""强她"",""强我""]","","","","","","","","yes","","","","","","","","","SRET","EW_formal","","key","j","16.666618556701145","640","356","自己","专注","Positive","ability","","","","","","","","","","",""
"552","","f","psychophysics","49","212597","0.0-7.0-3.0-0.35","5","3","5","3","1","4","3","4","4","5","5","0","-1","0","0","-1","1","1","1","4","4","5","4","3","4","4","4","3","4","3","6","4","6","5","4","5","5","6","5","6","5","5","5","4","5","1","5","5","1","4","5","6","3","3","3","6","5","6","4","5","5","2","3","2","5","5","6","6","5","6","5","5","5","2","5","3","6","3","3","774615163172294657","s","539","Female","[""坏我"",""坏她"",""好她"",""好我""]","[""弱我"",""弱她"",""强她"",""强我""]","","","","","","","","no","","","","","","","","","SRET","EW_formal","","key","f","16.66653260869561","640","356","朋友","阴毒","Negative","morality","","","","","","","","","","",""
"683","","j","psychophysics","50","214284","0.0-7.0-3.0-0.36","5","3","5","3","1","4","3","4","4","5","5","0","-1","0","0","-1","1","1","1","4","4","5","4","3","4","4","4","3","4","3","6","4","6","5","4","5","5","6","5","6","5","5","5","4","5","1","5","5","1","4","5","6","3","3","3","6","5","6","4","5","5","2","3","2","5","5","6","6","5","6","5","5","5","2","5","3","6","3","3","774615163172294657","s","539","Female","[""坏我"",""坏她"",""好她"",""好我""]","[""弱我"",""弱她"",""强她"",""强我""]","","","","","","","","yes","","","","","","","","","SRET","EW_formal","","key","j","16.66527999999991","640","356","朋友","逞强","Negative","ability","","","","","","","","","","",""
"582","","f","psychophysics","51","215869","0.0-7.0-3.0-0.37","5","3","5","3","1","4","3","4","4","5","5","0","-1","0","0","-1","1","1","1","4","4","5","4","3","4","4","4","3","4","3","6","4","6","5","4","5","5","6","5","6","5","5","5","4","5","1","5","5","1","4","5","6","3","3","3","6","5","6","4","5","5","2","3","2","5","5","6","6","5","6","5","5","5","2","5","3","6","3","3","774615163172294657","s","539","Female","[""坏我"",""坏她"",""好她"",""好我""]","[""弱我"",""弱她"",""强她"",""强我""]","","","","","","","","no","","","","","","","","","SRET","EW_formal","","key","f","16.66561702127659","640","356","自己","不良","Negative","morality","","","","","","","","","","",""
"527","","f","psychophysics","52","217402","0.0-7.0-3.0-0.38","5","3","5","3","1","4","3","4","4","5","5","0","-1","0","0","-1","1","1","1","4","4","5","4","3","4","4","4","3","4","3","6","4","6","5","4","5","5","6","5","6","5","5","5","4","5","1","5","5","1","4","5","6","3","3","3","6","5","6","4","5","5","2","3","2","5","5","6","6","5","6","5","5","5","2","5","3","6","3","3","774615163172294657","s","539","Female","[""坏我"",""坏她"",""好她"",""好我""]","[""弱我"",""弱她"",""强她"",""强我""]","","","","","","","","no","","","","","","","","","SRET","EW_formal","","key","f","16.667010989011033","640","356","自己","背叛","Negative","morality","","","","","","","","","","",""
"630","","j","psychophysics","53","219044","0.0-7.0-3.0-0.39","5","3","5","3","1","4","3","4","4","5","5","0","-1","0","0","-1","1","1","1","4","4","5","4","3","4","4","4","3","4","3","6","4","6","5","4","5","5","6","5","6","5","5","5","4","5","1","5","5","1","4","5","6","3","3","3","6","5","6","4","5","5","2","3","2","5","5","6","6","5","6","5","5","5","2","5","3","6","3","3","774615163172294657","s","539","Female","[""坏我"",""坏她"",""好她"",""好我""]","[""弱我"",""弱她"",""强她"",""强我""]","","","","","","","","yes","","","","","","","","","SRET","EW_formal","","key","j","16.838886597938174","640","356","自己","礼貌","Positive","morality","","","","","","","","","","",""
"668","","j","psychophysics","54","220720","0.0-7.0-3.0-0.40","5","3","5","3","1","4","3","4","4","5","5","0","-1","0","0","-1","1","1","1","4","4","5","4","3","4","4","4","3","4","3","6","4","6","5","4","5","5","6","5","6","5","5","5","4","5","1","5","5","1","4","5","6","3","3","3","6","5","6","4","5","5","2","3","2","5","5","6","6","5","6","5","5","5","2","5","3","6","3","3","774615163172294657","s","539","Female","[""坏我"",""坏她"",""好她"",""好我""]","[""弱我"",""弱她"",""强她"",""强我""]","","","","","","","","yes","","","","","","","","","SRET","EW_formal","","key","j","16.66515999999974","640","356","朋友","外行","Negative","ability","","","","","","","","","","",""
"606","","j","psychophysics","55","222330","0.0-7.0-3.0-0.41","5","3","5","3","1","4","3","4","4","5","5","0","-1","0","0","-1","1","1","1","4","4","5","4","3","4","4","4","3","4","3","6","4","6","5","4","5","5","6","5","6","5","5","5","4","5","1","5","5","1","4","5","6","3","3","3","6","5","6","4","5","5","2","3","2","5","5","6","6","5","6","5","5","5","2","5","3","6","3","3","774615163172294657","s","539","Female","[""坏我"",""坏她"",""好她"",""好我""]","[""弱我"",""弱她"",""强她"",""强我""]","","","","","","","","yes","","","","","","","","","SRET","EW_formal","","key","j","16.66198947368447","640","356","朋友","廉明","Positive","morality","","","","","","","","","","",""
"558","","f","psychophysics","56","223894","0.0-7.0-3.0-0.42","5","3","5","3","1","4","3","4","4","5","5","0","-1","0","0","-1","1","1","1","4","4","5","4","3","4","4","4","3","4","3","6","4","6","5","4","5","5","6","5","6","5","5","5","4","5","1","5","5","1","4","5","6","3","3","3","6","5","6","4","5","5","2","3","2","5","5","6","6","5","6","5","5","5","2","5","3","6","3","3","774615163172294657","s","539","Female","[""坏我"",""坏她"",""好她"",""好我""]","[""弱我"",""弱她"",""强她"",""强我""]","","","","","","","","no","","","","","","","","","SRET","EW_formal","","key","f","16.666505376343935","640","356","自己","弱智","Negative","ability","","","","","","","","","","",""
"640","","j","psychophysics","57","225540","0.0-7.0-3.0-0.43","5","3","5","3","1","4","3","4","4","5","5","0","-1","0","0","-1","1","1","1","4","4","5","4","3","4","4","4","3","4","3","6","4","6","5","4","5","5","6","5","6","5","5","5","4","5","1","5","5","1","4","5","6","3","3","3","6","5","6","4","5","5","2","3","2","5","5","6","6","5","6","5","5","5","2","5","3","6","3","3","774615163172294657","s","539","Female","[""坏我"",""坏她"",""好她"",""好我""]","[""弱我"",""弱她"",""强她"",""强我""]","","","","","","","","yes","","","","","","","","","SRET","EW_formal","","key","j","16.662295918367334","640","356","朋友","聪明","Positive","ability","","","","","","","","","","",""
"606","","f","psychophysics","58","227155","0.0-7.0-3.0-0.44","5","3","5","3","1","4","3","4","4","5","5","0","-1","0","0","-1","1","1","1","4","4","5","4","3","4","4","4","3","4","3","6","4","6","5","4","5","5","6","5","6","5","5","5","4","5","1","5","5","1","4","5","6","3","3","3","6","5","6","4","5","5","2","3","2","5","5","6","6","5","6","5","5","5","2","5","3","6","3","3","774615163172294657","s","539","Female","[""坏我"",""坏她"",""好她"",""好我""]","[""弱我"",""弱她"",""强她"",""强我""]","","","","","","","","no","","","","","","","","","SRET","EW_formal","","key","f","16.661510416666715","640","356","自己","马虎","Negative","ability","","","","","","","","","","",""
"665","","f","psychophysics","59","228829","0.0-7.0-3.0-0.45","5","3","5","3","1","4","3","4","4","5","5","0","-1","0","0","-1","1","1","1","4","4","5","4","3","4","4","4","3","4","3","6","4","6","5","4","5","5","6","5","6","5","5","5","4","5","1","5","5","1","4","5","6","3","3","3","6","5","6","4","5","5","2","3","2","5","5","6","6","5","6","5","5","5","2","5","3","6","3","3","774615163172294657","s","539","Female","[""坏我"",""坏她"",""好她"",""好我""]","[""弱我"",""弱她"",""强她"",""强我""]","","","","","","","","no","","","","","","","","","SRET","EW_formal","","key","f","16.666696969697234","640","356","自己","愚钝","Negative","ability","","","","","","","","","","",""
"803","","f","psychophysics","60","230637","0.0-7.0-3.0-0.46","5","3","5","3","1","4","3","4","4","5","5","0","-1","0","0","-1","1","1","1","4","4","5","4","3","4","4","4","3","4","3","6","4","6","5","4","5","5","6","5","6","5","5","5","4","5","1","5","5","1","4","5","6","3","3","3","6","5","6","4","5","5","2","3","2","5","5","6","6","5","6","5","5","5","2","5","3","6","3","3","774615163172294657","s","539","Female","[""坏我"",""坏她"",""好她"",""好我""]","[""弱我"",""弱她"",""强她"",""强我""]","","","","","","","","no","","","","","","","","","SRET","EW_formal","","key","f","16.663037037037107","640","356","朋友","屈才","Negative","ability","","","","","","","","","","",""
"642","","f","psychophysics","61","232287","0.0-7.0-3.0-0.47","5","3","5","3","1","4","3","4","4","5","5","0","-1","0","0","-1","1","1","1","4","4","5","4","3","4","4","4","3","4","3","6","4","6","5","4","5","5","6","5","6","5","5","5","4","5","1","5","5","1","4","5","6","3","3","3","6","5","6","4","5","5","2","3","2","5","5","6","6","5","6","5","5","5","2","5","3","6","3","3","774615163172294657","s","539","Female","[""坏我"",""坏她"",""好她"",""好我""]","[""弱我"",""弱她"",""强她"",""强我""]","","","","","","","","no","","","","","","","","","SRET","EW_formal","","key","f","16.664826530612153","640","356","朋友","诡诈","Negative","morality","","","","","","","","","","",""
"508","","j","psychophysics","62","233800","0.0-7.0-3.0-0.48","5","3","5","3","1","4","3","4","4","5","5","0","-1","0","0","-1","1","1","1","4","4","5","4","3","4","4","4","3","4","3","6","4","6","5","4","5","5","6","5","6","5","5","5","4","5","1","5","5","1","4","5","6","3","3","3","6","5","6","4","5","5","2","3","2","5","5","6","6","5","6","5","5","5","2","5","3","6","3","3","774615163172294657","s","539","Female","[""坏我"",""坏她"",""好她"",""好我""]","[""弱我"",""弱她"",""强她"",""强我""]","","","","","","","","yes","","","","","","","","","SRET","EW_formal","","key","j","16.66268539325834","640","356","朋友","全才","Positive","ability","","","","","","","","","","",""
"530","","f","psychophysics","63","235333","0.0-7.0-3.0-0.49","5","3","5","3","1","4","3","4","4","5","5","0","-1","0","0","-1","1","1","1","4","4","5","4","3","4","4","4","3","4","3","6","4","6","5","4","5","5","6","5","6","5","5","5","4","5","1","5","5","1","4","5","6","3","3","3","6","5","6","4","5","5","2","3","2","5","5","6","6","5","6","5","5","5","2","5","3","6","3","3","774615163172294657","s","539","Female","[""坏我"",""坏她"",""好她"",""好我""]","[""弱我"",""弱她"",""强她"",""强我""]","","","","","","","","no","","","","","","","","","SRET","EW_formal","","key","f","16.666263736263787","640","356","自己","下流","Negative","morality","","","","","","","","","","",""
"616","","f","psychophysics","64","236955","0.0-7.0-3.0-0.50","5","3","5","3","1","4","3","4","4","5","5","0","-1","0","0","-1","1","1","1","4","4","5","4","3","4","4","4","3","4","3","6","4","6","5","4","5","5","6","5","6","5","5","5","4","5","1","5","5","1","4","5","6","3","3","3","6","5","6","4","5","5","2","3","2","5","5","6","6","5","6","5","5","5","2","5","3","6","3","3","774615163172294657","s","539","Female","[""坏我"",""坏她"",""好她"",""好我""]","[""弱我"",""弱她"",""强她"",""强我""]","","","","","","","","no","","","","","","","","","SRET","EW_formal","","key","f","16.66889690721651","640","356","自己","拜金","Negative","morality","","","","","","","","","","",""
"533","","f","psychophysics","65","238499","0.0-7.0-3.0-0.51","5","3","5","3","1","4","3","4","4","5","5","0","-1","0","0","-1","1","1","1","4","4","5","4","3","4","4","4","3","4","3","6","4","6","5","4","5","5","6","5","6","5","5","5","4","5","1","5","5","1","4","5","6","3","3","3","6","5","6","4","5","5","2","3","2","5","5","6","6","5","6","5","5","5","2","5","3","6","3","3","774615163172294657","s","539","Female","[""坏我"",""坏她"",""好她"",""好我""]","[""弱我"",""弱她"",""强她"",""强我""]","","","","","","","","no","","","","","","","","","SRET","EW_formal","","key","f","16.662923076923086","640","356","自己","黑心","Negative","morality","","","","","","","","","","",""
"1055","","f","psychophysics","66","240556","0.0-7.0-3.0-0.52","5","3","5","3","1","4","3","4","4","5","5","0","-1","0","0","-1","1","1","1","4","4","5","4","3","4","4","4","3","4","3","6","4","6","5","4","5","5","6","5","6","5","5","5","4","5","1","5","5","1","4","5","6","3","3","3","6","5","6","4","5","5","2","3","2","5","5","6","6","5","6","5","5","5","2","5","3","6","3","3","774615163172294657","s","539","Female","[""坏我"",""坏她"",""好她"",""好我""]","[""弱我"",""弱她"",""强她"",""强我""]","","","","","","","","no","","","","","","","","","SRET","EW_formal","","key","f","16.664959349593563","640","356","朋友","短视","Negative","ability","","","","","","","","","","",""
"532","","j","psychophysics","67","242096","0.0-7.0-3.0-0.53","5","3","5","3","1","4","3","4","4","5","5","0","-1","0","0","-1","1","1","1","4","4","5","4","3","4","4","4","3","4","3","6","4","6","5","4","5","5","6","5","6","5","5","5","4","5","1","5","5","1","4","5","6","3","3","3","6","5","6","4","5","5","2","3","2","5","5","6","6","5","6","5","5","5","2","5","3","6","3","3","774615163172294657","s","539","Female","[""坏我"",""坏她"",""好她"",""好我""]","[""弱我"",""弱她"",""强她"",""强我""]","","","","","","","","yes","","","","","","","","","SRET","EW_formal","","key","j","16.66038461538463","640","356","朋友","有力","Positive","ability","","","","","","","","","","",""
"1431","","f","psychophysics","68","244531","0.0-7.0-3.0-0.54","5","3","5","3","1","4","3","4","4","5","5","0","-1","0","0","-1","1","1","1","4","4","5","4","3","4","4","4","3","4","3","6","4","6","5","4","5","5","6","5","6","5","5","5","4","5","1","5","5","1","4","5","6","3","3","3","6","5","6","4","5","5","2","3","2","5","5","6","6","5","6","5","5","5","2","5","3","6","3","3","774615163172294657","s","539","Female","[""坏我"",""坏她"",""好她"",""好我""]","[""弱我"",""弱她"",""强她"",""强我""]","","","","","","","","no","","","","","","","","","SRET","EW_formal","","key","f","16.665593103448266","640","356","朋友","拖延","Negative","ability","","","","","","","","","","",""
"804","","f","psychophysics","69","246338","0.0-7.0-3.0-0.55","5","3","5","3","1","4","3","4","4","5","5","0","-1","0","0","-1","1","1","1","4","4","5","4","3","4","4","4","3","4","3","6","4","6","5","4","5","5","6","5","6","5","5","5","4","5","1","5","5","1","4","5","6","3","3","3","6","5","6","4","5","5","2","3","2","5","5","6","6","5","6","5","5","5","2","5","3","6","3","3","774615163172294657","s","539","Female","[""坏我"",""坏她"",""好她"",""好我""]","[""弱我"",""弱她"",""强她"",""强我""]","","","","","","","","no","","","","","","","","","SRET","EW_formal","","key","f","16.666907407407255","640","356","朋友","无敌","Positive","ability","","","","","","","","","","",""
"958","","j","psychophysics","70","248307","0.0-7.0-3.0-0.56","5","3","5","3","1","4","3","4","4","5","5","0","-1","0","0","-1","1","1","1","4","4","5","4","3","4","4","4","3","4","3","6","4","6","5","4","5","5","6","5","6","5","5","5","4","5","1","5","5","1","4","5","6","3","3","3","6","5","6","4","5","5","2","3","2","5","5","6","6","5","6","5","5","5","2","5","3","6","3","3","774615163172294657","s","539","Female","[""坏我"",""坏她"",""好她"",""好我""]","[""弱我"",""弱她"",""强她"",""强我""]","","","","","","","","yes","","","","","","","","","SRET","EW_formal","","key","j","16.66489743589748","640","356","自己","犹豫","Negative","ability","","","","","","","","","","",""
"765","","f","psychophysics","71","250081","0.0-7.0-3.0-0.57","5","3","5","3","1","4","3","4","4","5","5","0","-1","0","0","-1","1","1","1","4","4","5","4","3","4","4","4","3","4","3","6","4","6","5","4","5","5","6","5","6","5","5","5","4","5","1","5","5","1","4","5","6","3","3","3","6","5","6","4","5","5","2","3","2","5","5","6","6","5","6","5","5","5","2","5","3","6","3","3","774615163172294657","s","539","Female","[""坏我"",""坏她"",""好她"",""好我""]","[""弱我"",""弱她"",""强她"",""强我""]","","","","","","","","no","","","","","","","","","SRET","EW_formal","","key","f","16.665209523809608","640","356","自己","势利","Negative","morality","","","","","","","","","","",""
"478","","j","psychophysics","72","251564","0.0-7.0-3.0-0.58","5","3","5","3","1","4","3","4","4","5","5","0","-1","0","0","-1","1","1","1","4","4","5","4","3","4","4","4","3","4","3","6","4","6","5","4","5","5","6","5","6","5","5","5","4","5","1","5","5","1","4","5","6","3","3","3","6","5","6","4","5","5","2","3","2","5","5","6","6","5","6","5","5","5","2","5","3","6","3","3","774615163172294657","s","539","Female","[""坏我"",""坏她"",""好她"",""好我""]","[""弱我"",""弱她"",""强她"",""强我""]","","","","","","","","yes","","","","","","","","","SRET","EW_formal","","key","j","16.665545454545448","640","356","朋友","好心","Positive","morality","","","","","","","","","","",""
"542","","j","psychophysics","73","253109","0.0-7.0-3.0-0.59","5","3","5","3","1","4","3","4","4","5","5","0","-1","0","0","-1","1","1","1","4","4","5","4","3","4","4","4","3","4","3","6","4","6","5","4","5","5","6","5","6","5","5","5","4","5","1","5","5","1","4","5","6","3","3","3","6","5","6","4","5","5","2","3","2","5","5","6","6","5","6","5","5","5","2","5","3","6","3","3","774615163172294657","s","539","Female","[""坏我"",""坏她"",""好她"",""好我""]","[""弱我"",""弱她"",""强她"",""强我""]","","","","","","","","yes","","","","","","","","","SRET","EW_formal","","key","j","16.665358695652053","640","356","自己","忠义","Positive","morality","","","","","","","","","","",""
"550","","f","psychophysics","74","254667","0.0-7.0-3.0-0.60","5","3","5","3","1","4","3","4","4","5","5","0","-1","0","0","-1","1","1","1","4","4","5","4","3","4","4","4","3","4","3","6","4","6","5","4","5","5","6","5","6","5","5","5","4","5","1","5","5","1","4","5","6","3","3","3","6","5","6","4","5","5","2","3","2","5","5","6","6","5","6","5","5","5","2","5","3","6","3","3","774615163172294657","s","539","Female","[""坏我"",""坏她"",""好她"",""好我""]","[""弱我"",""弱她"",""强她"",""强我""]","","","","","","","","no","","","","","","","","","SRET","EW_formal","","key","f","16.66607608695631","640","356","朋友","拙笨","Negative","ability","","","","","","","","","","",""
"777","","f","psychophysics","75","256448","0.0-7.0-3.0-0.61","5","3","5","3","1","4","3","4","4","5","5","0","-1","0","0","-1","1","1","1","4","4","5","4","3","4","4","4","3","4","3","6","4","6","5","4","5","5","6","5","6","5","5","5","4","5","1","5","5","1","4","5","6","3","3","3","6","5","6","4","5","5","2","3","2","5","5","6","6","5","6","5","5","5","2","5","3","6","3","3","774615163172294657","s","539","Female","[""坏我"",""坏她"",""好她"",""好我""]","[""弱我"",""弱她"",""强她"",""强我""]","","","","","","","","no","","","","","","","","","SRET","EW_formal","","key","f","16.666754716981195","640","356","自己","逞能","Negative","ability","","","","","","","","","","",""
"543","","f","psychophysics","76","257994","0.0-7.0-3.0-0.62","5","3","5","3","1","4","3","4","4","5","5","0","-1","0","0","-1","1","1","1","4","4","5","4","3","4","4","4","3","4","3","6","4","6","5","4","5","5","6","5","6","5","5","5","4","5","1","5","5","1","4","5","6","3","3","3","6","5","6","4","5","5","2","3","2","5","5","6","6","5","6","5","5","5","2","5","3","6","3","3","774615163172294657","s","539","Female","[""坏我"",""坏她"",""好她"",""好我""]","[""弱我"",""弱她"",""强她"",""强我""]","","","","","","","","no","","","","","","","","","SRET","EW_formal","","key","f","16.66653260869561","640","356","自己","蛇蝎","Negative","morality","","","","","","","","","","",""
"996","","j","psychophysics","77","259992","0.0-7.0-3.0-0.63","5","3","5","3","1","4","3","4","4","5","5","0","-1","0","0","-1","1","1","1","4","4","5","4","3","4","4","4","3","4","3","6","4","6","5","4","5","5","6","5","6","5","5","5","4","5","1","5","5","1","4","5","6","3","3","3","6","5","6","4","5","5","2","3","2","5","5","6","6","5","6","5","5","5","2","5","3","6","3","3","774615163172294657","s","539","Female","[""坏我"",""坏她"",""好她"",""好我""]","[""弱我"",""弱她"",""强她"",""强我""]","","","","","","","","yes","","","","","","","","","SRET","EW_formal","","key","j","16.6653781512602","640","356","自己","拖拉","Negative","ability","","","","","","","","","","",""
"1040","","j","psychophysics","78","262037","0.0-7.0-3.0-0.64","5","3","5","3","1","4","3","4","4","5","5","0","-1","0","0","-1","1","1","1","4","4","5","4","3","4","4","4","3","4","3","6","4","6","5","4","5","5","6","5","6","5","5","5","4","5","1","5","5","1","4","5","6","3","3","3","6","5","6","4","5","5","2","3","2","5","5","6","6","5","6","5","5","5","2","5","3","6","3","3","774615163172294657","s","539","Female","[""坏我"",""坏她"",""好她"",""好我""]","[""弱我"",""弱她"",""强她"",""强我""]","","","","","","","","yes","","","","","","","","","SRET","EW_formal","","key","j","16.66590983606541","640","356","自己","慈悲","Positive","morality","","","","","","","","","","",""
"561","","j","psychophysics","79","263604","0.0-7.0-3.0-0.65","5","3","5","3","1","4","3","4","4","5","5","0","-1","0","0","-1","1","1","1","4","4","5","4","3","4","4","4","3","4","3","6","4","6","5","4","5","5","6","5","6","5","5","5","4","5","1","5","5","1","4","5","6","3","3","3","6","5","6","4","5","5","2","3","2","5","5","6","6","5","6","5","5","5","2","5","3","6","3","3","774615163172294657","s","539","Female","[""坏我"",""坏她"",""好她"",""好我""]","[""弱我"",""弱她"",""强她"",""强我""]","","","","","","","","yes","","","","","","","","","SRET","EW_formal","","key","j","16.664720430107717","640","356","朋友","仗义","Positive","morality","","","","","","","","","","",""
"602","","f","psychophysics","80","265214","0.0-7.0-3.0-0.66","5","3","5","3","1","4","3","4","4","5","5","0","-1","0","0","-1","1","1","1","4","4","5","4","3","4","4","4","3","4","3","6","4","6","5","4","5","5","6","5","6","5","5","5","4","5","1","5","5","1","4","5","6","3","3","3","6","5","6","4","5","5","2","3","2","5","5","6","6","5","6","5","5","5","2","5","3","6","3","3","774615163172294657","s","539","Female","[""坏我"",""坏她"",""好她"",""好我""]","[""弱我"",""弱她"",""强她"",""强我""]","","","","","","","","no","","","","","","","","","SRET","EW_formal","","key","f","16.665463157894557","640","356","朋友","废物","Negative","ability","","","","","","","","","","",""
"525","","j","psychophysics","81","266742","0.0-7.0-3.0-0.67","5","3","5","3","1","4","3","4","4","5","5","0","-1","0","0","-1","1","1","1","4","4","5","4","3","4","4","4","3","4","3","6","4","6","5","4","5","5","6","5","6","5","5","5","4","5","1","5","5","1","4","5","6","3","3","3","6","5","6","4","5","5","2","3","2","5","5","6","6","5","6","5","5","5","2","5","3","6","3","3","774615163172294657","s","539","Female","[""坏我"",""坏她"",""好她"",""好我""]","[""弱我"",""弱她"",""强她"",""强我""]","","","","","","","","yes","","","","","","","","","SRET","EW_formal","","key","j","16.666747252747243","640","356","自己","敬业","Positive","morality","","","","","","","","","","",""
"689","","f","psychophysics","82","268437","0.0-7.0-3.0-0.68","5","3","5","3","1","4","3","4","4","5","5","0","-1","0","0","-1","1","1","1","4","4","5","4","3","4","4","4","3","4","3","6","4","6","5","4","5","5","6","5","6","5","5","5","4","5","1","5","5","1","4","5","6","3","3","3","6","5","6","4","5","5","2","3","2","5","5","6","6","5","6","5","5","5","2","5","3","6","3","3","774615163172294657","s","539","Female","[""坏我"",""坏她"",""好她"",""好我""]","[""弱我"",""弱她"",""强她"",""强我""]","","","","","","","","no","","","","","","","","","SRET","EW_formal","","key","f","16.665445544554665","640","356","朋友","无耻","Negative","morality","","","","","","","","","","",""
"604","","f","psychophysics","83","270047","0.0-7.0-3.0-0.69","5","3","5","3","1","4","3","4","4","5","5","0","-1","0","0","-1","1","1","1","4","4","5","4","3","4","4","4","3","4","3","6","4","6","5","4","5","5","6","5","6","5","5","5","4","5","1","5","5","1","4","5","6","3","3","3","6","5","6","4","5","5","2","3","2","5","5","6","6","5","6","5","5","5","2","5","3","6","3","3","774615163172294657","s","539","Female","[""坏我"",""坏她"",""好她"",""好我""]","[""弱我"",""弱她"",""强她"",""强我""]","","","","","","","","no","","","","","","","","","SRET","EW_formal","","key","f","16.665505263157876","640","356","自己","孝顺","Positive","morality","","","","","","","","","","",""
"713","","j","psychophysics","84","271763","0.0-7.0-3.0-0.70","5","3","5","3","1","4","3","4","4","5","5","0","-1","0","0","-1","1","1","1","4","4","5","4","3","4","4","4","3","4","3","6","4","6","5","4","5","5","6","5","6","5","5","5","4","5","1","5","5","1","4","5","6","3","3","3","6","5","6","4","5","5","2","3","2","5","5","6","6","5","6","5","5","5","2","5","3","6","3","3","774615163172294657","s","539","Female","[""坏我"",""坏她"",""好她"",""好我""]","[""弱我"",""弱她"",""强她"",""强我""]","","","","","","","","yes","","","","","","","","","SRET","EW_formal","","key","j","16.666882352941148","640","356","朋友","坦荡","Positive","morality","","","","","","","","","","",""
"838","","f","psychophysics","85","273605","0.0-7.0-3.0-0.71","5","3","5","3","1","4","3","4","4","5","5","0","-1","0","0","-1","1","1","1","4","4","5","4","3","4","4","4","3","4","3","6","4","6","5","4","5","5","6","5","6","5","5","5","4","5","1","5","5","1","4","5","6","3","3","3","6","5","6","4","5","5","2","3","2","5","5","6","6","5","6","5","5","5","2","5","3","6","3","3","774615163172294657","s","539","Female","[""坏我"",""坏她"",""好她"",""好我""]","[""弱我"",""弱她"",""强她"",""强我""]","","","","","","","","no","","","","","","","","","SRET","EW_formal","","key","f","16.666072727273093","640","356","自己","娴熟","Positive","ability","","","","","","","","","","",""
"575","","j","psychophysics","86","275186","0.0-7.0-3.0-0.72","5","3","5","3","1","4","3","4","4","5","5","0","-1","0","0","-1","1","1","1","4","4","5","4","3","4","4","4","3","4","3","6","4","6","5","4","5","5","6","5","6","5","5","5","4","5","1","5","5","1","4","5","6","3","3","3","6","5","6","4","5","5","2","3","2","5","5","6","6","5","6","5","5","5","2","5","3","6","3","3","774615163172294657","s","539","Female","[""坏我"",""坏她"",""好她"",""好我""]","[""弱我"",""弱她"",""强她"",""强我""]","","","","","","","","yes","","","","","","","","","SRET","EW_formal","","key","j","16.666563829787304","640","356","朋友","勤奋","Positive","ability","","","","","","","","","","",""
"817","","j","psychophysics","87","277014","0.0-7.0-3.0-0.73","5","3","5","3","1","4","3","4","4","5","5","0","-1","0","0","-1","1","1","1","4","4","5","4","3","4","4","4","3","4","3","6","4","6","5","4","5","5","6","5","6","5","5","5","4","5","1","5","5","1","4","5","6","3","3","3","6","5","6","4","5","5","2","3","2","5","5","6","6","5","6","5","5","5","2","5","3","6","3","3","774615163172294657","s","539","Female","[""坏我"",""坏她"",""好她"",""好我""]","[""弱我"",""弱她"",""强她"",""强我""]","","","","","","","","yes","","","","","","","","","SRET","EW_formal","","key","j","16.66615740740747","640","356","自己","变通","Positive","ability","","","","","","","","","","",""
"436","","j","psychophysics","88","278453","0.0-7.0-3.0-0.74","5","3","5","3","1","4","3","4","4","5","5","0","-1","0","0","-1","1","1","1","4","4","5","4","3","4","4","4","3","4","3","6","4","6","5","4","5","5","6","5","6","5","5","5","4","5","1","5","5","1","4","5","6","3","3","3","6","5","6","4","5","5","2","3","2","5","5","6","6","5","6","5","5","5","2","5","3","6","3","3","774615163172294657","s","539","Female","[""坏我"",""坏她"",""好她"",""好我""]","[""弱我"",""弱她"",""强她"",""强我""]","","","","","","","","yes","","","","","","","","","SRET","EW_formal","","key","j","16.66673255813928","640","356","自己","高效","Positive","ability","","","","","","","","","","",""
"495","","j","psychophysics","89","279955","0.0-7.0-3.0-0.75","5","3","5","3","1","4","3","4","4","5","5","0","-1","0","0","-1","1","1","1","4","4","5","4","3","4","4","4","3","4","3","6","4","6","5","4","5","5","6","5","6","5","5","5","4","5","1","5","5","1","4","5","6","3","3","3","6","5","6","4","5","5","2","3","2","5","5","6","6","5","6","5","5","5","2","5","3","6","3","3","774615163172294657","s","539","Female","[""坏我"",""坏她"",""好她"",""好我""]","[""弱我"",""弱她"",""强她"",""强我""]","","","","","","","","yes","","","","","","","","","SRET","EW_formal","","key","j","16.66540449438224","640","356","朋友","努力","Positive","ability","","","","","","","","","","",""
"416","","j","psychophysics","90","281380","0.0-7.0-3.0-0.76","5","3","5","3","1","4","3","4","4","5","5","0","-1","0","0","-1","1","1","1","4","4","5","4","3","4","4","4","3","4","3","6","4","6","5","4","5","5","6","5","6","5","5","5","4","5","1","5","5","1","4","5","6","3","3","3","6","5","6","4","5","5","2","3","2","5","5","6","6","5","6","5","5","5","2","5","3","6","3","3","774615163172294657","s","539","Female","[""坏我"",""坏她"",""好她"",""好我""]","[""弱我"",""弱她"",""强她"",""强我""]","","","","","","","","yes","","","","","","","","","SRET","EW_formal","","key","j","16.666797619047603","640","356","自己","坚持","Positive","ability","","","","","","","","","","",""
"599","","f","psychophysics","91","282982","0.0-7.0-3.0-0.77","5","3","5","3","1","4","3","4","4","5","5","0","-1","0","0","-1","1","1","1","4","4","5","4","3","4","4","4","3","4","3","6","4","6","5","4","5","5","6","5","6","5","5","5","4","5","1","5","5","1","4","5","6","3","3","3","6","5","6","4","5","5","2","3","2","5","5","6","6","5","6","5","5","5","2","5","3","6","3","3","774615163172294657","s","539","Female","[""坏我"",""坏她"",""好她"",""好我""]","[""弱我"",""弱她"",""强她"",""强我""]","","","","","","","","no","","","","","","","","","SRET","EW_formal","","key","f","16.665536842104906","640","356","自己","失信","Negative","morality","","","","","","","","","","",""
"666","","f","psychophysics","92","284654","0.0-7.0-3.0-0.78","5","3","5","3","1","4","3","4","4","5","5","0","-1","0","0","-1","1","1","1","4","4","5","4","3","4","4","4","3","4","3","6","4","6","5","4","5","5","6","5","6","5","5","5","4","5","1","5","5","1","4","5","6","3","3","3","6","5","6","4","5","5","2","3","2","5","5","6","6","5","6","5","5","5","2","5","3","6","3","3","774615163172294657","s","539","Female","[""坏我"",""坏她"",""好她"",""好我""]","[""弱我"",""弱她"",""强她"",""强我""]","","","","","","","","no","","","","","","","","","SRET","EW_formal","","key","f","16.666689999999946","640","356","自己","利己","Negative","morality","","","","","","","","","","",""
"677","","f","psychophysics","93","286336","0.0-7.0-3.0-0.79","5","3","5","3","1","4","3","4","4","5","5","0","-1","0","0","-1","1","1","1","4","4","5","4","3","4","4","4","3","4","3","6","4","6","5","4","5","5","6","5","6","5","5","5","4","5","1","5","5","1","4","5","6","3","3","3","6","5","6","4","5","5","2","3","2","5","5","6","6","5","6","5","5","5","2","5","3","6","3","3","774615163172294657","s","539","Female","[""坏我"",""坏她"",""好她"",""好我""]","[""弱我"",""弱她"",""强她"",""强我""]","","","","","","","","no","","","","","","","","","SRET","EW_formal","","key","f","16.666359999999987","640","356","朋友","无私","Positive","morality","","","","","","","","","","",""
"602","","f","psychophysics","94","287942","0.0-7.0-3.0-0.80","5","3","5","3","1","4","3","4","4","5","5","0","-1","0","0","-1","1","1","1","4","4","5","4","3","4","4","4","3","4","3","6","4","6","5","4","5","5","6","5","6","5","5","5","4","5","1","5","5","1","4","5","6","3","3","3","6","5","6","4","5","5","2","3","2","5","5","6","6","5","6","5","5","5","2","5","3","6","3","3","774615163172294657","s","539","Female","[""坏我"",""坏她"",""好她"",""好我""]","[""弱我"",""弱她"",""强她"",""强我""]","","","","","","","","no","","","","","","","","","SRET","EW_formal","","key","f","16.666694736842214","640","356","朋友","虚伪","Negative","morality","","","","","","","","","","",""
"798","","f","psychophysics","95","289746","0.0-7.0-3.0-0.81","5","3","5","3","1","4","3","4","4","5","5","0","-1","0","0","-1","1","1","1","4","4","5","4","3","4","4","4","3","4","3","6","4","6","5","4","5","5","6","5","6","5","5","5","4","5","1","5","5","1","4","5","6","3","3","3","6","5","6","4","5","5","2","3","2","5","5","6","6","5","6","5","5","5","2","5","3","6","3","3","774615163172294657","s","539","Female","[""坏我"",""坏她"",""好她"",""好我""]","[""弱我"",""弱她"",""强她"",""强我""]","","","","","","","","no","","","","","","","","","SRET","EW_formal","","key","f","16.66491588785054","640","356","自己","毛糙","Negative","ability","","","","","","","","","","",""
"563","","j","psychophysics","96","291314","0.0-7.0-3.0-0.82","5","3","5","3","1","4","3","4","4","5","5","0","-1","0","0","-1","1","1","1","4","4","5","4","3","4","4","4","3","4","3","6","4","6","5","4","5","5","6","5","6","5","5","5","4","5","1","5","5","1","4","5","6","3","3","3","6","5","6","4","5","5","2","3","2","5","5","6","6","5","6","5","5","5","2","5","3","6","3","3","774615163172294657","s","539","Female","[""坏我"",""坏她"",""好她"",""好我""]","[""弱我"",""弱她"",""强她"",""强我""]","","","","","","","","yes","","","","","","","","","SRET","EW_formal","","key","j","16.66226881720446","640","356","自己","果断","Positive","ability","","","","","","","","","","",""
"562","","f","psychophysics","97","292879","0.0-7.0-3.0-0.83","5","3","5","3","1","4","3","4","4","5","5","0","-1","0","0","-1","1","1","1","4","4","5","4","3","4","4","4","3","4","3","6","4","6","5","4","5","5","6","5","6","5","5","5","4","5","1","5","5","1","4","5","6","3","3","3","6","5","6","4","5","5","2","3","2","5","5","6","6","5","6","5","5","5","2","5","3","6","3","3","774615163172294657","s","539","Female","[""坏我"",""坏她"",""好她"",""好我""]","[""弱我"",""弱她"",""强她"",""强我""]","","","","","","","","no","","","","","","","","","SRET","EW_formal","","key","f","16.662602150537353","640","356","朋友","奸诈","Negative","morality","","","","","","","","","","",""
"581","","j","psychophysics","98","294464","0.0-7.0-3.0-0.84","5","3","5","3","1","4","3","4","4","5","5","0","-1","0","0","-1","1","1","1","4","4","5","4","3","4","4","4","3","4","3","6","4","6","5","4","5","5","6","5","6","5","5","5","4","5","1","5","5","1","4","5","6","3","3","3","6","5","6","4","5","5","2","3","2","5","5","6","6","5","6","5","5","5","2","5","3","6","3","3","774615163172294657","s","539","Female","[""坏我"",""坏她"",""好她"",""好我""]","[""弱我"",""弱她"",""强她"",""强我""]","","","","","","","","yes","","","","","","","","","SRET","EW_formal","","key","j","16.66505319148951","640","356","自己","主见","Positive","ability","","","","","","","","","","",""
"626","","j","psychophysics","99","296093","0.0-7.0-3.0-0.85","5","3","5","3","1","4","3","4","4","5","5","0","-1","0","0","-1","1","1","1","4","4","5","4","3","4","4","4","3","4","3","6","4","6","5","4","5","5","6","5","6","5","5","5","4","5","1","5","5","1","4","5","6","3","3","3","6","5","6","4","5","5","2","3","2","5","5","6","6","5","6","5","5","5","2","5","3","6","3","3","774615163172294657","s","539","Female","[""坏我"",""坏她"",""好她"",""好我""]","[""弱我"",""弱她"",""强她"",""强我""]","","","","","","","","yes","","","","","","","","","SRET","EW_formal","","key","j","16.664577319587405","640","356","朋友","素养","Positive","morality","","","","","","","","","","",""
"873","","f","psychophysics","100","297972","0.0-7.0-3.0-0.86","5","3","5","3","1","4","3","4","4","5","5","0","-1","0","0","-1","1","1","1","4","4","5","4","3","4","4","4","3","4","3","6","4","6","5","4","5","5","6","5","6","5","5","5","4","5","1","5","5","1","4","5","6","3","3","3","6","5","6","4","5","5","2","3","2","5","5","6","6","5","6","5","5","5","2","5","3","6","3","3","774615163172294657","s","539","Female","[""坏我"",""坏她"",""好她"",""好我""]","[""弱我"",""弱她"",""强她"",""强我""]","","","","","","","","no","","","","","","","","","SRET","EW_formal","","key","f","16.66618750000011","640","356","自己","缓慢","Negative","ability","","","","","","","","","","",""
"877","","f","psychophysics","101","299857","0.0-7.0-3.0-0.87","5","3","5","3","1","4","3","4","4","5","5","0","-1","0","0","-1","1","1","1","4","4","5","4","3","4","4","4","3","4","3","6","4","6","5","4","5","5","6","5","6","5","5","5","4","5","1","5","5","1","4","5","6","3","3","3","6","5","6","4","5","5","2","3","2","5","5","6","6","5","6","5","5","5","2","5","3","6","3","3","774615163172294657","s","539","Female","[""坏我"",""坏她"",""好她"",""好我""]","[""弱我"",""弱她"",""强她"",""强我""]","","","","","","","","no","","","","","","","","","SRET","EW_formal","","key","f","16.66514285714324","640","356","朋友","低俗","Negative","morality","","","","","","","","","","",""
"9183","
    <p><div style='color:white;font-size:35px; line-height:20px;'>计算任务</div></p><br>
    <p><div style='color:red;font-size:25px; line-height:20px;'>接下来，您将看到一些四则运算题，<b>请从键盘选择 0-9 进行反应。</b></div></p>
    <p><div style='color:red;font-size:25px; line-height:20px;'>请尽可能快地进行计算，计算的速度和正确率将影响报酬的发放。</div></p>
    <p><div class='footer' style='color:white;font-size:25px; line-height:20px;'>如果对本实验还有不清楚之处，请立即向实验员咨询。</p><p style='color:white;font-size:25px; line-height:20px;'>如果您明白了规则：</p><p style='color:white;font-size:22px; line-height:20px;'>请按 继续 进入练习</p>
    </div>
    ","0","html-button-response","102","309042","0.0-7.0-4.0","5","3","5","3","1","4","3","4","4","5","5","0","-1","0","0","-1","1","1","1","4","4","5","4","3","4","4","4","3","4","3","6","4","6","5","4","5","5","6","5","6","5","5","5","4","5","1","5","5","1","4","5","6","3","3","3","6","5","6","4","5","5","2","3","2","5","5","6","6","5","6","5","5","5","2","5","3","6","3","3","774615163172294657","s","539","Female","[""坏我"",""坏她"",""好她"",""好我""]","[""弱我"",""弱她"",""强她"",""强我""]","","","","","","","","","","","","","","","","","SRET_math","math_instructions","Mon Dec 25 2023 20:50:45 GMT+0800 (中国标准时间)","","","","","","","","","","","","","","","","","","","",""
"2332","","9","psychophysics","103","311381","0.0-7.0-5.0-0.0","5","3","5","3","1","4","3","4","4","5","5","0","-1","0","0","-1","1","1","1","4","4","5","4","3","4","4","4","3","4","3","6","4","6","5","4","5","5","6","5","6","5","5","5","4","5","1","5","5","1","4","5","6","3","3","3","6","5","6","4","5","5","2","3","2","5","5","6","6","5","6","5","5","5","2","5","3","6","3","3","774615163172294657","s","539","Female","[""坏我"",""坏她"",""好她"",""好我""]","[""弱我"",""弱她"",""强她"",""强我""]","","","","","","","","9","","","","","","","","","SRET","SRET_math_calculate","","key","9","16.667092857142727","640","356","","","","","3+6= ?","9","1","","","","","","","",""
"3548","","5","psychophysics","104","314938","0.0-7.0-5.0-0.1","5","3","5","3","1","4","3","4","4","5","5","0","-1","0","0","-1","1","1","1","4","4","5","4","3","4","4","4","3","4","3","6","4","6","5","4","5","5","6","5","6","5","5","5","4","5","1","5","5","1","4","5","6","3","3","3","6","5","6","4","5","5","2","3","2","5","5","6","6","5","6","5","5","5","2","5","3","6","3","3","774615163172294657","s","539","Female","[""坏我"",""坏她"",""好她"",""好我""]","[""弱我"",""弱她"",""强她"",""强我""]","","","","","","","","5","","","","","","","","","SRET","SRET_math_calculate","","key","5","16.666685446009463","640","356","","","","","14-9= ?","5","1","","","","","","","",""
"2455","","3","psychophysics","105","317396","0.0-7.0-5.0-0.2","5","3","5","3","1","4","3","4","4","5","5","0","-1","0","0","-1","1","1","1","4","4","5","4","3","4","4","4","3","4","3","6","4","6","5","4","5","5","6","5","6","5","5","5","4","5","1","5","5","1","4","5","6","3","3","3","6","5","6","4","5","5","2","3","2","5","5","6","6","5","6","5","5","5","2","5","3","6","3","3","774615163172294657","s","539","Female","[""坏我"",""坏她"",""好她"",""好我""]","[""弱我"",""弱她"",""强她"",""强我""]","","","","","","","","3","","","","","","","","","SRET","SRET_math_calculate","","key","3","16.66158904109592","640","356","","","","","21/7=  ?","3","1","","","","","","","",""
"2517","","0","psychophysics","106","319917","0.0-7.0-5.0-0.3","5","3","5","3","1","4","3","4","4","5","5","0","-1","0","0","-1","1","1","1","4","4","5","4","3","4","4","4","3","4","3","6","4","6","5","4","5","5","6","5","6","5","5","5","4","5","1","5","5","1","4","5","6","3","3","3","6","5","6","4","5","5","2","3","2","5","5","6","6","5","6","5","5","5","2","5","3","6","3","3","774615163172294657","s","539","Female","[""坏我"",""坏她"",""好她"",""好我""]","[""弱我"",""弱她"",""强她"",""强我""]","","","","","","","","0","","","","","","","","","SRET","SRET_math_calculate","","key","0","16.660960000000195","640","356","","","","","7*0= ?","0","1","","","","","","","",""
"2080","","6","psychophysics","107","322004","0.0-7.0-5.0-0.4","5","3","5","3","1","4","3","4","4","5","5","0","-1","0","0","-1","1","1","1","4","4","5","4","3","4","4","4","3","4","3","6","4","6","5","4","5","5","6","5","6","5","5","5","4","5","1","5","5","1","4","5","6","3","3","3","6","5","6","4","5","5","2","3","2","5","5","6","6","5","6","5","5","5","2","5","3","6","3","3","774615163172294657","s","539","Female","[""坏我"",""坏她"",""好她"",""好我""]","[""弱我"",""弱她"",""强她"",""强我""]","","","","","","","","6","","","","","","","","","SRET","SRET_math_calculate","","key","6","16.66328799999971","640","356","","","","","8-2= ?","6","1","","","","","","","",""
"2090","","1","psychophysics","108","324097","0.0-7.0-5.0-0.5","5","3","5","3","1","4","3","4","4","5","5","0","-1","0","0","-1","1","1","1","4","4","5","4","3","4","4","4","3","4","3","6","4","6","5","4","5","5","6","5","6","5","5","5","4","5","1","5","5","1","4","5","6","3","3","3","6","5","6","4","5","5","2","3","2","5","5","6","6","5","6","5","5","5","2","5","3","6","3","3","774615163172294657","s","539","Female","[""坏我"",""坏她"",""好她"",""好我""]","[""弱我"",""弱她"",""强她"",""强我""]","","","","","","","","1","","","","","","","","","SRET","SRET_math_calculate","","key","1","16.666572580645386","640","356","","","","","10-9= ?","1","1","","","","","","","",""
"2580","","7","psychophysics","109","326680","0.0-7.0-5.0-0.6","5","3","5","3","1","4","3","4","4","5","5","0","-1","0","0","-1","1","1","1","4","4","5","4","3","4","4","4","3","4","3","6","4","6","5","4","5","5","6","5","6","5","5","5","4","5","1","5","5","1","4","5","6","3","3","3","6","5","6","4","5","5","2","3","2","5","5","6","6","5","6","5","5","5","2","5","3","6","3","3","774615163172294657","s","539","Female","[""坏我"",""坏她"",""好她"",""好我""]","[""弱我"",""弱她"",""强她"",""强我""]","","","","","","","","7","","","","","","","","","SRET","SRET_math_calculate","","key","7","16.667779220779526","640","356","","","","","49/7 = ?","7","1","","","","","","","",""
"2838","","5","psychophysics","110","329521","0.0-7.0-5.0-0.7","5","3","5","3","1","4","3","4","4","5","5","0","-1","0","0","-1","1","1","1","4","4","5","4","3","4","4","4","3","4","3","6","4","6","5","4","5","5","6","5","6","5","5","5","4","5","1","5","5","1","4","5","6","3","3","3","6","5","6","4","5","5","2","3","2","5","5","6","6","5","6","5","5","5","2","5","3","6","3","3","774615163172294657","s","539","Female","[""坏我"",""坏她"",""好她"",""好我""]","[""弱我"",""弱她"",""强她"",""强我""]","","","","","","","","5","","","","","","","","","SRET","SRET_math_calculate","","key","5","16.66671176470597","640","356","","","","","12-7= ?","5","1","","","","","","","",""
"2414","","2","psychophysics","111","331938","0.0-7.0-5.0-0.8","5","3","5","3","1","4","3","4","4","5","5","0","-1","0","0","-1","1","1","1","4","4","5","4","3","4","4","4","3","4","3","6","4","6","5","4","5","5","6","5","6","5","5","5","4","5","1","5","5","1","4","5","6","3","3","3","6","5","6","4","5","5","2","3","2","5","5","6","6","5","6","5","5","5","2","5","3","6","3","3","774615163172294657","s","539","Female","[""坏我"",""坏她"",""好她"",""好我""]","[""弱我"",""弱她"",""强她"",""强我""]","","","","","","","","2","","","","","","","","","SRET","SRET_math_calculate","","key","2","16.66449305555539","640","356","","","","","18/9= ?","2","1","","","","","","","",""
"1946","","3","psychophysics","112","333887","0.0-7.0-5.0-0.9","5","3","5","3","1","4","3","4","4","5","5","0","-1","0","0","-1","1","1","1","4","4","5","4","3","4","4","4","3","4","3","6","4","6","5","4","5","5","6","5","6","5","5","5","4","5","1","5","5","1","4","5","6","3","3","3","6","5","6","4","5","5","2","3","2","5","5","6","6","5","6","5","5","5","2","5","3","6","3","3","774615163172294657","s","539","Female","[""坏我"",""坏她"",""好她"",""好我""]","[""弱我"",""弱她"",""强她"",""强我""]","","","","","","","","3","","","","","","","","","SRET","SRET_math_calculate","","key","3","16.66661206896543","640","356","","","","","8-5= ?","3","1","","","","","","","",""
"2108","","8","psychophysics","113","336023","0.0-7.0-5.0-0.10","5","3","5","3","1","4","3","4","4","5","5","0","-1","0","0","-1","1","1","1","4","4","5","4","3","4","4","4","3","4","3","6","4","6","5","4","5","5","6","5","6","5","5","5","4","5","1","5","5","1","4","5","6","3","3","3","6","5","6","4","5","5","2","3","2","5","5","6","6","5","6","5","5","5","2","5","3","6","3","3","774615163172294657","s","539","Female","[""坏我"",""坏她"",""好她"",""好我""]","[""弱我"",""弱她"",""强她"",""强我""]","","","","","","","","8","","","","","","","","","SRET","SRET_math_calculate","","key","8","16.66523622047233","640","356","","","","","3*3= ?","9","0","","","","","","","",""
"1999","","3","psychophysics","114","338025","0.0-7.0-5.0-0.11","5","3","5","3","1","4","3","4","4","5","5","0","-1","0","0","-1","1","1","1","4","4","5","4","3","4","4","4","3","4","3","6","4","6","5","4","5","5","6","5","6","5","5","5","4","5","1","5","5","1","4","5","6","3","3","3","6","5","6","4","5","5","2","3","2","5","5","6","6","5","6","5","5","5","2","5","3","6","3","3","774615163172294657","s","539","Female","[""坏我"",""坏她"",""好她"",""好我""]","[""弱我"",""弱她"",""强她"",""强我""]","","","","","","","","3","","","","","","","","","SRET","SRET_math_calculate","","key","3","16.666605042016815","640","356","","","","","3+0= ?","3","1","","","","","","","",""
"2205","","5","psychophysics","115","340233","0.0-7.0-5.0-0.12","5","3","5","3","1","4","3","4","4","5","5","0","-1","0","0","-1","1","1","1","4","4","5","4","3","4","4","4","3","4","3","6","4","6","5","4","5","5","6","5","6","5","5","5","4","5","1","5","5","1","4","5","6","3","3","3","6","5","6","4","5","5","2","3","2","5","5","6","6","5","6","5","5","5","2","5","3","6","3","3","774615163172294657","s","539","Female","[""坏我"",""坏她"",""好她"",""好我""]","[""弱我"",""弱她"",""强她"",""强我""]","","","","","","","","5","","","","","","","","","SRET","SRET_math_calculate","","key","5","16.66651145038186","640","356","","","","","15-10= ?","5","1","","","","","","","",""
"2150","","8","psychophysics","116","342409","0.0-7.0-5.0-0.13","5","3","5","3","1","4","3","4","4","5","5","0","-1","0","0","-1","1","1","1","4","4","5","4","3","4","4","4","3","4","3","6","4","6","5","4","5","5","6","5","6","5","5","5","4","5","1","5","5","1","4","5","6","3","3","3","6","5","6","4","5","5","2","3","2","5","5","6","6","5","6","5","5","5","2","5","3","6","3","3","774615163172294657","s","539","Female","[""坏我"",""坏她"",""好她"",""好我""]","[""弱我"",""弱她"",""强她"",""强我""]","","","","","","","","8","","","","","","","","","SRET","SRET_math_calculate","","key","8","16.666792307692006","640","356","","","","","6+2= ?","8","1","","","","","","","",""
"2026","","7","psychophysics","117","344439","0.0-7.0-5.0-0.14","5","3","5","3","1","4","3","4","4","5","5","0","-1","0","0","-1","1","1","1","4","4","5","4","3","4","4","4","3","4","3","6","4","6","5","4","5","5","6","5","6","5","5","5","4","5","1","5","5","1","4","5","6","3","3","3","6","5","6","4","5","5","2","3","2","5","5","6","6","5","6","5","5","5","2","5","3","6","3","3","774615163172294657","s","539","Female","[""坏我"",""坏她"",""好她"",""好我""]","[""弱我"",""弱她"",""强她"",""强我""]","","","","","","","","7","","","","","","","","","SRET","SRET_math_calculate","","key","7","16.665322314049714","640","356","","","","","8-1= ?","7","1","","","","","","","",""
"2140","","9","psychophysics","118","346582","0.0-7.0-5.0-0.15","5","3","5","3","1","4","3","4","4","5","5","0","-1","0","0","-1","1","1","1","4","4","5","4","3","4","4","4","3","4","3","6","4","6","5","4","5","5","6","5","6","5","5","5","4","5","1","5","5","1","4","5","6","3","3","3","6","5","6","4","5","5","2","3","2","5","5","6","6","5","6","5","5","5","2","5","3","6","3","3","774615163172294657","s","539","Female","[""坏我"",""坏她"",""好她"",""好我""]","[""弱我"",""弱她"",""强她"",""强我""]","","","","","","","","9","","","","","","","","","SRET","SRET_math_calculate","","key","9","16.66562992125964","640","356","","","","","4+5= ?","9","1","","","","","","","",""
"2125","","0","psychophysics","119","348714","0.0-7.0-5.0-0.16","5","3","5","3","1","4","3","4","4","5","5","0","-1","0","0","-1","1","1","1","4","4","5","4","3","4","4","4","3","4","3","6","4","6","5","4","5","5","6","5","6","5","5","5","4","5","1","5","5","1","4","5","6","3","3","3","6","5","6","4","5","5","2","3","2","5","5","6","6","5","6","5","5","5","2","5","3","6","3","3","774615163172294657","s","539","Female","[""坏我"",""坏她"",""好她"",""好我""]","[""弱我"",""弱她"",""强她"",""强我""]","","","","","","","","0","","","","","","","","","SRET","SRET_math_calculate","","key","0","16.668598425196482","640","356","","","","","32-32= ?","0","1","","","","","","","",""
"1750","","0","psychophysics","120","350497","0.0-7.0-5.0-0.17","5","3","5","3","1","4","3","4","4","5","5","0","-1","0","0","-1","1","1","1","4","4","5","4","3","4","4","4","3","4","3","6","4","6","5","4","5","5","6","5","6","5","5","5","4","5","1","5","5","1","4","5","6","3","3","3","6","5","6","4","5","5","2","3","2","5","5","6","6","5","6","5","5","5","2","5","3","6","3","3","774615163172294657","s","539","Female","[""坏我"",""坏她"",""好她"",""好我""]","[""弱我"",""弱她"",""强她"",""强我""]","","","","","","","","0","","","","","","","","","SRET","SRET_math_calculate","","key","0","16.664566037736016","640","356","","","","","9-9= ?","0","1","","","","","","","",""
"2096","","9","psychophysics","121","352623","0.0-7.0-5.0-0.18","5","3","5","3","1","4","3","4","4","5","5","0","-1","0","0","-1","1","1","1","4","4","5","4","3","4","4","4","3","4","3","6","4","6","5","4","5","5","6","5","6","5","5","5","4","5","1","5","5","1","4","5","6","3","3","3","6","5","6","4","5","5","2","3","2","5","5","6","6","5","6","5","5","5","2","5","3","6","3","3","774615163172294657","s","539","Female","[""坏我"",""坏她"",""好她"",""好我""]","[""弱我"",""弱她"",""强她"",""强我""]","","","","","","","","9","","","","","","","","","SRET","SRET_math_calculate","","key","9","16.66616535433073","640","356","","","","","1*9= ?","9","1","","","","","","","",""
"2290","","3","psychophysics","122","354916","0.0-7.0-5.0-0.19","5","3","5","3","1","4","3","4","4","5","5","0","-1","0","0","-1","1","1","1","4","4","5","4","3","4","4","4","3","4","3","6","4","6","5","4","5","5","6","5","6","5","5","5","4","5","1","5","5","1","4","5","6","3","3","3","6","5","6","4","5","5","2","3","2","5","5","6","6","5","6","5","5","5","2","5","3","6","3","3","774615163172294657","s","539","Female","[""坏我"",""坏她"",""好她"",""好我""]","[""弱我"",""弱她"",""强她"",""强我""]","","","","","","","","3","","","","","","","","","SRET","SRET_math_calculate","","key","3","16.6644411764706","640","356","","","","","6/2= ?","3","1","","","","","","","",""
"2267","","2","psychophysics","123","357195","0.0-7.0-5.0-0.20","5","3","5","3","1","4","3","4","4","5","5","0","-1","0","0","-1","1","1","1","4","4","5","4","3","4","4","4","3","4","3","6","4","6","5","4","5","5","6","5","6","5","5","5","4","5","1","5","5","1","4","5","6","3","3","3","6","5","6","4","5","5","2","3","2","5","5","6","6","5","6","5","5","5","2","5","3","6","3","3","774615163172294657","s","539","Female","[""坏我"",""坏她"",""好她"",""好我""]","[""弱我"",""弱她"",""强她"",""强我""]","","","","","","","","2","","","","","","","","","SRET","SRET_math_calculate","","key","2","16.666455882352775","640","356","","","","","22/11= ?","2","1","","","","","","","",""
"1948","","4","psychophysics","124","359145","0.0-7.0-5.0-0.21","5","3","5","3","1","4","3","4","4","5","5","0","-1","0","0","-1","1","1","1","4","4","5","4","3","4","4","4","3","4","3","6","4","6","5","4","5","5","6","5","6","5","5","5","4","5","1","5","5","1","4","5","6","3","3","3","6","5","6","4","5","5","2","3","2","5","5","6","6","5","6","5","5","5","2","5","3","6","3","3","774615163172294657","s","539","Female","[""坏我"",""坏她"",""好她"",""好我""]","[""弱我"",""弱她"",""强她"",""强我""]","","","","","","","","4","","","","","","","","","SRET","SRET_math_calculate","","key","4","16.6687500000001","640","356","","","","","4*1= ?","4","1","","","","","","","",""
"2028","","7","psychophysics","125","361177","0.0-7.0-5.0-0.22","5","3","5","3","1","4","3","4","4","5","5","0","-1","0","0","-1","1","1","1","4","4","5","4","3","4","4","4","3","4","3","6","4","6","5","4","5","5","6","5","6","5","5","5","4","5","1","5","5","1","4","5","6","3","3","3","6","5","6","4","5","5","2","3","2","5","5","6","6","5","6","5","5","5","2","5","3","6","3","3","774615163172294657","s","539","Female","[""坏我"",""坏她"",""好她"",""好我""]","[""弱我"",""弱她"",""强她"",""强我""]","","","","","","","","7","","","","","","","","","SRET","SRET_math_calculate","","key","7","16.665272727272903","640","356","","","","","6+1= ?","7","1","","","","","","","",""
"1966","","8","psychophysics","126","363176","0.0-7.0-5.0-0.23","5","3","5","3","1","4","3","4","4","5","5","0","-1","0","0","-1","1","1","1","4","4","5","4","3","4","4","4","3","4","3","6","4","6","5","4","5","5","6","5","6","5","5","5","4","5","1","5","5","1","4","5","6","3","3","3","6","5","6","4","5","5","2","3","2","5","5","6","6","5","6","5","5","5","2","5","3","6","3","3","774615163172294657","s","539","Female","[""坏我"",""坏她"",""好她"",""好我""]","[""弱我"",""弱她"",""强她"",""强我""]","","","","","","","","8","","","","","","","","","SRET","SRET_math_calculate","","key","8","16.663327731092327","640","356","","","","","9-1= ?","8","1","","","","","","","",""
"2034","","5","psychophysics","127","365243","0.0-7.0-5.0-0.24","5","3","5","3","1","4","3","4","4","5","5","0","-1","0","0","-1","1","1","1","4","4","5","4","3","4","4","4","3","4","3","6","4","6","5","4","5","5","6","5","6","5","5","5","4","5","1","5","5","1","4","5","6","3","3","3","6","5","6","4","5","5","2","3","2","5","5","6","6","5","6","5","5","5","2","5","3","6","3","3","774615163172294657","s","539","Female","[""坏我"",""坏她"",""好她"",""好我""]","[""弱我"",""弱她"",""强她"",""强我""]","","","","","","","","5","","","","","","","","","SRET","SRET_math_calculate","","key","5","16.66353658536578","640","356","","","","","9-4= ?","5","1","","","","","","","",""
"1891","","7","psychophysics","128","367138","0.0-7.0-5.0-0.25","5","3","5","3","1","4","3","4","4","5","5","0","-1","0","0","-1","1","1","1","4","4","5","4","3","4","4","4","3","4","3","6","4","6","5","4","5","5","6","5","6","5","5","5","4","5","1","5","5","1","4","5","6","3","3","3","6","5","6","4","5","5","2","3","2","5","5","6","6","5","6","5","5","5","2","5","3","6","3","3","774615163172294657","s","539","Female","[""坏我"",""坏她"",""好她"",""好我""]","[""弱我"",""弱她"",""强她"",""强我""]","","","","","","","","7","","","","","","","","","SRET","SRET_math_calculate","","key","7","16.663044247787603","640","356","","","","","3+4= ?","7","1","","","","","","","",""
"1931","","2","psychophysics","129","369073","0.0-7.0-5.0-0.26","5","3","5","3","1","4","3","4","4","5","5","0","-1","0","0","-1","1","1","1","4","4","5","4","3","4","4","4","3","4","3","6","4","6","5","4","5","5","6","5","6","5","5","5","4","5","1","5","5","1","4","5","6","3","3","3","6","5","6","4","5","5","2","3","2","5","5","6","6","5","6","5","5","5","2","5","3","6","3","3","774615163172294657","s","539","Female","[""坏我"",""坏她"",""好她"",""好我""]","[""弱我"",""弱她"",""强她"",""强我""]","","","","","","","","2","","","","","","","","","SRET","SRET_math_calculate","","key","2","16.661339130434815","640","356","","","","","9-7= ?","2","1","","","","","","","",""
"2182","","8","psychophysics","130","371257","0.0-7.0-5.0-0.27","5","3","5","3","1","4","3","4","4","5","5","0","-1","0","0","-1","1","1","1","4","4","5","4","3","4","4","4","3","4","3","6","4","6","5","4","5","5","6","5","6","5","5","5","4","5","1","5","5","1","4","5","6","3","3","3","6","5","6","4","5","5","2","3","2","5","5","6","6","5","6","5","5","5","2","5","3","6","3","3","774615163172294657","s","539","Female","[""坏我"",""坏她"",""好她"",""好我""]","[""弱我"",""弱她"",""强她"",""强我""]","","","","","","","","8","","","","","","","","","SRET","SRET_math_calculate","","key","8","16.66608461538473","640","356","","","","","1*8= ?","8","1","","","","","","","",""
"1950","","7","psychophysics","131","373210","0.0-7.0-5.0-0.28","5","3","5","3","1","4","3","4","4","5","5","0","-1","0","0","-1","1","1","1","4","4","5","4","3","4","4","4","3","4","3","6","4","6","5","4","5","5","6","5","6","5","5","5","4","5","1","5","5","1","4","5","6","3","3","3","6","5","6","4","5","5","2","3","2","5","5","6","6","5","6","5","5","5","2","5","3","6","3","3","774615163172294657","s","539","Female","[""坏我"",""坏她"",""好她"",""好我""]","[""弱我"",""弱她"",""强她"",""强我""]","","","","","","","","7","","","","","","","","","SRET","SRET_math_calculate","","key","7","16.66331034482774","640","356","","","","","7*1=  ?","7","1","","","","","","","",""
"2128","","9","psychophysics","132","375341","0.0-7.0-5.0-0.29","5","3","5","3","1","4","3","4","4","5","5","0","-1","0","0","-1","1","1","1","4","4","5","4","3","4","4","4","3","4","3","6","4","6","5","4","5","5","6","5","6","5","5","5","4","5","1","5","5","1","4","5","6","3","3","3","6","5","6","4","5","5","2","3","2","5","5","6","6","5","6","5","5","5","2","5","3","6","3","3","774615163172294657","s","539","Female","[""坏我"",""坏她"",""好她"",""好我""]","[""弱我"",""弱她"",""强她"",""强我""]","","","","","","","","9","","","","","","","","","SRET","SRET_math_calculate","","key","9","16.666409448819056","640","356","","","","","5+4= ?","9","1","","","","","","","",""
"2087","","7","psychophysics","133","377433","0.0-7.0-5.0-0.30","5","3","5","3","1","4","3","4","4","5","5","0","-1","0","0","-1","1","1","1","4","4","5","4","3","4","4","4","3","4","3","6","4","6","5","4","5","5","6","5","6","5","5","5","4","5","1","5","5","1","4","5","6","3","3","3","6","5","6","4","5","5","2","3","2","5","5","6","6","5","6","5","5","5","2","5","3","6","3","3","774615163172294657","s","539","Female","[""坏我"",""坏她"",""好她"",""好我""]","[""弱我"",""弱她"",""强她"",""强我""]","","","","","","","","7","","","","","","","","","SRET","SRET_math_calculate","","key","7","16.665354838709803","640","356","","","","","9-2= ?","7","1","","","","","","","",""
"2053","","8","psychophysics","134","379517","0.0-7.0-5.0-0.31","5","3","5","3","1","4","3","4","4","5","5","0","-1","0","0","-1","1","1","1","4","4","5","4","3","4","4","4","3","4","3","6","4","6","5","4","5","5","6","5","6","5","5","5","4","5","1","5","5","1","4","5","6","3","3","3","6","5","6","4","5","5","2","3","2","5","5","6","6","5","6","5","5","5","2","5","3","6","3","3","774615163172294657","s","539","Female","[""坏我"",""坏她"",""好她"",""好我""]","[""弱我"",""弱她"",""强她"",""强我""]","","","","","","","","8","","","","","","","","","SRET","SRET_math_calculate","","key","8","16.666758064516245","640","356","","","","","3+5= ?","8","1","","","","","","","",""
"2160","","8","psychophysics","135","381689","0.0-7.0-5.0-0.32","5","3","5","3","1","4","3","4","4","5","5","0","-1","0","0","-1","1","1","1","4","4","5","4","3","4","4","4","3","4","3","6","4","6","5","4","5","5","6","5","6","5","5","5","4","5","1","5","5","1","4","5","6","3","3","3","6","5","6","4","5","5","2","3","2","5","5","6","6","5","6","5","5","5","2","5","3","6","3","3","774615163172294657","s","539","Female","[""坏我"",""坏她"",""好她"",""好我""]","[""弱我"",""弱她"",""强她"",""强我""]","","","","","","","","8","","","","","","","","","SRET","SRET_math_calculate","","key","8","16.666646153846074","640","356","","","","","2*4= ?","8","1","","","","","","","",""
"2364","","0","psychophysics","136","384056","0.0-7.0-5.0-0.33","5","3","5","3","1","4","3","4","4","5","5","0","-1","0","0","-1","1","1","1","4","4","5","4","3","4","4","4","3","4","3","6","4","6","5","4","5","5","6","5","6","5","5","5","4","5","1","5","5","1","4","5","6","3","3","3","6","5","6","4","5","5","2","3","2","5","5","6","6","5","6","5","5","5","2","5","3","6","3","3","774615163172294657","s","539","Female","[""坏我"",""坏她"",""好她"",""好我""]","[""弱我"",""弱她"",""强她"",""强我""]","","","","","","","","0","","","","","","","","","SRET","SRET_math_calculate","","key","0","16.662156028368805","640","356","","","","","22-22= ?","0","1","","","","","","","",""
"2103","","5","psychophysics","137","386162","0.0-7.0-5.0-0.34","5","3","5","3","1","4","3","4","4","5","5","0","-1","0","0","-1","1","1","1","4","4","5","4","3","4","4","4","3","4","3","6","4","6","5","4","5","5","6","5","6","5","5","5","4","5","1","5","5","1","4","5","6","3","3","3","6","5","6","4","5","5","2","3","2","5","5","6","6","5","6","5","5","5","2","5","3","6","3","3","774615163172294657","s","539","Female","[""坏我"",""坏她"",""好她"",""好我""]","[""弱我"",""弱她"",""强她"",""强我""]","","","","","","","","5","","","","","","","","","SRET","SRET_math_calculate","","key","5","16.662279999999797","640","356","","","","","3*2= ?","6","0","","","","","","","",""
"2037","","6","psychophysics","138","388203","0.0-7.0-5.0-0.35","5","3","5","3","1","4","3","4","4","5","5","0","-1","0","0","-1","1","1","1","4","4","5","4","3","4","4","4","3","4","3","6","4","6","5","4","5","5","6","5","6","5","5","5","4","5","1","5","5","1","4","5","6","3","3","3","6","5","6","4","5","5","2","3","2","5","5","6","6","5","6","5","5","5","2","5","3","6","3","3","774615163172294657","s","539","Female","[""坏我"",""坏她"",""好她"",""好我""]","[""弱我"",""弱她"",""强她"",""强我""]","","","","","","","","6","","","","","","","","","SRET","SRET_math_calculate","","key","6","16.659278688524836","640","356","","","","","5/1= ?","5","0","","","","","","","",""
"2488","","2","psychophysics","139","390693","0.0-7.0-5.0-0.36","5","3","5","3","1","4","3","4","4","5","5","0","-1","0","0","-1","1","1","1","4","4","5","4","3","4","4","4","3","4","3","6","4","6","5","4","5","5","6","5","6","5","5","5","4","5","1","5","5","1","4","5","6","3","3","3","6","5","6","4","5","5","2","3","2","5","5","6","6","5","6","5","5","5","2","5","3","6","3","3","774615163172294657","s","539","Female","[""坏我"",""坏她"",""好她"",""好我""]","[""弱我"",""弱她"",""强她"",""强我""]","","","","","","","","2","","","","","","","","","SRET","SRET_math_calculate","","key","2","16.668263513513455","640","356","","","","","90/45= ?","2","1","","","","","","","",""
"2500","","3","psychophysics","140","393196","0.0-7.0-5.0-0.37","5","3","5","3","1","4","3","4","4","5","5","0","-1","0","0","-1","1","1","1","4","4","5","4","3","4","4","4","3","4","3","6","4","6","5","4","5","5","6","5","6","5","5","5","4","5","1","5","5","1","4","5","6","3","3","3","6","5","6","4","5","5","2","3","2","5","5","6","6","5","6","5","5","5","2","5","3","6","3","3","774615163172294657","s","539","Female","[""坏我"",""坏她"",""好她"",""好我""]","[""弱我"",""弱她"",""强她"",""强我""]","","","","","","","","3","","","","","","","","","SRET","SRET_math_calculate","","key","3","16.660456375838898","640","356","","","","","11-8= ?","3","1","","","","","","","",""
"2282","","9","psychophysics","141","395481","0.0-7.0-5.0-0.38","5","3","5","3","1","4","3","4","4","5","5","0","-1","0","0","-1","1","1","1","4","4","5","4","3","4","4","4","3","4","3","6","4","6","5","4","5","5","6","5","6","5","5","5","4","5","1","5","5","1","4","5","6","3","3","3","6","5","6","4","5","5","2","3","2","5","5","6","6","5","6","5","5","5","2","5","3","6","3","3","774615163172294657","s","539","Female","[""坏我"",""坏她"",""好她"",""好我""]","[""弱我"",""弱她"",""强她"",""强我""]","","","","","","","","9","","","","","","","","","SRET","SRET_math_calculate","","key","9","16.664404411764682","640","356","","","","","18/2= ?","9","1","","","","","","","",""
"2060","","4","psychophysics","142","397544","0.0-7.0-5.0-0.39","5","3","5","3","1","4","3","4","4","5","5","0","-1","0","0","-1","1","1","1","4","4","5","4","3","4","4","4","3","4","3","6","4","6","5","4","5","5","6","5","6","5","5","5","4","5","1","5","5","1","4","5","6","3","3","3","6","5","6","4","5","5","2","3","2","5","5","6","6","5","6","5","5","5","2","5","3","6","3","3","774615163172294657","s","539","Female","[""坏我"",""坏她"",""好她"",""好我""]","[""弱我"",""弱她"",""强她"",""强我""]","","","","","","","","4","","","","","","","","","SRET","SRET_math_calculate","","key","4","16.659471544715846","640","356","","","","","16-11= ?","5","0","","","","","","","",""
