"rt","stimulus","response","trial_type","trial_index","time_elapsed","internal_node_id","swb_1","swb_2","swb_3","swb_4","swb_5","LOT_1","LOT_2","LOT_3","LOT_4","LOT_5","LOT_6","IPC_1","IPC_2","IPC_3","IPC_4","IPC_5","IPC_6","IPC_7","IPC_8","MorIden_1","MorIden_2","MorIden_3","MorIden_4","MorIden_5","MorIden_6","MorIden_7","MorIden_8","MorIden_9","MorIden_10","moralSeImag_1","moralSeImag_2","moralSeImag_3","moralSeImag_4","moralSeImag_5","moralSeImag_6","moralSeImag_7","moralSeImag_8","moralSeImag_9","sde_1","sde_2","sde_3","sde_4","sde_5","sde_6","sde_7","sde_8","sde_9","sde_10","trap2","sde_11","sde_12","sde_13","sde_14","sde_15","sde_16","sde_17","sde_18","sde_19","sde_20","IM_1","IM_2","IM_3","IM_4","IM_5","IM_6","IM_7","IM_8","IM_9","IM_10","IM_11","IM_12","IM_13","IM_14","IM_15","IM_16","IM_17","IM_18","IM_19","IM_20","subj_idx","friend_name","ParticipantID","Sex","Word","Word2","value","success","timeout","failed_images","failed_audio","failed_video","user_agent","responses","item_order","radio_event_ids","radio_event_times","key_event_times","mouse_event_times","straightlining","zigzagging","honeypot","view_history","response_type","key_press","avg_frame_time","center_x","center_y","correct_response","correct","identity","Image","word","condition","task_id","screen_id","time_stamp","person","valence","domain","math","status","duration","question_order","trap2_item"
"16201","
   <p><div style='color:white; font-size: 25px'>您好，欢迎参加本次实验。</div></p>
   <p><div style='color:white; font-size: 25px'>为充分保障您的权利，请确保您已经知晓并同意《参与实验同意书》以及《数据公开知情同意书》。</div></p>
   <p><div style='color:white; font-size: 25px'>如果您未见过上述内容，请咨询实验员。</div></p>
   <p style='color:white; font-size: 25px'>如果您选择继续实验，则表示您已经清楚两份知情同意书的内容并同意。</p>
   <p><div style = ""color: pink;font-size:30px;"">请确保您记得day0的实验编号，您将在本次实验输入该编号，若您忘记，请咨询实验员后作答。</div></p>
   <p><div style = ""color:lightblue;font-size:25px;"">请您尽可能认真地作答，我们将依据您在各问卷和按键任务中的作答质量发放报酬。</div></p>
   <p> <div style = ""color: green""><按空格键至下页></div> </p>
   "," ","html-keyboard-response","0","16206","0.0-0.0","7","6","6","5","6","5","4","4","5","5","5","1","-2","1","-3","1","2","1","2","5","5","5","5","4","3","5","3","4","5","7","8","5","8","8","6","8","5","6","5","5","3","6","7","7","6","6","7","5","1","6","5","7","3","6","6","7","7","7","6","3","5","2","7","2","7","6","6","7","7","7","7","7","2","5","6","1","7","3","7","783896727882305537","杜","253","Female","[""好她"",""好我"",""坏她"",""坏我""]","[""强她"",""强我"",""弱她"",""弱我""]","","","","","","","","","","","","","","","","","","","","","","","","","","","","","","","","","","","","","","",""
"","","","call-function","1","16210","0.0-1.0-0.0","7","6","6","5","6","5","4","4","5","5","5","1","-2","1","-3","1","2","1","2","5","5","5","5","4","3","5","3","4","5","7","8","5","8","8","6","8","5","6","5","5","3","6","7","7","6","6","7","5","1","6","5","7","3","6","6","7","7","7","6","3","5","2","7","2","7","6","6","7","7","7","7","7","2","5","6","1","7","3","7","783896727882305537","杜","253","Female","[""好她"",""好我"",""坏她"",""坏我""]","[""强她"",""强我"",""弱她"",""弱我""]","","","","","","","","","","","","","","","","","","","","","","","","","","","","","","","","","","","","","","",""
"20068","","[{""name"":""Sex"",""value"":""1""},{""name"":""friend_name"",""value"":""杜""},{""name"":""ParticipantID"",""value"":""253""}]","survey-html-form","2","36280","0.0-1.0-1.0","7","6","6","5","6","5","4","4","5","5","5","1","-2","1","-3","1","2","1","2","5","5","5","5","4","3","5","3","4","5","7","8","5","8","8","6","8","5","6","5","5","3","6","7","7","6","6","7","5","1","6","5","7","3","6","6","7","7","7","6","3","5","2","7","2","7","6","6","7","7","7","7","7","2","5","6","1","7","3","7","783896727882305537","杜","253","Female","[""好她"",""好我"",""坏她"",""坏我""]","[""强她"",""强我"",""弱她"",""弱我""]","","","","","","","","","","","","","","","","","","","","","","","","","","","","","","","","","","","","","","",""
"","","","preload","3","37066","0.0-2.0","7","6","6","5","6","5","4","4","5","5","5","1","-2","1","-3","1","2","1","2","5","5","5","5","4","3","5","3","4","5","7","8","5","8","8","6","8","5","6","5","5","3","6","7","7","6","6","7","5","1","6","5","7","3","6","6","7","7","7","6","3","5","2","7","2","7","6","6","7","7","7","7","7","2","5","6","1","7","3","7","783896727882305537","杜","253","Female","[""好她"",""好我"",""坏她"",""坏我""]","[""强她"",""强我"",""弱她"",""弱我""]","","true","false","[]","[]","[]","","","","","","","","","","","","","","","","","","","","","","","","","","","","","","","","",""
"","","","fullscreen","4","69743","0.0-3.0","7","6","6","5","6","5","4","4","5","5","5","1","-2","1","-3","1","2","1","2","5","5","5","5","4","3","5","3","4","5","7","8","5","8","8","6","8","5","6","5","5","3","6","7","7","6","6","7","5","1","6","5","7","3","6","6","7","7","7","6","3","5","2","7","2","7","6","6","7","7","7","7","7","2","5","6","1","7","3","7","783896727882305537","杜","253","Female","[""好她"",""好我"",""坏她"",""坏我""]","[""强她"",""强我"",""弱她"",""弱我""]","","true","","","","","{}","","","","","","","","","","","","","","","","","","","","","","","","","","","","","","","",""
"26658","","{""Q01"":""7"",""Q02"":""6"",""Q03"":""6"",""Q04"":""5"",""Q05"":""6""}","survey-template","5","96406","0.0-4.0","7","6","6","5","6","5","4","4","5","5","5","1","-2","1","-3","1","2","1","2","5","5","5","5","4","3","5","3","4","5","7","8","5","8","8","6","8","5","6","5","5","3","6","7","7","6","6","7","5","1","6","5","7","3","6","6","7","7","7","6","3","5","2","7","2","7","6","6","7","7","7","7","7","2","5","6","1","7","3","7","783896727882305537","杜","253","Female","[""好她"",""好我"",""坏她"",""坏我""]","[""强她"",""强我"",""弱她"",""弱我""]","","","","","","","","{""Q01"":""7"",""Q02"":""6"",""Q03"":""6"",""Q04"":""5"",""Q05"":""6""}","[0,1,2,3,4]","[""Q01"",""Q02"",""Q03"",""Q04"",""Q05"",""Q05""]","[7375.400000095367,8201.400000095367,9241.300000190735,18947.400000095367,19540.300000190735,25796.60000014305]","[]","[7375.400000095367,8201.400000095367,8749.300000190735,9241.300000190735,18947.400000095367,19540.300000190735,25796.60000014305,26655.800000190735]","0.6","0.75","0","","","","","","","","","","","","","","","","","","","","","","",""
"26344.900000095367","","{""Q01"":""5"",""Q02"":""4"",""Q03"":""4"",""Q04"":""5"",""Q05"":""5"",""Q06"":""5""}","survey-template","6","122753","0.0-5.0","7","6","6","5","6","5","4","4","5","5","5","1","-2","1","-3","1","2","1","2","5","5","5","5","4","3","5","3","4","5","7","8","5","8","8","6","8","5","6","5","5","3","6","7","7","6","6","7","5","1","6","5","7","3","6","6","7","7","7","6","3","5","2","7","2","7","6","6","7","7","7","7","7","2","5","6","1","7","3","7","783896727882305537","杜","253","Female","[""好她"",""好我"",""坏她"",""坏我""]","[""强她"",""强我"",""弱她"",""弱我""]","","","","","","","","{""Q01"":""5"",""Q02"":""4"",""Q03"":""4"",""Q04"":""5"",""Q05"":""5"",""Q06"":""5""}","[0,1,2,3,4,5]","[""Q01"",""Q02"",""Q03"",""Q04"",""Q05"",""Q06""]","[5613.300000190735,14625.700000047684,15661.300000190735,20214.5,23574.400000095367,25730.5]","[]","[3952.600000143051,5613.300000190735,13900.600000143051,14625.700000047684,15661.300000190735,19379.700000047684,20214.5,23574.400000095367,24932.5,25730.5,26343.200000047684]","0.3333333333333333","0.2","0","","","","","","","","","","","","","","","","","","","","","","",""
"29573.5","","{""Q01"":""1"",""Q02"":""-2"",""Q03"":""1"",""Q04"":""-3"",""Q05"":""1"",""Q06"":""2"",""Q07"":""1"",""Q08"":""2""}","survey-template","7","152334","0.0-6.0","7","6","6","5","6","5","4","4","5","5","5","1","-2","1","-3","1","2","1","2","5","5","5","5","4","3","5","3","4","5","7","8","5","8","8","6","8","5","6","5","5","3","6","7","7","6","6","7","5","1","6","5","7","3","6","6","7","7","7","6","3","5","2","7","2","7","6","6","7","7","7","7","7","2","5","6","1","7","3","7","783896727882305537","杜","253","Female","[""好她"",""好我"",""坏她"",""坏我""]","[""强她"",""强我"",""弱她"",""弱我""]","","","","","","","","{""Q01"":""1"",""Q02"":""-2"",""Q03"":""1"",""Q04"":""-3"",""Q05"":""1"",""Q06"":""2"",""Q07"":""1"",""Q08"":""2""}","[0,1,2,3,4,5,6,7]","[""Q01"",""Q02"",""Q03"",""Q04"",""Q05"",""Q06"",""Q07"",""Q08""]","[8263.699999809265,12239.399999856949,14363.399999856949,18701.799999952316,24519.199999809265,25391.599999904633,27440.89999985695,28585.799999952316]","[]","[7372.699999809265,8263.699999809265,11487.699999809265,12239.399999856949,14363.399999856949,18701.799999952316,23277.89999985695,23950.099999904633,24519.199999809265,25391.599999904633,27440.89999985695,28585.799999952316,29570.599999904633]","0.5","0.42857142857142855","0","","","","","","","","","","","","","","","","","","","","","","",""
"35688","","","instructions","8","188032","0.0-7.0","7","6","6","5","6","5","4","4","5","5","5","1","-2","1","-3","1","2","1","2","5","5","5","5","4","3","5","3","4","5","7","8","5","8","8","6","8","5","6","5","5","3","6","7","7","6","6","7","5","1","6","5","7","3","6","6","7","7","7","6","3","5","2","7","2","7","6","6","7","7","7","7","7","2","5","6","1","7","3","7","783896727882305537","杜","253","Female","[""好她"",""好我"",""坏她"",""坏我""]","[""强她"",""强我"",""弱她"",""弱我""]","","","","","","","","","","","","","","","","","[{""page_index"":0,""viewing_time"":35687}]","","","","","","","","","","","","","","","","","","","","","",""
"53559","","","instructions","9","241593","0.0-8.0-0.0-0.0","7","6","6","5","6","5","4","4","5","5","5","1","-2","1","-3","1","2","1","2","5","5","5","5","4","3","5","3","4","5","7","8","5","8","8","6","8","5","6","5","5","3","6","7","7","6","6","7","5","1","6","5","7","3","6","6","7","7","7","6","3","5","2","7","2","7","6","6","7","7","7","7","7","2","5","6","1","7","3","7","783896727882305537","杜","253","Female","[""好她"",""好我"",""坏她"",""坏我""]","[""强她"",""强我"",""弱她"",""弱我""]","","","","","","","","","","","","","","","","","[{""page_index"":0,""viewing_time"":16262},{""page_index"":1,""viewing_time"":34040},{""page_index"":2,""viewing_time"":2089},{""page_index"":3,""viewing_time"":1168}]","","","","","","","","","","","","","","","","","","","","","",""
"705","","f","psychophysics","10","243308","0.0-8.0-0.0-1.0-0.0-0.0","7","6","6","5","6","5","4","4","5","5","5","1","-2","1","-3","1","2","1","2","5","5","5","5","4","3","5","3","4","5","7","8","5","8","8","6","8","5","6","5","5","3","6","7","7","6","6","7","5","1","6","5","7","3","6","6","7","7","7","6","3","5","2","7","2","7","6","6","7","7","7","7","7","2","5","6","1","7","3","7","783896727882305537","杜","253","Female","[""好她"",""好我"",""坏她"",""坏我""]","[""强她"",""强我"",""弱她"",""弱我""]","","","","","","","","nonmatch","","","","","","","","","","key","f","21.210779220779358","960","536","f","true","nonmatch","img/hexagon.png","坏她","好她","prac_ALT2_moral","practice_moral","","","","","","","","",""
"null","<span style='color:GreenYellow; font-size: 70px;'>正确! </span>","null","html-keyboard-response","11","243815","0.0-8.0-0.0-1.0-0.0-1.0","7","6","6","5","6","5","4","4","5","5","5","1","-2","1","-3","1","2","1","2","5","5","5","5","4","3","5","3","4","5","7","8","5","8","8","6","8","5","6","5","5","3","6","7","7","6","6","7","5","1","6","5","7","3","6","6","7","7","7","6","3","5","2","7","2","7","6","6","7","7","7","7","7","2","5","6","1","7","3","7","783896727882305537","杜","253","Female","[""好她"",""好我"",""坏她"",""坏我""]","[""强她"",""强我"",""弱她"",""弱我""]","","","","","","","","","","","","","","","","","","","","","","","","","","","","","","feedback_test","","","","","","","","",""
"874","","j","psychophysics","12","245692","0.0-8.0-0.0-1.0-0.0-0.1","7","6","6","5","6","5","4","4","5","5","5","1","-2","1","-3","1","2","1","2","5","5","5","5","4","3","5","3","4","5","7","8","5","8","8","6","8","5","6","5","5","3","6","7","7","6","6","7","5","1","6","5","7","3","6","6","7","7","7","6","3","5","2","7","2","7","6","6","7","7","7","7","7","2","5","6","1","7","3","7","783896727882305537","杜","253","Female","[""好她"",""好我"",""坏她"",""坏我""]","[""强她"",""强我"",""弱她"",""弱我""]","","","","","","","","match","","","","","","","","","","key","j","18.34746999999974","960","536","j","true","match","img/hexagon.png","好她","好她","prac_ALT2_moral","practice_moral","","","","","","","","",""
"null","<span style='color:GreenYellow; font-size: 70px;'>正确! </span>","null","html-keyboard-response","13","246199","0.0-8.0-0.0-1.0-0.0-1.1","7","6","6","5","6","5","4","4","5","5","5","1","-2","1","-3","1","2","1","2","5","5","5","5","4","3","5","3","4","5","7","8","5","8","8","6","8","5","6","5","5","3","6","7","7","6","6","7","5","1","6","5","7","3","6","6","7","7","7","6","3","5","2","7","2","7","6","6","7","7","7","7","7","2","5","6","1","7","3","7","783896727882305537","杜","253","Female","[""好她"",""好我"",""坏她"",""坏我""]","[""强她"",""强我"",""弱她"",""弱我""]","","","","","","","","","","","","","","","","","","","","","","","","","","","","","","feedback_test","","","","","","","","",""
"1089","","f","psychophysics","14","248292","0.0-8.0-0.0-1.0-0.0-0.2","7","6","6","5","6","5","4","4","5","5","5","1","-2","1","-3","1","2","1","2","5","5","5","5","4","3","5","3","4","5","7","8","5","8","8","6","8","5","6","5","5","3","6","7","7","6","6","7","5","1","6","5","7","3","6","6","7","7","7","6","3","5","2","7","2","7","6","6","7","7","7","7","7","2","5","6","1","7","3","7","783896727882305537","杜","253","Female","[""好她"",""好我"",""坏她"",""坏我""]","[""强她"",""强我"",""弱她"",""弱我""]","","","","","","","","nonmatch","","","","","","","","","","key","f","19.424198113207513","960","536","f","true","nonmatch","img/trapezoid.png","好我","坏她","prac_ALT2_moral","practice_moral","","","","","","","","",""
"null","<span style='color:GreenYellow; font-size: 70px;'>正确! </span>","null","html-keyboard-response","15","248803","0.0-8.0-0.0-1.0-0.0-1.2","7","6","6","5","6","5","4","4","5","5","5","1","-2","1","-3","1","2","1","2","5","5","5","5","4","3","5","3","4","5","7","8","5","8","8","6","8","5","6","5","5","3","6","7","7","6","6","7","5","1","6","5","7","3","6","6","7","7","7","6","3","5","2","7","2","7","6","6","7","7","7","7","7","2","5","6","1","7","3","7","783896727882305537","杜","253","Female","[""好她"",""好我"",""坏她"",""坏我""]","[""强她"",""强我"",""弱她"",""弱我""]","","","","","","","","","","","","","","","","","","","","","","","","","","","","","","feedback_test","","","","","","","","",""
"1136","","f","psychophysics","16","250957","0.0-8.0-0.0-1.0-0.0-0.3","7","6","6","5","6","5","4","4","5","5","5","1","-2","1","-3","1","2","1","2","5","5","5","5","4","3","5","3","4","5","7","8","5","8","8","6","8","5","6","5","5","3","6","7","7","6","6","7","5","1","6","5","7","3","6","6","7","7","7","6","3","5","2","7","2","7","6","6","7","7","7","7","7","2","5","6","1","7","3","7","783896727882305537","杜","253","Female","[""好她"",""好我"",""坏她"",""坏我""]","[""强她"",""强我"",""弱她"",""弱我""]","","","","","","","","nonmatch","","","","","","","","","","key","f","19.325863636363646","960","536","f","true","nonmatch","img/trapezoid.png","好她","坏她","prac_ALT2_moral","practice_moral","","","","","","","","",""
"null","<span style='color:GreenYellow; font-size: 70px;'>正确! </span>","null","html-keyboard-response","17","251458","0.0-8.0-0.0-1.0-0.0-1.3","7","6","6","5","6","5","4","4","5","5","5","1","-2","1","-3","1","2","1","2","5","5","5","5","4","3","5","3","4","5","7","8","5","8","8","6","8","5","6","5","5","3","6","7","7","6","6","7","5","1","6","5","7","3","6","6","7","7","7","6","3","5","2","7","2","7","6","6","7","7","7","7","7","2","5","6","1","7","3","7","783896727882305537","杜","253","Female","[""好她"",""好我"",""坏她"",""坏我""]","[""强她"",""强我"",""弱她"",""弱我""]","","","","","","","","","","","","","","","","","","","","","","","","","","","","","","feedback_test","","","","","","","","",""
"974","","f","psychophysics","18","253437","0.0-8.0-0.0-1.0-0.0-0.4","7","6","6","5","6","5","4","4","5","5","5","1","-2","1","-3","1","2","1","2","5","5","5","5","4","3","5","3","4","5","7","8","5","8","8","6","8","5","6","5","5","3","6","7","7","6","6","7","5","1","6","5","7","3","6","6","7","7","7","6","3","5","2","7","2","7","6","6","7","7","7","7","7","2","5","6","1","7","3","7","783896727882305537","杜","253","Female","[""好她"",""好我"",""坏她"",""坏我""]","[""强她"",""强我"",""弱她"",""弱我""]","","","","","","","","nonmatch","","","","","","","","","","key","f","19.98544897959177","960","536","f","true","nonmatch","img/hexagon.png","好我","好她","prac_ALT2_moral","practice_moral","","","","","","","","",""
"null","<span style='color:GreenYellow; font-size: 70px;'>正确! </span>","null","html-keyboard-response","19","253939","0.0-8.0-0.0-1.0-0.0-1.4","7","6","6","5","6","5","4","4","5","5","5","1","-2","1","-3","1","2","1","2","5","5","5","5","4","3","5","3","4","5","7","8","5","8","8","6","8","5","6","5","5","3","6","7","7","6","6","7","5","1","6","5","7","3","6","6","7","7","7","6","3","5","2","7","2","7","6","6","7","7","7","7","7","2","5","6","1","7","3","7","783896727882305537","杜","253","Female","[""好她"",""好我"",""坏她"",""坏我""]","[""强她"",""强我"",""弱她"",""弱我""]","","","","","","","","","","","","","","","","","","","","","","","","","","","","","","feedback_test","","","","","","","","",""
"1147","","j","psychophysics","20","256089","0.0-8.0-0.0-1.0-0.0-0.5","7","6","6","5","6","5","4","4","5","5","5","1","-2","1","-3","1","2","1","2","5","5","5","5","4","3","5","3","4","5","7","8","5","8","8","6","8","5","6","5","5","3","6","7","7","6","6","7","5","1","6","5","7","3","6","6","7","7","7","6","3","5","2","7","2","7","6","6","7","7","7","7","7","2","5","6","1","7","3","7","783896727882305537","杜","253","Female","[""好她"",""好我"",""坏她"",""坏我""]","[""强她"",""强我"",""弱她"",""弱我""]","","","","","","","","match","","","","","","","","","","key","j","18.320252173913026","960","536","j","true","match","img/hexagon.png","好她","好她","prac_ALT2_moral","practice_moral","","","","","","","","",""
"null","<span style='color:GreenYellow; font-size: 70px;'>正确! </span>","null","html-keyboard-response","21","256593","0.0-8.0-0.0-1.0-0.0-1.5","7","6","6","5","6","5","4","4","5","5","5","1","-2","1","-3","1","2","1","2","5","5","5","5","4","3","5","3","4","5","7","8","5","8","8","6","8","5","6","5","5","3","6","7","7","6","6","7","5","1","6","5","7","3","6","6","7","7","7","6","3","5","2","7","2","7","6","6","7","7","7","7","7","2","5","6","1","7","3","7","783896727882305537","杜","253","Female","[""好她"",""好我"",""坏她"",""坏我""]","[""强她"",""强我"",""弱她"",""弱我""]","","","","","","","","","","","","","","","","","","","","","","","","","","","","","","feedback_test","","","","","","","","",""
"null","","null","psychophysics","22","258806","0.0-8.0-0.0-1.0-0.0-0.6","7","6","6","5","6","5","4","4","5","5","5","1","-2","1","-3","1","2","1","2","5","5","5","5","4","3","5","3","4","5","7","8","5","8","8","6","8","5","6","5","5","3","6","7","7","6","6","7","5","1","6","5","7","3","6","6","7","7","7","6","3","5","2","7","2","7","6","6","7","7","7","7","7","2","5","6","1","7","3","7","783896727882305537","杜","253","Female","[""好她"",""好我"",""坏她"",""坏我""]","[""强她"",""强我"",""弱她"",""弱我""]","","","","","","","","null","","","","","","","","","","key","null","19.82808181818162","960","536","f","false","nonmatch","img/triangle.png","坏她","坏我","prac_ALT2_moral","practice_moral","","","","","","","","",""
"null","<span class='add_' style='color:yellow; font-size: 70px;'> 太慢! </span>","null","html-keyboard-response","23","259309","0.0-8.0-0.0-1.0-0.0-1.6","7","6","6","5","6","5","4","4","5","5","5","1","-2","1","-3","1","2","1","2","5","5","5","5","4","3","5","3","4","5","7","8","5","8","8","6","8","5","6","5","5","3","6","7","7","6","6","7","5","1","6","5","7","3","6","6","7","7","7","6","3","5","2","7","2","7","6","6","7","7","7","7","7","2","5","6","1","7","3","7","783896727882305537","杜","253","Female","[""好她"",""好我"",""坏她"",""坏我""]","[""强她"",""强我"",""弱她"",""弱我""]","","","","","","","","","","","","","","","","","","","","","","","","","","","","","","feedback_test","","","","","","","","",""
"739","","f","psychophysics","24","261063","0.0-8.0-0.0-1.0-0.0-0.7","7","6","6","5","6","5","4","4","5","5","5","1","-2","1","-3","1","2","1","2","5","5","5","5","4","3","5","3","4","5","7","8","5","8","8","6","8","5","6","5","5","3","6","7","7","6","6","7","5","1","6","5","7","3","6","6","7","7","7","6","3","5","2","7","2","7","6","6","7","7","7","7","7","2","5","6","1","7","3","7","783896727882305537","杜","253","Female","[""好她"",""好我"",""坏她"",""坏我""]","[""强她"",""强我"",""弱她"",""弱我""]","","","","","","","","nonmatch","","","","","","","","","","key","f","18.795615384615203","960","536","j","false","match","img/triangle.png","坏我","坏我","prac_ALT2_moral","practice_moral","","","","","","","","",""
"null","<span style='color:red; font-size: 70px;'>错误! </span>","null","html-keyboard-response","25","261577","0.0-8.0-0.0-1.0-0.0-1.7","7","6","6","5","6","5","4","4","5","5","5","1","-2","1","-3","1","2","1","2","5","5","5","5","4","3","5","3","4","5","7","8","5","8","8","6","8","5","6","5","5","3","6","7","7","6","6","7","5","1","6","5","7","3","6","6","7","7","7","6","3","5","2","7","2","7","6","6","7","7","7","7","7","2","5","6","1","7","3","7","783896727882305537","杜","253","Female","[""好她"",""好我"",""坏她"",""坏我""]","[""强她"",""强我"",""弱她"",""弱我""]","","","","","","","","","","","","","","","","","","","","","","","","","","","","","","feedback_test","","","","","","","","",""
"701","","j","psychophysics","26","263286","0.0-8.0-0.0-1.0-0.0-0.8","7","6","6","5","6","5","4","4","5","5","5","1","-2","1","-3","1","2","1","2","5","5","5","5","4","3","5","3","4","5","7","8","5","8","8","6","8","5","6","5","5","3","6","7","7","6","6","7","5","1","6","5","7","3","6","6","7","7","7","6","3","5","2","7","2","7","6","6","7","7","7","7","7","2","5","6","1","7","3","7","783896727882305537","杜","253","Female","[""好她"",""好我"",""坏她"",""坏我""]","[""强她"",""强我"",""弱她"",""弱我""]","","","","","","","","match","","","","","","","","","","key","j","19.911904761904484","960","536","j","true","match","img/ellipse.png","好我","好我","prac_ALT2_moral","practice_moral","","","","","","","","",""
"null","<span style='color:GreenYellow; font-size: 70px;'>正确! </span>","null","html-keyboard-response","27","263789","0.0-8.0-0.0-1.0-0.0-1.8","7","6","6","5","6","5","4","4","5","5","5","1","-2","1","-3","1","2","1","2","5","5","5","5","4","3","5","3","4","5","7","8","5","8","8","6","8","5","6","5","5","3","6","7","7","6","6","7","5","1","6","5","7","3","6","6","7","7","7","6","3","5","2","7","2","7","6","6","7","7","7","7","7","2","5","6","1","7","3","7","783896727882305537","杜","253","Female","[""好她"",""好我"",""坏她"",""坏我""]","[""强她"",""强我"",""弱她"",""弱我""]","","","","","","","","","","","","","","","","","","","","","","","","","","","","","","feedback_test","","","","","","","","",""
"883","","f","psychophysics","28","265696","0.0-8.0-0.0-1.0-0.0-0.9","7","6","6","5","6","5","4","4","5","5","5","1","-2","1","-3","1","2","1","2","5","5","5","5","4","3","5","3","4","5","7","8","5","8","8","6","8","5","6","5","5","3","6","7","7","6","6","7","5","1","6","5","7","3","6","6","7","7","7","6","3","5","2","7","2","7","6","6","7","7","7","7","7","2","5","6","1","7","3","7","783896727882305537","杜","253","Female","[""好她"",""好我"",""坏她"",""坏我""]","[""强她"",""强我"",""弱她"",""弱我""]","","","","","","","","nonmatch","","","","","","","","","","key","f","19.29640206185556","960","536","f","true","nonmatch","img/ellipse.png","坏我","好我","prac_ALT2_moral","practice_moral","","","","","","","","",""
"null","<span style='color:GreenYellow; font-size: 70px;'>正确! </span>","null","html-keyboard-response","29","266204","0.0-8.0-0.0-1.0-0.0-1.9","7","6","6","5","6","5","4","4","5","5","5","1","-2","1","-3","1","2","1","2","5","5","5","5","4","3","5","3","4","5","7","8","5","8","8","6","8","5","6","5","5","3","6","7","7","6","6","7","5","1","6","5","7","3","6","6","7","7","7","6","3","5","2","7","2","7","6","6","7","7","7","7","7","2","5","6","1","7","3","7","783896727882305537","杜","253","Female","[""好她"",""好我"",""坏她"",""坏我""]","[""强她"",""强我"",""弱她"",""弱我""]","","","","","","","","","","","","","","","","","","","","","","","","","","","","","","feedback_test","","","","","","","","",""
"953","","f","psychophysics","30","268159","0.0-8.0-0.0-1.0-0.0-0.10","7","6","6","5","6","5","4","4","5","5","5","1","-2","1","-3","1","2","1","2","5","5","5","5","4","3","5","3","4","5","7","8","5","8","8","6","8","5","6","5","5","3","6","7","7","6","6","7","5","1","6","5","7","3","6","6","7","7","7","6","3","5","2","7","2","7","6","6","7","7","7","7","7","2","5","6","1","7","3","7","783896727882305537","杜","253","Female","[""好她"",""好我"",""坏她"",""坏我""]","[""强她"",""强我"",""弱她"",""弱我""]","","","","","","","","nonmatch","","","","","","","","","","key","f","18.603281553398404","960","536","f","true","nonmatch","img/triangle.png","好她","坏我","prac_ALT2_moral","practice_moral","","","","","","","","",""
"null","<span style='color:GreenYellow; font-size: 70px;'>正确! </span>","null","html-keyboard-response","31","268662","0.0-8.0-0.0-1.0-0.0-1.10","7","6","6","5","6","5","4","4","5","5","5","1","-2","1","-3","1","2","1","2","5","5","5","5","4","3","5","3","4","5","7","8","5","8","8","6","8","5","6","5","5","3","6","7","7","6","6","7","5","1","6","5","7","3","6","6","7","7","7","6","3","5","2","7","2","7","6","6","7","7","7","7","7","2","5","6","1","7","3","7","783896727882305537","杜","253","Female","[""好她"",""好我"",""坏她"",""坏我""]","[""强她"",""强我"",""弱她"",""弱我""]","","","","","","","","","","","","","","","","","","","","","","","","","","","","","","feedback_test","","","","","","","","",""
"833","","f","psychophysics","32","270510","0.0-8.0-0.0-1.0-0.0-0.11","7","6","6","5","6","5","4","4","5","5","5","1","-2","1","-3","1","2","1","2","5","5","5","5","4","3","5","3","4","5","7","8","5","8","8","6","8","5","6","5","5","3","6","7","7","6","6","7","5","1","6","5","7","3","6","6","7","7","7","6","3","5","2","7","2","7","6","6","7","7","7","7","7","2","5","6","1","7","3","7","783896727882305537","杜","253","Female","[""好她"",""好我"",""坏她"",""坏我""]","[""强她"",""强我"",""弱她"",""弱我""]","","","","","","","","nonmatch","","","","","","","","","","key","f","19.18915957446765","960","536","f","true","nonmatch","img/hexagon.png","坏我","好她","prac_ALT2_moral","practice_moral","","","","","","","","",""
"null","<span style='color:GreenYellow; font-size: 70px;'>正确! </span>","null","html-keyboard-response","33","271015","0.0-8.0-0.0-1.0-0.0-1.11","7","6","6","5","6","5","4","4","5","5","5","1","-2","1","-3","1","2","1","2","5","5","5","5","4","3","5","3","4","5","7","8","5","8","8","6","8","5","6","5","5","3","6","7","7","6","6","7","5","1","6","5","7","3","6","6","7","7","7","6","3","5","2","7","2","7","6","6","7","7","7","7","7","2","5","6","1","7","3","7","783896727882305537","杜","253","Female","[""好她"",""好我"",""坏她"",""坏我""]","[""强她"",""强我"",""弱她"",""弱我""]","","","","","","","","","","","","","","","","","","","","","","","","","","","","","","feedback_test","","","","","","","","",""
"794","","f","psychophysics","34","272812","0.0-8.0-0.0-1.0-0.0-0.12","7","6","6","5","6","5","4","4","5","5","5","1","-2","1","-3","1","2","1","2","5","5","5","5","4","3","5","3","4","5","7","8","5","8","8","6","8","5","6","5","5","3","6","7","7","6","6","7","5","1","6","5","7","3","6","6","7","7","7","6","3","5","2","7","2","7","6","6","7","7","7","7","7","2","5","6","1","7","3","7","783896727882305537","杜","253","Female","[""好她"",""好我"",""坏她"",""坏我""]","[""强她"",""强我"",""弱她"",""弱我""]","","","","","","","","nonmatch","","","","","","","","","","key","f","19.738606741572756","960","536","f","true","nonmatch","img/trapezoid.png","坏我","坏她","prac_ALT2_moral","practice_moral","","","","","","","","",""
"null","<span style='color:GreenYellow; font-size: 70px;'>正确! </span>","null","html-keyboard-response","35","273320","0.0-8.0-0.0-1.0-0.0-1.12","7","6","6","5","6","5","4","4","5","5","5","1","-2","1","-3","1","2","1","2","5","5","5","5","4","3","5","3","4","5","7","8","5","8","8","6","8","5","6","5","5","3","6","7","7","6","6","7","5","1","6","5","7","3","6","6","7","7","7","6","3","5","2","7","2","7","6","6","7","7","7","7","7","2","5","6","1","7","3","7","783896727882305537","杜","253","Female","[""好她"",""好我"",""坏她"",""坏我""]","[""强她"",""强我"",""弱她"",""弱我""]","","","","","","","","","","","","","","","","","","","","","","","","","","","","","","feedback_test","","","","","","","","",""
"805","","j","psychophysics","36","275157","0.0-8.0-0.0-1.0-0.0-0.13","7","6","6","5","6","5","4","4","5","5","5","1","-2","1","-3","1","2","1","2","5","5","5","5","4","3","5","3","4","5","7","8","5","8","8","6","8","5","6","5","5","3","6","7","7","6","6","7","5","1","6","5","7","3","6","6","7","7","7","6","3","5","2","7","2","7","6","6","7","7","7","7","7","2","5","6","1","7","3","7","783896727882305537","杜","253","Female","[""好她"",""好我"",""坏她"",""坏我""]","[""强她"",""强我"",""弱她"",""弱我""]","","","","","","","","match","","","","","","","","","","key","j","19.784813186813242","960","536","j","true","match","img/hexagon.png","好她","好她","prac_ALT2_moral","practice_moral","","","","","","","","",""
"null","<span style='color:GreenYellow; font-size: 70px;'>正确! </span>","null","html-keyboard-response","37","275671","0.0-8.0-0.0-1.0-0.0-1.13","7","6","6","5","6","5","4","4","5","5","5","1","-2","1","-3","1","2","1","2","5","5","5","5","4","3","5","3","4","5","7","8","5","8","8","6","8","5","6","5","5","3","6","7","7","6","6","7","5","1","6","5","7","3","6","6","7","7","7","6","3","5","2","7","2","7","6","6","7","7","7","7","7","2","5","6","1","7","3","7","783896727882305537","杜","253","Female","[""好她"",""好我"",""坏她"",""坏我""]","[""强她"",""强我"",""弱她"",""弱我""]","","","","","","","","","","","","","","","","","","","","","","","","","","","","","","feedback_test","","","","","","","","",""
"828","","j","psychophysics","38","277509","0.0-8.0-0.0-1.0-0.0-0.14","7","6","6","5","6","5","4","4","5","5","5","1","-2","1","-3","1","2","1","2","5","5","5","5","4","3","5","3","4","5","7","8","5","8","8","6","8","5","6","5","5","3","6","7","7","6","6","7","5","1","6","5","7","3","6","6","7","7","7","6","3","5","2","7","2","7","6","6","7","7","7","7","7","2","5","6","1","7","3","7","783896727882305537","杜","253","Female","[""好她"",""好我"",""坏她"",""坏我""]","[""强她"",""强我"",""弱她"",""弱我""]","","","","","","","","match","","","","","","","","","","key","j","19.011010526316117","960","536","j","true","match","img/trapezoid.png","坏她","坏她","prac_ALT2_moral","practice_moral","","","","","","","","",""
"null","<span style='color:GreenYellow; font-size: 70px;'>正确! </span>","null","html-keyboard-response","39","278014","0.0-8.0-0.0-1.0-0.0-1.14","7","6","6","5","6","5","4","4","5","5","5","1","-2","1","-3","1","2","1","2","5","5","5","5","4","3","5","3","4","5","7","8","5","8","8","6","8","5","6","5","5","3","6","7","7","6","6","7","5","1","6","5","7","3","6","6","7","7","7","6","3","5","2","7","2","7","6","6","7","7","7","7","7","2","5","6","1","7","3","7","783896727882305537","杜","253","Female","[""好她"",""好我"",""坏她"",""坏我""]","[""强她"",""强我"",""弱她"",""弱我""]","","","","","","","","","","","","","","","","","","","","","","","","","","","","","","feedback_test","","","","","","","","",""
"763","","j","psychophysics","40","279781","0.0-8.0-0.0-1.0-0.0-0.15","7","6","6","5","6","5","4","4","5","5","5","1","-2","1","-3","1","2","1","2","5","5","5","5","4","3","5","3","4","5","7","8","5","8","8","6","8","5","6","5","5","3","6","7","7","6","6","7","5","1","6","5","7","3","6","6","7","7","7","6","3","5","2","7","2","7","6","6","7","7","7","7","7","2","5","6","1","7","3","7","783896727882305537","杜","253","Female","[""好她"",""好我"",""坏她"",""坏我""]","[""强她"",""强我"",""弱她"",""弱我""]","","","","","","","","match","","","","","","","","","","key","j","21.1691111111108","960","536","j","true","match","img/ellipse.png","好我","好我","prac_ALT2_moral","practice_moral","","","","","","","","",""
"null","<span style='color:GreenYellow; font-size: 70px;'>正确! </span>","null","html-keyboard-response","41","280291","0.0-8.0-0.0-1.0-0.0-1.15","7","6","6","5","6","5","4","4","5","5","5","1","-2","1","-3","1","2","1","2","5","5","5","5","4","3","5","3","4","5","7","8","5","8","8","6","8","5","6","5","5","3","6","7","7","6","6","7","5","1","6","5","7","3","6","6","7","7","7","6","3","5","2","7","2","7","6","6","7","7","7","7","7","2","5","6","1","7","3","7","783896727882305537","杜","253","Female","[""好她"",""好我"",""坏她"",""坏我""]","[""强她"",""强我"",""弱她"",""弱我""]","","","","","","","","","","","","","","","","","","","","","","","","","","","","","","feedback_test","","","","","","","","",""
"607","","j","psychophysics","42","281921","0.0-8.0-0.0-1.0-0.0-0.16","7","6","6","5","6","5","4","4","5","5","5","1","-2","1","-3","1","2","1","2","5","5","5","5","4","3","5","3","4","5","7","8","5","8","8","6","8","5","6","5","5","3","6","7","7","6","6","7","5","1","6","5","7","3","6","6","7","7","7","6","3","5","2","7","2","7","6","6","7","7","7","7","7","2","5","6","1","7","3","7","783896727882305537","杜","253","Female","[""好她"",""好我"",""坏她"",""坏我""]","[""强她"",""强我"",""弱她"",""弱我""]","","","","","","","","match","","","","","","","","","","key","j","20.431564102564245","960","536","f","false","nonmatch","img/triangle.png","好我","坏我","prac_ALT2_moral","practice_moral","","","","","","","","",""
"null","<span style='color:red; font-size: 70px;'>错误! </span>","null","html-keyboard-response","43","282427","0.0-8.0-0.0-1.0-0.0-1.16","7","6","6","5","6","5","4","4","5","5","5","1","-2","1","-3","1","2","1","2","5","5","5","5","4","3","5","3","4","5","7","8","5","8","8","6","8","5","6","5","5","3","6","7","7","6","6","7","5","1","6","5","7","3","6","6","7","7","7","6","3","5","2","7","2","7","6","6","7","7","7","7","7","2","5","6","1","7","3","7","783896727882305537","杜","253","Female","[""好她"",""好我"",""坏她"",""坏我""]","[""强她"",""强我"",""弱她"",""弱我""]","","","","","","","","","","","","","","","","","","","","","","","","","","","","","","feedback_test","","","","","","","","",""
"864","","j","psychophysics","44","284307","0.0-8.0-0.0-1.0-0.0-0.17","7","6","6","5","6","5","4","4","5","5","5","1","-2","1","-3","1","2","1","2","5","5","5","5","4","3","5","3","4","5","7","8","5","8","8","6","8","5","6","5","5","3","6","7","7","6","6","7","5","1","6","5","7","3","6","6","7","7","7","6","3","5","2","7","2","7","6","6","7","7","7","7","7","2","5","6","1","7","3","7","783896727882305537","杜","253","Female","[""好她"",""好我"",""坏她"",""坏我""]","[""强她"",""强我"",""弱她"",""弱我""]","","","","","","","","match","","","","","","","","","","key","j","19.85766666666642","960","536","j","true","match","img/trapezoid.png","坏她","坏她","prac_ALT2_moral","practice_moral","","","","","","","","",""
"null","<span style='color:GreenYellow; font-size: 70px;'>正确! </span>","null","html-keyboard-response","45","284815","0.0-8.0-0.0-1.0-0.0-1.17","7","6","6","5","6","5","4","4","5","5","5","1","-2","1","-3","1","2","1","2","5","5","5","5","4","3","5","3","4","5","7","8","5","8","8","6","8","5","6","5","5","3","6","7","7","6","6","7","5","1","6","5","7","3","6","6","7","7","7","6","3","5","2","7","2","7","6","6","7","7","7","7","7","2","5","6","1","7","3","7","783896727882305537","杜","253","Female","[""好她"",""好我"",""坏她"",""坏我""]","[""强她"",""强我"",""弱她"",""弱我""]","","","","","","","","","","","","","","","","","","","","","","","","","","","","","","feedback_test","","","","","","","","",""
"751","","f","psychophysics","46","286597","0.0-8.0-0.0-1.0-0.0-0.18","7","6","6","5","6","5","4","4","5","5","5","1","-2","1","-3","1","2","1","2","5","5","5","5","4","3","5","3","4","5","7","8","5","8","8","6","8","5","6","5","5","3","6","7","7","6","6","7","5","1","6","5","7","3","6","6","7","7","7","6","3","5","2","7","2","7","6","6","7","7","7","7","7","2","5","6","1","7","3","7","783896727882305537","杜","253","Female","[""好她"",""好我"",""坏她"",""坏我""]","[""强她"",""强我"",""弱她"",""弱我""]","","","","","","","","nonmatch","","","","","","","","","","key","f","19.147109890109757","960","536","f","true","nonmatch","img/ellipse.png","坏她","好我","prac_ALT2_moral","practice_moral","","","","","","","","",""
"null","<span style='color:GreenYellow; font-size: 70px;'>正确! </span>","null","html-keyboard-response","47","287104","0.0-8.0-0.0-1.0-0.0-1.18","7","6","6","5","6","5","4","4","5","5","5","1","-2","1","-3","1","2","1","2","5","5","5","5","4","3","5","3","4","5","7","8","5","8","8","6","8","5","6","5","5","3","6","7","7","6","6","7","5","1","6","5","7","3","6","6","7","7","7","6","3","5","2","7","2","7","6","6","7","7","7","7","7","2","5","6","1","7","3","7","783896727882305537","杜","253","Female","[""好她"",""好我"",""坏她"",""坏我""]","[""强她"",""强我"",""弱她"",""弱我""]","","","","","","","","","","","","","","","","","","","","","","","","","","","","","","feedback_test","","","","","","","","",""
"1082","","j","psychophysics","48","289188","0.0-8.0-0.0-1.0-0.0-0.19","7","6","6","5","6","5","4","4","5","5","5","1","-2","1","-3","1","2","1","2","5","5","5","5","4","3","5","3","4","5","7","8","5","8","8","6","8","5","6","5","5","3","6","7","7","6","6","7","5","1","6","5","7","3","6","6","7","7","7","6","3","5","2","7","2","7","6","6","7","7","7","7","7","2","5","6","1","7","3","7","783896727882305537","杜","253","Female","[""好她"",""好我"",""坏她"",""坏我""]","[""强她"",""强我"",""弱她"",""弱我""]","","","","","","","","match","","","","","","","","","","key","j","19.010509259259347","960","536","j","true","match","img/triangle.png","坏我","坏我","prac_ALT2_moral","practice_moral","","","","","","","","",""
"null","<span style='color:GreenYellow; font-size: 70px;'>正确! </span>","null","html-keyboard-response","49","289706","0.0-8.0-0.0-1.0-0.0-1.19","7","6","6","5","6","5","4","4","5","5","5","1","-2","1","-3","1","2","1","2","5","5","5","5","4","3","5","3","4","5","7","8","5","8","8","6","8","5","6","5","5","3","6","7","7","6","6","7","5","1","6","5","7","3","6","6","7","7","7","6","3","5","2","7","2","7","6","6","7","7","7","7","7","2","5","6","1","7","3","7","783896727882305537","杜","253","Female","[""好她"",""好我"",""坏她"",""坏我""]","[""强她"",""强我"",""弱她"",""弱我""]","","","","","","","","","","","","","","","","","","","","","","","","","","","","","","feedback_test","","","","","","","","",""
"927","","j","psychophysics","50","291638","0.0-8.0-0.0-1.0-0.0-0.20","7","6","6","5","6","5","4","4","5","5","5","1","-2","1","-3","1","2","1","2","5","5","5","5","4","3","5","3","4","5","7","8","5","8","8","6","8","5","6","5","5","3","6","7","7","6","6","7","5","1","6","5","7","3","6","6","7","7","7","6","3","5","2","7","2","7","6","6","7","7","7","7","7","2","5","6","1","7","3","7","783896727882305537","杜","253","Female","[""好她"",""好我"",""坏她"",""坏我""]","[""强她"",""强我"",""弱她"",""弱我""]","","","","","","","","match","","","","","","","","","","key","j","18.789290000000037","960","536","j","true","match","img/triangle.png","坏我","坏我","prac_ALT2_moral","practice_moral","","","","","","","","",""
"null","<span style='color:GreenYellow; font-size: 70px;'>正确! </span>","null","html-keyboard-response","51","292148","0.0-8.0-0.0-1.0-0.0-1.20","7","6","6","5","6","5","4","4","5","5","5","1","-2","1","-3","1","2","1","2","5","5","5","5","4","3","5","3","4","5","7","8","5","8","8","6","8","5","6","5","5","3","6","7","7","6","6","7","5","1","6","5","7","3","6","6","7","7","7","6","3","5","2","7","2","7","6","6","7","7","7","7","7","2","5","6","1","7","3","7","783896727882305537","杜","253","Female","[""好她"",""好我"",""坏她"",""坏我""]","[""强她"",""强我"",""弱她"",""弱我""]","","","","","","","","","","","","","","","","","","","","","","","","","","","","","","feedback_test","","","","","","","","",""
"891","","f","psychophysics","52","294060","0.0-8.0-0.0-1.0-0.0-0.21","7","6","6","5","6","5","4","4","5","5","5","1","-2","1","-3","1","2","1","2","5","5","5","5","4","3","5","3","4","5","7","8","5","8","8","6","8","5","6","5","5","3","6","7","7","6","6","7","5","1","6","5","7","3","6","6","7","7","7","6","3","5","2","7","2","7","6","6","7","7","7","7","7","2","5","6","1","7","3","7","783896727882305537","杜","253","Female","[""好她"",""好我"",""坏她"",""坏我""]","[""强她"",""强我"",""弱她"",""弱我""]","","","","","","","","nonmatch","","","","","","","","","","key","f","19.193418367347107","960","536","f","true","nonmatch","img/ellipse.png","好她","好我","prac_ALT2_moral","practice_moral","","","","","","","","",""
"null","<span style='color:GreenYellow; font-size: 70px;'>正确! </span>","null","html-keyboard-response","53","294571","0.0-8.0-0.0-1.0-0.0-1.21","7","6","6","5","6","5","4","4","5","5","5","1","-2","1","-3","1","2","1","2","5","5","5","5","4","3","5","3","4","5","7","8","5","8","8","6","8","5","6","5","5","3","6","7","7","6","6","7","5","1","6","5","7","3","6","6","7","7","7","6","3","5","2","7","2","7","6","6","7","7","7","7","7","2","5","6","1","7","3","7","783896727882305537","杜","253","Female","[""好她"",""好我"",""坏她"",""坏我""]","[""强她"",""强我"",""弱她"",""弱我""]","","","","","","","","","","","","","","","","","","","","","","","","","","","","","","feedback_test","","","","","","","","",""
"921","","f","psychophysics","54","296499","0.0-8.0-0.0-1.0-0.0-0.22","7","6","6","5","6","5","4","4","5","5","5","1","-2","1","-3","1","2","1","2","5","5","5","5","4","3","5","3","4","5","7","8","5","8","8","6","8","5","6","5","5","3","6","7","7","6","6","7","5","1","6","5","7","3","6","6","7","7","7","6","3","5","2","7","2","7","6","6","7","7","7","7","7","2","5","6","1","7","3","7","783896727882305537","杜","253","Female","[""好她"",""好我"",""坏她"",""坏我""]","[""强她"",""强我"",""弱她"",""弱我""]","","","","","","","","nonmatch","","","","","","","","","","key","f","18.633613861386667","960","536","j","false","match","img/trapezoid.png","坏她","坏她","prac_ALT2_moral","practice_moral","","","","","","","","",""
"null","<span style='color:red; font-size: 70px;'>错误! </span>","null","html-keyboard-response","55","297004","0.0-8.0-0.0-1.0-0.0-1.22","7","6","6","5","6","5","4","4","5","5","5","1","-2","1","-3","1","2","1","2","5","5","5","5","4","3","5","3","4","5","7","8","5","8","8","6","8","5","6","5","5","3","6","7","7","6","6","7","5","1","6","5","7","3","6","6","7","7","7","6","3","5","2","7","2","7","6","6","7","7","7","7","7","2","5","6","1","7","3","7","783896727882305537","杜","253","Female","[""好她"",""好我"",""坏她"",""坏我""]","[""强她"",""强我"",""弱她"",""弱我""]","","","","","","","","","","","","","","","","","","","","","","","","","","","","","","feedback_test","","","","","","","","",""
"744","","j","psychophysics","56","298757","0.0-8.0-0.0-1.0-0.0-0.23","7","6","6","5","6","5","4","4","5","5","5","1","-2","1","-3","1","2","1","2","5","5","5","5","4","3","5","3","4","5","7","8","5","8","8","6","8","5","6","5","5","3","6","7","7","6","6","7","5","1","6","5","7","3","6","6","7","7","7","6","3","5","2","7","2","7","6","6","7","7","7","7","7","2","5","6","1","7","3","7","783896727882305537","杜","253","Female","[""好她"",""好我"",""坏她"",""坏我""]","[""强她"",""强我"",""弱她"",""弱我""]","","","","","","","","match","","","","","","","","","","key","j","19.056733333333007","960","536","j","true","match","img/ellipse.png","好我","好我","prac_ALT2_moral","practice_moral","","","","","","","","",""
"null","<span style='color:GreenYellow; font-size: 70px;'>正确! </span>","null","html-keyboard-response","57","299271","0.0-8.0-0.0-1.0-0.0-1.23","7","6","6","5","6","5","4","4","5","5","5","1","-2","1","-3","1","2","1","2","5","5","5","5","4","3","5","3","4","5","7","8","5","8","8","6","8","5","6","5","5","3","6","7","7","6","6","7","5","1","6","5","7","3","6","6","7","7","7","6","3","5","2","7","2","7","6","6","7","7","7","7","7","2","5","6","1","7","3","7","783896727882305537","杜","253","Female","[""好她"",""好我"",""坏她"",""坏我""]","[""强她"",""强我"",""弱她"",""弱我""]","","","","","","","","","","","","","","","","","","","","","","","","","","","","","","feedback_test","","","","","","","","",""
"1028","","j","psychophysics","58","301309","0.0-8.0-0.0-1.0-0.0-0.24","7","6","6","5","6","5","4","4","5","5","5","1","-2","1","-3","1","2","1","2","5","5","5","5","4","3","5","3","4","5","7","8","5","8","8","6","8","5","6","5","5","3","6","7","7","6","6","7","5","1","6","5","7","3","6","6","7","7","7","6","3","5","2","7","2","7","6","6","7","7","7","7","7","2","5","6","1","7","3","7","783896727882305537","杜","253","Female","[""好她"",""好我"",""坏她"",""坏我""]","[""强她"",""强我"",""弱她"",""弱我""]","","","","","","","","match","","","","","","","","","","key","j","21.065210526315862","960","536","j","true","match","img/triangle.png","坏我","坏我","prac_ALT2_moral","practice_moral","","","","","","","","",""
"null","<span style='color:GreenYellow; font-size: 70px;'>正确! </span>","null","html-keyboard-response","59","301821","0.0-8.0-0.0-1.0-0.0-1.24","7","6","6","5","6","5","4","4","5","5","5","1","-2","1","-3","1","2","1","2","5","5","5","5","4","3","5","3","4","5","7","8","5","8","8","6","8","5","6","5","5","3","6","7","7","6","6","7","5","1","6","5","7","3","6","6","7","7","7","6","3","5","2","7","2","7","6","6","7","7","7","7","7","2","5","6","1","7","3","7","783896727882305537","杜","253","Female","[""好她"",""好我"",""坏她"",""坏我""]","[""强她"",""强我"",""弱她"",""弱我""]","","","","","","","","","","","","","","","","","","","","","","","","","","","","","","feedback_test","","","","","","","","",""
"796","","f","psychophysics","60","303622","0.0-8.0-0.0-1.0-0.0-0.25","7","6","6","5","6","5","4","4","5","5","5","1","-2","1","-3","1","2","1","2","5","5","5","5","4","3","5","3","4","5","7","8","5","8","8","6","8","5","6","5","5","3","6","7","7","6","6","7","5","1","6","5","7","3","6","6","7","7","7","6","3","5","2","7","2","7","6","6","7","7","7","7","7","2","5","6","1","7","3","7","783896727882305537","杜","253","Female","[""好她"",""好我"",""坏她"",""坏我""]","[""强她"",""强我"",""弱她"",""弱我""]","","","","","","","","nonmatch","","","","","","","","","","key","f","19.465241758241753","960","536","f","true","nonmatch","img/triangle.png","坏她","坏我","prac_ALT2_moral","practice_moral","","","","","","","","",""
"null","<span style='color:GreenYellow; font-size: 70px;'>正确! </span>","null","html-keyboard-response","61","304126","0.0-8.0-0.0-1.0-0.0-1.25","7","6","6","5","6","5","4","4","5","5","5","1","-2","1","-3","1","2","1","2","5","5","5","5","4","3","5","3","4","5","7","8","5","8","8","6","8","5","6","5","5","3","6","7","7","6","6","7","5","1","6","5","7","3","6","6","7","7","7","6","3","5","2","7","2","7","6","6","7","7","7","7","7","2","5","6","1","7","3","7","783896727882305537","杜","253","Female","[""好她"",""好我"",""坏她"",""坏我""]","[""强她"",""强我"",""弱她"",""弱我""]","","","","","","","","","","","","","","","","","","","","","","","","","","","","","","feedback_test","","","","","","","","",""
"607","","f","psychophysics","62","305739","0.0-8.0-0.0-1.0-0.0-0.26","7","6","6","5","6","5","4","4","5","5","5","1","-2","1","-3","1","2","1","2","5","5","5","5","4","3","5","3","4","5","7","8","5","8","8","6","8","5","6","5","5","3","6","7","7","6","6","7","5","1","6","5","7","3","6","6","7","7","7","6","3","5","2","7","2","7","6","6","7","7","7","7","7","2","5","6","1","7","3","7","783896727882305537","杜","253","Female","[""好她"",""好我"",""坏她"",""坏我""]","[""强她"",""强我"",""弱她"",""弱我""]","","","","","","","","nonmatch","","","","","","","","","","key","f","19.70792500000025","960","536","j","false","match","img/triangle.png","坏我","坏我","prac_ALT2_moral","practice_moral","","","","","","","","",""
"null","<span style='color:red; font-size: 70px;'>错误! </span>","null","html-keyboard-response","63","306242","0.0-8.0-0.0-1.0-0.0-1.26","7","6","6","5","6","5","4","4","5","5","5","1","-2","1","-3","1","2","1","2","5","5","5","5","4","3","5","3","4","5","7","8","5","8","8","6","8","5","6","5","5","3","6","7","7","6","6","7","5","1","6","5","7","3","6","6","7","7","7","6","3","5","2","7","2","7","6","6","7","7","7","7","7","2","5","6","1","7","3","7","783896727882305537","杜","253","Female","[""好她"",""好我"",""坏她"",""坏我""]","[""强她"",""强我"",""弱她"",""弱我""]","","","","","","","","","","","","","","","","","","","","","","","","","","","","","","feedback_test","","","","","","","","",""
"745","","f","psychophysics","64","307992","0.0-8.0-0.0-1.0-0.0-0.27","7","6","6","5","6","5","4","4","5","5","5","1","-2","1","-3","1","2","1","2","5","5","5","5","4","3","5","3","4","5","7","8","5","8","8","6","8","5","6","5","5","3","6","7","7","6","6","7","5","1","6","5","7","3","6","6","7","7","7","6","3","5","2","7","2","7","6","6","7","7","7","7","7","2","5","6","1","7","3","7","783896727882305537","杜","253","Female","[""好她"",""好我"",""坏她"",""坏我""]","[""强她"",""强我"",""弱她"",""弱我""]","","","","","","","","nonmatch","","","","","","","","","","key","f","18.72585869565196","960","536","f","true","nonmatch","img/trapezoid.png","坏我","坏她","prac_ALT2_moral","practice_moral","","","","","","","","",""
"null","<span style='color:GreenYellow; font-size: 70px;'>正确! </span>","null","html-keyboard-response","65","308501","0.0-8.0-0.0-1.0-0.0-1.27","7","6","6","5","6","5","4","4","5","5","5","1","-2","1","-3","1","2","1","2","5","5","5","5","4","3","5","3","4","5","7","8","5","8","8","6","8","5","6","5","5","3","6","7","7","6","6","7","5","1","6","5","7","3","6","6","7","7","7","6","3","5","2","7","2","7","6","6","7","7","7","7","7","2","5","6","1","7","3","7","783896727882305537","杜","253","Female","[""好她"",""好我"",""坏她"",""坏我""]","[""强她"",""强我"",""弱她"",""弱我""]","","","","","","","","","","","","","","","","","","","","","","","","","","","","","","feedback_test","","","","","","","","",""
"629","","j","psychophysics","66","310156","0.0-8.0-0.0-1.0-0.0-0.28","7","6","6","5","6","5","4","4","5","5","5","1","-2","1","-3","1","2","1","2","5","5","5","5","4","3","5","3","4","5","7","8","5","8","8","6","8","5","6","5","5","3","6","7","7","6","6","7","5","1","6","5","7","3","6","6","7","7","7","6","3","5","2","7","2","7","6","6","7","7","7","7","7","2","5","6","1","7","3","7","783896727882305537","杜","253","Female","[""好她"",""好我"",""坏她"",""坏我""]","[""强她"",""强我"",""弱她"",""弱我""]","","","","","","","","match","","","","","","","","","","key","j","20.173087499999383","960","536","j","true","match","img/ellipse.png","好我","好我","prac_ALT2_moral","practice_moral","","","","","","","","",""
"null","<span style='color:GreenYellow; font-size: 70px;'>正确! </span>","null","html-keyboard-response","67","310666","0.0-8.0-0.0-1.0-0.0-1.28","7","6","6","5","6","5","4","4","5","5","5","1","-2","1","-3","1","2","1","2","5","5","5","5","4","3","5","3","4","5","7","8","5","8","8","6","8","5","6","5","5","3","6","7","7","6","6","7","5","1","6","5","7","3","6","6","7","7","7","6","3","5","2","7","2","7","6","6","7","7","7","7","7","2","5","6","1","7","3","7","783896727882305537","杜","253","Female","[""好她"",""好我"",""坏她"",""坏我""]","[""强她"",""强我"",""弱她"",""弱我""]","","","","","","","","","","","","","","","","","","","","","","","","","","","","","","feedback_test","","","","","","","","",""
"787","","f","psychophysics","68","312459","0.0-8.0-0.0-1.0-0.0-0.29","7","6","6","5","6","5","4","4","5","5","5","1","-2","1","-3","1","2","1","2","5","5","5","5","4","3","5","3","4","5","7","8","5","8","8","6","8","5","6","5","5","3","6","7","7","6","6","7","5","1","6","5","7","3","6","6","7","7","7","6","3","5","2","7","2","7","6","6","7","7","7","7","7","2","5","6","1","7","3","7","783896727882305537","杜","253","Female","[""好她"",""好我"",""坏她"",""坏我""]","[""强她"",""强我"",""弱她"",""弱我""]","","","","","","","","nonmatch","","","","","","","","","","key","f","19.974556818181803","960","536","f","true","nonmatch","img/ellipse.png","坏她","好我","prac_ALT2_moral","practice_moral","","","","","","","","",""
"null","<span style='color:GreenYellow; font-size: 70px;'>正确! </span>","null","html-keyboard-response","69","312967","0.0-8.0-0.0-1.0-0.0-1.29","7","6","6","5","6","5","4","4","5","5","5","1","-2","1","-3","1","2","1","2","5","5","5","5","4","3","5","3","4","5","7","8","5","8","8","6","8","5","6","5","5","3","6","7","7","6","6","7","5","1","6","5","7","3","6","6","7","7","7","6","3","5","2","7","2","7","6","6","7","7","7","7","7","2","5","6","1","7","3","7","783896727882305537","杜","253","Female","[""好她"",""好我"",""坏她"",""坏我""]","[""强她"",""强我"",""弱她"",""弱我""]","","","","","","","","","","","","","","","","","","","","","","","","","","","","","","feedback_test","","","","","","","","",""
"1014","","f","psychophysics","70","314985","0.0-8.0-0.0-1.0-0.0-0.30","7","6","6","5","6","5","4","4","5","5","5","1","-2","1","-3","1","2","1","2","5","5","5","5","4","3","5","3","4","5","7","8","5","8","8","6","8","5","6","5","5","3","6","7","7","6","6","7","5","1","6","5","7","3","6","6","7","7","7","6","3","5","2","7","2","7","6","6","7","7","7","7","7","2","5","6","1","7","3","7","783896727882305537","杜","253","Female","[""好她"",""好我"",""坏她"",""坏我""]","[""强她"",""强我"",""弱她"",""弱我""]","","","","","","","","nonmatch","","","","","","","","","","key","f","19.148038461538537","960","536","f","true","nonmatch","img/trapezoid.png","好她","坏她","prac_ALT2_moral","practice_moral","","","","","","","","",""
"null","<span style='color:GreenYellow; font-size: 70px;'>正确! </span>","null","html-keyboard-response","71","315487","0.0-8.0-0.0-1.0-0.0-1.30","7","6","6","5","6","5","4","4","5","5","5","1","-2","1","-3","1","2","1","2","5","5","5","5","4","3","5","3","4","5","7","8","5","8","8","6","8","5","6","5","5","3","6","7","7","6","6","7","5","1","6","5","7","3","6","6","7","7","7","6","3","5","2","7","2","7","6","6","7","7","7","7","7","2","5","6","1","7","3","7","783896727882305537","杜","253","Female","[""好她"",""好我"",""坏她"",""坏我""]","[""强她"",""强我"",""弱她"",""弱我""]","","","","","","","","","","","","","","","","","","","","","","","","","","","","","","feedback_test","","","","","","","","",""
"778","","f","psychophysics","72","317278","0.0-8.0-0.0-1.0-0.0-0.31","7","6","6","5","6","5","4","4","5","5","5","1","-2","1","-3","1","2","1","2","5","5","5","5","4","3","5","3","4","5","7","8","5","8","8","6","8","5","6","5","5","3","6","7","7","6","6","7","5","1","6","5","7","3","6","6","7","7","7","6","3","5","2","7","2","7","6","6","7","7","7","7","7","2","5","6","1","7","3","7","783896727882305537","杜","253","Female","[""好她"",""好我"",""坏她"",""坏我""]","[""强她"",""强我"",""弱她"",""弱我""]","","","","","","","","nonmatch","","","","","","","","","","key","f","19.03197826086936","960","536","f","true","nonmatch","img/triangle.png","好她","坏我","prac_ALT2_moral","practice_moral","","","","","","","","",""
"null","<span style='color:GreenYellow; font-size: 70px;'>正确! </span>","null","html-keyboard-response","73","317785","0.0-8.0-0.0-1.0-0.0-1.31","7","6","6","5","6","5","4","4","5","5","5","1","-2","1","-3","1","2","1","2","5","5","5","5","4","3","5","3","4","5","7","8","5","8","8","6","8","5","6","5","5","3","6","7","7","6","6","7","5","1","6","5","7","3","6","6","7","7","7","6","3","5","2","7","2","7","6","6","7","7","7","7","7","2","5","6","1","7","3","7","783896727882305537","杜","253","Female","[""好她"",""好我"",""坏她"",""坏我""]","[""强她"",""强我"",""弱她"",""弱我""]","","","","","","","","","","","","","","","","","","","","","","","","","","","","","","feedback_test","","","","","","","","",""
"786","","f","psychophysics","74","319603","0.0-8.0-0.0-1.0-0.0-0.32","7","6","6","5","6","5","4","4","5","5","5","1","-2","1","-3","1","2","1","2","5","5","5","5","4","3","5","3","4","5","7","8","5","8","8","6","8","5","6","5","5","3","6","7","7","6","6","7","5","1","6","5","7","3","6","6","7","7","7","6","3","5","2","7","2","7","6","6","7","7","7","7","7","2","5","6","1","7","3","7","783896727882305537","杜","253","Female","[""好她"",""好我"",""坏她"",""坏我""]","[""强她"",""强我"",""弱她"",""弱我""]","","","","","","","","nonmatch","","","","","","","","","","key","f","21.00004705882371","960","536","j","false","match","img/trapezoid.png","坏她","坏她","prac_ALT2_moral","practice_moral","","","","","","","","",""
"null","<span style='color:red; font-size: 70px;'>错误! </span>","null","html-keyboard-response","75","320117","0.0-8.0-0.0-1.0-0.0-1.32","7","6","6","5","6","5","4","4","5","5","5","1","-2","1","-3","1","2","1","2","5","5","5","5","4","3","5","3","4","5","7","8","5","8","8","6","8","5","6","5","5","3","6","7","7","6","6","7","5","1","6","5","7","3","6","6","7","7","7","6","3","5","2","7","2","7","6","6","7","7","7","7","7","2","5","6","1","7","3","7","783896727882305537","杜","253","Female","[""好她"",""好我"",""坏她"",""坏我""]","[""强她"",""强我"",""弱她"",""弱我""]","","","","","","","","","","","","","","","","","","","","","","","","","","","","","","feedback_test","","","","","","","","",""
"810","","f","psychophysics","76","321938","0.0-8.0-0.0-1.0-0.0-0.33","7","6","6","5","6","5","4","4","5","5","5","1","-2","1","-3","1","2","1","2","5","5","5","5","4","3","5","3","4","5","7","8","5","8","8","6","8","5","6","5","5","3","6","7","7","6","6","7","5","1","6","5","7","3","6","6","7","7","7","6","3","5","2","7","2","7","6","6","7","7","7","7","7","2","5","6","1","7","3","7","783896727882305537","杜","253","Female","[""好她"",""好我"",""坏她"",""坏我""]","[""强她"",""强我"",""弱她"",""弱我""]","","","","","","","","nonmatch","","","","","","","","","","key","f","19.08673118279561","960","536","f","true","nonmatch","img/hexagon.png","坏我","好她","prac_ALT2_moral","practice_moral","","","","","","","","",""
"null","<span style='color:GreenYellow; font-size: 70px;'>正确! </span>","null","html-keyboard-response","77","322452","0.0-8.0-0.0-1.0-0.0-1.33","7","6","6","5","6","5","4","4","5","5","5","1","-2","1","-3","1","2","1","2","5","5","5","5","4","3","5","3","4","5","7","8","5","8","8","6","8","5","6","5","5","3","6","7","7","6","6","7","5","1","6","5","7","3","6","6","7","7","7","6","3","5","2","7","2","7","6","6","7","7","7","7","7","2","5","6","1","7","3","7","783896727882305537","杜","253","Female","[""好她"",""好我"",""坏她"",""坏我""]","[""强她"",""强我"",""弱她"",""弱我""]","","","","","","","","","","","","","","","","","","","","","","","","","","","","","","feedback_test","","","","","","","","",""
"809","","j","psychophysics","78","324270","0.0-8.0-0.0-1.0-0.0-0.34","7","6","6","5","6","5","4","4","5","5","5","1","-2","1","-3","1","2","1","2","5","5","5","5","4","3","5","3","4","5","7","8","5","8","8","6","8","5","6","5","5","3","6","7","7","6","6","7","5","1","6","5","7","3","6","6","7","7","7","6","3","5","2","7","2","7","6","6","7","7","7","7","7","2","5","6","1","7","3","7","783896727882305537","杜","253","Female","[""好她"",""好我"",""坏她"",""坏我""]","[""强她"",""强我"",""弱她"",""弱我""]","","","","","","","","match","","","","","","","","","","key","j","19.80418888888865","960","536","f","false","nonmatch","img/hexagon.png","坏她","好她","prac_ALT2_moral","practice_moral","","","","","","","","",""
"null","<span style='color:red; font-size: 70px;'>错误! </span>","null","html-keyboard-response","79","324780","0.0-8.0-0.0-1.0-0.0-1.34","7","6","6","5","6","5","4","4","5","5","5","1","-2","1","-3","1","2","1","2","5","5","5","5","4","3","5","3","4","5","7","8","5","8","8","6","8","5","6","5","5","3","6","7","7","6","6","7","5","1","6","5","7","3","6","6","7","7","7","6","3","5","2","7","2","7","6","6","7","7","7","7","7","2","5","6","1","7","3","7","783896727882305537","杜","253","Female","[""好她"",""好我"",""坏她"",""坏我""]","[""强她"",""强我"",""弱她"",""弱我""]","","","","","","","","","","","","","","","","","","","","","","","","","","","","","","feedback_test","","","","","","","","",""
"null","","null","psychophysics","80","327005","0.0-8.0-0.0-1.0-0.0-0.35","7","6","6","5","6","5","4","4","5","5","5","1","-2","1","-3","1","2","1","2","5","5","5","5","4","3","5","3","4","5","7","8","5","8","8","6","8","5","6","5","5","3","6","7","7","6","6","7","5","1","6","5","7","3","6","6","7","7","7","6","3","5","2","7","2","7","6","6","7","7","7","7","7","2","5","6","1","7","3","7","783896727882305537","杜","253","Female","[""好她"",""好我"",""坏她"",""坏我""]","[""强她"",""强我"",""弱她"",""弱我""]","","","","","","","","null","","","","","","","","","","key","null","18.667068376068553","960","536","j","false","match","img/hexagon.png","好她","好她","prac_ALT2_moral","practice_moral","","","","","","","","",""
"null","<span class='add_' style='color:yellow; font-size: 70px;'> 太慢! </span>","null","html-keyboard-response","81","327515","0.0-8.0-0.0-1.0-0.0-1.35","7","6","6","5","6","5","4","4","5","5","5","1","-2","1","-3","1","2","1","2","5","5","5","5","4","3","5","3","4","5","7","8","5","8","8","6","8","5","6","5","5","3","6","7","7","6","6","7","5","1","6","5","7","3","6","6","7","7","7","6","3","5","2","7","2","7","6","6","7","7","7","7","7","2","5","6","1","7","3","7","783896727882305537","杜","253","Female","[""好她"",""好我"",""坏她"",""坏我""]","[""强她"",""强我"",""弱她"",""弱我""]","","","","","","","","","","","","","","","","","","","","","","","","","","","","","","feedback_test","","","","","","","","",""
"798","","f","psychophysics","82","329316","0.0-8.0-0.0-1.0-0.0-0.36","7","6","6","5","6","5","4","4","5","5","5","1","-2","1","-3","1","2","1","2","5","5","5","5","4","3","5","3","4","5","7","8","5","8","8","6","8","5","6","5","5","3","6","7","7","6","6","7","5","1","6","5","7","3","6","6","7","7","7","6","3","5","2","7","2","7","6","6","7","7","7","7","7","2","5","6","1","7","3","7","783896727882305537","杜","253","Female","[""好她"",""好我"",""坏她"",""坏我""]","[""强她"",""强我"",""弱她"",""弱我""]","","","","","","","","nonmatch","","","","","","","","","","key","f","19.840033707865565","960","536","f","true","nonmatch","img/trapezoid.png","好我","坏她","prac_ALT2_moral","practice_moral","","","","","","","","",""
"null","<span style='color:GreenYellow; font-size: 70px;'>正确! </span>","null","html-keyboard-response","83","329831","0.0-8.0-0.0-1.0-0.0-1.36","7","6","6","5","6","5","4","4","5","5","5","1","-2","1","-3","1","2","1","2","5","5","5","5","4","3","5","3","4","5","7","8","5","8","8","6","8","5","6","5","5","3","6","7","7","6","6","7","5","1","6","5","7","3","6","6","7","7","7","6","3","5","2","7","2","7","6","6","7","7","7","7","7","2","5","6","1","7","3","7","783896727882305537","杜","253","Female","[""好她"",""好我"",""坏她"",""坏我""]","[""强她"",""强我"",""弱她"",""弱我""]","","","","","","","","","","","","","","","","","","","","","","","","","","","","","","feedback_test","","","","","","","","",""
"788","","f","psychophysics","84","331625","0.0-8.0-0.0-1.0-0.0-0.37","7","6","6","5","6","5","4","4","5","5","5","1","-2","1","-3","1","2","1","2","5","5","5","5","4","3","5","3","4","5","7","8","5","8","8","6","8","5","6","5","5","3","6","7","7","6","6","7","5","1","6","5","7","3","6","6","7","7","7","6","3","5","2","7","2","7","6","6","7","7","7","7","7","2","5","6","1","7","3","7","783896727882305537","杜","253","Female","[""好她"",""好我"",""坏她"",""坏我""]","[""强她"",""强我"",""弱她"",""弱我""]","","","","","","","","nonmatch","","","","","","","","","","key","f","18.846881720429582","960","536","f","true","nonmatch","img/triangle.png","好我","坏我","prac_ALT2_moral","practice_moral","","","","","","","","",""
"null","<span style='color:GreenYellow; font-size: 70px;'>正确! </span>","null","html-keyboard-response","85","332133","0.0-8.0-0.0-1.0-0.0-1.37","7","6","6","5","6","5","4","4","5","5","5","1","-2","1","-3","1","2","1","2","5","5","5","5","4","3","5","3","4","5","7","8","5","8","8","6","8","5","6","5","5","3","6","7","7","6","6","7","5","1","6","5","7","3","6","6","7","7","7","6","3","5","2","7","2","7","6","6","7","7","7","7","7","2","5","6","1","7","3","7","783896727882305537","杜","253","Female","[""好她"",""好我"",""坏她"",""坏我""]","[""强她"",""强我"",""弱她"",""弱我""]","","","","","","","","","","","","","","","","","","","","","","","","","","","","","","feedback_test","","","","","","","","",""
"715","","f","psychophysics","86","333863","0.0-8.0-0.0-1.0-0.0-0.38","7","6","6","5","6","5","4","4","5","5","5","1","-2","1","-3","1","2","1","2","5","5","5","5","4","3","5","3","4","5","7","8","5","8","8","6","8","5","6","5","5","3","6","7","7","6","6","7","5","1","6","5","7","3","6","6","7","7","7","6","3","5","2","7","2","7","6","6","7","7","7","7","7","2","5","6","1","7","3","7","783896727882305537","杜","253","Female","[""好她"",""好我"",""坏她"",""坏我""]","[""强她"",""强我"",""弱她"",""弱我""]","","","","","","","","nonmatch","","","","","","","","","","key","f","19.664186046511574","960","536","j","false","match","img/hexagon.png","好她","好她","prac_ALT2_moral","practice_moral","","","","","","","","",""
"null","<span style='color:red; font-size: 70px;'>错误! </span>","null","html-keyboard-response","87","334370","0.0-8.0-0.0-1.0-0.0-1.38","7","6","6","5","6","5","4","4","5","5","5","1","-2","1","-3","1","2","1","2","5","5","5","5","4","3","5","3","4","5","7","8","5","8","8","6","8","5","6","5","5","3","6","7","7","6","6","7","5","1","6","5","7","3","6","6","7","7","7","6","3","5","2","7","2","7","6","6","7","7","7","7","7","2","5","6","1","7","3","7","783896727882305537","杜","253","Female","[""好她"",""好我"",""坏她"",""坏我""]","[""强她"",""强我"",""弱她"",""弱我""]","","","","","","","","","","","","","","","","","","","","","","","","","","","","","","feedback_test","","","","","","","","",""
"821","","f","psychophysics","88","336211","0.0-8.0-0.0-1.0-0.0-0.39","7","6","6","5","6","5","4","4","5","5","5","1","-2","1","-3","1","2","1","2","5","5","5","5","4","3","5","3","4","5","7","8","5","8","8","6","8","5","6","5","5","3","6","7","7","6","6","7","5","1","6","5","7","3","6","6","7","7","7","6","3","5","2","7","2","7","6","6","7","7","7","7","7","2","5","6","1","7","3","7","783896727882305537","杜","253","Female","[""好她"",""好我"",""坏她"",""坏我""]","[""强她"",""强我"",""弱她"",""弱我""]","","","","","","","","nonmatch","","","","","","","","","","key","f","19.732219780220234","960","536","j","false","match","img/hexagon.png","好她","好她","prac_ALT2_moral","practice_moral","","","","","","","","",""
"null","<span style='color:red; font-size: 70px;'>错误! </span>","null","html-keyboard-response","89","336714","0.0-8.0-0.0-1.0-0.0-1.39","7","6","6","5","6","5","4","4","5","5","5","1","-2","1","-3","1","2","1","2","5","5","5","5","4","3","5","3","4","5","7","8","5","8","8","6","8","5","6","5","5","3","6","7","7","6","6","7","5","1","6","5","7","3","6","6","7","7","7","6","3","5","2","7","2","7","6","6","7","7","7","7","7","2","5","6","1","7","3","7","783896727882305537","杜","253","Female","[""好她"",""好我"",""坏她"",""坏我""]","[""强她"",""强我"",""弱她"",""弱我""]","","","","","","","","","","","","","","","","","","","","","","","","","","","","","","feedback_test","","","","","","","","",""
"732","","j","psychophysics","90","338463","0.0-8.0-0.0-1.0-0.0-0.40","7","6","6","5","6","5","4","4","5","5","5","1","-2","1","-3","1","2","1","2","5","5","5","5","4","3","5","3","4","5","7","8","5","8","8","6","8","5","6","5","5","3","6","7","7","6","6","7","5","1","6","5","7","3","6","6","7","7","7","6","3","5","2","7","2","7","6","6","7","7","7","7","7","2","5","6","1","7","3","7","783896727882305537","杜","253","Female","[""好她"",""好我"",""坏她"",""坏我""]","[""强她"",""强我"",""弱她"",""弱我""]","","","","","","","","match","","","","","","","","","","key","j","19.838034883720887","960","536","j","true","match","img/ellipse.png","好我","好我","prac_ALT2_moral","practice_moral","","","","","","","","",""
"null","<span style='color:GreenYellow; font-size: 70px;'>正确! </span>","null","html-keyboard-response","91","338970","0.0-8.0-0.0-1.0-0.0-1.40","7","6","6","5","6","5","4","4","5","5","5","1","-2","1","-3","1","2","1","2","5","5","5","5","4","3","5","3","4","5","7","8","5","8","8","6","8","5","6","5","5","3","6","7","7","6","6","7","5","1","6","5","7","3","6","6","7","7","7","6","3","5","2","7","2","7","6","6","7","7","7","7","7","2","5","6","1","7","3","7","783896727882305537","杜","253","Female","[""好她"",""好我"",""坏她"",""坏我""]","[""强她"",""强我"",""弱她"",""弱我""]","","","","","","","","","","","","","","","","","","","","","","","","","","","","","","feedback_test","","","","","","","","",""
"821","","f","psychophysics","92","340822","0.0-8.0-0.0-1.0-0.0-0.41","7","6","6","5","6","5","4","4","5","5","5","1","-2","1","-3","1","2","1","2","5","5","5","5","4","3","5","3","4","5","7","8","5","8","8","6","8","5","6","5","5","3","6","7","7","6","6","7","5","1","6","5","7","3","6","6","7","7","7","6","3","5","2","7","2","7","6","6","7","7","7","7","7","2","5","6","1","7","3","7","783896727882305537","杜","253","Female","[""好她"",""好我"",""坏她"",""坏我""]","[""强她"",""强我"",""弱她"",""弱我""]","","","","","","","","nonmatch","","","","","","","","","","key","f","19.291446808510102","960","536","f","true","nonmatch","img/hexagon.png","好我","好她","prac_ALT2_moral","practice_moral","","","","","","","","",""
"null","<span style='color:GreenYellow; font-size: 70px;'>正确! </span>","null","html-keyboard-response","93","341332","0.0-8.0-0.0-1.0-0.0-1.41","7","6","6","5","6","5","4","4","5","5","5","1","-2","1","-3","1","2","1","2","5","5","5","5","4","3","5","3","4","5","7","8","5","8","8","6","8","5","6","5","5","3","6","7","7","6","6","7","5","1","6","5","7","3","6","6","7","7","7","6","3","5","2","7","2","7","6","6","7","7","7","7","7","2","5","6","1","7","3","7","783896727882305537","杜","253","Female","[""好她"",""好我"",""坏她"",""坏我""]","[""强她"",""强我"",""弱她"",""弱我""]","","","","","","","","","","","","","","","","","","","","","","","","","","","","","","feedback_test","","","","","","","","",""
"951","","j","psychophysics","94","343299","0.0-8.0-0.0-1.0-0.0-0.42","7","6","6","5","6","5","4","4","5","5","5","1","-2","1","-3","1","2","1","2","5","5","5","5","4","3","5","3","4","5","7","8","5","8","8","6","8","5","6","5","5","3","6","7","7","6","6","7","5","1","6","5","7","3","6","6","7","7","7","6","3","5","2","7","2","7","6","6","7","7","7","7","7","2","5","6","1","7","3","7","783896727882305537","杜","253","Female","[""好她"",""好我"",""坏她"",""坏我""]","[""强她"",""强我"",""弱她"",""弱我""]","","","","","","","","match","","","","","","","","","","key","j","20.1056354166667","960","536","j","true","match","img/triangle.png","坏我","坏我","prac_ALT2_moral","practice_moral","","","","","","","","",""
"null","<span style='color:GreenYellow; font-size: 70px;'>正确! </span>","null","html-keyboard-response","95","343801","0.0-8.0-0.0-1.0-0.0-1.42","7","6","6","5","6","5","4","4","5","5","5","1","-2","1","-3","1","2","1","2","5","5","5","5","4","3","5","3","4","5","7","8","5","8","8","6","8","5","6","5","5","3","6","7","7","6","6","7","5","1","6","5","7","3","6","6","7","7","7","6","3","5","2","7","2","7","6","6","7","7","7","7","7","2","5","6","1","7","3","7","783896727882305537","杜","253","Female","[""好她"",""好我"",""坏她"",""坏我""]","[""强她"",""强我"",""弱她"",""弱我""]","","","","","","","","","","","","","","","","","","","","","","","","","","","","","","feedback_test","","","","","","","","",""
"692","","f","psychophysics","96","345512","0.0-8.0-0.0-1.0-0.0-0.43","7","6","6","5","6","5","4","4","5","5","5","1","-2","1","-3","1","2","1","2","5","5","5","5","4","3","5","3","4","5","7","8","5","8","8","6","8","5","6","5","5","3","6","7","7","6","6","7","5","1","6","5","7","3","6","6","7","7","7","6","3","5","2","7","2","7","6","6","7","7","7","7","7","2","5","6","1","7","3","7","783896727882305537","杜","253","Female","[""好她"",""好我"",""坏她"",""坏我""]","[""强她"",""强我"",""弱她"",""弱我""]","","","","","","","","nonmatch","","","","","","","","","","key","f","18.932931818181796","960","536","f","true","nonmatch","img/ellipse.png","坏我","好我","prac_ALT2_moral","practice_moral","","","","","","","","",""
"null","<span style='color:GreenYellow; font-size: 70px;'>正确! </span>","null","html-keyboard-response","97","346014","0.0-8.0-0.0-1.0-0.0-1.43","7","6","6","5","6","5","4","4","5","5","5","1","-2","1","-3","1","2","1","2","5","5","5","5","4","3","5","3","4","5","7","8","5","8","8","6","8","5","6","5","5","3","6","7","7","6","6","7","5","1","6","5","7","3","6","6","7","7","7","6","3","5","2","7","2","7","6","6","7","7","7","7","7","2","5","6","1","7","3","7","783896727882305537","杜","253","Female","[""好她"",""好我"",""坏她"",""坏我""]","[""强她"",""强我"",""弱她"",""弱我""]","","","","","","","","","","","","","","","","","","","","","","","","","","","","","","feedback_test","","","","","","","","",""
"768","","f","psychophysics","98","347794","0.0-8.0-0.0-1.0-0.0-0.44","7","6","6","5","6","5","4","4","5","5","5","1","-2","1","-3","1","2","1","2","5","5","5","5","4","3","5","3","4","5","7","8","5","8","8","6","8","5","6","5","5","3","6","7","7","6","6","7","5","1","6","5","7","3","6","6","7","7","7","6","3","5","2","7","2","7","6","6","7","7","7","7","7","2","5","6","1","7","3","7","783896727882305537","杜","253","Female","[""好她"",""好我"",""坏她"",""坏我""]","[""强她"",""强我"",""弱她"",""弱我""]","","","","","","","","nonmatch","","","","","","","","","","key","f","20.203686046511542","960","536","f","true","nonmatch","img/ellipse.png","好她","好我","prac_ALT2_moral","practice_moral","","","","","","","","",""
"null","<span style='color:GreenYellow; font-size: 70px;'>正确! </span>","null","html-keyboard-response","99","348296","0.0-8.0-0.0-1.0-0.0-1.44","7","6","6","5","6","5","4","4","5","5","5","1","-2","1","-3","1","2","1","2","5","5","5","5","4","3","5","3","4","5","7","8","5","8","8","6","8","5","6","5","5","3","6","7","7","6","6","7","5","1","6","5","7","3","6","6","7","7","7","6","3","5","2","7","2","7","6","6","7","7","7","7","7","2","5","6","1","7","3","7","783896727882305537","杜","253","Female","[""好她"",""好我"",""坏她"",""坏我""]","[""强她"",""强我"",""弱她"",""弱我""]","","","","","","","","","","","","","","","","","","","","","","","","","","","","","","feedback_test","","","","","","","","",""
"739","","j","psychophysics","100","350048","0.0-8.0-0.0-1.0-0.0-0.45","7","6","6","5","6","5","4","4","5","5","5","1","-2","1","-3","1","2","1","2","5","5","5","5","4","3","5","3","4","5","7","8","5","8","8","6","8","5","6","5","5","3","6","7","7","6","6","7","5","1","6","5","7","3","6","6","7","7","7","6","3","5","2","7","2","7","6","6","7","7","7","7","7","2","5","6","1","7","3","7","783896727882305537","杜","253","Female","[""好她"",""好我"",""坏她"",""坏我""]","[""强她"",""强我"",""弱她"",""弱我""]","","","","","","","","match","","","","","","","","","","key","j","19.565784090908974","960","536","j","true","match","img/trapezoid.png","坏她","坏她","prac_ALT2_moral","practice_moral","","","","","","","","",""
"null","<span style='color:GreenYellow; font-size: 70px;'>正确! </span>","null","html-keyboard-response","101","350556","0.0-8.0-0.0-1.0-0.0-1.45","7","6","6","5","6","5","4","4","5","5","5","1","-2","1","-3","1","2","1","2","5","5","5","5","4","3","5","3","4","5","7","8","5","8","8","6","8","5","6","5","5","3","6","7","7","6","6","7","5","1","6","5","7","3","6","6","7","7","7","6","3","5","2","7","2","7","6","6","7","7","7","7","7","2","5","6","1","7","3","7","783896727882305537","杜","253","Female","[""好她"",""好我"",""坏她"",""坏我""]","[""强她"",""强我"",""弱她"",""弱我""]","","","","","","","","","","","","","","","","","","","","","","","","","","","","","","feedback_test","","","","","","","","",""
"632","","f","psychophysics","102","352202","0.0-8.0-0.0-1.0-0.0-0.46","7","6","6","5","6","5","4","4","5","5","5","1","-2","1","-3","1","2","1","2","5","5","5","5","4","3","5","3","4","5","7","8","5","8","8","6","8","5","6","5","5","3","6","7","7","6","6","7","5","1","6","5","7","3","6","6","7","7","7","6","3","5","2","7","2","7","6","6","7","7","7","7","7","2","5","6","1","7","3","7","783896727882305537","杜","253","Female","[""好她"",""好我"",""坏她"",""坏我""]","[""强她"",""强我"",""弱她"",""弱我""]","","","","","","","","nonmatch","","","","","","","","","","key","f","20.861233766233795","960","536","j","false","match","img/trapezoid.png","坏她","坏她","prac_ALT2_moral","practice_moral","","","","","","","","",""
"null","<span style='color:red; font-size: 70px;'>错误! </span>","null","html-keyboard-response","103","352708","0.0-8.0-0.0-1.0-0.0-1.46","7","6","6","5","6","5","4","4","5","5","5","1","-2","1","-3","1","2","1","2","5","5","5","5","4","3","5","3","4","5","7","8","5","8","8","6","8","5","6","5","5","3","6","7","7","6","6","7","5","1","6","5","7","3","6","6","7","7","7","6","3","5","2","7","2","7","6","6","7","7","7","7","7","2","5","6","1","7","3","7","783896727882305537","杜","253","Female","[""好她"",""好我"",""坏她"",""坏我""]","[""强她"",""强我"",""弱她"",""弱我""]","","","","","","","","","","","","","","","","","","","","","","","","","","","","","","feedback_test","","","","","","","","",""
"845","","j","psychophysics","104","354573","0.0-8.0-0.0-1.0-0.0-0.47","7","6","6","5","6","5","4","4","5","5","5","1","-2","1","-3","1","2","1","2","5","5","5","5","4","3","5","3","4","5","7","8","5","8","8","6","8","5","6","5","5","3","6","7","7","6","6","7","5","1","6","5","7","3","6","6","7","7","7","6","3","5","2","7","2","7","6","6","7","7","7","7","7","2","5","6","1","7","3","7","783896727882305537","杜","253","Female","[""好她"",""好我"",""坏她"",""坏我""]","[""强她"",""强我"",""弱她"",""弱我""]","","","","","","","","match","","","","","","","","","","key","j","19.237505263157534","960","536","j","true","match","img/ellipse.png","好我","好我","prac_ALT2_moral","practice_moral","","","","","","","","",""
"null","<span style='color:GreenYellow; font-size: 70px;'>正确! </span>","null","html-keyboard-response","105","355079","0.0-8.0-0.0-1.0-0.0-1.47","7","6","6","5","6","5","4","4","5","5","5","1","-2","1","-3","1","2","1","2","5","5","5","5","4","3","5","3","4","5","7","8","5","8","8","6","8","5","6","5","5","3","6","7","7","6","6","7","5","1","6","5","7","3","6","6","7","7","7","6","3","5","2","7","2","7","6","6","7","7","7","7","7","2","5","6","1","7","3","7","783896727882305537","杜","253","Female","[""好她"",""好我"",""坏她"",""坏我""]","[""强她"",""强我"",""弱她"",""弱我""]","","","","","","","","","","","","","","","","","","","","","","","","","","","","","","feedback_test","","","","","","","","",""
"19743","<style>.context{color:white; font-size: 35px; line-height:40px}</style>                            <div><p class='context'>您正确回答了77% 的试次。</p><p class='context'>您的平均反应时为850毫秒。</p><p class='context'>恭喜您完成练习。按空格键进入正式实验。</p><p class='footer' style='font-size: 35px; line-height:40px;'>请在进入正式实验实验之前将您的<span style='color: lightgreen;'>食指</span>放在电脑键盘的相应键位上进行按键。</p>"," ","html-keyboard-response","106","374826","0.0-8.0-0.0-2.0","7","6","6","5","6","5","4","4","5","5","5","1","-2","1","-3","1","2","1","2","5","5","5","5","4","3","5","3","4","5","7","8","5","8","8","6","8","5","6","5","5","3","6","7","7","6","6","7","5","1","6","5","7","3","6","6","7","7","7","6","3","5","2","7","2","7","6","6","7","7","7","7","7","2","5","6","1","7","3","7","783896727882305537","杜","253","Female","[""好她"",""好我"",""坏她"",""坏我""]","[""强她"",""强我"",""弱她"",""弱我""]","","","","","","","","","","","","","","","","","","","","","","","","","","","","","","","","","","","","","","",""
"3378","
    <p style='color: white; font-size: 22px'>请您将手指放在按键上，准备进入正式的匹配任务。</p>
    <p> <div style = ""color: green""><按空格键进入下一阶段的匹配任务></div></p>
    "," ","html-keyboard-response","107","378208","0.0-8.0-0.0-3.0","7","6","6","5","6","5","4","4","5","5","5","1","-2","1","-3","1","2","1","2","5","5","5","5","4","3","5","3","4","5","7","8","5","8","8","6","8","5","6","5","5","3","6","7","7","6","6","7","5","1","6","5","7","3","6","6","7","7","7","6","3","5","2","7","2","7","6","6","7","7","7","7","7","2","5","6","1","7","3","7","783896727882305537","杜","253","Female","[""好她"",""好我"",""坏她"",""坏我""]","[""强她"",""强我"",""弱她"",""弱我""]","","","","","","","","","","","","","","","","","","","","","","","","","","","","","","","","","","","","","","",""
"775","","f","psychophysics","108","379991","0.0-8.0-0.0-4.0-0.0-0.0","7","6","6","5","6","5","4","4","5","5","5","1","-2","1","-3","1","2","1","2","5","5","5","5","4","3","5","3","4","5","7","8","5","8","8","6","8","5","6","5","5","3","6","7","7","6","6","7","5","1","6","5","7","3","6","6","7","7","7","6","3","5","2","7","2","7","6","6","7","7","7","7","7","2","5","6","1","7","3","7","783896727882305537","杜","253","Female","[""好她"",""好我"",""坏她"",""坏我""]","[""强她"",""强我"",""弱她"",""弱我""]","","","","","","","","nonmatch","","","","","","","","","","key","f","19.030913043478073","960","536","f","true","nonmatch","img/triangle.png","好她","坏我","ALT2","moral","","","","","","","","",""
"null","<span style='color:GreenYellow; font-size: 70px;'>正确! </span>","null","html-keyboard-response","109","380502","0.0-8.0-0.0-4.0-0.0-1.0","7","6","6","5","6","5","4","4","5","5","5","1","-2","1","-3","1","2","1","2","5","5","5","5","4","3","5","3","4","5","7","8","5","8","8","6","8","5","6","5","5","3","6","7","7","6","6","7","5","1","6","5","7","3","6","6","7","7","7","6","3","5","2","7","2","7","6","6","7","7","7","7","7","2","5","6","1","7","3","7","783896727882305537","杜","253","Female","[""好她"",""好我"",""坏她"",""坏我""]","[""强她"",""强我"",""弱她"",""弱我""]","","","","","","","","","","","","","","","","","","","","","","","","","","","","","","feedback_test","","","","","","","","",""
"763","","f","psychophysics","110","382276","0.0-8.0-0.0-4.0-0.0-0.1","7","6","6","5","6","5","4","4","5","5","5","1","-2","1","-3","1","2","1","2","5","5","5","5","4","3","5","3","4","5","7","8","5","8","8","6","8","5","6","5","5","3","6","7","7","6","6","7","5","1","6","5","7","3","6","6","7","7","7","6","3","5","2","7","2","7","6","6","7","7","7","7","7","2","5","6","1","7","3","7","783896727882305537","杜","253","Female","[""好她"",""好我"",""坏她"",""坏我""]","[""强她"",""强我"",""弱她"",""弱我""]","","","","","","","","nonmatch","","","","","","","","","","key","f","18.93140659340693","960","536","j","false","match","img/hexagon.png","好她","好她","ALT2","moral","","","","","","","","",""
"null","<span style='color:red; font-size: 70px;'>错误! </span>","null","html-keyboard-response","111","382787","0.0-8.0-0.0-4.0-0.0-1.1","7","6","6","5","6","5","4","4","5","5","5","1","-2","1","-3","1","2","1","2","5","5","5","5","4","3","5","3","4","5","7","8","5","8","8","6","8","5","6","5","5","3","6","7","7","6","6","7","5","1","6","5","7","3","6","6","7","7","7","6","3","5","2","7","2","7","6","6","7","7","7","7","7","2","5","6","1","7","3","7","783896727882305537","杜","253","Female","[""好她"",""好我"",""坏她"",""坏我""]","[""强她"",""强我"",""弱她"",""弱我""]","","","","","","","","","","","","","","","","","","","","","","","","","","","","","","feedback_test","","","","","","","","",""
"678","","f","psychophysics","112","384470","0.0-8.0-0.0-4.0-0.0-0.2","7","6","6","5","6","5","4","4","5","5","5","1","-2","1","-3","1","2","1","2","5","5","5","5","4","3","5","3","4","5","7","8","5","8","8","6","8","5","6","5","5","3","6","7","7","6","6","7","5","1","6","5","7","3","6","6","7","7","7","6","3","5","2","7","2","7","6","6","7","7","7","7","7","2","5","6","1","7","3","7","783896727882305537","杜","253","Female","[""好她"",""好我"",""坏她"",""坏我""]","[""强她"",""强我"",""弱她"",""弱我""]","","","","","","","","nonmatch","","","","","","","","","","key","f","19.783666666666424","960","536","f","true","nonmatch","img/trapezoid.png","坏我","坏她","ALT2","moral","","","","","","","","",""
"null","<span style='color:GreenYellow; font-size: 70px;'>正确! </span>","null","html-keyboard-response","113","384978","0.0-8.0-0.0-4.0-0.0-1.2","7","6","6","5","6","5","4","4","5","5","5","1","-2","1","-3","1","2","1","2","5","5","5","5","4","3","5","3","4","5","7","8","5","8","8","6","8","5","6","5","5","3","6","7","7","6","6","7","5","1","6","5","7","3","6","6","7","7","7","6","3","5","2","7","2","7","6","6","7","7","7","7","7","2","5","6","1","7","3","7","783896727882305537","杜","253","Female","[""好她"",""好我"",""坏她"",""坏我""]","[""强她"",""强我"",""弱她"",""弱我""]","","","","","","","","","","","","","","","","","","","","","","","","","","","","","","feedback_test","","","","","","","","",""
"802","","j","psychophysics","114","386793","0.0-8.0-0.0-4.0-0.0-0.3","7","6","6","5","6","5","4","4","5","5","5","1","-2","1","-3","1","2","1","2","5","5","5","5","4","3","5","3","4","5","7","8","5","8","8","6","8","5","6","5","5","3","6","7","7","6","6","7","5","1","6","5","7","3","6","6","7","7","7","6","3","5","2","7","2","7","6","6","7","7","7","7","7","2","5","6","1","7","3","7","783896727882305537","杜","253","Female","[""好她"",""好我"",""坏她"",""坏我""]","[""强她"",""强我"",""弱她"",""弱我""]","","","","","","","","match","","","","","","","","","","key","j","19.214010752688075","960","536","j","true","match","img/triangle.png","坏我","坏我","ALT2","moral","","","","","","","","",""
"null","<span style='color:GreenYellow; font-size: 70px;'>正确! </span>","null","html-keyboard-response","115","387297","0.0-8.0-0.0-4.0-0.0-1.3","7","6","6","5","6","5","4","4","5","5","5","1","-2","1","-3","1","2","1","2","5","5","5","5","4","3","5","3","4","5","7","8","5","8","8","6","8","5","6","5","5","3","6","7","7","6","6","7","5","1","6","5","7","3","6","6","7","7","7","6","3","5","2","7","2","7","6","6","7","7","7","7","7","2","5","6","1","7","3","7","783896727882305537","杜","253","Female","[""好她"",""好我"",""坏她"",""坏我""]","[""强她"",""强我"",""弱她"",""弱我""]","","","","","","","","","","","","","","","","","","","","","","","","","","","","","","feedback_test","","","","","","","","",""
"754","","f","psychophysics","116","389061","0.0-8.0-0.0-4.0-0.0-0.4","7","6","6","5","6","5","4","4","5","5","5","1","-2","1","-3","1","2","1","2","5","5","5","5","4","3","5","3","4","5","7","8","5","8","8","6","8","5","6","5","5","3","6","7","7","6","6","7","5","1","6","5","7","3","6","6","7","7","7","6","3","5","2","7","2","7","6","6","7","7","7","7","7","2","5","6","1","7","3","7","783896727882305537","杜","253","Female","[""好她"",""好我"",""坏她"",""坏我""]","[""强她"",""强我"",""弱她"",""弱我""]","","","","","","","","nonmatch","","","","","","","","","","key","f","18.689956989246973","960","536","f","true","nonmatch","img/hexagon.png","坏她","好她","ALT2","moral","","","","","","","","",""
"null","<span style='color:GreenYellow; font-size: 70px;'>正确! </span>","null","html-keyboard-response","117","389569","0.0-8.0-0.0-4.0-0.0-1.4","7","6","6","5","6","5","4","4","5","5","5","1","-2","1","-3","1","2","1","2","5","5","5","5","4","3","5","3","4","5","7","8","5","8","8","6","8","5","6","5","5","3","6","7","7","6","6","7","5","1","6","5","7","3","6","6","7","7","7","6","3","5","2","7","2","7","6","6","7","7","7","7","7","2","5","6","1","7","3","7","783896727882305537","杜","253","Female","[""好她"",""好我"",""坏她"",""坏我""]","[""强她"",""强我"",""弱她"",""弱我""]","","","","","","","","","","","","","","","","","","","","","","","","","","","","","","feedback_test","","","","","","","","",""
"843","","f","psychophysics","118","391417","0.0-8.0-0.0-4.0-0.0-0.5","7","6","6","5","6","5","4","4","5","5","5","1","-2","1","-3","1","2","1","2","5","5","5","5","4","3","5","3","4","5","7","8","5","8","8","6","8","5","6","5","5","3","6","7","7","6","6","7","5","1","6","5","7","3","6","6","7","7","7","6","3","5","2","7","2","7","6","6","7","7","7","7","7","2","5","6","1","7","3","7","783896727882305537","杜","253","Female","[""好她"",""好我"",""坏她"",""坏我""]","[""强她"",""强我"",""弱她"",""弱我""]","","","","","","","","nonmatch","","","","","","","","","","key","f","19.7268043478265","960","536","f","true","nonmatch","img/trapezoid.png","好我","坏她","ALT2","moral","","","","","","","","",""
"null","<span style='color:GreenYellow; font-size: 70px;'>正确! </span>","null","html-keyboard-response","119","391920","0.0-8.0-0.0-4.0-0.0-1.5","7","6","6","5","6","5","4","4","5","5","5","1","-2","1","-3","1","2","1","2","5","5","5","5","4","3","5","3","4","5","7","8","5","8","8","6","8","5","6","5","5","3","6","7","7","6","6","7","5","1","6","5","7","3","6","6","7","7","7","6","3","5","2","7","2","7","6","6","7","7","7","7","7","2","5","6","1","7","3","7","783896727882305537","杜","253","Female","[""好她"",""好我"",""坏她"",""坏我""]","[""强她"",""强我"",""弱她"",""弱我""]","","","","","","","","","","","","","","","","","","","","","","","","","","","","","","feedback_test","","","","","","","","",""
"918","","j","psychophysics","120","393843","0.0-8.0-0.0-4.0-0.0-0.6","7","6","6","5","6","5","4","4","5","5","5","1","-2","1","-3","1","2","1","2","5","5","5","5","4","3","5","3","4","5","7","8","5","8","8","6","8","5","6","5","5","3","6","7","7","6","6","7","5","1","6","5","7","3","6","6","7","7","7","6","3","5","2","7","2","7","6","6","7","7","7","7","7","2","5","6","1","7","3","7","783896727882305537","杜","253","Female","[""好她"",""好我"",""坏她"",""坏我""]","[""强她"",""强我"",""弱她"",""弱我""]","","","","","","","","match","","","","","","","","","","key","j","20.982522222221856","960","536","j","true","match","img/hexagon.png","好她","好她","ALT2","moral","","","","","","","","",""
"null","<span style='color:GreenYellow; font-size: 70px;'>正确! </span>","null","html-keyboard-response","121","394350","0.0-8.0-0.0-4.0-0.0-1.6","7","6","6","5","6","5","4","4","5","5","5","1","-2","1","-3","1","2","1","2","5","5","5","5","4","3","5","3","4","5","7","8","5","8","8","6","8","5","6","5","5","3","6","7","7","6","6","7","5","1","6","5","7","3","6","6","7","7","7","6","3","5","2","7","2","7","6","6","7","7","7","7","7","2","5","6","1","7","3","7","783896727882305537","杜","253","Female","[""好她"",""好我"",""坏她"",""坏我""]","[""强她"",""强我"",""弱她"",""弱我""]","","","","","","","","","","","","","","","","","","","","","","","","","","","","","","feedback_test","","","","","","","","",""
"1113","","j","psychophysics","122","396477","0.0-8.0-0.0-4.0-0.0-0.7","7","6","6","5","6","5","4","4","5","5","5","1","-2","1","-3","1","2","1","2","5","5","5","5","4","3","5","3","4","5","7","8","5","8","8","6","8","5","6","5","5","3","6","7","7","6","6","7","5","1","6","5","7","3","6","6","7","7","7","6","3","5","2","7","2","7","6","6","7","7","7","7","7","2","5","6","1","7","3","7","783896727882305537","杜","253","Female","[""好她"",""好我"",""坏她"",""坏我""]","[""强她"",""强我"",""弱她"",""弱我""]","","","","","","","","match","","","","","","","","","","key","j","18.746495495495797","960","536","f","false","nonmatch","img/ellipse.png","好她","好我","ALT2","moral","","","","","","","","",""
"null","<span style='color:red; font-size: 70px;'>错误! </span>","null","html-keyboard-response","123","396979","0.0-8.0-0.0-4.0-0.0-1.7","7","6","6","5","6","5","4","4","5","5","5","1","-2","1","-3","1","2","1","2","5","5","5","5","4","3","5","3","4","5","7","8","5","8","8","6","8","5","6","5","5","3","6","7","7","6","6","7","5","1","6","5","7","3","6","6","7","7","7","6","3","5","2","7","2","7","6","6","7","7","7","7","7","2","5","6","1","7","3","7","783896727882305537","杜","253","Female","[""好她"",""好我"",""坏她"",""坏我""]","[""强她"",""强我"",""弱她"",""弱我""]","","","","","","","","","","","","","","","","","","","","","","","","","","","","","","feedback_test","","","","","","","","",""
"770","","f","psychophysics","124","398765","0.0-8.0-0.0-4.0-0.0-0.8","7","6","6","5","6","5","4","4","5","5","5","1","-2","1","-3","1","2","1","2","5","5","5","5","4","3","5","3","4","5","7","8","5","8","8","6","8","5","6","5","5","3","6","7","7","6","6","7","5","1","6","5","7","3","6","6","7","7","7","6","3","5","2","7","2","7","6","6","7","7","7","7","7","2","5","6","1","7","3","7","783896727882305537","杜","253","Female","[""好她"",""好我"",""坏她"",""坏我""]","[""强她"",""强我"",""弱她"",""弱我""]","","","","","","","","nonmatch","","","","","","","","","","key","f","19.76881818181838","960","536","f","true","nonmatch","img/ellipse.png","坏她","好我","ALT2","moral","","","","","","","","",""
"null","<span style='color:GreenYellow; font-size: 70px;'>正确! </span>","null","html-keyboard-response","125","399277","0.0-8.0-0.0-4.0-0.0-1.8","7","6","6","5","6","5","4","4","5","5","5","1","-2","1","-3","1","2","1","2","5","5","5","5","4","3","5","3","4","5","7","8","5","8","8","6","8","5","6","5","5","3","6","7","7","6","6","7","5","1","6","5","7","3","6","6","7","7","7","6","3","5","2","7","2","7","6","6","7","7","7","7","7","2","5","6","1","7","3","7","783896727882305537","杜","253","Female","[""好她"",""好我"",""坏她"",""坏我""]","[""强她"",""强我"",""弱她"",""弱我""]","","","","","","","","","","","","","","","","","","","","","","","","","","","","","","feedback_test","","","","","","","","",""
"761","","f","psychophysics","126","401065","0.0-8.0-0.0-4.0-0.0-0.9","7","6","6","5","6","5","4","4","5","5","5","1","-2","1","-3","1","2","1","2","5","5","5","5","4","3","5","3","4","5","7","8","5","8","8","6","8","5","6","5","5","3","6","7","7","6","6","7","5","1","6","5","7","3","6","6","7","7","7","6","3","5","2","7","2","7","6","6","7","7","7","7","7","2","5","6","1","7","3","7","783896727882305537","杜","253","Female","[""好她"",""好我"",""坏她"",""坏我""]","[""强她"",""强我"",""弱她"",""弱我""]","","","","","","","","nonmatch","","","","","","","","","","key","f","19.521199999999954","960","536","f","true","nonmatch","img/hexagon.png","坏我","好她","ALT2","moral","","","","","","","","",""
"null","<span style='color:GreenYellow; font-size: 70px;'>正确! </span>","null","html-keyboard-response","127","401572","0.0-8.0-0.0-4.0-0.0-1.9","7","6","6","5","6","5","4","4","5","5","5","1","-2","1","-3","1","2","1","2","5","5","5","5","4","3","5","3","4","5","7","8","5","8","8","6","8","5","6","5","5","3","6","7","7","6","6","7","5","1","6","5","7","3","6","6","7","7","7","6","3","5","2","7","2","7","6","6","7","7","7","7","7","2","5","6","1","7","3","7","783896727882305537","杜","253","Female","[""好她"",""好我"",""坏她"",""坏我""]","[""强她"",""强我"",""弱她"",""弱我""]","","","","","","","","","","","","","","","","","","","","","","","","","","","","","","feedback_test","","","","","","","","",""
"941","","f","psychophysics","128","403524","0.0-8.0-0.0-4.0-0.0-0.10","7","6","6","5","6","5","4","4","5","5","5","1","-2","1","-3","1","2","1","2","5","5","5","5","4","3","5","3","4","5","7","8","5","8","8","6","8","5","6","5","5","3","6","7","7","6","6","7","5","1","6","5","7","3","6","6","7","7","7","6","3","5","2","7","2","7","6","6","7","7","7","7","7","2","5","6","1","7","3","7","783896727882305537","杜","253","Female","[""好她"",""好我"",""坏她"",""坏我""]","[""强她"",""强我"",""弱她"",""弱我""]","","","","","","","","nonmatch","","","","","","","","","","key","f","21.14403333333321","960","536","j","false","match","img/trapezoid.png","坏她","坏她","ALT2","moral","","","","","","","","",""
"null","<span style='color:red; font-size: 70px;'>错误! </span>","null","html-keyboard-response","129","404038","0.0-8.0-0.0-4.0-0.0-1.10","7","6","6","5","6","5","4","4","5","5","5","1","-2","1","-3","1","2","1","2","5","5","5","5","4","3","5","3","4","5","7","8","5","8","8","6","8","5","6","5","5","3","6","7","7","6","6","7","5","1","6","5","7","3","6","6","7","7","7","6","3","5","2","7","2","7","6","6","7","7","7","7","7","2","5","6","1","7","3","7","783896727882305537","杜","253","Female","[""好她"",""好我"",""坏她"",""坏我""]","[""强她"",""强我"",""弱她"",""弱我""]","","","","","","","","","","","","","","","","","","","","","","","","","","","","","","feedback_test","","","","","","","","",""
"758","","f","psychophysics","130","405819","0.0-8.0-0.0-4.0-0.0-0.11","7","6","6","5","6","5","4","4","5","5","5","1","-2","1","-3","1","2","1","2","5","5","5","5","4","3","5","3","4","5","7","8","5","8","8","6","8","5","6","5","5","3","6","7","7","6","6","7","5","1","6","5","7","3","6","6","7","7","7","6","3","5","2","7","2","7","6","6","7","7","7","7","7","2","5","6","1","7","3","7","783896727882305537","杜","253","Female","[""好她"",""好我"",""坏她"",""坏我""]","[""强她"",""强我"",""弱她"",""弱我""]","","","","","","","","nonmatch","","","","","","","","","","key","f","19.125032967032613","960","536","f","true","nonmatch","img/trapezoid.png","好她","坏她","ALT2","moral","","","","","","","","",""
"null","<span style='color:GreenYellow; font-size: 70px;'>正确! </span>","null","html-keyboard-response","131","406325","0.0-8.0-0.0-4.0-0.0-1.11","7","6","6","5","6","5","4","4","5","5","5","1","-2","1","-3","1","2","1","2","5","5","5","5","4","3","5","3","4","5","7","8","5","8","8","6","8","5","6","5","5","3","6","7","7","6","6","7","5","1","6","5","7","3","6","6","7","7","7","6","3","5","2","7","2","7","6","6","7","7","7","7","7","2","5","6","1","7","3","7","783896727882305537","杜","253","Female","[""好她"",""好我"",""坏她"",""坏我""]","[""强她"",""强我"",""弱她"",""弱我""]","","","","","","","","","","","","","","","","","","","","","","","","","","","","","","feedback_test","","","","","","","","",""
"834","","j","psychophysics","132","408164","0.0-8.0-0.0-4.0-0.0-0.12","7","6","6","5","6","5","4","4","5","5","5","1","-2","1","-3","1","2","1","2","5","5","5","5","4","3","5","3","4","5","7","8","5","8","8","6","8","5","6","5","5","3","6","7","7","6","6","7","5","1","6","5","7","3","6","6","7","7","7","6","3","5","2","7","2","7","6","6","7","7","7","7","7","2","5","6","1","7","3","7","783896727882305537","杜","253","Female","[""好她"",""好我"",""坏她"",""坏我""]","[""强她"",""强我"",""弱她"",""弱我""]","","","","","","","","match","","","","","","","","","","key","j","19.634206521739227","960","536","j","true","match","img/triangle.png","坏我","坏我","ALT2","moral","","","","","","","","",""
"null","<span style='color:GreenYellow; font-size: 70px;'>正确! </span>","null","html-keyboard-response","133","408665","0.0-8.0-0.0-4.0-0.0-1.12","7","6","6","5","6","5","4","4","5","5","5","1","-2","1","-3","1","2","1","2","5","5","5","5","4","3","5","3","4","5","7","8","5","8","8","6","8","5","6","5","5","3","6","7","7","6","6","7","5","1","6","5","7","3","6","6","7","7","7","6","3","5","2","7","2","7","6","6","7","7","7","7","7","2","5","6","1","7","3","7","783896727882305537","杜","253","Female","[""好她"",""好我"",""坏她"",""坏我""]","[""强她"",""强我"",""弱她"",""弱我""]","","","","","","","","","","","","","","","","","","","","","","","","","","","","","","feedback_test","","","","","","","","",""
"827","","f","psychophysics","134","410527","0.0-8.0-0.0-4.0-0.0-0.13","7","6","6","5","6","5","4","4","5","5","5","1","-2","1","-3","1","2","1","2","5","5","5","5","4","3","5","3","4","5","7","8","5","8","8","6","8","5","6","5","5","3","6","7","7","6","6","7","5","1","6","5","7","3","6","6","7","7","7","6","3","5","2","7","2","7","6","6","7","7","7","7","7","2","5","6","1","7","3","7","783896727882305537","杜","253","Female","[""好她"",""好我"",""坏她"",""坏我""]","[""强她"",""强我"",""弱她"",""弱我""]","","","","","","","","nonmatch","","","","","","","","","","key","f","21.129151162790908","960","536","f","true","nonmatch","img/triangle.png","坏她","坏我","ALT2","moral","","","","","","","","",""
"null","<span style='color:GreenYellow; font-size: 70px;'>正确! </span>","null","html-keyboard-response","135","411039","0.0-8.0-0.0-4.0-0.0-1.13","7","6","6","5","6","5","4","4","5","5","5","1","-2","1","-3","1","2","1","2","5","5","5","5","4","3","5","3","4","5","7","8","5","8","8","6","8","5","6","5","5","3","6","7","7","6","6","7","5","1","6","5","7","3","6","6","7","7","7","6","3","5","2","7","2","7","6","6","7","7","7","7","7","2","5","6","1","7","3","7","783896727882305537","杜","253","Female","[""好她"",""好我"",""坏她"",""坏我""]","[""强她"",""强我"",""弱她"",""弱我""]","","","","","","","","","","","","","","","","","","","","","","","","","","","","","","feedback_test","","","","","","","","",""
"689","","f","psychophysics","136","412751","0.0-8.0-0.0-4.0-0.0-0.14","7","6","6","5","6","5","4","4","5","5","5","1","-2","1","-3","1","2","1","2","5","5","5","5","4","3","5","3","4","5","7","8","5","8","8","6","8","5","6","5","5","3","6","7","7","6","6","7","5","1","6","5","7","3","6","6","7","7","7","6","3","5","2","7","2","7","6","6","7","7","7","7","7","2","5","6","1","7","3","7","783896727882305537","杜","253","Female","[""好她"",""好我"",""坏她"",""坏我""]","[""强她"",""强我"",""弱她"",""弱我""]","","","","","","","","nonmatch","","","","","","","","","","key","f","20.109843373494307","960","536","f","true","nonmatch","img/triangle.png","好我","坏我","ALT2","moral","","","","","","","","",""
"null","<span style='color:GreenYellow; font-size: 70px;'>正确! </span>","null","html-keyboard-response","137","413254","0.0-8.0-0.0-4.0-0.0-1.14","7","6","6","5","6","5","4","4","5","5","5","1","-2","1","-3","1","2","1","2","5","5","5","5","4","3","5","3","4","5","7","8","5","8","8","6","8","5","6","5","5","3","6","7","7","6","6","7","5","1","6","5","7","3","6","6","7","7","7","6","3","5","2","7","2","7","6","6","7","7","7","7","7","2","5","6","1","7","3","7","783896727882305537","杜","253","Female","[""好她"",""好我"",""坏她"",""坏我""]","[""强她"",""强我"",""弱她"",""弱我""]","","","","","","","","","","","","","","","","","","","","","","","","","","","","","","feedback_test","","","","","","","","",""
