"rt","stimulus","response","trial_type","trial_index","time_elapsed","internal_node_id","swb_1","swb_2","swb_3","swb_4","swb_5","LOT_1","LOT_2","LOT_3","LOT_4","LOT_5","LOT_6","IPC_1","IPC_2","IPC_3","IPC_4","IPC_5","IPC_6","IPC_7","IPC_8","MorIden_1","MorIden_2","MorIden_3","MorIden_4","MorIden_5","MorIden_6","MorIden_7","MorIden_8","MorIden_9","MorIden_10","moralSeImag_1","moralSeImag_2","moralSeImag_3","moralSeImag_4","moralSeImag_5","moralSeImag_6","moralSeImag_7","moralSeImag_8","moralSeImag_9","sde_1","sde_2","sde_3","sde_4","sde_5","sde_6","sde_7","sde_8","sde_9","sde_10","trap2","sde_11","sde_12","sde_13","sde_14","sde_15","sde_16","sde_17","sde_18","sde_19","sde_20","IM_1","IM_2","IM_3","IM_4","IM_5","IM_6","IM_7","IM_8","IM_9","IM_10","IM_11","IM_12","IM_13","IM_14","IM_15","IM_16","IM_17","IM_18","IM_19","IM_20","subj_idx","friend_name","ParticipantID","Sex","Word","Word2","value","success","timeout","failed_images","failed_audio","failed_video","user_agent","responses","item_order","radio_event_ids","radio_event_times","key_event_times","mouse_event_times","straightlining","zigzagging","honeypot","view_history","response_type","key_press","avg_frame_time","center_x","center_y","correct_response","correct","identity","Image","word","condition","task_id","screen_id","time_stamp","person","valence","domain","math","status","duration","question_order","trap2_item"
"2120","
   <p><div style='color:white; font-size: 25px'>您好，欢迎参加本次实验。</div></p>
   <p><div style='color:white; font-size: 25px'>为充分保障您的权利，请确保您已经知晓并同意《参与实验同意书》以及《数据公开知情同意书》。</div></p>
   <p><div style='color:white; font-size: 25px'>如果您未见过上述内容，请咨询实验员。</div></p>
   <p style='color:white; font-size: 25px'>如果您选择继续实验，则表示您已经清楚两份知情同意书的内容并同意。</p>
   <p><div style = ""color: pink;font-size:30px;"">请确保您记得day0的实验编号，您将在本次实验输入该编号，若您忘记，请咨询实验员后作答。</div></p>
   <p><div style = ""color:lightblue;font-size:25px;"">请您尽可能认真地作答，我们将依据您在各问卷和按键任务中的作答质量发放报酬。</div></p>
   <p> <div style = ""color: green""><按空格键至下页></div> </p>
   "," ","html-keyboard-response","0","2122","0.0-0.0","3","2","2","1","2","5","2","3","4","5","5","1","0","0","1","0","2","1","2","3","4","5","4","5","4","3","4","5","4","6","7","7","8","6","7","6","5","8","4","3","3","2","3","1","5","1","5","2","1","3","1","5","2","2","3","3","4","5","1","2","2","1","1","3","5","2","7","3","7","3","4","5","5","2","7","3","6","3","3","777148633652137985","仝","240","Female","[""好我"",""坏我"",""好她"",""坏她""]","[""强我"",""弱我"",""强她"",""弱她""]","","","","","","","","","","","","","","","","","","","","","","","","","","","","","","","","","","","","","","",""
"","","","call-function","1","2122","0.0-1.0-0.0","3","2","2","1","2","5","2","3","4","5","5","1","0","0","1","0","2","1","2","3","4","5","4","5","4","3","4","5","4","6","7","7","8","6","7","6","5","8","4","3","3","2","3","1","5","1","5","2","1","3","1","5","2","2","3","3","4","5","1","2","2","1","1","3","5","2","7","3","7","3","4","5","5","2","7","3","6","3","3","777148633652137985","仝","240","Female","[""好我"",""坏我"",""好她"",""坏她""]","[""强我"",""弱我"",""强她"",""弱她""]","","","","","","","","","","","","","","","","","","","","","","","","","","","","","","","","","","","","","","",""
"19113","","[{""name"":""Sex"",""value"":""1""},{""name"":""friend_name"",""value"":""仝""},{""name"":""ParticipantID"",""value"":""240""}]","survey-html-form","2","21237","0.0-1.0-1.0","3","2","2","1","2","5","2","3","4","5","5","1","0","0","1","0","2","1","2","3","4","5","4","5","4","3","4","5","4","6","7","7","8","6","7","6","5","8","4","3","3","2","3","1","5","1","5","2","1","3","1","5","2","2","3","3","4","5","1","2","2","1","1","3","5","2","7","3","7","3","4","5","5","2","7","3","6","3","3","777148633652137985","仝","240","Female","[""好我"",""坏我"",""好她"",""坏她""]","[""强我"",""弱我"",""强她"",""弱她""]","","","","","","","","","","","","","","","","","","","","","","","","","","","","","","","","","","","","","","",""
"","","","preload","3","21331","0.0-2.0","3","2","2","1","2","5","2","3","4","5","5","1","0","0","1","0","2","1","2","3","4","5","4","5","4","3","4","5","4","6","7","7","8","6","7","6","5","8","4","3","3","2","3","1","5","1","5","2","1","3","1","5","2","2","3","3","4","5","1","2","2","1","1","3","5","2","7","3","7","3","4","5","5","2","7","3","6","3","3","777148633652137985","仝","240","Female","[""好我"",""坏我"",""好她"",""坏她""]","[""强我"",""弱我"",""强她"",""弱她""]","","true","false","[]","[]","[]","","","","","","","","","","","","","","","","","","","","","","","","","","","","","","","","",""
"","","","fullscreen","4","22586","0.0-3.0","3","2","2","1","2","5","2","3","4","5","5","1","0","0","1","0","2","1","2","3","4","5","4","5","4","3","4","5","4","6","7","7","8","6","7","6","5","8","4","3","3","2","3","1","5","1","5","2","1","3","1","5","2","2","3","3","4","5","1","2","2","1","1","3","5","2","7","3","7","3","4","5","5","2","7","3","6","3","3","777148633652137985","仝","240","Female","[""好我"",""坏我"",""好她"",""坏她""]","[""强我"",""弱我"",""强她"",""弱她""]","","true","","","","","{}","","","","","","","","","","","","","","","","","","","","","","","","","","","","","","","",""
"16258.599999964237","","{""Q01"":""3"",""Q02"":""2"",""Q03"":""2"",""Q04"":""1"",""Q05"":""2""}","survey-template","5","38846","0.0-4.0","3","2","2","1","2","5","2","3","4","5","5","1","0","0","1","0","2","1","2","3","4","5","4","5","4","3","4","5","4","6","7","7","8","6","7","6","5","8","4","3","3","2","3","1","5","1","5","2","1","3","1","5","2","2","3","3","4","5","1","2","2","1","1","3","5","2","7","3","7","3","4","5","5","2","7","3","6","3","3","777148633652137985","仝","240","Female","[""好我"",""坏我"",""好她"",""坏她""]","[""强我"",""弱我"",""强她"",""弱她""]","","","","","","","","{""Q01"":""3"",""Q02"":""2"",""Q03"":""2"",""Q04"":""1"",""Q05"":""2""}","[0,1,2,3,4]","[""Q01"",""Q02"",""Q03"",""Q04"",""Q04"",""Q04"",""Q05""]","[1945.5,3060,5417.399999976158,7057.599999964237,8058,9965.300000011921,15562.5]","[]","[1945.5,3060,5417.399999976158,6434.5,7057.599999964237,8058,9965.300000011921,15171.800000011921,15562.5,16257.599999964237]","0.6","0.75","0","","","","","","","","","","","","","","","","","","","","","","",""
"21219.19999998808","","{""Q01"":""5"",""Q02"":""2"",""Q03"":""3"",""Q04"":""4"",""Q05"":""5"",""Q06"":""5""}","survey-template","6","60069","0.0-5.0","3","2","2","1","2","5","2","3","4","5","5","1","0","0","1","0","2","1","2","3","4","5","4","5","4","3","4","5","4","6","7","7","8","6","7","6","5","8","4","3","3","2","3","1","5","1","5","2","1","3","1","5","2","2","3","3","4","5","1","2","2","1","1","3","5","2","7","3","7","3","4","5","5","2","7","3","6","3","3","777148633652137985","仝","240","Female","[""好我"",""坏我"",""好她"",""坏她""]","[""强我"",""弱我"",""强她"",""弱她""]","","","","","","","","{""Q01"":""5"",""Q02"":""2"",""Q03"":""3"",""Q04"":""4"",""Q05"":""5"",""Q06"":""5""}","[0,1,2,3,4,5]","[""Q01"",""Q01"",""Q02"",""Q03"",""Q04"",""Q05"",""Q06""]","[1522.800000011921,9050.899999976158,10787.399999976158,13726.399999976158,15602.800000011921,16882.69999998808,20714.899999976158]","[]","[1522.800000011921,8619.699999988079,9050.899999976158,10787.399999976158,13726.399999976158,15602.800000011921,16882.69999998808,20714.899999976158,21218.600000023842]","0.3333333333333333","1","0","","","","","","","","","","","","","","","","","","","","","","",""
"16710.5","","{""Q01"":""1"",""Q02"":""0"",""Q03"":""0"",""Q04"":""1"",""Q05"":""0"",""Q06"":""2"",""Q07"":""1"",""Q08"":""2""}","survey-template","7","76782","0.0-6.0","3","2","2","1","2","5","2","3","4","5","5","1","0","0","1","0","2","1","2","3","4","5","4","5","4","3","4","5","4","6","7","7","8","6","7","6","5","8","4","3","3","2","3","1","5","1","5","2","1","3","1","5","2","2","3","3","4","5","1","2","2","1","1","3","5","2","7","3","7","3","4","5","5","2","7","3","6","3","3","777148633652137985","仝","240","Female","[""好我"",""坏我"",""好她"",""坏她""]","[""强我"",""弱我"",""强她"",""弱她""]","","","","","","","","{""Q01"":""1"",""Q02"":""0"",""Q03"":""0"",""Q04"":""1"",""Q05"":""0"",""Q06"":""2"",""Q07"":""1"",""Q08"":""2""}","[0,1,2,3,4,5,6,7]","[""Q01"",""Q02"",""Q03"",""Q04"",""Q05"",""Q06"",""Q07"",""Q08"",""Q08""]","[2316.5,4080.899999976158,5188.799999952316,6404.5,7900.699999988079,9225.599999964237,11396.599999964237,12892.699999988079,16292.599999964237]","[]","[2316.5,3735,4080.899999976158,5188.799999952316,6404.5,7900.699999988079,9225.599999964237,11396.599999964237,12892.699999988079,15470.299999952316,16292.599999964237,16709.299999952316]","0.375","0.7142857142857143","0","","","","","","","","","","","","","","","","","","","","","","",""
"1964","","","instructions","8","78748","0.0-7.0","3","2","2","1","2","5","2","3","4","5","5","1","0","0","1","0","2","1","2","3","4","5","4","5","4","3","4","5","4","6","7","7","8","6","7","6","5","8","4","3","3","2","3","1","5","1","5","2","1","3","1","5","2","2","3","3","4","5","1","2","2","1","1","3","5","2","7","3","7","3","4","5","5","2","7","3","6","3","3","777148633652137985","仝","240","Female","[""好我"",""坏我"",""好她"",""坏她""]","[""强我"",""弱我"",""强她"",""弱她""]","","","","","","","","","","","","","","","","","[{""page_index"":0,""viewing_time"":1963}]","","","","","","","","","","","","","","","","","","","","","",""
"60743","","","instructions","9","139492","0.0-8.0-0.0-0.0","3","2","2","1","2","5","2","3","4","5","5","1","0","0","1","0","2","1","2","3","4","5","4","5","4","3","4","5","4","6","7","7","8","6","7","6","5","8","4","3","3","2","3","1","5","1","5","2","1","3","1","5","2","2","3","3","4","5","1","2","2","1","1","3","5","2","7","3","7","3","4","5","5","2","7","3","6","3","3","777148633652137985","仝","240","Female","[""好我"",""坏我"",""好她"",""坏她""]","[""强我"",""弱我"",""强她"",""弱她""]","","","","","","","","","","","","","","","","","[{""page_index"":0,""viewing_time"":2702},{""page_index"":1,""viewing_time"":54368},{""page_index"":2,""viewing_time"":2552},{""page_index"":3,""viewing_time"":1121}]","","","","","","","","","","","","","","","","","","","","","",""
"998","","f","psychophysics","10","141495","0.0-8.0-0.0-1.0-0.0-0.0","3","2","2","1","2","5","2","3","4","5","5","1","0","0","1","0","2","1","2","3","4","5","4","5","4","3","4","5","4","6","7","7","8","6","7","6","5","8","4","3","3","2","3","1","5","1","5","2","1","3","1","5","2","2","3","3","4","5","1","2","2","1","1","3","5","2","7","3","7","3","4","5","5","2","7","3","6","3","3","777148633652137985","仝","240","Female","[""好我"",""坏我"",""好她"",""坏她""]","[""强我"",""弱我"",""强她"",""弱她""]","","","","","","","","match","","","","","","","","","","key","f","16.670588235294264","768","428","j","false","nonmatch","img/triangle.png","坏我","好她","prac_ALT2_moral","practice_moral","","","","","","","","",""
"null","<span style='color:red; font-size: 70px;'>错误! </span>","null","html-keyboard-response","11","141997","0.0-8.0-0.0-1.0-0.0-1.0","3","2","2","1","2","5","2","3","4","5","5","1","0","0","1","0","2","1","2","3","4","5","4","5","4","3","4","5","4","6","7","7","8","6","7","6","5","8","4","3","3","2","3","1","5","1","5","2","1","3","1","5","2","2","3","3","4","5","1","2","2","1","1","3","5","2","7","3","7","3","4","5","5","2","7","3","6","3","3","777148633652137985","仝","240","Female","[""好我"",""坏我"",""好她"",""坏她""]","[""强我"",""弱我"",""强她"",""弱她""]","","","","","","","","","","","","","","","","","","","","","","","","","","","","","","feedback_test","","","","","","","","",""
"763","","j","psychophysics","12","143763","0.0-8.0-0.0-1.0-0.0-0.1","3","2","2","1","2","5","2","3","4","5","5","1","0","0","1","0","2","1","2","3","4","5","4","5","4","3","4","5","4","6","7","7","8","6","7","6","5","8","4","3","3","2","3","1","5","1","5","2","1","3","1","5","2","2","3","3","4","5","1","2","2","1","1","3","5","2","7","3","7","3","4","5","5","2","7","3","6","3","3","777148633652137985","仝","240","Female","[""好我"",""坏我"",""好她"",""坏她""]","[""强我"",""弱我"",""强她"",""弱她""]","","","","","","","","nonmatch","","","","","","","","","","key","j","16.67142857142857","768","428","f","false","match","img/triangle.png","好她","好她","prac_ALT2_moral","practice_moral","","","","","","","","",""
"null","<span style='color:red; font-size: 70px;'>错误! </span>","null","html-keyboard-response","13","144264","0.0-8.0-0.0-1.0-0.0-1.1","3","2","2","1","2","5","2","3","4","5","5","1","0","0","1","0","2","1","2","3","4","5","4","5","4","3","4","5","4","6","7","7","8","6","7","6","5","8","4","3","3","2","3","1","5","1","5","2","1","3","1","5","2","2","3","3","4","5","1","2","2","1","1","3","5","2","7","3","7","3","4","5","5","2","7","3","6","3","3","777148633652137985","仝","240","Female","[""好我"",""坏我"",""好她"",""坏她""]","[""强我"",""弱我"",""强她"",""弱她""]","","","","","","","","","","","","","","","","","","","","","","","","","","","","","","feedback_test","","","","","","","","",""
"889","","j","psychophysics","14","146154","0.0-8.0-0.0-1.0-0.0-0.2","3","2","2","1","2","5","2","3","4","5","5","1","0","0","1","0","2","1","2","3","4","5","4","5","4","3","4","5","4","6","7","7","8","6","7","6","5","8","4","3","3","2","3","1","5","1","5","2","1","3","1","5","2","2","3","3","4","5","1","2","2","1","1","3","5","2","7","3","7","3","4","5","5","2","7","3","6","3","3","777148633652137985","仝","240","Female","[""好我"",""坏我"",""好她"",""坏她""]","[""强我"",""弱我"",""强她"",""弱她""]","","","","","","","","nonmatch","","","","","","","","","","key","j","16.671428571428415","768","428","f","false","match","img/circle.png","坏我","坏我","prac_ALT2_moral","practice_moral","","","","","","","","",""
"null","<span style='color:red; font-size: 70px;'>错误! </span>","null","html-keyboard-response","15","146654","0.0-8.0-0.0-1.0-0.0-1.2","3","2","2","1","2","5","2","3","4","5","5","1","0","0","1","0","2","1","2","3","4","5","4","5","4","3","4","5","4","6","7","7","8","6","7","6","5","8","4","3","3","2","3","1","5","1","5","2","1","3","1","5","2","2","3","3","4","5","1","2","2","1","1","3","5","2","7","3","7","3","4","5","5","2","7","3","6","3","3","777148633652137985","仝","240","Female","[""好我"",""坏我"",""好她"",""坏她""]","[""强我"",""弱我"",""强她"",""弱她""]","","","","","","","","","","","","","","","","","","","","","","","","","","","","","","feedback_test","","","","","","","","",""
"842","","f","psychophysics","16","148498","0.0-8.0-0.0-1.0-0.0-0.3","3","2","2","1","2","5","2","3","4","5","5","1","0","0","1","0","2","1","2","3","4","5","4","5","4","3","4","5","4","6","7","7","8","6","7","6","5","8","4","3","3","2","3","1","5","1","5","2","1","3","1","5","2","2","3","3","4","5","1","2","2","1","1","3","5","2","7","3","7","3","4","5","5","2","7","3","6","3","3","777148633652137985","仝","240","Female","[""好我"",""坏我"",""好她"",""坏她""]","[""强我"",""弱我"",""强她"",""弱她""]","","","","","","","","match","","","","","","","","","","key","f","16.67155963302763","768","428","j","false","nonmatch","img/pentagon.png","坏她","好我","prac_ALT2_moral","practice_moral","","","","","","","","",""
"null","<span style='color:red; font-size: 70px;'>错误! </span>","null","html-keyboard-response","17","148999","0.0-8.0-0.0-1.0-0.0-1.3","3","2","2","1","2","5","2","3","4","5","5","1","0","0","1","0","2","1","2","3","4","5","4","5","4","3","4","5","4","6","7","7","8","6","7","6","5","8","4","3","3","2","3","1","5","1","5","2","1","3","1","5","2","2","3","3","4","5","1","2","2","1","1","3","5","2","7","3","7","3","4","5","5","2","7","3","6","3","3","777148633652137985","仝","240","Female","[""好我"",""坏我"",""好她"",""坏她""]","[""强我"",""弱我"",""强她"",""弱她""]","","","","","","","","","","","","","","","","","","","","","","","","","","","","","","feedback_test","","","","","","","","",""
"793","","f","psychophysics","18","150793","0.0-8.0-0.0-1.0-0.0-0.4","3","2","2","1","2","5","2","3","4","5","5","1","0","0","1","0","2","1","2","3","4","5","4","5","4","3","4","5","4","6","7","7","8","6","7","6","5","8","4","3","3","2","3","1","5","1","5","2","1","3","1","5","2","2","3","3","4","5","1","2","2","1","1","3","5","2","7","3","7","3","4","5","5","2","7","3","6","3","3","777148633652137985","仝","240","Female","[""好我"",""坏我"",""好她"",""坏她""]","[""强我"",""弱我"",""强她"",""弱她""]","","","","","","","","match","","","","","","","","","","key","f","16.672897196261683","768","428","j","false","nonmatch","img/pentagon.png","好她","好我","prac_ALT2_moral","practice_moral","","","","","","","","",""
"null","<span style='color:red; font-size: 70px;'>错误! </span>","null","html-keyboard-response","19","151294","0.0-8.0-0.0-1.0-0.0-1.4","3","2","2","1","2","5","2","3","4","5","5","1","0","0","1","0","2","1","2","3","4","5","4","5","4","3","4","5","4","6","7","7","8","6","7","6","5","8","4","3","3","2","3","1","5","1","5","2","1","3","1","5","2","2","3","3","4","5","1","2","2","1","1","3","5","2","7","3","7","3","4","5","5","2","7","3","6","3","3","777148633652137985","仝","240","Female","[""好我"",""坏我"",""好她"",""坏她""]","[""强我"",""弱我"",""强她"",""弱她""]","","","","","","","","","","","","","","","","","","","","","","","","","","","","","","feedback_test","","","","","","","","",""
"1160","","j","psychophysics","20","153458","0.0-8.0-0.0-1.0-0.0-0.5","3","2","2","1","2","5","2","3","4","5","5","1","0","0","1","0","2","1","2","3","4","5","4","5","4","3","4","5","4","6","7","7","8","6","7","6","5","8","4","3","3","2","3","1","5","1","5","2","1","3","1","5","2","2","3","3","4","5","1","2","2","1","1","3","5","2","7","3","7","3","4","5","5","2","7","3","6","3","3","777148633652137985","仝","240","Female","[""好我"",""坏我"",""好她"",""坏她""]","[""强我"",""弱我"",""强她"",""弱她""]","","","","","","","","nonmatch","","","","","","","","","","key","j","16.670542635658915","768","428","f","false","match","img/pentagon.png","好我","好我","prac_ALT2_moral","practice_moral","","","","","","","","",""
"null","<span style='color:red; font-size: 70px;'>错误! </span>","null","html-keyboard-response","21","153959","0.0-8.0-0.0-1.0-0.0-1.5","3","2","2","1","2","5","2","3","4","5","5","1","0","0","1","0","2","1","2","3","4","5","4","5","4","3","4","5","4","6","7","7","8","6","7","6","5","8","4","3","3","2","3","1","5","1","5","2","1","3","1","5","2","2","3","3","4","5","1","2","2","1","1","3","5","2","7","3","7","3","4","5","5","2","7","3","6","3","3","777148633652137985","仝","240","Female","[""好我"",""坏我"",""好她"",""坏她""]","[""强我"",""弱我"",""强她"",""弱她""]","","","","","","","","","","","","","","","","","","","","","","","","","","","","","","feedback_test","","","","","","","","",""
"null","","null","psychophysics","22","156164","0.0-8.0-0.0-1.0-0.0-0.6","3","2","2","1","2","5","2","3","4","5","5","1","0","0","1","0","2","1","2","3","4","5","4","5","4","3","4","5","4","6","7","7","8","6","7","6","5","8","4","3","3","2","3","1","5","1","5","2","1","3","1","5","2","2","3","3","4","5","1","2","2","1","1","3","5","2","7","3","7","3","4","5","5","2","7","3","6","3","3","777148633652137985","仝","240","Female","[""好我"",""坏我"",""好她"",""坏她""]","[""强我"",""弱我"",""强她"",""弱她""]","","","","","","","","null","","","","","","","","","","key","null","16.671755725190838","768","428","j","false","nonmatch","img/circle.png","坏她","坏我","prac_ALT2_moral","practice_moral","","","","","","","","",""
"null","<span class='add_' style='color:yellow; font-size: 70px;'> 太慢! </span>","null","html-keyboard-response","23","156665","0.0-8.0-0.0-1.0-0.0-1.6","3","2","2","1","2","5","2","3","4","5","5","1","0","0","1","0","2","1","2","3","4","5","4","5","4","3","4","5","4","6","7","7","8","6","7","6","5","8","4","3","3","2","3","1","5","1","5","2","1","3","1","5","2","2","3","3","4","5","1","2","2","1","1","3","5","2","7","3","7","3","4","5","5","2","7","3","6","3","3","777148633652137985","仝","240","Female","[""好我"",""坏我"",""好她"",""坏她""]","[""强我"",""弱我"",""强她"",""弱她""]","","","","","","","","","","","","","","","","","","","","","","","","","","","","","","feedback_test","","","","","","","","",""
"970","","f","psychophysics","24","158637","0.0-8.0-0.0-1.0-0.0-0.7","3","2","2","1","2","5","2","3","4","5","5","1","0","0","1","0","2","1","2","3","4","5","4","5","4","3","4","5","4","6","7","7","8","6","7","6","5","8","4","3","3","2","3","1","5","1","5","2","1","3","1","5","2","2","3","3","4","5","1","2","2","1","1","3","5","2","7","3","7","3","4","5","5","2","7","3","6","3","3","777148633652137985","仝","240","Female","[""好我"",""坏我"",""好她"",""坏她""]","[""强我"",""弱我"",""强她"",""弱她""]","","","","","","","","match","","","","","","","","","","key","f","16.671794871794923","768","428","f","true","match","img/circle.png","坏我","坏我","prac_ALT2_moral","practice_moral","","","","","","","","",""
"null","<span style='color:GreenYellow; font-size: 70px;'>正确! </span>","null","html-keyboard-response","25","159138","0.0-8.0-0.0-1.0-0.0-1.7","3","2","2","1","2","5","2","3","4","5","5","1","0","0","1","0","2","1","2","3","4","5","4","5","4","3","4","5","4","6","7","7","8","6","7","6","5","8","4","3","3","2","3","1","5","1","5","2","1","3","1","5","2","2","3","3","4","5","1","2","2","1","1","3","5","2","7","3","7","3","4","5","5","2","7","3","6","3","3","777148633652137985","仝","240","Female","[""好我"",""坏我"",""好她"",""坏她""]","[""强我"",""弱我"",""强她"",""弱她""]","","","","","","","","","","","","","","","","","","","","","","","","","","","","","","feedback_test","","","","","","","","",""
"824","","f","psychophysics","26","160965","0.0-8.0-0.0-1.0-0.0-0.8","3","2","2","1","2","5","2","3","4","5","5","1","0","0","1","0","2","1","2","3","4","5","4","5","4","3","4","5","4","6","7","7","8","6","7","6","5","8","4","3","3","2","3","1","5","1","5","2","1","3","1","5","2","2","3","3","4","5","1","2","2","1","1","3","5","2","7","3","7","3","4","5","5","2","7","3","6","3","3","777148633652137985","仝","240","Female","[""好我"",""坏我"",""好她"",""坏她""]","[""强我"",""弱我"",""强她"",""弱她""]","","","","","","","","match","","","","","","","","","","key","f","16.67155963302763","768","428","f","true","match","img/trapezoid.png","坏她","坏她","prac_ALT2_moral","practice_moral","","","","","","","","",""
"null","<span style='color:GreenYellow; font-size: 70px;'>正确! </span>","null","html-keyboard-response","27","161466","0.0-8.0-0.0-1.0-0.0-1.8","3","2","2","1","2","5","2","3","4","5","5","1","0","0","1","0","2","1","2","3","4","5","4","5","4","3","4","5","4","6","7","7","8","6","7","6","5","8","4","3","3","2","3","1","5","1","5","2","1","3","1","5","2","2","3","3","4","5","1","2","2","1","1","3","5","2","7","3","7","3","4","5","5","2","7","3","6","3","3","777148633652137985","仝","240","Female","[""好我"",""坏我"",""好她"",""坏她""]","[""强我"",""弱我"",""强她"",""弱她""]","","","","","","","","","","","","","","","","","","","","","","","","","","","","","","feedback_test","","","","","","","","",""
"701","","f","psychophysics","28","163168","0.0-8.0-0.0-1.0-0.0-0.9","3","2","2","1","2","5","2","3","4","5","5","1","0","0","1","0","2","1","2","3","4","5","4","5","4","3","4","5","4","6","7","7","8","6","7","6","5","8","4","3","3","2","3","1","5","1","5","2","1","3","1","5","2","2","3","3","4","5","1","2","2","1","1","3","5","2","7","3","7","3","4","5","5","2","7","3","6","3","3","777148633652137985","仝","240","Female","[""好我"",""坏我"",""好她"",""坏她""]","[""强我"",""弱我"",""强她"",""弱她""]","","","","","","","","match","","","","","","","","","","key","f","16.671287128713043","768","428","f","true","match","img/trapezoid.png","坏她","坏她","prac_ALT2_moral","practice_moral","","","","","","","","",""
"null","<span style='color:GreenYellow; font-size: 70px;'>正确! </span>","null","html-keyboard-response","29","163670","0.0-8.0-0.0-1.0-0.0-1.9","3","2","2","1","2","5","2","3","4","5","5","1","0","0","1","0","2","1","2","3","4","5","4","5","4","3","4","5","4","6","7","7","8","6","7","6","5","8","4","3","3","2","3","1","5","1","5","2","1","3","1","5","2","2","3","3","4","5","1","2","2","1","1","3","5","2","7","3","7","3","4","5","5","2","7","3","6","3","3","777148633652137985","仝","240","Female","[""好我"",""坏我"",""好她"",""坏她""]","[""强我"",""弱我"",""强她"",""弱她""]","","","","","","","","","","","","","","","","","","","","","","","","","","","","","","feedback_test","","","","","","","","",""
"1085","","f","psychophysics","30","165756","0.0-8.0-0.0-1.0-0.0-0.10","3","2","2","1","2","5","2","3","4","5","5","1","0","0","1","0","2","1","2","3","4","5","4","5","4","3","4","5","4","6","7","7","8","6","7","6","5","8","4","3","3","2","3","1","5","1","5","2","1","3","1","5","2","2","3","3","4","5","1","2","2","1","1","3","5","2","7","3","7","3","4","5","5","2","7","3","6","3","3","777148633652137985","仝","240","Female","[""好我"",""坏我"",""好她"",""坏她""]","[""强我"",""弱我"",""强她"",""弱她""]","","","","","","","","match","","","","","","","","","","key","f","16.674193548387144","768","428","f","true","match","img/triangle.png","好她","好她","prac_ALT2_moral","practice_moral","","","","","","","","",""
"null","<span style='color:GreenYellow; font-size: 70px;'>正确! </span>","null","html-keyboard-response","31","166257","0.0-8.0-0.0-1.0-0.0-1.10","3","2","2","1","2","5","2","3","4","5","5","1","0","0","1","0","2","1","2","3","4","5","4","5","4","3","4","5","4","6","7","7","8","6","7","6","5","8","4","3","3","2","3","1","5","1","5","2","1","3","1","5","2","2","3","3","4","5","1","2","2","1","1","3","5","2","7","3","7","3","4","5","5","2","7","3","6","3","3","777148633652137985","仝","240","Female","[""好我"",""坏我"",""好她"",""坏她""]","[""强我"",""弱我"",""强她"",""弱她""]","","","","","","","","","","","","","","","","","","","","","","","","","","","","","","feedback_test","","","","","","","","",""
"686","","f","psychophysics","32","167945","0.0-8.0-0.0-1.0-0.0-0.11","3","2","2","1","2","5","2","3","4","5","5","1","0","0","1","0","2","1","2","3","4","5","4","5","4","3","4","5","4","6","7","7","8","6","7","6","5","8","4","3","3","2","3","1","5","1","5","2","1","3","1","5","2","2","3","3","4","5","1","2","2","1","1","3","5","2","7","3","7","3","4","5","5","2","7","3","6","3","3","777148633652137985","仝","240","Female","[""好我"",""坏我"",""好她"",""坏她""]","[""强我"",""弱我"",""强她"",""弱她""]","","","","","","","","match","","","","","","","","","","key","f","16.671287128713043","768","428","j","false","nonmatch","img/trapezoid.png","好她","坏她","prac_ALT2_moral","practice_moral","","","","","","","","",""
"null","<span style='color:red; font-size: 70px;'>错误! </span>","null","html-keyboard-response","33","168446","0.0-8.0-0.0-1.0-0.0-1.11","3","2","2","1","2","5","2","3","4","5","5","1","0","0","1","0","2","1","2","3","4","5","4","5","4","3","4","5","4","6","7","7","8","6","7","6","5","8","4","3","3","2","3","1","5","1","5","2","1","3","1","5","2","2","3","3","4","5","1","2","2","1","1","3","5","2","7","3","7","3","4","5","5","2","7","3","6","3","3","777148633652137985","仝","240","Female","[""好我"",""坏我"",""好她"",""坏她""]","[""强我"",""弱我"",""强她"",""弱她""]","","","","","","","","","","","","","","","","","","","","","","","","","","","","","","feedback_test","","","","","","","","",""
"1109","","f","psychophysics","34","170556","0.0-8.0-0.0-1.0-0.0-0.12","3","2","2","1","2","5","2","3","4","5","5","1","0","0","1","0","2","1","2","3","4","5","4","5","4","3","4","5","4","6","7","7","8","6","7","6","5","8","4","3","3","2","3","1","5","1","5","2","1","3","1","5","2","2","3","3","4","5","1","2","2","1","1","3","5","2","7","3","7","3","4","5","5","2","7","3","6","3","3","777148633652137985","仝","240","Female","[""好我"",""坏我"",""好她"",""坏她""]","[""强我"",""弱我"",""强她"",""弱她""]","","","","","","","","match","","","","","","","","","","key","f","16.668800000000047","768","428","j","false","nonmatch","img/trapezoid.png","坏我","坏她","prac_ALT2_moral","practice_moral","","","","","","","","",""
"null","<span style='color:red; font-size: 70px;'>错误! </span>","null","html-keyboard-response","35","171058","0.0-8.0-0.0-1.0-0.0-1.12","3","2","2","1","2","5","2","3","4","5","5","1","0","0","1","0","2","1","2","3","4","5","4","5","4","3","4","5","4","6","7","7","8","6","7","6","5","8","4","3","3","2","3","1","5","1","5","2","1","3","1","5","2","2","3","3","4","5","1","2","2","1","1","3","5","2","7","3","7","3","4","5","5","2","7","3","6","3","3","777148633652137985","仝","240","Female","[""好我"",""坏我"",""好她"",""坏她""]","[""强我"",""弱我"",""强她"",""弱她""]","","","","","","","","","","","","","","","","","","","","","","","","","","","","","","feedback_test","","","","","","","","",""
"918","","f","psychophysics","36","172979","0.0-8.0-0.0-1.0-0.0-0.13","3","2","2","1","2","5","2","3","4","5","5","1","0","0","1","0","2","1","2","3","4","5","4","5","4","3","4","5","4","6","7","7","8","6","7","6","5","8","4","3","3","2","3","1","5","1","5","2","1","3","1","5","2","2","3","3","4","5","1","2","2","1","1","3","5","2","7","3","7","3","4","5","5","2","7","3","6","3","3","777148633652137985","仝","240","Female","[""好我"",""坏我"",""好她"",""坏她""]","[""强我"",""弱我"",""强她"",""弱她""]","","","","","","","","match","","","","","","","","","","key","f","16.67391304347826","768","428","f","true","match","img/trapezoid.png","坏她","坏她","prac_ALT2_moral","practice_moral","","","","","","","","",""
"null","<span style='color:GreenYellow; font-size: 70px;'>正确! </span>","null","html-keyboard-response","37","173480","0.0-8.0-0.0-1.0-0.0-1.13","3","2","2","1","2","5","2","3","4","5","5","1","0","0","1","0","2","1","2","3","4","5","4","5","4","3","4","5","4","6","7","7","8","6","7","6","5","8","4","3","3","2","3","1","5","1","5","2","1","3","1","5","2","2","3","3","4","5","1","2","2","1","1","3","5","2","7","3","7","3","4","5","5","2","7","3","6","3","3","777148633652137985","仝","240","Female","[""好我"",""坏我"",""好她"",""坏她""]","[""强我"",""弱我"",""强她"",""弱她""]","","","","","","","","","","","","","","","","","","","","","","","","","","","","","","feedback_test","","","","","","","","",""
"860","","f","psychophysics","38","175341","0.0-8.0-0.0-1.0-0.0-0.14","3","2","2","1","2","5","2","3","4","5","5","1","0","0","1","0","2","1","2","3","4","5","4","5","4","3","4","5","4","6","7","7","8","6","7","6","5","8","4","3","3","2","3","1","5","1","5","2","1","3","1","5","2","2","3","3","4","5","1","2","2","1","1","3","5","2","7","3","7","3","4","5","5","2","7","3","6","3","3","777148633652137985","仝","240","Female","[""好我"",""坏我"",""好她"",""坏她""]","[""强我"",""弱我"",""强她"",""弱她""]","","","","","","","","match","","","","","","","","","","key","f","16.67181818181813","768","428","f","true","match","img/triangle.png","好她","好她","prac_ALT2_moral","practice_moral","","","","","","","","",""
"null","<span style='color:GreenYellow; font-size: 70px;'>正确! </span>","null","html-keyboard-response","39","175843","0.0-8.0-0.0-1.0-0.0-1.14","3","2","2","1","2","5","2","3","4","5","5","1","0","0","1","0","2","1","2","3","4","5","4","5","4","3","4","5","4","6","7","7","8","6","7","6","5","8","4","3","3","2","3","1","5","1","5","2","1","3","1","5","2","2","3","3","4","5","1","2","2","1","1","3","5","2","7","3","7","3","4","5","5","2","7","3","6","3","3","777148633652137985","仝","240","Female","[""好我"",""坏我"",""好她"",""坏她""]","[""强我"",""弱我"",""强她"",""弱她""]","","","","","","","","","","","","","","","","","","","","","","","","","","","","","","feedback_test","","","","","","","","",""
"867","","j","psychophysics","40","177711","0.0-8.0-0.0-1.0-0.0-0.15","3","2","2","1","2","5","2","3","4","5","5","1","0","0","1","0","2","1","2","3","4","5","4","5","4","3","4","5","4","6","7","7","8","6","7","6","5","8","4","3","3","2","3","1","5","1","5","2","1","3","1","5","2","2","3","3","4","5","1","2","2","1","1","3","5","2","7","3","7","3","4","5","5","2","7","3","6","3","3","777148633652137985","仝","240","Female","[""好我"",""坏我"",""好她"",""坏她""]","[""强我"",""弱我"",""强她"",""弱她""]","","","","","","","","nonmatch","","","","","","","","","","key","j","16.67117117117117","768","428","j","true","nonmatch","img/trapezoid.png","好我","坏她","prac_ALT2_moral","practice_moral","","","","","","","","",""
"null","<span style='color:GreenYellow; font-size: 70px;'>正确! </span>","null","html-keyboard-response","41","178214","0.0-8.0-0.0-1.0-0.0-1.15","3","2","2","1","2","5","2","3","4","5","5","1","0","0","1","0","2","1","2","3","4","5","4","5","4","3","4","5","4","6","7","7","8","6","7","6","5","8","4","3","3","2","3","1","5","1","5","2","1","3","1","5","2","2","3","3","4","5","1","2","2","1","1","3","5","2","7","3","7","3","4","5","5","2","7","3","6","3","3","777148633652137985","仝","240","Female","[""好我"",""坏我"",""好她"",""坏她""]","[""强我"",""弱我"",""强她"",""弱她""]","","","","","","","","","","","","","","","","","","","","","","","","","","","","","","feedback_test","","","","","","","","",""
"804","","f","psychophysics","42","180021","0.0-8.0-0.0-1.0-0.0-0.16","3","2","2","1","2","5","2","3","4","5","5","1","0","0","1","0","2","1","2","3","4","5","4","5","4","3","4","5","4","6","7","7","8","6","7","6","5","8","4","3","3","2","3","1","5","1","5","2","1","3","1","5","2","2","3","3","4","5","1","2","2","1","1","3","5","2","7","3","7","3","4","5","5","2","7","3","6","3","3","777148633652137985","仝","240","Female","[""好我"",""坏我"",""好她"",""坏她""]","[""强我"",""弱我"",""强她"",""弱她""]","","","","","","","","match","","","","","","","","","","key","f","16.667289719626115","768","428","f","true","match","img/pentagon.png","好我","好我","prac_ALT2_moral","practice_moral","","","","","","","","",""
"null","<span style='color:GreenYellow; font-size: 70px;'>正确! </span>","null","html-keyboard-response","43","180522","0.0-8.0-0.0-1.0-0.0-1.16","3","2","2","1","2","5","2","3","4","5","5","1","0","0","1","0","2","1","2","3","4","5","4","5","4","3","4","5","4","6","7","7","8","6","7","6","5","8","4","3","3","2","3","1","5","1","5","2","1","3","1","5","2","2","3","3","4","5","1","2","2","1","1","3","5","2","7","3","7","3","4","5","5","2","7","3","6","3","3","777148633652137985","仝","240","Female","[""好我"",""坏我"",""好她"",""坏她""]","[""强我"",""弱我"",""强她"",""弱她""]","","","","","","","","","","","","","","","","","","","","","","","","","","","","","","feedback_test","","","","","","","","",""
"801","","f","psychophysics","44","182325","0.0-8.0-0.0-1.0-0.0-0.17","3","2","2","1","2","5","2","3","4","5","5","1","0","0","1","0","2","1","2","3","4","5","4","5","4","3","4","5","4","6","7","7","8","6","7","6","5","8","4","3","3","2","3","1","5","1","5","2","1","3","1","5","2","2","3","3","4","5","1","2","2","1","1","3","5","2","7","3","7","3","4","5","5","2","7","3","6","3","3","777148633652137985","仝","240","Female","[""好我"",""坏我"",""好她"",""坏她""]","[""强我"",""弱我"",""强她"",""弱她""]","","","","","","","","match","","","","","","","","","","key","f","16.675700934579602","768","428","f","true","match","img/pentagon.png","好我","好我","prac_ALT2_moral","practice_moral","","","","","","","","",""
"null","<span style='color:GreenYellow; font-size: 70px;'>正确! </span>","null","html-keyboard-response","45","182827","0.0-8.0-0.0-1.0-0.0-1.17","3","2","2","1","2","5","2","3","4","5","5","1","0","0","1","0","2","1","2","3","4","5","4","5","4","3","4","5","4","6","7","7","8","6","7","6","5","8","4","3","3","2","3","1","5","1","5","2","1","3","1","5","2","2","3","3","4","5","1","2","2","1","1","3","5","2","7","3","7","3","4","5","5","2","7","3","6","3","3","777148633652137985","仝","240","Female","[""好我"",""坏我"",""好她"",""坏她""]","[""强我"",""弱我"",""强她"",""弱她""]","","","","","","","","","","","","","","","","","","","","","","","","","","","","","","feedback_test","","","","","","","","",""
"630","","f","psychophysics","46","184459","0.0-8.0-0.0-1.0-0.0-0.18","3","2","2","1","2","5","2","3","4","5","5","1","0","0","1","0","2","1","2","3","4","5","4","5","4","3","4","5","4","6","7","7","8","6","7","6","5","8","4","3","3","2","3","1","5","1","5","2","1","3","1","5","2","2","3","3","4","5","1","2","2","1","1","3","5","2","7","3","7","3","4","5","5","2","7","3","6","3","3","777148633652137985","仝","240","Female","[""好我"",""坏我"",""好她"",""坏她""]","[""强我"",""弱我"",""强她"",""弱她""]","","","","","","","","match","","","","","","","","","","key","f","16.671134020618616","768","428","f","true","match","img/circle.png","坏我","坏我","prac_ALT2_moral","practice_moral","","","","","","","","",""
"null","<span style='color:GreenYellow; font-size: 70px;'>正确! </span>","null","html-keyboard-response","47","184959","0.0-8.0-0.0-1.0-0.0-1.18","3","2","2","1","2","5","2","3","4","5","5","1","0","0","1","0","2","1","2","3","4","5","4","5","4","3","4","5","4","6","7","7","8","6","7","6","5","8","4","3","3","2","3","1","5","1","5","2","1","3","1","5","2","2","3","3","4","5","1","2","2","1","1","3","5","2","7","3","7","3","4","5","5","2","7","3","6","3","3","777148633652137985","仝","240","Female","[""好我"",""坏我"",""好她"",""坏她""]","[""强我"",""弱我"",""强她"",""弱她""]","","","","","","","","","","","","","","","","","","","","","","","","","","","","","","feedback_test","","","","","","","","",""
"872","","j","psychophysics","48","186834","0.0-8.0-0.0-1.0-0.0-0.19","3","2","2","1","2","5","2","3","4","5","5","1","0","0","1","0","2","1","2","3","4","5","4","5","4","3","4","5","4","6","7","7","8","6","7","6","5","8","4","3","3","2","3","1","5","1","5","2","1","3","1","5","2","2","3","3","4","5","1","2","2","1","1","3","5","2","7","3","7","3","4","5","5","2","7","3","6","3","3","777148633652137985","仝","240","Female","[""好我"",""坏我"",""好她"",""坏她""]","[""强我"",""弱我"",""强她"",""弱她""]","","","","","","","","nonmatch","","","","","","","","","","key","j","16.671428571428674","768","428","j","true","nonmatch","img/circle.png","好她","坏我","prac_ALT2_moral","practice_moral","","","","","","","","",""
"null","<span style='color:GreenYellow; font-size: 70px;'>正确! </span>","null","html-keyboard-response","49","187335","0.0-8.0-0.0-1.0-0.0-1.19","3","2","2","1","2","5","2","3","4","5","5","1","0","0","1","0","2","1","2","3","4","5","4","5","4","3","4","5","4","6","7","7","8","6","7","6","5","8","4","3","3","2","3","1","5","1","5","2","1","3","1","5","2","2","3","3","4","5","1","2","2","1","1","3","5","2","7","3","7","3","4","5","5","2","7","3","6","3","3","777148633652137985","仝","240","Female","[""好我"",""坏我"",""好她"",""坏她""]","[""强我"",""弱我"",""强她"",""弱她""]","","","","","","","","","","","","","","","","","","","","","","","","","","","","","","feedback_test","","","","","","","","",""
"916","","f","psychophysics","50","189253","0.0-8.0-0.0-1.0-0.0-0.20","3","2","2","1","2","5","2","3","4","5","5","1","0","0","1","0","2","1","2","3","4","5","4","5","4","3","4","5","4","6","7","7","8","6","7","6","5","8","4","3","3","2","3","1","5","1","5","2","1","3","1","5","2","2","3","3","4","5","1","2","2","1","1","3","5","2","7","3","7","3","4","5","5","2","7","3","6","3","3","777148633652137985","仝","240","Female","[""好我"",""坏我"",""好她"",""坏她""]","[""强我"",""弱我"",""强她"",""弱她""]","","","","","","","","match","","","","","","","","","","key","f","16.67105263157895","768","428","j","false","nonmatch","img/triangle.png","好我","好她","prac_ALT2_moral","practice_moral","","","","","","","","",""
"null","<span style='color:red; font-size: 70px;'>错误! </span>","null","html-keyboard-response","51","189754","0.0-8.0-0.0-1.0-0.0-1.20","3","2","2","1","2","5","2","3","4","5","5","1","0","0","1","0","2","1","2","3","4","5","4","5","4","3","4","5","4","6","7","7","8","6","7","6","5","8","4","3","3","2","3","1","5","1","5","2","1","3","1","5","2","2","3","3","4","5","1","2","2","1","1","3","5","2","7","3","7","3","4","5","5","2","7","3","6","3","3","777148633652137985","仝","240","Female","[""好我"",""坏我"",""好她"",""坏她""]","[""强我"",""弱我"",""强她"",""弱她""]","","","","","","","","","","","","","","","","","","","","","","","","","","","","","","feedback_test","","","","","","","","",""
"1015","","j","psychophysics","52","191771","0.0-8.0-0.0-1.0-0.0-0.21","3","2","2","1","2","5","2","3","4","5","5","1","0","0","1","0","2","1","2","3","4","5","4","5","4","3","4","5","4","6","7","7","8","6","7","6","5","8","4","3","3","2","3","1","5","1","5","2","1","3","1","5","2","2","3","3","4","5","1","2","2","1","1","3","5","2","7","3","7","3","4","5","5","2","7","3","6","3","3","777148633652137985","仝","240","Female","[""好我"",""坏我"",""好她"",""坏她""]","[""强我"",""弱我"",""强她"",""弱她""]","","","","","","","","nonmatch","","","","","","","","","","key","j","16.670833333333334","768","428","j","true","nonmatch","img/pentagon.png","坏我","好我","prac_ALT2_moral","practice_moral","","","","","","","","",""
"null","<span style='color:GreenYellow; font-size: 70px;'>正确! </span>","null","html-keyboard-response","53","192272","0.0-8.0-0.0-1.0-0.0-1.21","3","2","2","1","2","5","2","3","4","5","5","1","0","0","1","0","2","1","2","3","4","5","4","5","4","3","4","5","4","6","7","7","8","6","7","6","5","8","4","3","3","2","3","1","5","1","5","2","1","3","1","5","2","2","3","3","4","5","1","2","2","1","1","3","5","2","7","3","7","3","4","5","5","2","7","3","6","3","3","777148633652137985","仝","240","Female","[""好我"",""坏我"",""好她"",""坏她""]","[""强我"",""弱我"",""强她"",""弱她""]","","","","","","","","","","","","","","","","","","","","","","","","","","","","","","feedback_test","","","","","","","","",""
"880","","f","psychophysics","54","194153","0.0-8.0-0.0-1.0-0.0-0.22","3","2","2","1","2","5","2","3","4","5","5","1","0","0","1","0","2","1","2","3","4","5","4","5","4","3","4","5","4","6","7","7","8","6","7","6","5","8","4","3","3","2","3","1","5","1","5","2","1","3","1","5","2","2","3","3","4","5","1","2","2","1","1","3","5","2","7","3","7","3","4","5","5","2","7","3","6","3","3","777148633652137985","仝","240","Female","[""好我"",""坏我"",""好她"",""坏她""]","[""强我"",""弱我"",""强她"",""弱她""]","","","","","","","","match","","","","","","","","","","key","f","16.672321428571585","768","428","j","false","nonmatch","img/triangle.png","坏她","好她","prac_ALT2_moral","practice_moral","","","","","","","","",""
"null","<span style='color:red; font-size: 70px;'>错误! </span>","null","html-keyboard-response","55","194653","0.0-8.0-0.0-1.0-0.0-1.22","3","2","2","1","2","5","2","3","4","5","5","1","0","0","1","0","2","1","2","3","4","5","4","5","4","3","4","5","4","6","7","7","8","6","7","6","5","8","4","3","3","2","3","1","5","1","5","2","1","3","1","5","2","2","3","3","4","5","1","2","2","1","1","3","5","2","7","3","7","3","4","5","5","2","7","3","6","3","3","777148633652137985","仝","240","Female","[""好我"",""坏我"",""好她"",""坏她""]","[""强我"",""弱我"",""强她"",""弱她""]","","","","","","","","","","","","","","","","","","","","","","","","","","","","","","feedback_test","","","","","","","","",""
"1058","","f","psychophysics","56","196714","0.0-8.0-0.0-1.0-0.0-0.23","3","2","2","1","2","5","2","3","4","5","5","1","0","0","1","0","2","1","2","3","4","5","4","5","4","3","4","5","4","6","7","7","8","6","7","6","5","8","4","3","3","2","3","1","5","1","5","2","1","3","1","5","2","2","3","3","4","5","1","2","2","1","1","3","5","2","7","3","7","3","4","5","5","2","7","3","6","3","3","777148633652137985","仝","240","Female","[""好我"",""坏我"",""好她"",""坏她""]","[""强我"",""弱我"",""强她"",""弱她""]","","","","","","","","match","","","","","","","","","","key","f","16.670491803278594","768","428","j","false","nonmatch","img/circle.png","好我","坏我","prac_ALT2_moral","practice_moral","","","","","","","","",""
"null","<span style='color:red; font-size: 70px;'>错误! </span>","null","html-keyboard-response","57","197215","0.0-8.0-0.0-1.0-0.0-1.23","3","2","2","1","2","5","2","3","4","5","5","1","0","0","1","0","2","1","2","3","4","5","4","5","4","3","4","5","4","6","7","7","8","6","7","6","5","8","4","3","3","2","3","1","5","1","5","2","1","3","1","5","2","2","3","3","4","5","1","2","2","1","1","3","5","2","7","3","7","3","4","5","5","2","7","3","6","3","3","777148633652137985","仝","240","Female","[""好我"",""坏我"",""好她"",""坏她""]","[""强我"",""弱我"",""强她"",""弱她""]","","","","","","","","","","","","","","","","","","","","","","","","","","","","","","feedback_test","","","","","","","","",""
"1070","","j","psychophysics","58","199289","0.0-8.0-0.0-1.0-0.0-0.24","3","2","2","1","2","5","2","3","4","5","5","1","0","0","1","0","2","1","2","3","4","5","4","5","4","3","4","5","4","6","7","7","8","6","7","6","5","8","4","3","3","2","3","1","5","1","5","2","1","3","1","5","2","2","3","3","4","5","1","2","2","1","1","3","5","2","7","3","7","3","4","5","5","2","7","3","6","3","3","777148633652137985","仝","240","Female","[""好我"",""坏我"",""好她"",""坏她""]","[""强我"",""弱我"",""强她"",""弱她""]","","","","","","","","nonmatch","","","","","","","","","","key","j","16.670161290322394","768","428","j","true","nonmatch","img/pentagon.png","坏我","好我","prac_ALT2_moral","practice_moral","","","","","","","","",""
"null","<span style='color:GreenYellow; font-size: 70px;'>正确! </span>","null","html-keyboard-response","59","199790","0.0-8.0-0.0-1.0-0.0-1.24","3","2","2","1","2","5","2","3","4","5","5","1","0","0","1","0","2","1","2","3","4","5","4","5","4","3","4","5","4","6","7","7","8","6","7","6","5","8","4","3","3","2","3","1","5","1","5","2","1","3","1","5","2","2","3","3","4","5","1","2","2","1","1","3","5","2","7","3","7","3","4","5","5","2","7","3","6","3","3","777148633652137985","仝","240","Female","[""好我"",""坏我"",""好她"",""坏她""]","[""强我"",""弱我"",""强她"",""弱她""]","","","","","","","","","","","","","","","","","","","","","","","","","","","","","","feedback_test","","","","","","","","",""
"1063","","j","psychophysics","60","201867","0.0-8.0-0.0-1.0-0.0-0.25","3","2","2","1","2","5","2","3","4","5","5","1","0","0","1","0","2","1","2","3","4","5","4","5","4","3","4","5","4","6","7","7","8","6","7","6","5","8","4","3","3","2","3","1","5","1","5","2","1","3","1","5","2","2","3","3","4","5","1","2","2","1","1","3","5","2","7","3","7","3","4","5","5","2","7","3","6","3","3","777148633652137985","仝","240","Female","[""好我"",""坏我"",""好她"",""坏她""]","[""强我"",""弱我"",""强她"",""弱她""]","","","","","","","","nonmatch","","","","","","","","","","key","j","16.666666666666668","768","428","f","false","match","img/circle.png","坏我","坏我","prac_ALT2_moral","practice_moral","","","","","","","","",""
"null","<span style='color:red; font-size: 70px;'>错误! </span>","null","html-keyboard-response","61","202367","0.0-8.0-0.0-1.0-0.0-1.25","3","2","2","1","2","5","2","3","4","5","5","1","0","0","1","0","2","1","2","3","4","5","4","5","4","3","4","5","4","6","7","7","8","6","7","6","5","8","4","3","3","2","3","1","5","1","5","2","1","3","1","5","2","2","3","3","4","5","1","2","2","1","1","3","5","2","7","3","7","3","4","5","5","2","7","3","6","3","3","777148633652137985","仝","240","Female","[""好我"",""坏我"",""好她"",""坏她""]","[""强我"",""弱我"",""强她"",""弱她""]","","","","","","","","","","","","","","","","","","","","","","","","","","","","","","feedback_test","","","","","","","","",""
"922","","j","psychophysics","62","204291","0.0-8.0-0.0-1.0-0.0-0.26","3","2","2","1","2","5","2","3","4","5","5","1","0","0","1","0","2","1","2","3","4","5","4","5","4","3","4","5","4","6","7","7","8","6","7","6","5","8","4","3","3","2","3","1","5","1","5","2","1","3","1","5","2","2","3","3","4","5","1","2","2","1","1","3","5","2","7","3","7","3","4","5","5","2","7","3","6","3","3","777148633652137985","仝","240","Female","[""好我"",""坏我"",""好她"",""坏她""]","[""强我"",""弱我"",""强她"",""弱她""]","","","","","","","","nonmatch","","","","","","","","","","key","j","16.67217391304363","768","428","f","false","match","img/trapezoid.png","坏她","坏她","prac_ALT2_moral","practice_moral","","","","","","","","",""
"null","<span style='color:red; font-size: 70px;'>错误! </span>","null","html-keyboard-response","63","204793","0.0-8.0-0.0-1.0-0.0-1.26","3","2","2","1","2","5","2","3","4","5","5","1","0","0","1","0","2","1","2","3","4","5","4","5","4","3","4","5","4","6","7","7","8","6","7","6","5","8","4","3","3","2","3","1","5","1","5","2","1","3","1","5","2","2","3","3","4","5","1","2","2","1","1","3","5","2","7","3","7","3","4","5","5","2","7","3","6","3","3","777148633652137985","仝","240","Female","[""好我"",""坏我"",""好她"",""坏她""]","[""强我"",""弱我"",""强她"",""弱她""]","","","","","","","","","","","","","","","","","","","","","","","","","","","","","","feedback_test","","","","","","","","",""
"1122","","f","psychophysics","64","206917","0.0-8.0-0.0-1.0-0.0-0.27","3","2","2","1","2","5","2","3","4","5","5","1","0","0","1","0","2","1","2","3","4","5","4","5","4","3","4","5","4","6","7","7","8","6","7","6","5","8","4","3","3","2","3","1","5","1","5","2","1","3","1","5","2","2","3","3","4","5","1","2","2","1","1","3","5","2","7","3","7","3","4","5","5","2","7","3","6","3","3","777148633652137985","仝","240","Female","[""好我"",""坏我"",""好她"",""坏她""]","[""强我"",""弱我"",""强她"",""弱她""]","","","","","","","","match","","","","","","","","","","key","f","16.672222222222313","768","428","j","false","nonmatch","img/circle.png","好我","坏我","prac_ALT2_moral","practice_moral","","","","","","","","",""
"null","<span style='color:red; font-size: 70px;'>错误! </span>","null","html-keyboard-response","65","207418","0.0-8.0-0.0-1.0-0.0-1.27","3","2","2","1","2","5","2","3","4","5","5","1","0","0","1","0","2","1","2","3","4","5","4","5","4","3","4","5","4","6","7","7","8","6","7","6","5","8","4","3","3","2","3","1","5","1","5","2","1","3","1","5","2","2","3","3","4","5","1","2","2","1","1","3","5","2","7","3","7","3","4","5","5","2","7","3","6","3","3","777148633652137985","仝","240","Female","[""好我"",""坏我"",""好她"",""坏她""]","[""强我"",""弱我"",""强她"",""弱她""]","","","","","","","","","","","","","","","","","","","","","","","","","","","","","","feedback_test","","","","","","","","",""
"926","","f","psychophysics","66","209345","0.0-8.0-0.0-1.0-0.0-0.28","3","2","2","1","2","5","2","3","4","5","5","1","0","0","1","0","2","1","2","3","4","5","4","5","4","3","4","5","4","6","7","7","8","6","7","6","5","8","4","3","3","2","3","1","5","1","5","2","1","3","1","5","2","2","3","3","4","5","1","2","2","1","1","3","5","2","7","3","7","3","4","5","5","2","7","3","6","3","3","777148633652137985","仝","240","Female","[""好我"",""坏我"",""好她"",""坏她""]","[""强我"",""弱我"",""强她"",""弱她""]","","","","","","","","match","","","","","","","","","","key","f","16.672173913043377","768","428","f","true","match","img/triangle.png","好她","好她","prac_ALT2_moral","practice_moral","","","","","","","","",""
"null","<span style='color:GreenYellow; font-size: 70px;'>正确! </span>","null","html-keyboard-response","67","209847","0.0-8.0-0.0-1.0-0.0-1.28","3","2","2","1","2","5","2","3","4","5","5","1","0","0","1","0","2","1","2","3","4","5","4","5","4","3","4","5","4","6","7","7","8","6","7","6","5","8","4","3","3","2","3","1","5","1","5","2","1","3","1","5","2","2","3","3","4","5","1","2","2","1","1","3","5","2","7","3","7","3","4","5","5","2","7","3","6","3","3","777148633652137985","仝","240","Female","[""好我"",""坏我"",""好她"",""坏她""]","[""强我"",""弱我"",""强她"",""弱她""]","","","","","","","","","","","","","","","","","","","","","","","","","","","","","","feedback_test","","","","","","","","",""
"783","","f","psychophysics","68","211631","0.0-8.0-0.0-1.0-0.0-0.29","3","2","2","1","2","5","2","3","4","5","5","1","0","0","1","0","2","1","2","3","4","5","4","5","4","3","4","5","4","6","7","7","8","6","7","6","5","8","4","3","3","2","3","1","5","1","5","2","1","3","1","5","2","2","3","3","4","5","1","2","2","1","1","3","5","2","7","3","7","3","4","5","5","2","7","3","6","3","3","777148633652137985","仝","240","Female","[""好我"",""坏我"",""好她"",""坏她""]","[""强我"",""弱我"",""强她"",""弱她""]","","","","","","","","match","","","","","","","","","","key","f","16.672641509433852","768","428","f","true","match","img/pentagon.png","好我","好我","prac_ALT2_moral","practice_moral","","","","","","","","",""
"null","<span style='color:GreenYellow; font-size: 70px;'>正确! </span>","null","html-keyboard-response","69","212131","0.0-8.0-0.0-1.0-0.0-1.29","3","2","2","1","2","5","2","3","4","5","5","1","0","0","1","0","2","1","2","3","4","5","4","5","4","3","4","5","4","6","7","7","8","6","7","6","5","8","4","3","3","2","3","1","5","1","5","2","1","3","1","5","2","2","3","3","4","5","1","2","2","1","1","3","5","2","7","3","7","3","4","5","5","2","7","3","6","3","3","777148633652137985","仝","240","Female","[""好我"",""坏我"",""好她"",""坏她""]","[""强我"",""弱我"",""强她"",""弱她""]","","","","","","","","","","","","","","","","","","","","","","","","","","","","","","feedback_test","","","","","","","","",""
"862","","f","psychophysics","70","213995","0.0-8.0-0.0-1.0-0.0-0.30","3","2","2","1","2","5","2","3","4","5","5","1","0","0","1","0","2","1","2","3","4","5","4","5","4","3","4","5","4","6","7","7","8","6","7","6","5","8","4","3","3","2","3","1","5","1","5","2","1","3","1","5","2","2","3","3","4","5","1","2","2","1","1","3","5","2","7","3","7","3","4","5","5","2","7","3","6","3","3","777148633652137985","仝","240","Female","[""好我"",""坏我"",""好她"",""坏她""]","[""强我"",""弱我"",""强她"",""弱她""]","","","","","","","","match","","","","","","","","","","key","f","16.669369369369527","768","428","f","true","match","img/trapezoid.png","坏她","坏她","prac_ALT2_moral","practice_moral","","","","","","","","",""
"null","<span style='color:GreenYellow; font-size: 70px;'>正确! </span>","null","html-keyboard-response","71","214497","0.0-8.0-0.0-1.0-0.0-1.30","3","2","2","1","2","5","2","3","4","5","5","1","0","0","1","0","2","1","2","3","4","5","4","5","4","3","4","5","4","6","7","7","8","6","7","6","5","8","4","3","3","2","3","1","5","1","5","2","1","3","1","5","2","2","3","3","4","5","1","2","2","1","1","3","5","2","7","3","7","3","4","5","5","2","7","3","6","3","3","777148633652137985","仝","240","Female","[""好我"",""坏我"",""好她"",""坏她""]","[""强我"",""弱我"",""强她"",""弱她""]","","","","","","","","","","","","","","","","","","","","","","","","","","","","","","feedback_test","","","","","","","","",""
"917","","j","psychophysics","72","216417","0.0-8.0-0.0-1.0-0.0-0.31","3","2","2","1","2","5","2","3","4","5","5","1","0","0","1","0","2","1","2","3","4","5","4","5","4","3","4","5","4","6","7","7","8","6","7","6","5","8","4","3","3","2","3","1","5","1","5","2","1","3","1","5","2","2","3","3","4","5","1","2","2","1","1","3","5","2","7","3","7","3","4","5","5","2","7","3","6","3","3","777148633652137985","仝","240","Female","[""好我"",""坏我"",""好她"",""坏她""]","[""强我"",""弱我"",""强她"",""弱她""]","","","","","","","","nonmatch","","","","","","","","","","key","j","16.67105263157895","768","428","f","false","match","img/circle.png","坏我","坏我","prac_ALT2_moral","practice_moral","","","","","","","","",""
"null","<span style='color:red; font-size: 70px;'>错误! </span>","null","html-keyboard-response","73","216929","0.0-8.0-0.0-1.0-0.0-1.31","3","2","2","1","2","5","2","3","4","5","5","1","0","0","1","0","2","1","2","3","4","5","4","5","4","3","4","5","4","6","7","7","8","6","7","6","5","8","4","3","3","2","3","1","5","1","5","2","1","3","1","5","2","2","3","3","4","5","1","2","2","1","1","3","5","2","7","3","7","3","4","5","5","2","7","3","6","3","3","777148633652137985","仝","240","Female","[""好我"",""坏我"",""好她"",""坏她""]","[""强我"",""弱我"",""强她"",""弱她""]","","","","","","","","","","","","","","","","","","","","","","","","","","","","","","feedback_test","","","","","","","","",""
"850","","f","psychophysics","74","218780","0.0-8.0-0.0-1.0-0.0-0.32","3","2","2","1","2","5","2","3","4","5","5","1","0","0","1","0","2","1","2","3","4","5","4","5","4","3","4","5","4","6","7","7","8","6","7","6","5","8","4","3","3","2","3","1","5","1","5","2","1","3","1","5","2","2","3","3","4","5","1","2","2","1","1","3","5","2","7","3","7","3","4","5","5","2","7","3","6","3","3","777148633652137985","仝","240","Female","[""好我"",""坏我"",""好她"",""坏她""]","[""强我"",""弱我"",""强她"",""弱她""]","","","","","","","","match","","","","","","","","","","key","f","16.668181818181818","768","428","j","false","nonmatch","img/circle.png","好她","坏我","prac_ALT2_moral","practice_moral","","","","","","","","",""
"null","<span style='color:red; font-size: 70px;'>错误! </span>","null","html-keyboard-response","75","219282","0.0-8.0-0.0-1.0-0.0-1.32","3","2","2","1","2","5","2","3","4","5","5","1","0","0","1","0","2","1","2","3","4","5","4","5","4","3","4","5","4","6","7","7","8","6","7","6","5","8","4","3","3","2","3","1","5","1","5","2","1","3","1","5","2","2","3","3","4","5","1","2","2","1","1","3","5","2","7","3","7","3","4","5","5","2","7","3","6","3","3","777148633652137985","仝","240","Female","[""好我"",""坏我"",""好她"",""坏她""]","[""强我"",""弱我"",""强她"",""弱她""]","","","","","","","","","","","","","","","","","","","","","","","","","","","","","","feedback_test","","","","","","","","",""
"878","","f","psychophysics","76","221161","0.0-8.0-0.0-1.0-0.0-0.33","3","2","2","1","2","5","2","3","4","5","5","1","0","0","1","0","2","1","2","3","4","5","4","5","4","3","4","5","4","6","7","7","8","6","7","6","5","8","4","3","3","2","3","1","5","1","5","2","1","3","1","5","2","2","3","3","4","5","1","2","2","1","1","3","5","2","7","3","7","3","4","5","5","2","7","3","6","3","3","777148633652137985","仝","240","Female","[""好我"",""坏我"",""好她"",""坏她""]","[""强我"",""弱我"",""强她"",""弱她""]","","","","","","","","match","","","","","","","","","","key","f","16.671428571428415","768","428","j","false","nonmatch","img/trapezoid.png","坏我","坏她","prac_ALT2_moral","practice_moral","","","","","","","","",""
"null","<span style='color:red; font-size: 70px;'>错误! </span>","null","html-keyboard-response","77","221664","0.0-8.0-0.0-1.0-0.0-1.33","3","2","2","1","2","5","2","3","4","5","5","1","0","0","1","0","2","1","2","3","4","5","4","5","4","3","4","5","4","6","7","7","8","6","7","6","5","8","4","3","3","2","3","1","5","1","5","2","1","3","1","5","2","2","3","3","4","5","1","2","2","1","1","3","5","2","7","3","7","3","4","5","5","2","7","3","6","3","3","777148633652137985","仝","240","Female","[""好我"",""坏我"",""好她"",""坏她""]","[""强我"",""弱我"",""强她"",""弱她""]","","","","","","","","","","","","","","","","","","","","","","","","","","","","","","feedback_test","","","","","","","","",""
"782","","f","psychophysics","78","223449","0.0-8.0-0.0-1.0-0.0-0.34","3","2","2","1","2","5","2","3","4","5","5","1","0","0","1","0","2","1","2","3","4","5","4","5","4","3","4","5","4","6","7","7","8","6","7","6","5","8","4","3","3","2","3","1","5","1","5","2","1","3","1","5","2","2","3","3","4","5","1","2","2","1","1","3","5","2","7","3","7","3","4","5","5","2","7","3","6","3","3","777148633652137985","仝","240","Female","[""好我"",""坏我"",""好她"",""坏她""]","[""强我"",""弱我"",""强她"",""弱她""]","","","","","","","","match","","","","","","","","","","key","f","16.671698113207658","768","428","j","false","nonmatch","img/triangle.png","坏我","好她","prac_ALT2_moral","practice_moral","","","","","","","","",""
"null","<span style='color:red; font-size: 70px;'>错误! </span>","null","html-keyboard-response","79","223950","0.0-8.0-0.0-1.0-0.0-1.34","3","2","2","1","2","5","2","3","4","5","5","1","0","0","1","0","2","1","2","3","4","5","4","5","4","3","4","5","4","6","7","7","8","6","7","6","5","8","4","3","3","2","3","1","5","1","5","2","1","3","1","5","2","2","3","3","4","5","1","2","2","1","1","3","5","2","7","3","7","3","4","5","5","2","7","3","6","3","3","777148633652137985","仝","240","Female","[""好我"",""坏我"",""好她"",""坏她""]","[""强我"",""弱我"",""强她"",""弱她""]","","","","","","","","","","","","","","","","","","","","","","","","","","","","","","feedback_test","","","","","","","","",""
"838","","f","psychophysics","80","225789","0.0-8.0-0.0-1.0-0.0-0.35","3","2","2","1","2","5","2","3","4","5","5","1","0","0","1","0","2","1","2","3","4","5","4","5","4","3","4","5","4","6","7","7","8","6","7","6","5","8","4","3","3","2","3","1","5","1","5","2","1","3","1","5","2","2","3","3","4","5","1","2","2","1","1","3","5","2","7","3","7","3","4","5","5","2","7","3","6","3","3","777148633652137985","仝","240","Female","[""好我"",""坏我"",""好她"",""坏她""]","[""强我"",""弱我"",""强她"",""弱她""]","","","","","","","","match","","","","","","","","","","key","f","16.67155963302763","768","428","f","true","match","img/trapezoid.png","坏她","坏她","prac_ALT2_moral","practice_moral","","","","","","","","",""
"null","<span style='color:GreenYellow; font-size: 70px;'>正确! </span>","null","html-keyboard-response","81","226290","0.0-8.0-0.0-1.0-0.0-1.35","3","2","2","1","2","5","2","3","4","5","5","1","0","0","1","0","2","1","2","3","4","5","4","5","4","3","4","5","4","6","7","7","8","6","7","6","5","8","4","3","3","2","3","1","5","1","5","2","1","3","1","5","2","2","3","3","4","5","1","2","2","1","1","3","5","2","7","3","7","3","4","5","5","2","7","3","6","3","3","777148633652137985","仝","240","Female","[""好我"",""坏我"",""好她"",""坏她""]","[""强我"",""弱我"",""强她"",""弱她""]","","","","","","","","","","","","","","","","","","","","","","","","","","","","","","feedback_test","","","","","","","","",""
"885","","f","psychophysics","82","228176","0.0-8.0-0.0-1.0-0.0-0.36","3","2","2","1","2","5","2","3","4","5","5","1","0","0","1","0","2","1","2","3","4","5","4","5","4","3","4","5","4","6","7","7","8","6","7","6","5","8","4","3","3","2","3","1","5","1","5","2","1","3","1","5","2","2","3","3","4","5","1","2","2","1","1","3","5","2","7","3","7","3","4","5","5","2","7","3","6","3","3","777148633652137985","仝","240","Female","[""好我"",""坏我"",""好她"",""坏她""]","[""强我"",""弱我"",""强她"",""弱她""]","","","","","","","","match","","","","","","","","","","key","f","16.672321428571585","768","428","f","true","match","img/circle.png","坏我","坏我","prac_ALT2_moral","practice_moral","","","","","","","","",""
"null","<span style='color:GreenYellow; font-size: 70px;'>正确! </span>","null","html-keyboard-response","83","228678","0.0-8.0-0.0-1.0-0.0-1.36","3","2","2","1","2","5","2","3","4","5","5","1","0","0","1","0","2","1","2","3","4","5","4","5","4","3","4","5","4","6","7","7","8","6","7","6","5","8","4","3","3","2","3","1","5","1","5","2","1","3","1","5","2","2","3","3","4","5","1","2","2","1","1","3","5","2","7","3","7","3","4","5","5","2","7","3","6","3","3","777148633652137985","仝","240","Female","[""好我"",""坏我"",""好她"",""坏她""]","[""强我"",""弱我"",""强她"",""弱她""]","","","","","","","","","","","","","","","","","","","","","","","","","","","","","","feedback_test","","","","","","","","",""
"702","","j","psychophysics","84","230381","0.0-8.0-0.0-1.0-0.0-0.37","3","2","2","1","2","5","2","3","4","5","5","1","0","0","1","0","2","1","2","3","4","5","4","5","4","3","4","5","4","6","7","7","8","6","7","6","5","8","4","3","3","2","3","1","5","1","5","2","1","3","1","5","2","2","3","3","4","5","1","2","2","1","1","3","5","2","7","3","7","3","4","5","5","2","7","3","6","3","3","777148633652137985","仝","240","Female","[""好我"",""坏我"",""好她"",""坏她""]","[""强我"",""弱我"",""强她"",""弱她""]","","","","","","","","nonmatch","","","","","","","","","","key","j","16.673267326732674","768","428","j","true","nonmatch","img/circle.png","坏她","坏我","prac_ALT2_moral","practice_moral","","","","","","","","",""
"null","<span style='color:GreenYellow; font-size: 70px;'>正确! </span>","null","html-keyboard-response","85","230888","0.0-8.0-0.0-1.0-0.0-1.37","3","2","2","1","2","5","2","3","4","5","5","1","0","0","1","0","2","1","2","3","4","5","4","5","4","3","4","5","4","6","7","7","8","6","7","6","5","8","4","3","3","2","3","1","5","1","5","2","1","3","1","5","2","2","3","3","4","5","1","2","2","1","1","3","5","2","7","3","7","3","4","5","5","2","7","3","6","3","3","777148633652137985","仝","240","Female","[""好我"",""坏我"",""好她"",""坏她""]","[""强我"",""弱我"",""强她"",""弱她""]","","","","","","","","","","","","","","","","","","","","","","","","","","","","","","feedback_test","","","","","","","","",""
"738","","f","psychophysics","86","232626","0.0-8.0-0.0-1.0-0.0-0.38","3","2","2","1","2","5","2","3","4","5","5","1","0","0","1","0","2","1","2","3","4","5","4","5","4","3","4","5","4","6","7","7","8","6","7","6","5","8","4","3","3","2","3","1","5","1","5","2","1","3","1","5","2","2","3","3","4","5","1","2","2","1","1","3","5","2","7","3","7","3","4","5","5","2","7","3","6","3","3","777148633652137985","仝","240","Female","[""好我"",""坏我"",""好她"",""坏她""]","[""强我"",""弱我"",""强她"",""弱她""]","","","","","","","","match","","","","","","","","","","key","f","16.674757281553397","768","428","f","true","match","img/triangle.png","好她","好她","prac_ALT2_moral","practice_moral","","","","","","","","",""
"null","<span style='color:GreenYellow; font-size: 70px;'>正确! </span>","null","html-keyboard-response","87","233128","0.0-8.0-0.0-1.0-0.0-1.38","3","2","2","1","2","5","2","3","4","5","5","1","0","0","1","0","2","1","2","3","4","5","4","5","4","3","4","5","4","6","7","7","8","6","7","6","5","8","4","3","3","2","3","1","5","1","5","2","1","3","1","5","2","2","3","3","4","5","1","2","2","1","1","3","5","2","7","3","7","3","4","5","5","2","7","3","6","3","3","777148633652137985","仝","240","Female","[""好我"",""坏我"",""好她"",""坏她""]","[""强我"",""弱我"",""强她"",""弱她""]","","","","","","","","","","","","","","","","","","","","","","","","","","","","","","feedback_test","","","","","","","","",""
"905","","j","psychophysics","88","235035","0.0-8.0-0.0-1.0-0.0-0.39","3","2","2","1","2","5","2","3","4","5","5","1","0","0","1","0","2","1","2","3","4","5","4","5","4","3","4","5","4","6","7","7","8","6","7","6","5","8","4","3","3","2","3","1","5","1","5","2","1","3","1","5","2","2","3","3","4","5","1","2","2","1","1","3","5","2","7","3","7","3","4","5","5","2","7","3","6","3","3","777148633652137985","仝","240","Female","[""好我"",""坏我"",""好她"",""坏她""]","[""强我"",""弱我"",""强她"",""弱她""]","","","","","","","","nonmatch","","","","","","","","","","key","j","16.674336283185685","768","428","j","true","nonmatch","img/trapezoid.png","好她","坏她","prac_ALT2_moral","practice_moral","","","","","","","","",""
"null","<span style='color:GreenYellow; font-size: 70px;'>正确! </span>","null","html-keyboard-response","89","235536","0.0-8.0-0.0-1.0-0.0-1.39","3","2","2","1","2","5","2","3","4","5","5","1","0","0","1","0","2","1","2","3","4","5","4","5","4","3","4","5","4","6","7","7","8","6","7","6","5","8","4","3","3","2","3","1","5","1","5","2","1","3","1","5","2","2","3","3","4","5","1","2","2","1","1","3","5","2","7","3","7","3","4","5","5","2","7","3","6","3","3","777148633652137985","仝","240","Female","[""好我"",""坏我"",""好她"",""坏她""]","[""强我"",""弱我"",""强她"",""弱她""]","","","","","","","","","","","","","","","","","","","","","","","","","","","","","","feedback_test","","","","","","","","",""
"841","","j","psychophysics","90","237380","0.0-8.0-0.0-1.0-0.0-0.40","3","2","2","1","2","5","2","3","4","5","5","1","0","0","1","0","2","1","2","3","4","5","4","5","4","3","4","5","4","6","7","7","8","6","7","6","5","8","4","3","3","2","3","1","5","1","5","2","1","3","1","5","2","2","3","3","4","5","1","2","2","1","1","3","5","2","7","3","7","3","4","5","5","2","7","3","6","3","3","777148633652137985","仝","240","Female","[""好我"",""坏我"",""好她"",""坏她""]","[""强我"",""弱我"",""强她"",""弱她""]","","","","","","","","nonmatch","","","","","","","","","","key","j","16.670909090909248","768","428","j","true","nonmatch","img/pentagon.png","坏她","好我","prac_ALT2_moral","practice_moral","","","","","","","","",""
"null","<span style='color:GreenYellow; font-size: 70px;'>正确! </span>","null","html-keyboard-response","91","237881","0.0-8.0-0.0-1.0-0.0-1.40","3","2","2","1","2","5","2","3","4","5","5","1","0","0","1","0","2","1","2","3","4","5","4","5","4","3","4","5","4","6","7","7","8","6","7","6","5","8","4","3","3","2","3","1","5","1","5","2","1","3","1","5","2","2","3","3","4","5","1","2","2","1","1","3","5","2","7","3","7","3","4","5","5","2","7","3","6","3","3","777148633652137985","仝","240","Female","[""好我"",""坏我"",""好她"",""坏她""]","[""强我"",""弱我"",""强她"",""弱她""]","","","","","","","","","","","","","","","","","","","","","","","","","","","","","","feedback_test","","","","","","","","",""
"1034","","j","psychophysics","92","239917","0.0-8.0-0.0-1.0-0.0-0.41","3","2","2","1","2","5","2","3","4","5","5","1","0","0","1","0","2","1","2","3","4","5","4","5","4","3","4","5","4","6","7","7","8","6","7","6","5","8","4","3","3","2","3","1","5","1","5","2","1","3","1","5","2","2","3","3","4","5","1","2","2","1","1","3","5","2","7","3","7","3","4","5","5","2","7","3","6","3","3","777148633652137985","仝","240","Female","[""好我"",""坏我"",""好她"",""坏她""]","[""强我"",""弱我"",""强她"",""弱她""]","","","","","","","","nonmatch","","","","","","","","","","key","j","16.671900826446183","768","428","j","true","nonmatch","img/triangle.png","好我","好她","prac_ALT2_moral","practice_moral","","","","","","","","",""
"null","<span style='color:GreenYellow; font-size: 70px;'>正确! </span>","null","html-keyboard-response","93","240419","0.0-8.0-0.0-1.0-0.0-1.41","3","2","2","1","2","5","2","3","4","5","5","1","0","0","1","0","2","1","2","3","4","5","4","5","4","3","4","5","4","6","7","7","8","6","7","6","5","8","4","3","3","2","3","1","5","1","5","2","1","3","1","5","2","2","3","3","4","5","1","2","2","1","1","3","5","2","7","3","7","3","4","5","5","2","7","3","6","3","3","777148633652137985","仝","240","Female","[""好我"",""坏我"",""好她"",""坏她""]","[""强我"",""弱我"",""强她"",""弱她""]","","","","","","","","","","","","","","","","","","","","","","","","","","","","","","feedback_test","","","","","","","","",""
"1078","","j","psychophysics","94","242499","0.0-8.0-0.0-1.0-0.0-0.42","3","2","2","1","2","5","2","3","4","5","5","1","0","0","1","0","2","1","2","3","4","5","4","5","4","3","4","5","4","6","7","7","8","6","7","6","5","8","4","3","3","2","3","1","5","1","5","2","1","3","1","5","2","2","3","3","4","5","1","2","2","1","1","3","5","2","7","3","7","3","4","5","5","2","7","3","6","3","3","777148633652137985","仝","240","Female","[""好我"",""坏我"",""好她"",""坏她""]","[""强我"",""弱我"",""强她"",""弱她""]","","","","","","","","nonmatch","","","","","","","","","","key","j","16.670967741935577","768","428","j","true","nonmatch","img/triangle.png","坏她","好她","prac_ALT2_moral","practice_moral","","","","","","","","",""
"null","<span style='color:GreenYellow; font-size: 70px;'>正确! </span>","null","html-keyboard-response","95","243000","0.0-8.0-0.0-1.0-0.0-1.42","3","2","2","1","2","5","2","3","4","5","5","1","0","0","1","0","2","1","2","3","4","5","4","5","4","3","4","5","4","6","7","7","8","6","7","6","5","8","4","3","3","2","3","1","5","1","5","2","1","3","1","5","2","2","3","3","4","5","1","2","2","1","1","3","5","2","7","3","7","3","4","5","5","2","7","3","6","3","3","777148633652137985","仝","240","Female","[""好我"",""坏我"",""好她"",""坏她""]","[""强我"",""弱我"",""强她"",""弱她""]","","","","","","","","","","","","","","","","","","","","","","","","","","","","","","feedback_test","","","","","","","","",""
"929","","j","psychophysics","96","244931","0.0-8.0-0.0-1.0-0.0-0.43","3","2","2","1","2","5","2","3","4","5","5","1","0","0","1","0","2","1","2","3","4","5","4","5","4","3","4","5","4","6","7","7","8","6","7","6","5","8","4","3","3","2","3","1","5","1","5","2","1","3","1","5","2","2","3","3","4","5","1","2","2","1","1","3","5","2","7","3","7","3","4","5","5","2","7","3","6","3","3","777148633652137985","仝","240","Female","[""好我"",""坏我"",""好她"",""坏她""]","[""强我"",""弱我"",""强她"",""弱她""]","","","","","","","","nonmatch","","","","","","","","","","key","j","16.671929824561456","768","428","j","true","nonmatch","img/trapezoid.png","好我","坏她","prac_ALT2_moral","practice_moral","","","","","","","","",""
"null","<span style='color:GreenYellow; font-size: 70px;'>正确! </span>","null","html-keyboard-response","97","245431","0.0-8.0-0.0-1.0-0.0-1.43","3","2","2","1","2","5","2","3","4","5","5","1","0","0","1","0","2","1","2","3","4","5","4","5","4","3","4","5","4","6","7","7","8","6","7","6","5","8","4","3","3","2","3","1","5","1","5","2","1","3","1","5","2","2","3","3","4","5","1","2","2","1","1","3","5","2","7","3","7","3","4","5","5","2","7","3","6","3","3","777148633652137985","仝","240","Female","[""好我"",""坏我"",""好她"",""坏她""]","[""强我"",""弱我"",""强她"",""弱她""]","","","","","","","","","","","","","","","","","","","","","","","","","","","","","","feedback_test","","","","","","","","",""
"628","","f","psychophysics","98","247062","0.0-8.0-0.0-1.0-0.0-0.44","3","2","2","1","2","5","2","3","4","5","5","1","0","0","1","0","2","1","2","3","4","5","4","5","4","3","4","5","4","6","7","7","8","6","7","6","5","8","4","3","3","2","3","1","5","1","5","2","1","3","1","5","2","2","3","3","4","5","1","2","2","1","1","3","5","2","7","3","7","3","4","5","5","2","7","3","6","3","3","777148633652137985","仝","240","Female","[""好我"",""坏我"",""好她"",""坏她""]","[""强我"",""弱我"",""强她"",""弱她""]","","","","","","","","match","","","","","","","","","","key","f","16.672916666666726","768","428","f","true","match","img/pentagon.png","好我","好我","prac_ALT2_moral","practice_moral","","","","","","","","",""
"null","<span style='color:GreenYellow; font-size: 70px;'>正确! </span>","null","html-keyboard-response","99","247564","0.0-8.0-0.0-1.0-0.0-1.44","3","2","2","1","2","5","2","3","4","5","5","1","0","0","1","0","2","1","2","3","4","5","4","5","4","3","4","5","4","6","7","7","8","6","7","6","5","8","4","3","3","2","3","1","5","1","5","2","1","3","1","5","2","2","3","3","4","5","1","2","2","1","1","3","5","2","7","3","7","3","4","5","5","2","7","3","6","3","3","777148633652137985","仝","240","Female","[""好我"",""坏我"",""好她"",""坏她""]","[""强我"",""弱我"",""强她"",""弱她""]","","","","","","","","","","","","","","","","","","","","","","","","","","","","","","feedback_test","","","","","","","","",""
"805","","j","psychophysics","100","249370","0.0-8.0-0.0-1.0-0.0-0.45","3","2","2","1","2","5","2","3","4","5","5","1","0","0","1","0","2","1","2","3","4","5","4","5","4","3","4","5","4","6","7","7","8","6","7","6","5","8","4","3","3","2","3","1","5","1","5","2","1","3","1","5","2","2","3","3","4","5","1","2","2","1","1","3","5","2","7","3","7","3","4","5","5","2","7","3","6","3","3","777148633652137985","仝","240","Female","[""好我"",""坏我"",""好她"",""坏她""]","[""强我"",""弱我"",""强她"",""弱她""]","","","","","","","","nonmatch","","","","","","","","","","key","j","16.662616822429854","768","428","j","true","nonmatch","img/pentagon.png","好她","好我","prac_ALT2_moral","practice_moral","","","","","","","","",""
"null","<span style='color:GreenYellow; font-size: 70px;'>正确! </span>","null","html-keyboard-response","101","249872","0.0-8.0-0.0-1.0-0.0-1.45","3","2","2","1","2","5","2","3","4","5","5","1","0","0","1","0","2","1","2","3","4","5","4","5","4","3","4","5","4","6","7","7","8","6","7","6","5","8","4","3","3","2","3","1","5","1","5","2","1","3","1","5","2","2","3","3","4","5","1","2","2","1","1","3","5","2","7","3","7","3","4","5","5","2","7","3","6","3","3","777148633652137985","仝","240","Female","[""好我"",""坏我"",""好她"",""坏她""]","[""强我"",""弱我"",""强她"",""弱她""]","","","","","","","","","","","","","","","","","","","","","","","","","","","","","","feedback_test","","","","","","","","",""
"699","","f","psychophysics","102","251572","0.0-8.0-0.0-1.0-0.0-0.46","3","2","2","1","2","5","2","3","4","5","5","1","0","0","1","0","2","1","2","3","4","5","4","5","4","3","4","5","4","6","7","7","8","6","7","6","5","8","4","3","3","2","3","1","5","1","5","2","1","3","1","5","2","2","3","3","4","5","1","2","2","1","1","3","5","2","7","3","7","3","4","5","5","2","7","3","6","3","3","777148633652137985","仝","240","Female","[""好我"",""坏我"",""好她"",""坏她""]","[""强我"",""弱我"",""强她"",""弱她""]","","","","","","","","match","","","","","","","","","","key","f","16.671287128712756","768","428","f","true","match","img/triangle.png","好她","好她","prac_ALT2_moral","practice_moral","","","","","","","","",""
"null","<span style='color:GreenYellow; font-size: 70px;'>正确! </span>","null","html-keyboard-response","103","252073","0.0-8.0-0.0-1.0-0.0-1.46","3","2","2","1","2","5","2","3","4","5","5","1","0","0","1","0","2","1","2","3","4","5","4","5","4","3","4","5","4","6","7","7","8","6","7","6","5","8","4","3","3","2","3","1","5","1","5","2","1","3","1","5","2","2","3","3","4","5","1","2","2","1","1","3","5","2","7","3","7","3","4","5","5","2","7","3","6","3","3","777148633652137985","仝","240","Female","[""好我"",""坏我"",""好她"",""坏她""]","[""强我"",""弱我"",""强她"",""弱她""]","","","","","","","","","","","","","","","","","","","","","","","","","","","","","","feedback_test","","","","","","","","",""
"583","","f","psychophysics","104","253658","0.0-8.0-0.0-1.0-0.0-0.47","3","2","2","1","2","5","2","3","4","5","5","1","0","0","1","0","2","1","2","3","4","5","4","5","4","3","4","5","4","6","7","7","8","6","7","6","5","8","4","3","3","2","3","1","5","1","5","2","1","3","1","5","2","2","3","3","4","5","1","2","2","1","1","3","5","2","7","3","7","3","4","5","5","2","7","3","6","3","3","777148633652137985","仝","240","Female","[""好我"",""坏我"",""好她"",""坏她""]","[""强我"",""弱我"",""强她"",""弱她""]","","","","","","","","match","","","","","","","","","","key","f","16.671276595744743","768","428","f","true","match","img/pentagon.png","好我","好我","prac_ALT2_moral","practice_moral","","","","","","","","",""
"null","<span style='color:GreenYellow; font-size: 70px;'>正确! </span>","null","html-keyboard-response","105","254159","0.0-8.0-0.0-1.0-0.0-1.47","3","2","2","1","2","5","2","3","4","5","5","1","0","0","1","0","2","1","2","3","4","5","4","5","4","3","4","5","4","6","7","7","8","6","7","6","5","8","4","3","3","2","3","1","5","1","5","2","1","3","1","5","2","2","3","3","4","5","1","2","2","1","1","3","5","2","7","3","7","3","4","5","5","2","7","3","6","3","3","777148633652137985","仝","240","Female","[""好我"",""坏我"",""好她"",""坏她""]","[""强我"",""弱我"",""强她"",""弱她""]","","","","","","","","","","","","","","","","","","","","","","","","","","","","","","feedback_test","","","","","","","","",""
"39016","<style>.context{color:white; font-size: 35px; line-height:40px}</style>                            <div><p class='context'>您正确回答了60% 的试次。</p><p class='context'>您的平均反应时为850毫秒。</p><p class='context'>恭喜您完成练习。按空格键进入正式实验。</p><p class='footer' style='font-size: 35px; line-height:40px;'>请在进入正式实验实验之前将您的<span style='color: lightgreen;'>食指</span>放在电脑键盘的相应键位上进行按键。</p>"," ","html-keyboard-response","106","293180","0.0-8.0-0.0-2.0","3","2","2","1","2","5","2","3","4","5","5","1","0","0","1","0","2","1","2","3","4","5","4","5","4","3","4","5","4","6","7","7","8","6","7","6","5","8","4","3","3","2","3","1","5","1","5","2","1","3","1","5","2","2","3","3","4","5","1","2","2","1","1","3","5","2","7","3","7","3","4","5","5","2","7","3","6","3","3","777148633652137985","仝","240","Female","[""好我"",""坏我"",""好她"",""坏她""]","[""强我"",""弱我"",""强她"",""弱她""]","","","","","","","","","","","","","","","","","","","","","","","","","","","","","","","","","","","","","","",""
"1357","
    <p style='color: white; font-size: 22px'>请您将手指放在按键上，准备进入正式的匹配任务。</p>
    <p> <div style = ""color: green""><按空格键进入下一阶段的匹配任务></div></p>
    "," ","html-keyboard-response","107","294539","0.0-8.0-0.0-3.0","3","2","2","1","2","5","2","3","4","5","5","1","0","0","1","0","2","1","2","3","4","5","4","5","4","3","4","5","4","6","7","7","8","6","7","6","5","8","4","3","3","2","3","1","5","1","5","2","1","3","1","5","2","2","3","3","4","5","1","2","2","1","1","3","5","2","7","3","7","3","4","5","5","2","7","3","6","3","3","777148633652137985","仝","240","Female","[""好我"",""坏我"",""好她"",""坏她""]","[""强我"",""弱我"",""强她"",""弱她""]","","","","","","","","","","","","","","","","","","","","","","","","","","","","","","","","","","","","","","",""
"867","","j","psychophysics","108","296407","0.0-8.0-0.0-4.0-0.0-0.0","3","2","2","1","2","5","2","3","4","5","5","1","0","0","1","0","2","1","2","3","4","5","4","5","4","3","4","5","4","6","7","7","8","6","7","6","5","8","4","3","3","2","3","1","5","1","5","2","1","3","1","5","2","2","3","3","4","5","1","2","2","1","1","3","5","2","7","3","7","3","4","5","5","2","7","3","6","3","3","777148633652137985","仝","240","Female","[""好我"",""坏我"",""好她"",""坏她""]","[""强我"",""弱我"",""强她"",""弱她""]","","","","","","","","nonmatch","","","","","","","","","","key","j","16.672972972973078","768","428","f","false","match","img/triangle.png","好她","好她","ALT2","moral","","","","","","","","",""
"null","<span style='color:red; font-size: 70px;'>错误! </span>","null","html-keyboard-response","109","296907","0.0-8.0-0.0-4.0-0.0-1.0","3","2","2","1","2","5","2","3","4","5","5","1","0","0","1","0","2","1","2","3","4","5","4","5","4","3","4","5","4","6","7","7","8","6","7","6","5","8","4","3","3","2","3","1","5","1","5","2","1","3","1","5","2","2","3","3","4","5","1","2","2","1","1","3","5","2","7","3","7","3","4","5","5","2","7","3","6","3","3","777148633652137985","仝","240","Female","[""好我"",""坏我"",""好她"",""坏她""]","[""强我"",""弱我"",""强她"",""弱她""]","","","","","","","","","","","","","","","","","","","","","","","","","","","","","","feedback_test","","","","","","","","",""
"743","","j","psychophysics","110","298653","0.0-8.0-0.0-4.0-0.0-0.1","3","2","2","1","2","5","2","3","4","5","5","1","0","0","1","0","2","1","2","3","4","5","4","5","4","3","4","5","4","6","7","7","8","6","7","6","5","8","4","3","3","2","3","1","5","1","5","2","1","3","1","5","2","2","3","3","4","5","1","2","2","1","1","3","5","2","7","3","7","3","4","5","5","2","7","3","6","3","3","777148633652137985","仝","240","Female","[""好我"",""坏我"",""好她"",""坏她""]","[""强我"",""弱我"",""强她"",""弱她""]","","","","","","","","nonmatch","","","","","","","","","","key","j","16.672115384615047","768","428","j","true","nonmatch","img/trapezoid.png","好她","坏她","ALT2","moral","","","","","","","","",""
"null","<span style='color:GreenYellow; font-size: 70px;'>正确! </span>","null","html-keyboard-response","111","299156","0.0-8.0-0.0-4.0-0.0-1.1","3","2","2","1","2","5","2","3","4","5","5","1","0","0","1","0","2","1","2","3","4","5","4","5","4","3","4","5","4","6","7","7","8","6","7","6","5","8","4","3","3","2","3","1","5","1","5","2","1","3","1","5","2","2","3","3","4","5","1","2","2","1","1","3","5","2","7","3","7","3","4","5","5","2","7","3","6","3","3","777148633652137985","仝","240","Female","[""好我"",""坏我"",""好她"",""坏她""]","[""强我"",""弱我"",""强她"",""弱她""]","","","","","","","","","","","","","","","","","","","","","","","","","","","","","","feedback_test","","","","","","","","",""
"834","","j","psychophysics","112","300991","0.0-8.0-0.0-4.0-0.0-0.2","3","2","2","1","2","5","2","3","4","5","5","1","0","0","1","0","2","1","2","3","4","5","4","5","4","3","4","5","4","6","7","7","8","6","7","6","5","8","4","3","3","2","3","1","5","1","5","2","1","3","1","5","2","2","3","3","4","5","1","2","2","1","1","3","5","2","7","3","7","3","4","5","5","2","7","3","6","3","3","777148633652137985","仝","240","Female","[""好我"",""坏我"",""好她"",""坏她""]","[""强我"",""弱我"",""强她"",""弱她""]","","","","","","","","nonmatch","","","","","","","","","","key","j","16.674311926605505","768","428","f","false","match","img/circle.png","坏我","坏我","ALT2","moral","","","","","","","","",""
"null","<span style='color:red; font-size: 70px;'>错误! </span>","null","html-keyboard-response","113","301493","0.0-8.0-0.0-4.0-0.0-1.2","3","2","2","1","2","5","2","3","4","5","5","1","0","0","1","0","2","1","2","3","4","5","4","5","4","3","4","5","4","6","7","7","8","6","7","6","5","8","4","3","3","2","3","1","5","1","5","2","1","3","1","5","2","2","3","3","4","5","1","2","2","1","1","3","5","2","7","3","7","3","4","5","5","2","7","3","6","3","3","777148633652137985","仝","240","Female","[""好我"",""坏我"",""好她"",""坏她""]","[""强我"",""弱我"",""强她"",""弱她""]","","","","","","","","","","","","","","","","","","","","","","","","","","","","","","feedback_test","","","","","","","","",""
"812","","f","psychophysics","114","303306","0.0-8.0-0.0-4.0-0.0-0.3","3","2","2","1","2","5","2","3","4","5","5","1","0","0","1","0","2","1","2","3","4","5","4","5","4","3","4","5","4","6","7","7","8","6","7","6","5","8","4","3","3","2","3","1","5","1","5","2","1","3","1","5","2","2","3","3","4","5","1","2","2","1","1","3","5","2","7","3","7","3","4","5","5","2","7","3","6","3","3","777148633652137985","仝","240","Female","[""好我"",""坏我"",""好她"",""坏她""]","[""强我"",""弱我"",""强她"",""弱她""]","","","","","","","","match","","","","","","","","","","key","f","16.671296296296298","768","428","f","true","match","img/trapezoid.png","坏她","坏她","ALT2","moral","","","","","","","","",""
"null","<span style='color:GreenYellow; font-size: 70px;'>正确! </span>","null","html-keyboard-response","115","303807","0.0-8.0-0.0-4.0-0.0-1.3","3","2","2","1","2","5","2","3","4","5","5","1","0","0","1","0","2","1","2","3","4","5","4","5","4","3","4","5","4","6","7","7","8","6","7","6","5","8","4","3","3","2","3","1","5","1","5","2","1","3","1","5","2","2","3","3","4","5","1","2","2","1","1","3","5","2","7","3","7","3","4","5","5","2","7","3","6","3","3","777148633652137985","仝","240","Female","[""好我"",""坏我"",""好她"",""坏她""]","[""强我"",""弱我"",""强她"",""弱她""]","","","","","","","","","","","","","","","","","","","","","","","","","","","","","","feedback_test","","","","","","","","",""
"812","","j","psychophysics","116","305621","0.0-8.0-0.0-4.0-0.0-0.4","3","2","2","1","2","5","2","3","4","5","5","1","0","0","1","0","2","1","2","3","4","5","4","5","4","3","4","5","4","6","7","7","8","6","7","6","5","8","4","3","3","2","3","1","5","1","5","2","1","3","1","5","2","2","3","3","4","5","1","2","2","1","1","3","5","2","7","3","7","3","4","5","5","2","7","3","6","3","3","777148633652137985","仝","240","Female","[""好我"",""坏我"",""好她"",""坏她""]","[""强我"",""弱我"",""强她"",""弱她""]","","","","","","","","nonmatch","","","","","","","","","","key","j","16.671296296296298","768","428","j","true","nonmatch","img/circle.png","坏她","坏我","ALT2","moral","","","","","","","","",""
"null","<span style='color:GreenYellow; font-size: 70px;'>正确! </span>","null","html-keyboard-response","117","306122","0.0-8.0-0.0-4.0-0.0-1.4","3","2","2","1","2","5","2","3","4","5","5","1","0","0","1","0","2","1","2","3","4","5","4","5","4","3","4","5","4","6","7","7","8","6","7","6","5","8","4","3","3","2","3","1","5","1","5","2","1","3","1","5","2","2","3","3","4","5","1","2","2","1","1","3","5","2","7","3","7","3","4","5","5","2","7","3","6","3","3","777148633652137985","仝","240","Female","[""好我"",""坏我"",""好她"",""坏她""]","[""强我"",""弱我"",""强她"",""弱她""]","","","","","","","","","","","","","","","","","","","","","","","","","","","","","","feedback_test","","","","","","","","",""
"912","","f","psychophysics","118","308037","0.0-8.0-0.0-4.0-0.0-0.5","3","2","2","1","2","5","2","3","4","5","5","1","0","0","1","0","2","1","2","3","4","5","4","5","4","3","4","5","4","6","7","7","8","6","7","6","5","8","4","3","3","2","3","1","5","1","5","2","1","3","1","5","2","2","3","3","4","5","1","2","2","1","1","3","5","2","7","3","7","3","4","5","5","2","7","3","6","3","3","777148633652137985","仝","240","Female","[""好我"",""坏我"",""好她"",""坏她""]","[""强我"",""弱我"",""强她"",""弱她""]","","","","","","","","match","","","","","","","","","","key","f","16.67105263157895","768","428","j","false","nonmatch","img/pentagon.png","坏我","好我","ALT2","moral","","","","","","","","",""
"null","<span style='color:red; font-size: 70px;'>错误! </span>","null","html-keyboard-response","119","308537","0.0-8.0-0.0-4.0-0.0-1.5","3","2","2","1","2","5","2","3","4","5","5","1","0","0","1","0","2","1","2","3","4","5","4","5","4","3","4","5","4","6","7","7","8","6","7","6","5","8","4","3","3","2","3","1","5","1","5","2","1","3","1","5","2","2","3","3","4","5","1","2","2","1","1","3","5","2","7","3","7","3","4","5","5","2","7","3","6","3","3","777148633652137985","仝","240","Female","[""好我"",""坏我"",""好她"",""坏她""]","[""强我"",""弱我"",""强她"",""弱她""]","","","","","","","","","","","","","","","","","","","","","","","","","","","","","","feedback_test","","","","","","","","",""
"722","","f","psychophysics","120","310260","0.0-8.0-0.0-4.0-0.0-0.6","3","2","2","1","2","5","2","3","4","5","5","1","0","0","1","0","2","1","2","3","4","5","4","5","4","3","4","5","4","6","7","7","8","6","7","6","5","8","4","3","3","2","3","1","5","1","5","2","1","3","1","5","2","2","3","3","4","5","1","2","2","1","1","3","5","2","7","3","7","3","4","5","5","2","7","3","6","3","3","777148633652137985","仝","240","Female","[""好我"",""坏我"",""好她"",""坏她""]","[""强我"",""弱我"",""强她"",""弱她""]","","","","","","","","match","","","","","","","","","","key","f","16.670588235294346","768","428","f","true","match","img/pentagon.png","好我","好我","ALT2","moral","","","","","","","","",""
"null","<span style='color:GreenYellow; font-size: 70px;'>正确! </span>","null","html-keyboard-response","121","310762","0.0-8.0-0.0-4.0-0.0-1.6","3","2","2","1","2","5","2","3","4","5","5","1","0","0","1","0","2","1","2","3","4","5","4","5","4","3","4","5","4","6","7","7","8","6","7","6","5","8","4","3","3","2","3","1","5","1","5","2","1","3","1","5","2","2","3","3","4","5","1","2","2","1","1","3","5","2","7","3","7","3","4","5","5","2","7","3","6","3","3","777148633652137985","仝","240","Female","[""好我"",""坏我"",""好她"",""坏她""]","[""强我"",""弱我"",""强她"",""弱她""]","","","","","","","","","","","","","","","","","","","","","","","","","","","","","","feedback_test","","","","","","","","",""
"566","","f","psychophysics","122","312329","0.0-8.0-0.0-4.0-0.0-0.7","3","2","2","1","2","5","2","3","4","5","5","1","0","0","1","0","2","1","2","3","4","5","4","5","4","3","4","5","4","6","7","7","8","6","7","6","5","8","4","3","3","2","3","1","5","1","5","2","1","3","1","5","2","2","3","3","4","5","1","2","2","1","1","3","5","2","7","3","7","3","4","5","5","2","7","3","6","3","3","777148633652137985","仝","240","Female","[""好我"",""坏我"",""好她"",""坏她""]","[""强我"",""弱我"",""强她"",""弱她""]","","","","","","","","match","","","","","","","","","","key","f","16.672043010752688","768","428","f","true","match","img/circle.png","坏我","坏我","ALT2","moral","","","","","","","","",""
"null","<span style='color:GreenYellow; font-size: 70px;'>正确! </span>","null","html-keyboard-response","123","312831","0.0-8.0-0.0-4.0-0.0-1.7","3","2","2","1","2","5","2","3","4","5","5","1","0","0","1","0","2","1","2","3","4","5","4","5","4","3","4","5","4","6","7","7","8","6","7","6","5","8","4","3","3","2","3","1","5","1","5","2","1","3","1","5","2","2","3","3","4","5","1","2","2","1","1","3","5","2","7","3","7","3","4","5","5","2","7","3","6","3","3","777148633652137985","仝","240","Female","[""好我"",""坏我"",""好她"",""坏她""]","[""强我"",""弱我"",""强她"",""弱她""]","","","","","","","","","","","","","","","","","","","","","","","","","","","","","","feedback_test","","","","","","","","",""
"554","","f","psychophysics","124","314386","0.0-8.0-0.0-4.0-0.0-0.8","3","2","2","1","2","5","2","3","4","5","5","1","0","0","1","0","2","1","2","3","4","5","4","5","4","3","4","5","4","6","7","7","8","6","7","6","5","8","4","3","3","2","3","1","5","1","5","2","1","3","1","5","2","2","3","3","4","5","1","2","2","1","1","3","5","2","7","3","7","3","4","5","5","2","7","3","6","3","3","777148633652137985","仝","240","Female","[""好我"",""坏我"",""好她"",""坏她""]","[""强我"",""弱我"",""强她"",""弱她""]","","","","","","","","match","","","","","","","","","","key","f","16.672043010752688","768","428","f","true","match","img/circle.png","坏我","坏我","ALT2","moral","","","","","","","","",""
"null","<span style='color:GreenYellow; font-size: 70px;'>正确! </span>","null","html-keyboard-response","125","314887","0.0-8.0-0.0-4.0-0.0-1.8","3","2","2","1","2","5","2","3","4","5","5","1","0","0","1","0","2","1","2","3","4","5","4","5","4","3","4","5","4","6","7","7","8","6","7","6","5","8","4","3","3","2","3","1","5","1","5","2","1","3","1","5","2","2","3","3","4","5","1","2","2","1","1","3","5","2","7","3","7","3","4","5","5","2","7","3","6","3","3","777148633652137985","仝","240","Female","[""好我"",""坏我"",""好她"",""坏她""]","[""强我"",""弱我"",""强她"",""弱她""]","","","","","","","","","","","","","","","","","","","","","","","","","","","","","","feedback_test","","","","","","","","",""
"646","","f","psychophysics","126","316537","0.0-8.0-0.0-4.0-0.0-0.9","3","2","2","1","2","5","2","3","4","5","5","1","0","0","1","0","2","1","2","3","4","5","4","5","4","3","4","5","4","6","7","7","8","6","7","6","5","8","4","3","3","2","3","1","5","1","5","2","1","3","1","5","2","2","3","3","4","5","1","2","2","1","1","3","5","2","7","3","7","3","4","5","5","2","7","3","6","3","3","777148633652137985","仝","240","Female","[""好我"",""坏我"",""好她"",""坏她""]","[""强我"",""弱我"",""强她"",""弱她""]","","","","","","","","match","","","","","","","","","","key","f","16.670408163265424","768","428","f","true","match","img/pentagon.png","好我","好我","ALT2","moral","","","","","","","","",""
"null","<span style='color:GreenYellow; font-size: 70px;'>正确! </span>","null","html-keyboard-response","127","317037","0.0-8.0-0.0-4.0-0.0-1.9","3","2","2","1","2","5","2","3","4","5","5","1","0","0","1","0","2","1","2","3","4","5","4","5","4","3","4","5","4","6","7","7","8","6","7","6","5","8","4","3","3","2","3","1","5","1","5","2","1","3","1","5","2","2","3","3","4","5","1","2","2","1","1","3","5","2","7","3","7","3","4","5","5","2","7","3","6","3","3","777148633652137985","仝","240","Female","[""好我"",""坏我"",""好她"",""坏她""]","[""强我"",""弱我"",""强她"",""弱她""]","","","","","","","","","","","","","","","","","","","","","","","","","","","","","","feedback_test","","","","","","","","",""
"721","","j","psychophysics","128","318759","0.0-8.0-0.0-4.0-0.0-0.10","3","2","2","1","2","5","2","3","4","5","5","1","0","0","1","0","2","1","2","3","4","5","4","5","4","3","4","5","4","6","7","7","8","6","7","6","5","8","4","3","3","2","3","1","5","1","5","2","1","3","1","5","2","2","3","3","4","5","1","2","2","1","1","3","5","2","7","3","7","3","4","5","5","2","7","3","6","3","3","777148633652137985","仝","240","Female","[""好我"",""坏我"",""好她"",""坏她""]","[""强我"",""弱我"",""强她"",""弱她""]","","","","","","","","nonmatch","","","","","","","","","","key","j","16.676470588235293","768","428","f","false","match","img/pentagon.png","好我","好我","ALT2","moral","","","","","","","","",""
"null","<span style='color:red; font-size: 70px;'>错误! </span>","null","html-keyboard-response","129","319261","0.0-8.0-0.0-4.0-0.0-1.10","3","2","2","1","2","5","2","3","4","5","5","1","0","0","1","0","2","1","2","3","4","5","4","5","4","3","4","5","4","6","7","7","8","6","7","6","5","8","4","3","3","2","3","1","5","1","5","2","1","3","1","5","2","2","3","3","4","5","1","2","2","1","1","3","5","2","7","3","7","3","4","5","5","2","7","3","6","3","3","777148633652137985","仝","240","Female","[""好我"",""坏我"",""好她"",""坏她""]","[""强我"",""弱我"",""强她"",""弱她""]","","","","","","","","","","","","","","","","","","","","","","","","","","","","","","feedback_test","","","","","","","","",""
"937","","f","psychophysics","130","321199","0.0-8.0-0.0-4.0-0.0-0.11","3","2","2","1","2","5","2","3","4","5","5","1","0","0","1","0","2","1","2","3","4","5","4","5","4","3","4","5","4","6","7","7","8","6","7","6","5","8","4","3","3","2","3","1","5","1","5","2","1","3","1","5","2","2","3","3","4","5","1","2","2","1","1","3","5","2","7","3","7","3","4","5","5","2","7","3","6","3","3","777148633652137985","仝","240","Female","[""好我"",""坏我"",""好她"",""坏她""]","[""强我"",""弱我"",""强她"",""弱她""]","","","","","","","","match","","","","","","","","","","key","f","16.67391304347826","768","428","j","false","nonmatch","img/circle.png","好她","坏我","ALT2","moral","","","","","","","","",""
"null","<span style='color:red; font-size: 70px;'>错误! </span>","null","html-keyboard-response","131","321701","0.0-8.0-0.0-4.0-0.0-1.11","3","2","2","1","2","5","2","3","4","5","5","1","0","0","1","0","2","1","2","3","4","5","4","5","4","3","4","5","4","6","7","7","8","6","7","6","5","8","4","3","3","2","3","1","5","1","5","2","1","3","1","5","2","2","3","3","4","5","1","2","2","1","1","3","5","2","7","3","7","3","4","5","5","2","7","3","6","3","3","777148633652137985","仝","240","Female","[""好我"",""坏我"",""好她"",""坏她""]","[""强我"",""弱我"",""强她"",""弱她""]","","","","","","","","","","","","","","","","","","","","","","","","","","","","","","feedback_test","","","","","","","","",""
"886","","j","psychophysics","132","323589","0.0-8.0-0.0-4.0-0.0-0.12","3","2","2","1","2","5","2","3","4","5","5","1","0","0","1","0","2","1","2","3","4","5","4","5","4","3","4","5","4","6","7","7","8","6","7","6","5","8","4","3","3","2","3","1","5","1","5","2","1","3","1","5","2","2","3","3","4","5","1","2","2","1","1","3","5","2","7","3","7","3","4","5","5","2","7","3","6","3","3","777148633652137985","仝","240","Female","[""好我"",""坏我"",""好她"",""坏她""]","[""强我"",""弱我"",""强她"",""弱她""]","","","","","","","","nonmatch","","","","","","","","","","key","j","16.671428571428674","768","428","j","true","nonmatch","img/triangle.png","坏我","好她","ALT2","moral","","","","","","","","",""
"null","<span style='color:GreenYellow; font-size: 70px;'>正确! </span>","null","html-keyboard-response","133","324090","0.0-8.0-0.0-4.0-0.0-1.12","3","2","2","1","2","5","2","3","4","5","5","1","0","0","1","0","2","1","2","3","4","5","4","5","4","3","4","5","4","6","7","7","8","6","7","6","5","8","4","3","3","2","3","1","5","1","5","2","1","3","1","5","2","2","3","3","4","5","1","2","2","1","1","3","5","2","7","3","7","3","4","5","5","2","7","3","6","3","3","777148633652137985","仝","240","Female","[""好我"",""坏我"",""好她"",""坏她""]","[""强我"",""弱我"",""强她"",""弱她""]","","","","","","","","","","","","","","","","","","","","","","","","","","","","","","feedback_test","","","","","","","","",""
"null","","null","psychophysics","134","326293","0.0-8.0-0.0-4.0-0.0-0.13","3","2","2","1","2","5","2","3","4","5","5","1","0","0","1","0","2","1","2","3","4","5","4","5","4","3","4","5","4","6","7","7","8","6","7","6","5","8","4","3","3","2","3","1","5","1","5","2","1","3","1","5","2","2","3","3","4","5","1","2","2","1","1","3","5","2","7","3","7","3","4","5","5","2","7","3","6","3","3","777148633652137985","仝","240","Female","[""好我"",""坏我"",""好她"",""坏她""]","[""强我"",""弱我"",""强她"",""弱她""]","","","","","","","","null","","","","","","","","","","key","null","16.66793893129771","768","428","j","false","nonmatch","img/trapezoid.png","好我","坏她","ALT2","moral","","","","","","","","",""
"null","<span class='add_' style='color:yellow; font-size: 70px;'> 太慢! </span>","null","html-keyboard-response","135","326794","0.0-8.0-0.0-4.0-0.0-1.13","3","2","2","1","2","5","2","3","4","5","5","1","0","0","1","0","2","1","2","3","4","5","4","5","4","3","4","5","4","6","7","7","8","6","7","6","5","8","4","3","3","2","3","1","5","1","5","2","1","3","1","5","2","2","3","3","4","5","1","2","2","1","1","3","5","2","7","3","7","3","4","5","5","2","7","3","6","3","3","777148633652137985","仝","240","Female","[""好我"",""坏我"",""好她"",""坏她""]","[""强我"",""弱我"",""强她"",""弱她""]","","","","","","","","","","","","","","","","","","","","","","","","","","","","","","feedback_test","","","","","","","","",""
"763","","j","psychophysics","136","328560","0.0-8.0-0.0-4.0-0.0-0.14","3","2","2","1","2","5","2","3","4","5","5","1","0","0","1","0","2","1","2","3","4","5","4","5","4","3","4","5","4","6","7","7","8","6","7","6","5","8","4","3","3","2","3","1","5","1","5","2","1","3","1","5","2","2","3","3","4","5","1","2","2","1","1","3","5","2","7","3","7","3","4","5","5","2","7","3","6","3","3","777148633652137985","仝","240","Female","[""好我"",""坏我"",""好她"",""坏她""]","[""强我"",""弱我"",""强她"",""弱她""]","","","","","","","","nonmatch","","","","","","","","","","key","j","16.67142857142857","768","428","f","false","match","img/triangle.png","好她","好她","ALT2","moral","","","","","","","","",""
"null","<span style='color:red; font-size: 70px;'>错误! </span>","null","html-keyboard-response","137","329062","0.0-8.0-0.0-4.0-0.0-1.14","3","2","2","1","2","5","2","3","4","5","5","1","0","0","1","0","2","1","2","3","4","5","4","5","4","3","4","5","4","6","7","7","8","6","7","6","5","8","4","3","3","2","3","1","5","1","5","2","1","3","1","5","2","2","3","3","4","5","1","2","2","1","1","3","5","2","7","3","7","3","4","5","5","2","7","3","6","3","3","777148633652137985","仝","240","Female","[""好我"",""坏我"",""好她"",""坏她""]","[""强我"",""弱我"",""强她"",""弱她""]","","","","","","","","","","","","","","","","","","","","","","","","","","","","","","feedback_test","","","","","","","","",""
"807","","f","psychophysics","138","330870","0.0-8.0-0.0-4.0-0.0-0.15","3","2","2","1","2","5","2","3","4","5","5","1","0","0","1","0","2","1","2","3","4","5","4","5","4","3","4","5","4","6","7","7","8","6","7","6","5","8","4","3","3","2","3","1","5","1","5","2","1","3","1","5","2","2","3","3","4","5","1","2","2","1","1","3","5","2","7","3","7","3","4","5","5","2","7","3","6","3","3","777148633652137985","仝","240","Female","[""好我"",""坏我"",""好她"",""坏她""]","[""强我"",""弱我"",""强她"",""弱她""]","","","","","","","","match","","","","","","","","","","key","f","16.672897196261683","768","428","f","true","match","img/trapezoid.png","坏她","坏她","ALT2","moral","","","","","","","","",""
