Block1_Old,Num_Source3,Num_Source2,Num_Source1,valence1,valence2,valence3,Num_Old2,Corr_S1,Num_Old1,Corr_S3,Corr_S2,Block3_Old,Block2_Old,Source_2,Source_3,Source_1,domain3,domain2,domain1,Num_Old3,math,Num_All2,valence_all1,All_Words3,Num_All1,valence_all2,Num_All3,All_Words1,valence_all3,Corr_Rec2,Corr_Rec3,Corr_Rec1,domian_all3,domian_all2,domian_all1,All_Words2,trials.thisRepN,trials.thisTrialN,trials.thisN,trials.thisIndex,trials_2.thisRepN,trials_2.thisTrialN,trials_2.thisN,trials_2.thisIndex,trials_4.thisRepN,trials_4.thisTrialN,trials_4.thisN,trials_4.thisIndex,trials_3.thisRepN,trials_3.thisTrialN,trials_3.thisN,trials_3.thisIndex,block_resp_1.keys,block_resp_1.rt,words_rating.keys,words_rating.rt,block_resp_2.keys,block_resp_2.rt,Rec_resp.keys,Rec_resp.corr,Rec_resp.rt,Source_resp.keys,Source_resp.corr,Source_resp.rt,expName,participant,Age,frameRate,Sex,session,date,
,,,,,,,,,,,,,,,,,,,,,,,,,,,,,,,,,,,,,,,,,,,,,,,,,,,,,3,2.42542290688,,,,,,,,,,,moral_self_bias,03,19,59.8222293219,f,001,2018_Apr_02_1011,
无能,material/instr2_2.png,material/instr2_2.png,material/instr2_2.png,2,2,2,material/57.png,j,material/157.png,j,j,无知,无知,friend,friend,friend,2,2,2,material/57.png,,,,,,,,,,,,,,,,,0,0,0,56,,,,,,,,,,,,,,,2,2.95944190025,,,,,,,,,moral_self_bias,03,19,59.8222293219,f,001,2018_Apr_02_1011,
高效,material/instr2_1.png,material/instr2_1.png,material/instr2_1.png,1,1,1,material/169.png,f,material/171.png,f,f,颖悟,颖悟,self,self,self,2,2,2,material/169.png,,,,,,,,,,,,,,,,,0,1,1,70,,,,,,,,,,,,,,,4,1.74265813828,,,,,,,,,moral_self_bias,03,19,59.8222293219,f,001,2018_Apr_02_1011,
公平,material/instr2_2.png,material/instr2_2.png,material/instr2_2.png,1,1,1,material/7.png,j,material/107.png,j,j,公平,公正,friend,friend,friend,1,1,1,material/107.png,,,,,,,,,,,,,,,,,0,2,2,6,,,,,,,,,,,,,,,5,1.16627597809,,,,,,,,,moral_self_bias,03,19,59.8222293219,f,001,2018_Apr_02_1011,
可恶,material/instr2_1.png,material/instr2_1.png,material/instr2_1.png,2,2,2,material/34.png,f,material/134.png,f,f,可恶,可恨,self,self,self,1,1,1,material/134.png,,,,,,,,,,,,,,,,,0,3,3,33,,,,,,,,,,,,,,,4,1.74918198586,,,,,,,,,moral_self_bias,03,19,59.8222293219,f,001,2018_Apr_02_1011,
仁厚,material/instr2_1.png,material/instr2_1.png,material/instr2_1.png,1,1,1,material/3.png,f,material/103.png,f,f,仁厚,仁慈,self,self,self,1,1,1,material/103.png,,,,,,,,,,,,,,,,,0,4,4,2,,,,,,,,,,,,,,,2,1.54201698303,,,,,,,,,moral_self_bias,03,19,59.8222293219,f,001,2018_Apr_02_1011,
正直,material/instr2_2.png,material/instr2_2.png,material/instr2_2.png,1,1,1,material/9.png,j,material/109.png,j,j,正直,秉直,friend,friend,friend,1,1,1,material/109.png,,,,,,,,,,,,,,,,,0,5,5,8,,,,,,,,,,,,,,,5,1.10952591896,,,,,,,,,moral_self_bias,03,19,59.8222293219,f,001,2018_Apr_02_1011,
刻板,material/instr2_2.png,material/instr2_2.png,material/instr2_2.png,2,2,2,material/47.png,j,material/147.png,j,j,死板,死板,friend,friend,friend,2,2,2,material/47.png,,,,,,,,,,,,,,,,,0,6,6,46,,,,,,,,,,,,,,,2,1.70889902115,,,,,,,,,moral_self_bias,03,19,59.8222293219,f,001,2018_Apr_02_1011,
愚钝,material/instr2_1.png,material/instr2_1.png,material/instr2_1.png,2,2,2,material/56.png,f,material/156.png,f,f,愚昧,愚昧,self,self,self,2,2,2,material/56.png,,,,,,,,,,,,,,,,,0,7,7,55,,,,,,,,,,,,,,,3,2.09238386154,,,,,,,,,moral_self_bias,03,19,59.8222293219,f,001,2018_Apr_02_1011,
忠贞,material/instr2_2.png,material/instr2_2.png,material/instr2_2.png,1,1,1,material/14.png,j,material/114.png,j,j,忠贞,爱国,friend,friend,friend,1,1,1,material/114.png,,,,,,,,,,,,,,,,,0,8,8,13,,,,,,,,,,,,,,,5,1.09190702438,,,,,,,,,moral_self_bias,03,19,59.8222293219,f,001,2018_Apr_02_1011,
虚荣,material/instr2_1.png,material/instr2_1.png,material/instr2_1.png,2,2,2,material/43.png,f,material/143.png,f,f,虚荣,拜金,self,self,self,1,1,1,material/143.png,,,,,,,,,,,,,,,,,0,9,9,42,,,,,,,,,,,,,,,2,1.62427091599,,,,,,,,,moral_self_bias,03,19,59.8222293219,f,001,2018_Apr_02_1011,
果敢,material/instr2_1.png,material/instr2_1.png,material/instr2_1.png,1,1,1,material/25.png,f,material/125.png,f,f,果断,果断,self,self,self,2,2,2,material/25.png,,,,,,,,,,,,,,,,,0,10,10,24,,,,,,,,,,,,,,,4,1.6249768734,,,,,,,,,moral_self_bias,03,19,59.8222293219,f,001,2018_Apr_02_1011,
无情,material/instr2_1.png,material/instr2_1.png,material/instr2_1.png,2,2,2,material/172.png,f,material/175.png,f,f,无情,浮夸,self,self,self,1,1,1,material/175.png,,,,,,,,,,,,,,,,,0,11,11,74,,,,,,,,,,,,,,,3,2.00941109657,,,,,,,,,moral_self_bias,03,19,59.8222293219,f,001,2018_Apr_02_1011,
厚道,material/instr2_2.png,material/instr2_2.png,material/instr2_2.png,1,1,1,material/6.png,j,material/106.png,j,j,厚道,诚实,friend,friend,friend,1,1,1,material/106.png,,,,,,,,,,,,,,,,,0,12,12,5,,,,,,,,,,,,,,,4,1.08367109299,,,,,,,,,moral_self_bias,03,19,59.8222293219,f,001,2018_Apr_02_1011,
奸诈,material/instr2_1.png,material/instr2_1.png,material/instr2_1.png,2,2,2,material/42.png,f,material/142.png,f,f,奸诈,阴险,self,self,self,1,1,1,material/142.png,,,,,,,,,,,,,,,,,0,13,13,41,,,,,,,,,,,,,,,2,1.94178199768,,,,,,,,,moral_self_bias,03,19,59.8222293219,f,001,2018_Apr_02_1011,
笨拙,material/instr2_1.png,material/instr2_1.png,material/instr2_1.png,2,2,2,material/60.png,f,material/160.png,f,f,粗拙,粗拙,self,self,self,2,2,2,material/60.png,,,,,,,,,,,,,,,,,0,14,14,59,,,,,,,,,,,,,,,3,1.85873198509,,,,,,,,,moral_self_bias,03,19,59.8222293219,f,001,2018_Apr_02_1011,
恶心,material/instr2_1.png,material/instr2_1.png,material/instr2_1.png,2,2,2,material/73.png,f,material/177.png,f,f,恶心,残虐,self,self,self,1,1,1,material/177.png,,,,,,,,,,,,,,,,,0,15,15,76,,,,,,,,,,,,,,,4,1.22505712509,,,,,,,,,moral_self_bias,03,19,59.8222293219,f,001,2018_Apr_02_1011,
贪污,material/instr2_1.png,material/instr2_1.png,material/instr2_1.png,2,2,2,material/33.png,f,material/133.png,f,f,贪污,腐败,self,self,self,1,1,1,material/133.png,,,,,,,,,,,,,,,,,0,16,16,32,,,,,,,,,,,,,,,1,1.7911260128,,,,,,,,,moral_self_bias,03,19,59.8222293219,f,001,2018_Apr_02_1011,
自律,material/instr2_2.png,material/instr2_2.png,material/instr2_2.png,1,1,1,material/28.png,j,material/128.png,j,j,克己,克己,friend,friend,friend,2,2,2,material/28.png,,,,,,,,,,,,,,,,,0,17,17,27,,,,,,,,,,,,,,,3,2.80881690979,,,,,,,,,moral_self_bias,03,19,59.8222293219,f,001,2018_Apr_02_1011,
缓慢,material/instr2_1.png,material/instr2_1.png,material/instr2_1.png,2,2,2,material/52.png,f,material/152.png,f,f,拖延,拖延,self,self,self,2,2,2,material/52.png,,,,,,,,,,,,,,,,,0,18,18,51,,,,,,,,,,,,,,,5,1.2079949379,,,,,,,,,moral_self_bias,03,19,59.8222293219,f,001,2018_Apr_02_1011,
友善,material/instr2_1.png,material/instr2_1.png,material/instr2_1.png,1,1,1,material/4.png,f,material/104.png,f,f,友善,友爱,self,self,self,1,1,1,material/104.png,,,,,,,,,,,,,,,,,0,19,19,3,,,,,,,,,,,,,,,3,1.89146995544,,,,,,,,,moral_self_bias,03,19,59.8222293219,f,001,2018_Apr_02_1011,
盲目,material/instr2_1.png,material/instr2_1.png,material/instr2_1.png,2,2,2,material/55.png,f,material/155.png,f,f,盲从,盲从,self,self,self,2,2,2,material/55.png,,,,,,,,,,,,,,,,,0,20,20,54,,,,,,,,,,,,,,,2,1.45818710327,,,,,,,,,moral_self_bias,03,19,59.8222293219,f,001,2018_Apr_02_1011,
浅薄,material/instr2_2.png,material/instr2_2.png,material/instr2_2.png,2,2,2,material/58.png,j,material/158.png,j,j,肤浅,肤浅,friend,friend,friend,2,2,2,material/58.png,,,,,,,,,,,,,,,,,0,21,21,57,,,,,,,,,,,,,,,2,1.89199209213,,,,,,,,,moral_self_bias,03,19,59.8222293219,f,001,2018_Apr_02_1011,
恶毒,material/instr2_2.png,material/instr2_2.png,material/instr2_2.png,2,2,2,material/39.png,j,material/139.png,j,j,恶毒,凶残,friend,friend,friend,1,1,1,material/139.png,,,,,,,,,,,,,,,,,0,22,22,38,,,,,,,,,,,,,,,1,1.55782318115,,,,,,,,,moral_self_bias,03,19,59.8222293219,f,001,2018_Apr_02_1011,
冷血,material/instr2_1.png,material/instr2_1.png,material/instr2_1.png,2,2,2,material/35.png,f,material/135.png,f,f,冷血,冷漠,self,self,self,1,1,1,material/135.png,,,,,,,,,,,,,,,,,0,23,23,34,,,,,,,,,,,,,,,3,1.50817799568,,,,,,,,,moral_self_bias,03,19,59.8222293219,f,001,2018_Apr_02_1011,
卑鄙,material/instr2_2.png,material/instr2_2.png,material/instr2_2.png,2,2,2,material/37.png,j,material/137.png,j,j,卑鄙,无耻,friend,friend,friend,1,1,1,material/137.png,,,,,,,,,,,,,,,,,0,24,24,36,,,,,,,,,,,,,,,1,1.45848584175,,,,,,,,,moral_self_bias,03,19,59.8222293219,f,001,2018_Apr_02_1011,
独立,material/instr2_1.png,material/instr2_1.png,material/instr2_1.png,1,1,1,material/64.png,f,material/165.png,f,f,谦虚,奉献,self,self,self,1,1,1,material/65.png,,,,,,,,,,,,,,,,,0,25,25,64,,,,,,,,,,,,,,,None,,,,,,,,,,moral_self_bias,03,19,59.8222293219,f,001,2018_Apr_02_1011,
诚信,material/instr2_1.png,material/instr2_1.png,material/instr2_1.png,1,1,1,material/5.png,f,material/105.png,f,f,诚信,守信,self,self,self,1,1,1,material/105.png,,,,,,,,,,,,,,,,,0,26,26,4,,,,,,,,,,,,,,,4,1.32511615753,,,,,,,,,moral_self_bias,03,19,59.8222293219,f,001,2018_Apr_02_1011,
才尽,material/instr2_1.png,material/instr2_1.png,material/instr2_1.png,2,2,2,material/183.png,f,material/182.png,f,f,颓废,薄弱,self,self,self,2,2,2,material/79.png,,,,,,,,,,,,,,,,,0,27,27,81,,,,,,,,,,,,,,,4,1.30809688568,,,,,,,,,moral_self_bias,03,19,59.8222293219,f,001,2018_Apr_02_1011,
廉明,material/instr2_2.png,material/instr2_2.png,material/instr2_2.png,1,1,1,material/13.png,j,material/113.png,j,j,廉明,廉洁,friend,friend,friend,1,1,1,material/113.png,,,,,,,,,,,,,,,,,0,28,28,12,,,,,,,,,,,,,,,5,1.04203701019,,,,,,,,,moral_self_bias,03,19,59.8222293219,f,001,2018_Apr_02_1011,
残虐,material/instr2_1.png,material/instr2_1.png,material/instr2_1.png,2,2,2,material/175.png,f,material/73.png,f,f,残虐,无情,self,self,self,1,1,1,material/73.png,,,,,,,,,,,,,,,,,0,29,29,85,,,,,,,,,,,,,,,2,1.34228014946,,,,,,,,,moral_self_bias,03,19,59.8222293219,f,001,2018_Apr_02_1011,
好问,material/instr2_1.png,material/instr2_1.png,material/instr2_1.png,1,1,1,material/29.png,f,material/129.png,f,f,好学,好学,self,self,self,2,2,2,material/29.png,,,,,,,,,,,,,,,,,0,30,30,28,,,,,,,,,,,,,,,2,1.65895199776,,,,,,,,,moral_self_bias,03,19,59.8222293219,f,001,2018_Apr_02_1011,
弱智,material/instr2_1.png,material/instr2_1.png,material/instr2_1.png,2,2,2,material/59.png,f,material/159.png,f,f,智障,智障,self,self,self,2,2,2,material/59.png,,,,,,,,,,,,,,,,,0,31,31,58,,,,,,,,,,,,,,,5,1.87549209595,,,,,,,,,moral_self_bias,03,19,59.8222293219,f,001,2018_Apr_02_1011,
机智,material/instr2_2.png,material/instr2_2.png,material/instr2_2.png,1,1,1,material/16.png,j,material/116.png,j,j,睿智,睿智,friend,friend,friend,2,2,2,material/16.png,,,,,,,,,,,,,,,,,0,32,32,15,,,,,,,,,,,,,,,5,1.00775504112,,,,,,,,,moral_self_bias,03,19,59.8222293219,f,001,2018_Apr_02_1011,
机敏,material/instr2_2.png,material/instr2_2.png,material/instr2_2.png,1,1,1,material/18.png,j,material/118.png,j,j,敏锐,敏锐,friend,friend,friend,2,2,2,material/18.png,,,,,,,,,,,,,,,,,0,33,33,17,,,,,,,,,,,,,,,5,0.924723863602,,,,,,,,,moral_self_bias,03,19,59.8222293219,f,001,2018_Apr_02_1011,
鲁钝,material/instr2_2.png,material/instr2_2.png,material/instr2_2.png,2,2,2,material/50.png,j,material/150.png,j,j,愚笨,愚笨,friend,friend,friend,2,2,2,material/50.png,,,,,,,,,,,,,,,,,0,34,34,49,,,,,,,,,,,,,,,1,1.17463302612,,,,,,,,,moral_self_bias,03,19,59.8222293219,f,001,2018_Apr_02_1011,
自私,material/instr2_2.png,material/instr2_2.png,material/instr2_2.png,2,2,2,material/46.png,j,material/146.png,j,j,自私,小气,friend,friend,friend,1,1,1,material/146.png,,,,,,,,,,,,,,,,,0,35,35,45,,,,,,,,,,,,,,,1,1.37468695641,,,,,,,,,moral_self_bias,03,19,59.8222293219,f,001,2018_Apr_02_1011,
博爱,material/instr2_1.png,material/instr2_1.png,material/instr2_1.png,1,1,1,material/1.png,f,material/101.png,f,f,博爱,善良,self,self,self,1,1,1,material/101.png,,,,,,,,,,,,,,,,,0,36,36,0,,,,,,,,,,,,,,,3,1.69159603119,,,,,,,,,moral_self_bias,03,19,59.8222293219,f,001,2018_Apr_02_1011,
能干,material/instr2_2.png,material/instr2_2.png,material/instr2_2.png,1,1,1,material/20.png,j,material/120.png,j,j,厉害,厉害,friend,friend,friend,2,2,2,material/20.png,,,,,,,,,,,,,,,,,0,37,37,19,,,,,,,,,,,,,,,5,1.05905985832,,,,,,,,,moral_self_bias,03,19,59.8222293219,f,001,2018_Apr_02_1011,
迟钝,material/instr2_1.png,material/instr2_1.png,material/instr2_1.png,2,2,2,material/53.png,f,material/153.png,f,f,迟缓,迟缓,self,self,self,2,2,2,material/53.png,,,,,,,,,,,,,,,,,0,38,38,52,,,,,,,,,,,,,,,4,1.79173612595,,,,,,,,,moral_self_bias,03,19,59.8222293219,f,001,2018_Apr_02_1011,
迷糊,material/instr2_2.png,material/instr2_2.png,material/instr2_2.png,2,2,2,material/51.png,j,material/151.png,j,j,糊涂,糊涂,friend,friend,friend,2,2,2,material/51.png,,,,,,,,,,,,,,,,,0,39,39,50,,,,,,,,,,,,,,,2,1.45877695084,,,,,,,,,moral_self_bias,03,19,59.8222293219,f,001,2018_Apr_02_1011,
薄弱,material/instr2_1.png,material/instr2_1.png,material/instr2_1.png,2,2,2,material/82.png,f,material/183.png,f,f,毛糙,窝囊,self,self,self,2,2,2,material/178.png,,,,,,,,,,,,,,,,,0,40,40,82,,,,,,,,,,,,,,,2,2.00870418549,,,,,,,,,moral_self_bias,03,19,59.8222293219,f,001,2018_Apr_02_1011,
放纵,material/instr2_1.png,material/instr2_1.png,material/instr2_1.png,2,2,2,material/76.png,f,material/176.png,f,f,放纵,虚伪,self,self,self,1,1,1,material/176.png,,,,,,,,,,,,,,,,,0,41,41,75,,,,,,,,,,,,,,,3,2.30798220634,,,,,,,,,moral_self_bias,03,19,59.8222293219,f,001,2018_Apr_02_1011,
精干,material/instr2_1.png,material/instr2_1.png,material/instr2_1.png,1,1,1,material/21.png,f,material/121.png,f,f,干练,干练,self,self,self,2,2,2,material/21.png,,,,,,,,,,,,,,,,,0,42,42,20,,,,,,,,,,,,,,,3,1.49165797234,,,,,,,,,moral_self_bias,03,19,59.8222293219,f,001,2018_Apr_02_1011,
依靠,material/instr2_1.png,material/instr2_1.png,material/instr2_1.png,2,2,2,material/54.png,f,material/154.png,f,f,依赖,依赖,self,self,self,2,2,2,material/54.png,,,,,,,,,,,,,,,,,0,43,43,53,,,,,,,,,,,,,,,2,1.92560887337,,,,,,,,,moral_self_bias,03,19,59.8222293219,f,001,2018_Apr_02_1011,
孝顺,material/instr2_1.png,material/instr2_1.png,material/instr2_1.png,1,1,1,material/161.png,f,material/164.png,f,f,奉献,勇敢,self,self,self,1,1,1,material/64.png,,,,,,,,,,,,,,,,,0,44,44,63,,,,,,,,,,,,,,,2,1.89220905304,,,,,,,,,moral_self_bias,03,19,59.8222293219,f,001,2018_Apr_02_1011,
狠毒,material/instr2_2.png,material/instr2_2.png,material/instr2_2.png,2,2,2,material/40.png,j,material/140.png,j,j,狠毒,邪恶,friend,friend,friend,1,1,1,material/140.png,,,,,,,,,,,,,,,,,0,45,45,39,,,,,,,,,,,,,,,1,1.33282589912,,,,,,,,,moral_self_bias,03,19,59.8222293219,f,001,2018_Apr_02_1011,
差生,material/instr2_2.png,material/instr2_2.png,material/instr2_2.png,2,2,2,material/81.png,j,material/179.png,j,j,呆笨,无助,friend,friend,friend,2,2,2,material/83.png,,,,,,,,,,,,,,,,,0,46,46,78,,,,,,,,,,,,,,,1,1.17276501656,,,,,,,,,moral_self_bias,03,19,59.8222293219,f,001,2018_Apr_02_1011,
勤快,material/instr2_2.png,material/instr2_2.png,material/instr2_2.png,1,1,1,material/26.png,j,material/126.png,j,j,刻苦,刻苦,friend,friend,friend,2,2,2,material/26.png,,,,,,,,,,,,,,,,,0,47,47,25,,,,,,,,,,,,,,,5,1.76597690582,,,,,,,,,moral_self_bias,03,19,59.8222293219,f,001,2018_Apr_02_1011,
正义,material/instr2_1.png,material/instr2_1.png,material/instr2_1.png,1,1,1,material/66.png,f,material/66.png,f,f,独立,正义,self,self,self,1,1,1,material/165.png,,,,,,,,,,,,,,,,,0,48,48,84,,,,,,,,,,,,,,,4,1.95939397812,,,,,,,,,moral_self_bias,03,19,59.8222293219,f,001,2018_Apr_02_1011,
勇敢,material/instr2_2.png,material/instr2_2.png,material/instr2_2.png,1,1,1,material/165.png,j,material/161.png,j,j,平等,独立,friend,friend,friend,1,1,1,material/61.png,,,,,,,,,,,,,,,,,0,49,49,60,,,,,,,,,,,,,,,4,2.20954298973,,,,,,,,,moral_self_bias,03,19,59.8222293219,f,001,2018_Apr_02_1011,
白痴,material/instr2_2.png,material/instr2_2.png,material/instr2_2.png,2,2,2,material/49.png,j,material/149.png,j,j,痴呆,痴呆,friend,friend,friend,2,2,2,material/49.png,,,,,,,,,,,,,,,,,0,50,50,48,,,,,,,,,,,,,,,2,1.27552604675,,,,,,,,,moral_self_bias,03,19,59.8222293219,f,001,2018_Apr_02_1011,
机灵,material/instr2_2.png,material/instr2_2.png,material/instr2_2.png,1,1,1,material/19.png,j,material/119.png,j,j,灵活,灵活,friend,friend,friend,2,2,2,material/19.png,,,,,,,,,,,,,,,,,0,51,51,18,,,,,,,,,,,,,,,5,0.941964864731,,,,,,,,,moral_self_bias,03,19,59.8222293219,f,001,2018_Apr_02_1011,
纯洁,material/instr2_2.png,material/instr2_2.png,material/instr2_2.png,1,1,1,material/15.png,j,material/115.png,j,j,纯洁,清白,friend,friend,friend,1,1,1,material/115.png,,,,,,,,,,,,,,,,,0,52,52,14,,,,,,,,,,,,,,,5,0.874398946762,,,,,,,,,moral_self_bias,03,19,59.8222293219,f,001,2018_Apr_02_1011,
背叛,material/instr2_1.png,material/instr2_1.png,material/instr2_1.png,2,2,2,material/32.png,f,material/132.png,f,f,背叛,不忠,self,self,self,1,1,1,material/132.png,,,,,,,,,,,,,,,,,0,53,53,31,,,,,,,,,,,,,,,3,2.34225797653,,,,,,,,,moral_self_bias,03,19,59.8222293219,f,001,2018_Apr_02_1011,
小人,material/instr2_2.png,material/instr2_2.png,material/instr2_2.png,2,2,2,material/45.png,j,material/145.png,j,j,小人,下流,friend,friend,friend,1,1,1,material/145.png,,,,,,,,,,,,,,,,,0,54,54,44,,,,,,,,,,,,,,,1,1.22441291809,,,,,,,,,moral_self_bias,03,19,59.8222293219,f,001,2018_Apr_02_1011,
坚毅,material/instr2_2.png,material/instr2_2.png,material/instr2_2.png,1,1,1,material/10.png,j,material/110.png,j,j,坚毅,顽强,friend,friend,friend,1,1,1,material/110.png,,,,,,,,,,,,,,,,,0,55,55,9,,,,,,,,,,,,,,,5,0.891378879547,,,,,,,,,moral_self_bias,03,19,59.8222293219,f,001,2018_Apr_02_1011,
爽约,material/instr2_2.png,material/instr2_2.png,material/instr2_2.png,2,2,2,material/44.png,j,material/144.png,j,j,爽约,失信,friend,friend,friend,1,1,1,material/144.png,,,,,,,,,,,,,,,,,0,56,56,43,,,,,,,,,,,,,,,4,2.92610383034,,,,,,,,,moral_self_bias,03,19,59.8222293219,f,001,2018_Apr_02_1011,
多才,material/instr2_1.png,material/instr2_1.png,material/instr2_1.png,1,1,1,material/23.png,f,material/123.png,f,f,有才,有才,self,self,self,2,2,2,material/23.png,,,,,,,,,,,,,,,,,0,57,57,22,,,,,,,,,,,,,,,4,2.07478809357,,,,,,,,,moral_self_bias,03,19,59.8222293219,f,001,2018_Apr_02_1011,
残忍,material/instr2_2.png,material/instr2_2.png,material/instr2_2.png,2,2,2,material/41.png,j,material/141.png,j,j,残忍,歹毒,friend,friend,friend,1,1,1,material/141.png,,,,,,,,,,,,,,,,,0,58,58,40,,,,,,,,,,,,,,,2,1.23345398903,,,,,,,,,moral_self_bias,03,19,59.8222293219,f,001,2018_Apr_02_1011,
顽愚,material/instr2_1.png,material/instr2_1.png,material/instr2_1.png,2,2,2,material/84.png,f,material/84.png,f,f,犹豫,顽愚,self,self,self,2,2,2,material/181.png,,,,,,,,,,,,,,,,,0,59,59,87,,,,,,,,,,,,,,,5,1.49193787575,,,,,,,,,moral_self_bias,03,19,59.8222293219,f,001,2018_Apr_02_1011,
聪颖,material/instr2_2.png,material/instr2_2.png,material/instr2_2.png,1,1,1,material/17.png,j,material/117.png,j,j,聪明,聪明,friend,friend,friend,2,2,2,material/17.png,,,,,,,,,,,,,,,,,0,60,60,16,,,,,,,,,,,,,,,5,0.842243909836,,,,,,,,,moral_self_bias,03,19,59.8222293219,f,001,2018_Apr_02_1011,
爱心,material/instr2_1.png,material/instr2_1.png,material/instr2_1.png,1,1,1,material/2.png,f,material/102.png,f,f,爱心,善心,self,self,self,1,1,1,material/102.png,,,,,,,,,,,,,,,,,0,61,61,1,,,,,,,,,,,,,,,4,1.4093079567,,,,,,,,,moral_self_bias,03,19,59.8222293219,f,001,2018_Apr_02_1011,
机变,material/instr2_2.png,material/instr2_2.png,material/instr2_2.png,1,1,1,material/70.png,j,material/168.png,j,j,全面,全面,friend,friend,friend,2,2,2,material/70.png,,,,,,,,,,,,,,,,,0,62,62,67,,,,,,,,,,,,,,,4,1.34195804596,,,,,,,,,moral_self_bias,03,19,59.8222293219,f,001,2018_Apr_02_1011,
犹豫,material/instr2_1.png,material/instr2_1.png,material/instr2_1.png,2,2,2,material/78.png,f,material/181.png,f,f,厌学,草率,self,self,self,2,2,2,material/184.png,,,,,,,,,,,,,,,,,0,63,63,80,,,,,,,,,,,,,,,4,1.64215803146,,,,,,,,,moral_self_bias,03,19,59.8222293219,f,001,2018_Apr_02_1011,
撒谎,material/instr2_1.png,material/instr2_1.png,material/instr2_1.png,2,2,2,material/36.png,f,material/136.png,f,f,撒谎,说谎,self,self,self,1,1,1,material/136.png,,,,,,,,,,,,,,,,,0,64,64,35,,,,,,,,,,,,,,,3,1.29189705849,,,,,,,,,moral_self_bias,03,19,59.8222293219,f,001,2018_Apr_02_1011,
仗义,material/instr2_1.png,material/instr2_1.png,material/instr2_1.png,1,1,1,material/63.png,f,material/166.png,f,f,正义,文明,self,self,self,1,1,1,material/66.png,,,,,,,,,,,,,,,,,0,65,65,65,,,,,,,,,,,,,,,4,1.02626013756,,,,,,,,,moral_self_bias,03,19,59.8222293219,f,001,2018_Apr_02_1011,
毛糙,material/instr2_2.png,material/instr2_2.png,material/instr2_2.png,2,2,2,material/179.png,j,material/178.png,j,j,顽愚,差生,friend,friend,friend,2,2,2,material/84.png,,,,,,,,,,,,,,,,,0,66,66,77,,,,,,,,,,,,,,,1,1.01662516594,,,,,,,,,moral_self_bias,03,19,59.8222293219,f,001,2018_Apr_02_1011,
厌学,material/instr2_2.png,material/instr2_2.png,material/instr2_2.png,2,2,2,material/182.png,j,material/184.png,j,j,健忘,才尽,friend,friend,friend,2,2,2,material/80.png,,,,,,,,,,,,,,,,,0,67,67,83,,,,,,,,,,,,,,,2,1.52263402939,,,,,,,,,moral_self_bias,03,19,59.8222293219,f,001,2018_Apr_02_1011,
进取,material/instr2_1.png,material/instr2_1.png,material/instr2_1.png,1,1,1,material/30.png,f,material/130.png,f,f,上进,上进,self,self,self,2,2,2,material/30.png,,,,,,,,,,,,,,,,,0,68,68,29,,,,,,,,,,,,,,,3,1.81702184677,,,,,,,,,moral_self_bias,03,19,59.8222293219,f,001,2018_Apr_02_1011,
不义,material/instr2_2.png,material/instr2_2.png,material/instr2_2.png,2,2,2,material/173.png,j,material/174.png,j,j,不义,黑心,friend,friend,friend,1,1,1,material/174.png,,,,,,,,,,,,,,,,,0,69,69,73,,,,,,,,,,,,,,,1,1.05853891373,,,,,,,,,moral_self_bias,03,19,59.8222293219,f,001,2018_Apr_02_1011,
颖悟,material/instr2_2.png,material/instr2_2.png,material/instr2_2.png,1,1,1,material/167.png,j,material/169.png,j,j,高手,高手,friend,friend,friend,2,2,2,material/167.png,,,,,,,,,,,,,,,,,0,70,70,68,,,,,,,,,,,,,,,5,0.966878175735,,,,,,,,,moral_self_bias,03,19,59.8222293219,f,001,2018_Apr_02_1011,
无私,material/instr2_2.png,material/instr2_2.png,material/instr2_2.png,1,1,1,material/8.png,j,material/108.png,j,j,无私,公道,friend,friend,friend,1,1,1,material/108.png,,,,,,,,,,,,,,,,,0,71,71,7,,,,,,,,,,,,,,,5,0.991998910904,,,,,,,,,moral_self_bias,03,19,59.8222293219,f,001,2018_Apr_02_1011,
博学,material/instr2_1.png,material/instr2_1.png,material/instr2_1.png,1,1,1,material/22.png,f,material/122.png,f,f,才学,才学,self,self,self,2,2,2,material/22.png,,,,,,,,,,,,,,,,,0,72,72,21,,,,,,,,,,,,,,,4,1.59099698067,,,,,,,,,moral_self_bias,03,19,59.8222293219,f,001,2018_Apr_02_1011,
超群,material/instr2_2.png,material/instr2_2.png,material/instr2_2.png,1,1,1,material/27.png,j,material/127.png,j,j,卓越,卓越,friend,friend,friend,2,2,2,material/27.png,,,,,,,,,,,,,,,,,0,73,73,26,,,,,,,,,,,,,,,5,0.892457008362,,,,,,,,,moral_self_bias,03,19,59.8222293219,f,001,2018_Apr_02_1011,
高明,material/instr2_1.png,material/instr2_1.png,material/instr2_1.png,1,1,1,material/69.png,f,material/69.png,f,f,高明,高明,self,self,self,2,2,2,material/69.png,,,,,,,,,,,,,,,,,0,74,74,86,,,,,,,,,,,,,,,3,1.57387781143,,,,,,,,,moral_self_bias,03,19,59.8222293219,f,001,2018_Apr_02_1011,
笃行,material/instr2_1.png,material/instr2_1.png,material/instr2_1.png,1,1,1,material/31.png,f,material/131.png,f,f,笃学,笃学,self,self,self,2,2,2,material/31.png,,,,,,,,,,,,,,,,,0,75,75,30,,,,,,,,,,,,,,,2,1.40884709358,,,,,,,,,moral_self_bias,03,19,59.8222293219,f,001,2018_Apr_02_1011,
浮夸,material/instr2_2.png,material/instr2_2.png,material/instr2_2.png,2,2,2,material/77.png,j,material/172.png,j,j,浮夸,软弱,friend,friend,friend,1,1,1,material/172.png,,,,,,,,,,,,,,,,,0,76,76,71,,,,,,,,,,,,,,,1,1.14161491394,,,,,,,,,moral_self_bias,03,19,59.8222293219,f,001,2018_Apr_02_1011,
怠惰,material/instr2_2.png,material/instr2_2.png,material/instr2_2.png,2,2,2,material/181.png,j,material/180.png,j,j,怠惰,犹豫,friend,friend,friend,2,2,2,material/180.png,,,,,,,,,,,,,,,,,0,77,77,79,,,,,,,,,,,,,,,1,1.29207396507,,,,,,,,,moral_self_bias,03,19,59.8222293219,f,001,2018_Apr_02_1011,
坚忍,material/instr2_1.png,material/instr2_1.png,material/instr2_1.png,1,1,1,material/168.png,f,material/170.png,f,f,机变,机变,self,self,self,2,2,2,material/168.png,,,,,,,,,,,,,,,,,0,78,78,69,,,,,,,,,,,,,,,4,1.4259428978,,,,,,,,,moral_self_bias,03,19,59.8222293219,f,001,2018_Apr_02_1011,
忠心,material/instr2_1.png,material/instr2_1.png,material/instr2_1.png,1,1,1,material/12.png,f,material/112.png,f,f,忠心,忠诚,self,self,self,1,1,1,material/112.png,,,,,,,,,,,,,,,,,0,79,79,11,,,,,,,,,,,,,,,4,1.12547397614,,,,,,,,,moral_self_bias,03,19,59.8222293219,f,001,2018_Apr_02_1011,
笨蛋,material/instr2_2.png,material/instr2_2.png,material/instr2_2.png,2,2,2,material/48.png,j,material/148.png,j,j,愚蠢,愚蠢,friend,friend,friend,2,2,2,material/48.png,,,,,,,,,,,,,,,,,0,80,80,47,,,,,,,,,,,,,,,5,1.10888290405,,,,,,,,,moral_self_bias,03,19,59.8222293219,f,001,2018_Apr_02_1011,
黑心,material/instr2_2.png,material/instr2_2.png,material/instr2_2.png,2,2,2,material/74.png,j,material/173.png,j,j,黑心,卑劣,friend,friend,friend,1,1,1,material/173.png,,,,,,,,,,,,,,,,,0,81,81,72,,,,,,,,,,,,,,,1,2.8505179882,,,,,,,,,moral_self_bias,03,19,59.8222293219,f,001,2018_Apr_02_1011,
缺德,material/instr2_2.png,material/instr2_2.png,material/instr2_2.png,2,2,2,material/38.png,j,material/138.png,j,j,缺德,无德,friend,friend,friend,1,1,1,material/138.png,,,,,,,,,,,,,,,,,0,82,82,37,,,,,,,,,,,,,,,1,0.866236209869,,,,,,,,,moral_self_bias,03,19,59.8222293219,f,001,2018_Apr_02_1011,
宽容,material/instr2_2.png,material/instr2_2.png,material/instr2_2.png,1,1,1,material/163.png,j,material/163.png,j,j,文明,宽容,friend,friend,friend,1,1,1,material/63.png,,,,,,,,,,,,,,,,,0,83,83,62,,,,,,,,,,,,,,,5,1.1504099369,,,,,,,,,moral_self_bias,03,19,59.8222293219,f,001,2018_Apr_02_1011,
冷静,material/instr2_1.png,material/instr2_1.png,material/instr2_1.png,1,1,1,material/24.png,f,material/124.png,f,f,理智,理智,self,self,self,2,2,2,material/24.png,,,,,,,,,,,,,,,,,0,84,84,23,,,,,,,,,,,,,,,3,1.64274406433,,,,,,,,,moral_self_bias,03,19,59.8222293219,f,001,2018_Apr_02_1011,
敬业,material/instr2_2.png,material/instr2_2.png,material/instr2_2.png,1,1,1,material/62.png,j,material/162.png,j,j,坚韧,坚韧,friend,friend,friend,1,1,1,material/62.png,,,,,,,,,,,,,,,,,0,85,85,61,,,,,,,,,,,,,,,5,0.941926956177,,,,,,,,,moral_self_bias,03,19,59.8222293219,f,001,2018_Apr_02_1011,
高尚,material/instr2_1.png,material/instr2_1.png,material/instr2_1.png,1,1,1,material/11.png,f,material/111.png,f,f,高尚,高雅,self,self,self,1,1,1,material/111.png,,,,,,,,,,,,,,,,,0,86,86,10,,,,,,,,,,,,,,,5,0.809352874756,,,,,,,,,moral_self_bias,03,19,59.8222293219,f,001,2018_Apr_02_1011,
高手,material/instr2_2.png,material/instr2_2.png,material/instr2_2.png,1,1,1,material/68.png,j,material/167.png,j,j,广博,广博,friend,friend,friend,2,2,2,material/68.png,,,,,,,,,,,,,,,,,0,87,87,66,,,,,,,,,,,,,,,5,1.12629103661,,,,,,,,,moral_self_bias,03,19,59.8222293219,f,001,2018_Apr_02_1011,
,,,,,,,,,,,,,,,,,,,,,8-6= ?,,,,,,,,,,,,,,,,,,,,0,0,0,42,,,,,,,,,,,,,,,,,,,,,moral_self_bias,03,19,59.8222293219,f,001,2018_Apr_02_1011,
,,,,,,,,,,,,,,,,,,,,,2+3= ?,,,,,,,,,,,,,,,,,,,,0,1,1,9,,,,,,,,,,,,,,,,,,,,,moral_self_bias,03,19,59.8222293219,f,001,2018_Apr_02_1011,
,,,,,,,,,,,,,,,,,,,,,7*0= ?,,,,,,,,,,,,,,,,,,,,0,2,2,88,,,,,,,,,,,,,,,,,,,,,moral_self_bias,03,19,59.8222293219,f,001,2018_Apr_02_1011,
,,,,,,,,,,,,,,,,,,,,,12-5=？,,,,,,,,,,,,,,,,,,,,0,3,3,65,,,,,,,,,,,,,,,,,,,,,moral_self_bias,03,19,59.8222293219,f,001,2018_Apr_02_1011,
,,,,,,,,,,,,,,,,,,,,,14-9=？,,,,,,,,,,,,,,,,,,,,0,4,4,63,,,,,,,,,,,,,,,,,,,,,moral_self_bias,03,19,59.8222293219,f,001,2018_Apr_02_1011,
,,,,,,,,,,,,,,,,,,,,,49/7 = ?,,,,,,,,,,,,,,,,,,,,0,5,5,78,,,,,,,,,,,,,,,,,,,,,moral_self_bias,03,19,59.8222293219,f,001,2018_Apr_02_1011,
,,,,,,,,,,,,,,,,,,,,,23^0= ?,,,,,,,,,,,,,,,,,,,,0,6,6,94,,,,,,,,,,,,,,,,,,,,,moral_self_bias,03,19,59.8222293219,f,001,2018_Apr_02_1011,
,,,,,,,,,,,,,,,,,,,,,1+9= ?,,,,,,,,,,,,,,,,,,,,0,7,7,3,,,,,,,,,,,,,,,,,,,,,moral_self_bias,03,19,59.8222293219,f,001,2018_Apr_02_1011,
,,,,,,,,,,,,,,,,,,,,,72/9= ?,,,,,,,,,,,,,,,,,,,,0,8,8,76,,,,,,,,,,,,,,,,,,,,,moral_self_bias,03,19,59.8222293219,f,001,2018_Apr_02_1011,
,,,,,,,,,,,,,,,,,,,,,4*1= ?,,,,,,,,,,,,,,,,,,,,0,9,9,85,,,,,,,,,,,,,,,,,,,,,moral_self_bias,03,19,59.8222293219,f,001,2018_Apr_02_1011,
,,,,,,,,,,,,,,,,,,,,,9-5= ?,,,,,,,,,,,,,,,,,,,,0,10,10,23,,,,,,,,,,,,,,,,,,,,,moral_self_bias,03,19,59.8222293219,f,001,2018_Apr_02_1011,
,,,,,,,,,,,,,,,,,,,,,4+1= ?,,,,,,,,,,,,,,,,,,,,0,11,11,25,,,,,,,,,,,,,,,,,,,,,moral_self_bias,03,19,59.8222293219,f,001,2018_Apr_02_1011,
,,,,,,,,,,,,,,,,,,,,,4+3= ?,,,,,,,,,,,,,,,,,,,,0,12,12,27,,,,,,,,,,,,,,,,,,,,,moral_self_bias,03,19,59.8222293219,f,001,2018_Apr_02_1011,
,,,,,,,,,,,,,,,,,,,,,30-29= ?,,,,,,,,,,,,,,,,,,,,0,13,13,73,,,,,,,,,,,,,,,,,,,,,moral_self_bias,03,19,59.8222293219,f,001,2018_Apr_02_1011,
,,,,,,,,,,,,,,,,,,,,,5+1= ?,,,,,,,,,,,,,,,,,,,,0,14,14,34,,,,,,,,,,,,,,,,,,,,,moral_self_bias,03,19,59.8222293219,f,001,2018_Apr_02_1011,
,,,,,,,,,,,,,,,,,,,,,90/45= ?,,,,,,,,,,,,,,,,,,,,0,15,15,74,,,,,,,,,,,,,,,,,,,,,moral_self_bias,03,19,59.8222293219,f,001,2018_Apr_02_1011,
,,,,,,,,,,,,,,,,,,,,,8-1= ?,,,,,,,,,,,,,,,,,,,,0,16,16,33,,,,,,,,,,,,,,,,,,,,,moral_self_bias,03,19,59.8222293219,f,001,2018_Apr_02_1011,
,,,,,,,,,,,,,,,,,,,,,4*2= ?,,,,,,,,,,,,,,,,,,,,0,17,17,82,,,,,,,,,,,,,,,,,,,,,moral_self_bias,03,19,59.8222293219,f,001,2018_Apr_02_1011,
,,,,,,,,,,,,,,,,,,,,,4/4= ?,,,,,,,,,,,,,,,,,,,,0,18,18,55,,,,,,,,,,,,,,,,,,,,,moral_self_bias,03,19,59.8222293219,f,001,2018_Apr_02_1011,
,,,,,,,,,,,,,,,,,,,,,13-6=？,,,,,,,,,,,,,,,,,,,,0,19,19,64,,,,,,,,,,,,,,,,,,,,,moral_self_bias,03,19,59.8222293219,f,001,2018_Apr_02_1011,
,,,,,,,,,,,,,,,,,,,,,15-10=？,,,,,,,,,,,,,,,,,,,,0,20,20,61,,,,,,,,,,,,,,,,,,,,,moral_self_bias,03,19,59.8222293219,f,001,2018_Apr_02_1011,
,,,,,,,,,,,,,,,,,,,,,11-3=？,,,,,,,,,,,,,,,,,,,,0,21,21,68,,,,,,,,,,,,,,,,,,,,,moral_self_bias,03,19,59.8222293219,f,001,2018_Apr_02_1011,
,,,,,,,,,,,,,,,,,,,,,6*0= ?,,,,,,,,,,,,,,,,,,,,0,22,22,87,,,,,,,,,,,,,,,,,,,,,moral_self_bias,03,19,59.8222293219,f,001,2018_Apr_02_1011,
,,,,,,,,,,,,,,,,,,,,,11-8= ?,,,,,,,,,,,,,,,,,,,,0,23,23,106,,,,,,,,,,,,,,,,,,,,,moral_self_bias,03,19,59.8222293219,f,001,2018_Apr_02_1011,
,,,,,,,,,,,,,,,,,,,,,43-34= ?,,,,,,,,,,,,,,,,,,,,0,24,24,79,,,,,,,,,,,,,,,,,,,,,moral_self_bias,03,19,59.8222293219,f,001,2018_Apr_02_1011,
,,,,,,,,,,,,,,,,,,,,,9-1=?,,,,,,,,,,,,,,,,,,,,0,25,25,2,,,,,,,,,,,,,,,,,,,,,moral_self_bias,03,19,59.8222293219,f,001,2018_Apr_02_1011,
,,,,,,,,,,,,,,,,,,,,,7+2= ?,,,,,,,,,,,,,,,,,,,,0,26,26,47,,,,,,,,,,,,,,,,,,,,,moral_self_bias,03,19,59.8222293219,f,001,2018_Apr_02_1011,
,,,,,,,,,,,,,,,,,,,,,18/2= ?,,,,,,,,,,,,,,,,,,,,0,27,27,97,,,,,,,,,,,,,,,,,,,,,moral_self_bias,03,19,59.8222293219,f,001,2018_Apr_02_1011,
,,,,,,,,,,,,,,,,,,,,,3+4= ?,,,,,,,,,,,,,,,,,,,,0,28,28,19,,,,,,,,,,,,,,,,,,,,,moral_self_bias,03,19,59.8222293219,f,001,2018_Apr_02_1011,
,,,,,,,,,,,,,,,,,,,,,1*9= ?,,,,,,,,,,,,,,,,,,,,0,29,29,109,,,,,,,,,,,,,,,,,,,,,moral_self_bias,03,19,59.8222293219,f,001,2018_Apr_02_1011,
,,,,,,,,,,,,,,,,,,,,,6^0= ?,,,,,,,,,,,,,,,,,,,,0,30,30,114,,,,,,,,,,,,,,,,,,,,,moral_self_bias,03,19,59.8222293219,f,001,2018_Apr_02_1011,
,,,,,,,,,,,,,,,,,,,,,3^1= ?,,,,,,,,,,,,,,,,,,,,0,31,31,101,,,,,,,,,,,,,,,,,,,,,moral_self_bias,03,19,59.8222293219,f,001,2018_Apr_02_1011,
,,,,,,,,,,,,,,,,,,,,,50-42= ?,,,,,,,,,,,,,,,,,,,,0,32,32,81,,,,,,,,,,,,,,,,,,,,,moral_self_bias,03,19,59.8222293219,f,001,2018_Apr_02_1011,
,,,,,,,,,,,,,,,,,,,,,2+2= ?,,,,,,,,,,,,,,,,,,,,0,33,33,8,,,,,,,,,,,,,,,,,,,,,moral_self_bias,03,19,59.8222293219,f,001,2018_Apr_02_1011,
,,,,,,,,,,,,,,,,,,,,,8-3= ?,,,,,,,,,,,,,,,,,,,,0,34,34,39,,,,,,,,,,,,,,,,,,,,,moral_self_bias,03,19,59.8222293219,f,001,2018_Apr_02_1011,
,,,,,,,,,,,,,,,,,,,,,3*1= ?,,,,,,,,,,,,,,,,,,,,0,35,35,83,,,,,,,,,,,,,,,,,,,,,moral_self_bias,03,19,59.8222293219,f,001,2018_Apr_02_1011,
,,,,,,,,,,,,,,,,,,,,,8*1= ?,,,,,,,,,,,,,,,,,,,,0,36,36,111,,,,,,,,,,,,,,,,,,,,,moral_self_bias,03,19,59.8222293219,f,001,2018_Apr_02_1011,
,,,,,,,,,,,,,,,,,,,,,3+0= ?,,,,,,,,,,,,,,,,,,,,0,37,37,105,,,,,,,,,,,,,,,,,,,,,moral_self_bias,03,19,59.8222293219,f,001,2018_Apr_02_1011,
,,,,,,,,,,,,,,,,,,,,,9/3= ?,,,,,,,,,,,,,,,,,,,,0,38,38,56,,,,,,,,,,,,,,,,,,,,,moral_self_bias,03,19,59.8222293219,f,001,2018_Apr_02_1011,
,,,,,,,,,,,,,,,,,,,,,5/1= ?,,,,,,,,,,,,,,,,,,,,0,39,39,59,,,,,,,,,,,,,,,,,,,,,moral_self_bias,03,19,59.8222293219,f,001,2018_Apr_02_1011,
,,,,,,,,,,,,,,,,,,,,,1^2= ?,,,,,,,,,,,,,,,,,,,,0,40,40,51,,,,,,,,,,,,,,,,,,,,,moral_self_bias,03,19,59.8222293219,f,001,2018_Apr_02_1011,
,,,,,,,,,,,,,,,,,,,,,3^2= ?,,,,,,,,,,,,,,,,,,,,0,41,41,50,,,,,,,,,,,,,,,,,,,,,moral_self_bias,03,19,59.8222293219,f,001,2018_Apr_02_1011,
,,,,,,,,,,,,,,,,,,,,,12-12= ?,,,,,,,,,,,,,,,,,,,,0,42,42,99,,,,,,,,,,,,,,,,,,,,,moral_self_bias,03,19,59.8222293219,f,001,2018_Apr_02_1011,
,,,,,,,,,,,,,,,,,,,,,7*1= ?,,,,,,,,,,,,,,,,,,,,0,43,43,113,,,,,,,,,,,,,,,,,,,,,moral_self_bias,03,19,59.8222293219,f,001,2018_Apr_02_1011,
,,,,,,,,,,,,,,,,,,,,,2*4= ?,,,,,,,,,,,,,,,,,,,,0,44,44,84,,,,,,,,,,,,,,,,,,,,,moral_self_bias,03,19,59.8222293219,f,001,2018_Apr_02_1011,
,,,,,,,,,,,,,,,,,,,,,3+5= ?,,,,,,,,,,,,,,,,,,,,0,45,45,20,,,,,,,,,,,,,,,,,,,,,moral_self_bias,03,19,59.8222293219,f,001,2018_Apr_02_1011,
,,,,,,,,,,,,,,,,,,,,,9-8= ?,,,,,,,,,,,,,,,,,,,,0,46,46,31,,,,,,,,,,,,,,,,,,,,,moral_self_bias,03,19,59.8222293219,f,001,2018_Apr_02_1011,
,,,,,,,,,,,,,,,,,,,,,8-2= ?,,,,,,,,,,,,,,,,,,,,0,47,47,38,,,,,,,,,,,,,,,,,,,,,moral_self_bias,03,19,59.8222293219,f,001,2018_Apr_02_1011,
,,,,,,,,,,,,,,,,,,,,,9-9= ?,,,,,,,,,,,,,,,,,,,,0,48,48,32,,,,,,,,,,,,,,,,,,,,,moral_self_bias,03,19,59.8222293219,f,001,2018_Apr_02_1011,
,,,,,,,,,,,,,,,,,,,,,32-32= ?,,,,,,,,,,,,,,,,,,,,0,49,49,80,,,,,,,,,,,,,,,,,,,,,moral_self_bias,03,19,59.8222293219,f,001,2018_Apr_02_1011,
,,,,,,,,,,,,,,,,,,,,,5*0= ?,,,,,,,,,,,,,,,,,,,,0,50,50,86,,,,,,,,,,,,,,,,,,,,,moral_self_bias,03,19,59.8222293219,f,001,2018_Apr_02_1011,
,,,,,,,,,,,,,,,,,,,,,32-23=？,,,,,,,,,,,,,,,,,,,,0,51,51,60,,,,,,,,,,,,,,,,,,,,,moral_self_bias,03,19,59.8222293219,f,001,2018_Apr_02_1011,
,,,,,,,,,,,,,,,,,,,,,2^2= ?,,,,,,,,,,,,,,,,,,,,0,52,52,49,,,,,,,,,,,,,,,,,,,,,moral_self_bias,03,19,59.8222293219,f,001,2018_Apr_02_1011,
,,,,,,,,,,,,,,,,,,,,,12/12= ?,,,,,,,,,,,,,,,,,,,,0,53,53,91,,,,,,,,,,,,,,,,,,,,,moral_self_bias,03,19,59.8222293219,f,001,2018_Apr_02_1011,
,,,,,,,,,,,,,,,,,,,,,13-9= ?,,,,,,,,,,,,,,,,,,,,0,54,54,92,,,,,,,,,,,,,,,,,,,,,moral_self_bias,03,19,59.8222293219,f,001,2018_Apr_02_1011,
,,,,,,,,,,,,,,,,,,,,,7+1= ?,,,,,,,,,,,,,,,,,,,,0,55,55,46,,,,,,,,,,,,,,,,,,,,,moral_self_bias,03,19,59.8222293219,f,001,2018_Apr_02_1011,
,,,,,,,,,,,,,,,,,,,,,8/4= ?,,,,,,,,,,,,,,,,,,,,0,56,56,57,,,,,,,,,,,,,,,,,,,,,moral_self_bias,03,19,59.8222293219,f,001,2018_Apr_02_1011,
,,,,,,,,,,,,,,,,,,,,,6/2= ?,,,,,,,,,,,,,,,,,,,,0,57,57,58,,,,,,,,,,,,,,,,,,,,,moral_self_bias,03,19,59.8222293219,f,001,2018_Apr_02_1011,
,,,,,,,,,,,,,,,,,,,,,11-4=？,,,,,,,,,,,,,,,,,,,,0,58,58,66,,,,,,,,,,,,,,,,,,,,,moral_self_bias,03,19,59.8222293219,f,001,2018_Apr_02_1011,
,,,,,,,,,,,,,,,,,,,,,56/7= ?,,,,,,,,,,,,,,,,,,,,0,59,59,77,,,,,,,,,,,,,,,,,,,,,moral_self_bias,03,19,59.8222293219,f,001,2018_Apr_02_1011,
,,,,,,,,,,,,,,,,,,,,,1-1= ?,,,,,,,,,,,,,,,,,,,,0,60,60,52,,,,,,,,,,,,,,,,,,,,,moral_self_bias,03,19,59.8222293219,f,001,2018_Apr_02_1011,
,,,,,,,,,,,,,,,,,,,,,18/9= ?,,,,,,,,,,,,,,,,,,,,0,61,61,96,,,,,,,,,,,,,,,,,,,,,moral_self_bias,03,19,59.8222293219,f,001,2018_Apr_02_1011,
,,,,,,,,,,,,,,,,,,,,,4+2= ?,,,,,,,,,,,,,,,,,,,,0,62,62,26,,,,,,,,,,,,,,,,,,,,,moral_self_bias,03,19,59.8222293219,f,001,2018_Apr_02_1011,
,,,,,,,,,,,,,,,,,,,,,8+1= ?,,,,,,,,,,,,,,,,,,,,0,63,63,48,,,,,,,,,,,,,,,,,,,,,moral_self_bias,03,19,59.8222293219,f,001,2018_Apr_02_1011,
,,,,,,,,,,,,,,,,,,,,,5+4= ?,,,,,,,,,,,,,,,,,,,,0,64,64,37,,,,,,,,,,,,,,,,,,,,,moral_self_bias,03,19,59.8222293219,f,001,2018_Apr_02_1011,
,,,,,,,,,,,,,,,,,,,,,3*3= ?,,,,,,,,,,,,,,,,,,,,0,65,65,54,,,,,,,,,,,,,,,,,,,,,moral_self_bias,03,19,59.8222293219,f,001,2018_Apr_02_1011,
,,,,,,,,,,,,,,,,,,,,,9-7= ?,,,,,,,,,,,,,,,,,,,,0,66,66,30,,,,,,,,,,,,,,,,,,,,,moral_self_bias,03,19,59.8222293219,f,001,2018_Apr_02_1011,
,,,,,,,,,,,,,,,,,,,,,1+6= ?,,,,,,,,,,,,,,,,,,,,0,67,67,5,,,,,,,,,,,,,,,,,,,,,moral_self_bias,03,19,59.8222293219,f,001,2018_Apr_02_1011,
,,,,,,,,,,,,,,,,,,,,,2+1= ?,,,,,,,,,,,,,,,,,,,,0,68,68,7,,,,,,,,,,,,,,,,,,,,,moral_self_bias,03,19,59.8222293219,f,001,2018_Apr_02_1011,
,,,,,,,,,,,,,,,,,,,,,2+7= ?,,,,,,,,,,,,,,,,,,,,0,69,69,13,,,,,,,,,,,,,,,,,,,,,moral_self_bias,03,19,59.8222293219,f,001,2018_Apr_02_1011,
,,,,,,,,,,,,,,,,,,,,,12/4= ?,,,,,,,,,,,,,,,,,,,,0,70,70,89,,,,,,,,,,,,,,,,,,,,,moral_self_bias,03,19,59.8222293219,f,001,2018_Apr_02_1011,
,,,,,,,,,,,,,,,,,,,,,19-17= ?,,,,,,,,,,,,,,,,,,,,0,71,71,100,,,,,,,,,,,,,,,,,,,,,moral_self_bias,03,19,59.8222293219,f,001,2018_Apr_02_1011,
,,,,,,,,,,,,,,,,,,,,,17-12= ? ,,,,,,,,,,,,,,,,,,,,0,72,72,104,,,,,,,,,,,,,,,,,,,,,moral_self_bias,03,19,59.8222293219,f,001,2018_Apr_02_1011,
,,,,,,,,,,,,,,,,,,,,,5-3= ?,,,,,,,,,,,,,,,,,,,,0,73,73,116,,,,,,,,,,,,,,,,,,,,,moral_self_bias,03,19,59.8222293219,f,001,2018_Apr_02_1011,
,,,,,,,,,,,,,,,,,,,,,11-5= ?,,,,,,,,,,,,,,,,,,,,0,74,74,107,,,,,,,,,,,,,,,,,,,,,moral_self_bias,03,19,59.8222293219,f,001,2018_Apr_02_1011,
,,,,,,,,,,,,,,,,,,,,,5+2= ?,,,,,,,,,,,,,,,,,,,,0,75,75,35,,,,,,,,,,,,,,,,,,,,,moral_self_bias,03,19,59.8222293219,f,001,2018_Apr_02_1011,
,,,,,,,,,,,,,,,,,,,,,21/7= ?,,,,,,,,,,,,,,,,,,,,0,76,76,70,,,,,,,,,,,,,,,,,,,,,moral_self_bias,03,19,59.8222293219,f,001,2018_Apr_02_1011,
,,,,,,,,,,,,,,,,,,,,,22/11= ?,,,,,,,,,,,,,,,,,,,,0,77,77,71,,,,,,,,,,,,,,,,,,,,,moral_self_bias,03,19,59.8222293219,f,001,2018_Apr_02_1011,
,,,,,,,,,,,,,,,,,,,,,3+6= ?,,,,,,,,,,,,,,,,,,,,0,78,78,21,,,,,,,,,,,,,,,,,,,,,moral_self_bias,03,19,59.8222293219,f,001,2018_Apr_02_1011,
,,,,,,,,,,,,,,,,,,,,,22-22= ?,,,,,,,,,,,,,,,,,,,,0,79,79,93,,,,,,,,,,,,,,,,,,,,,moral_self_bias,03,19,59.8222293219,f,001,2018_Apr_02_1011,
,,,,,,,,,,,,,,,,,,,,,7-0= ?,,,,,,,,,,,,,,,,,,,,0,80,80,117,,,,,,,,,,,,,,,,,,,,,moral_self_bias,03,19,59.8222293219,f,001,2018_Apr_02_1011,
,,,,,,,,,,,,,,,,,,,,,1*8= ?,,,,,,,,,,,,,,,,,,,,0,81,81,110,,,,,,,,,,,,,,,,,,,,,moral_self_bias,03,19,59.8222293219,f,001,2018_Apr_02_1011,
,,,,,,,,,,,,,,,,,,,,,4+4= ?,,,,,,,,,,,,,,,,,,,,0,82,82,28,,,,,,,,,,,,,,,,,,,,,moral_self_bias,03,19,59.8222293219,f,001,2018_Apr_02_1011,
,,,,,,,,,,,,,,,,,,,,,6+2= ?,,,,,,,,,,,,,,,,,,,,0,83,83,44,,,,,,,,,,,,,,,,,,,,,moral_self_bias,03,19,59.8222293219,f,001,2018_Apr_02_1011,
,,,,,,,,,,,,,,,,,,,,,9+0= ?,,,,,,,,,,,,,,,,,,,,0,84,84,118,,,,,,,,,,,,,,,,,,,,,moral_self_bias,03,19,59.8222293219,f,001,2018_Apr_02_1011,
,,,,,,,,,,,,,,,,,,,,,10-9= ?,,,,,,,,,,,,,,,,,,,,0,85,85,112,,,,,,,,,,,,,,,,,,,,,moral_self_bias,03,19,59.8222293219,f,001,2018_Apr_02_1011,
,,,,,,,,,,,,,,,,,,,,,2*3= ?,,,,,,,,,,,,,,,,,,,,0,86,86,108,,,,,,,,,,,,,,,,,,,,,moral_self_bias,03,19,59.8222293219,f,001,2018_Apr_02_1011,
,,,,,,,,,,,,,,,,,,,,,29-27= ?,,,,,,,,,,,,,,,,,,,,0,87,87,72,,,,,,,,,,,,,,,,,,,,,moral_self_bias,03,19,59.8222293219,f,001,2018_Apr_02_1011,
,,,,,,,,,,,,,,,,,,,,,2+6= ?,,,,,,,,,,,,,,,,,,,,0,88,88,12,,,,,,,,,,,,,,,,,,,,,moral_self_bias,03,19,59.8222293219,f,001,2018_Apr_02_1011,
,,,,,,,,,,,,,,,,,,,,,11-11= ?,,,,,,,,,,,,,,,,,,,,0,89,89,119,,,,,,,,,,,,,,,,,,,,,moral_self_bias,03,19,59.8222293219,f,001,2018_Apr_02_1011,
,,,,,,,,,,,,,,,,,,,,,1+8= ?,,,,,,,,,,,,,,,,,,,,0,90,90,6,,,,,,,,,,,,,,,,,,,,,moral_self_bias,03,19,59.8222293219,f,001,2018_Apr_02_1011,
,,,,,,,,,,,,,,,,,,,,,21/3= ? ,,,,,,,,,,,,,,,,,,,,0,91,91,95,,,,,,,,,,,,,,,,,,,,,moral_self_bias,03,19,59.8222293219,f,001,2018_Apr_02_1011,
,,,,,,,,,,,,,,,,,,,,,4+5= ?,,,,,,,,,,,,,,,,,,,,0,92,92,29,,,,,,,,,,,,,,,,,,,,,moral_self_bias,03,19,59.8222293219,f,001,2018_Apr_02_1011,
,,,,,,,,,,,,,,,,,,,,,3+2= ?,,,,,,,,,,,,,,,,,,,,0,93,93,17,,,,,,,,,,,,,,,,,,,,,moral_self_bias,03,19,59.8222293219,f,001,2018_Apr_02_1011,
,,,,,,,,,,,,,,,,,,,,,1+2= ?,,,,,,,,,,,,,,,,,,,,0,94,94,1,,,,,,,,,,,,,,,,,,,,,moral_self_bias,03,19,59.8222293219,f,001,2018_Apr_02_1011,
,,,,,,,,,,,,,,,,,,,,,8-5= ?,,,,,,,,,,,,,,,,,,,,0,95,95,41,,,,,,,,,,,,,,,,,,,,,moral_self_bias,03,19,59.8222293219,f,001,2018_Apr_02_1011,
,,,,,,,,,,,,,,,,,,,,,16-11=？,,,,,,,,,,,,,,,,,,,,0,96,96,62,,,,,,,,,,,,,,,,,,,,,moral_self_bias,03,19,59.8222293219,f,001,2018_Apr_02_1011,
,,,,,,,,,,,,,,,,,,,,,9-3= ?,,,,,,,,,,,,,,,,,,,,0,97,97,15,,,,,,,,,,,,,,,,,,,,,moral_self_bias,03,19,59.8222293219,f,001,2018_Apr_02_1011,
,,,,,,,,,,,,,,,,,,,,,4^1= ?,,,,,,,,,,,,,,,,,,,,0,98,98,102,,,,,,,,,,,,,,,,,,,,,moral_self_bias,03,19,59.8222293219,f,001,2018_Apr_02_1011,
,,,,,,,,,,,,,,,,,,,,,3*2= ?,,,,,,,,,,,,,,,,,,,,0,99,99,53,,,,,,,,,,,,,,,,,,,,,moral_self_bias,03,19,59.8222293219,f,001,2018_Apr_02_1011,
,,,,,,,,,,,,,,,,,,,,,9-4= ?,,,,,,,,,,,,,,,,,,,,0,100,100,22,,,,,,,,,,,,,,,,,,,,,moral_self_bias,03,19,59.8222293219,f,001,2018_Apr_02_1011,
,,,,,,,,,,,,,,,,,,,,,6+1= ?,,,,,,,,,,,,,,,,,,,,0,101,101,43,,,,,,,,,,,,,,,,,,,,,moral_self_bias,03,19,59.8222293219,f,001,2018_Apr_02_1011,
,,,,,,,,,,,,,,,,,,,,,20/5=？,,,,,,,,,,,,,,,,,,,,0,102,102,69,,,,,,,,,,,,,,,,,,,,,moral_self_bias,03,19,59.8222293219,f,001,2018_Apr_02_1011,
,,,,,,,,,,,,,,,,,,,,,13-5= ?,,,,,,,,,,,,,,,,,,,,0,103,103,98,,,,,,,,,,,,,,,,,,,,,moral_self_bias,03,19,59.8222293219,f,001,2018_Apr_02_1011,
,,,,,,,,,,,,,,,,,,,,,12/6= ?,,,,,,,,,,,,,,,,,,,,0,104,104,90,,,,,,,,,,,,,,,,,,,,,moral_self_bias,03,19,59.8222293219,f,001,2018_Apr_02_1011,
,,,,,,,,,,,,,,,,,,,,,3+3= ?,,,,,,,,,,,,,,,,,,,,0,105,105,18,,,,,,,,,,,,,,,,,,,,,moral_self_bias,03,19,59.8222293219,f,001,2018_Apr_02_1011,
,,,,,,,,,,,,,,,,,,,,,1+7= ?,,,,,,,,,,,,,,,,,,,,0,106,106,4,,,,,,,,,,,,,,,,,,,,,moral_self_bias,03,19,59.8222293219,f,001,2018_Apr_02_1011,
,,,,,,,,,,,,,,,,,,,,,2+5= ?,,,,,,,,,,,,,,,,,,,,0,107,107,11,,,,,,,,,,,,,,,,,,,,,moral_self_bias,03,19,59.8222293219,f,001,2018_Apr_02_1011,
,,,,,,,,,,,,,,,,,,,,,3+1= ?,,,,,,,,,,,,,,,,,,,,0,108,108,16,,,,,,,,,,,,,,,,,,,,,moral_self_bias,03,19,59.8222293219,f,001,2018_Apr_02_1011,
,,,,,,,,,,,,,,,,,,,,,9-6= ?,,,,,,,,,,,,,,,,,,,,0,109,109,24,,,,,,,,,,,,,,,,,,,,,moral_self_bias,03,19,59.8222293219,f,001,2018_Apr_02_1011,
,,,,,,,,,,,,,,,,,,,,,5+3= ?,,,,,,,,,,,,,,,,,,,,0,110,110,36,,,,,,,,,,,,,,,,,,,,,moral_self_bias,03,19,59.8222293219,f,001,2018_Apr_02_1011,
,,,,,,,,,,,,,,,,,,,,,6^0= ?,,,,,,,,,,,,,,,,,,,,0,111,111,103,,,,,,,,,,,,,,,,,,,,,moral_self_bias,03,19,59.8222293219,f,001,2018_Apr_02_1011,
,,,,,,,,,,,,,,,,,,,,,81/9= ?,,,,,,,,,,,,,,,,,,,,0,112,112,75,,,,,,,,,,,,,,,,,,,,,moral_self_bias,03,19,59.8222293219,f,001,2018_Apr_02_1011,
,,,,,,,,,,,,,,,,,,,,,6+3= ?,,,,,,,,,,,,,,,,,,,,0,113,113,45,,,,,,,,,,,,,,,,,,,,,moral_self_bias,03,19,59.8222293219,f,001,2018_Apr_02_1011,
,,,,,,,,,,,,,,,,,,,,,10-5=？,,,,,,,,,,,,,,,,,,,,0,114,114,67,,,,,,,,,,,,,,,,,,,,,moral_self_bias,03,19,59.8222293219,f,001,2018_Apr_02_1011,
,,,,,,,,,,,,,,,,,,,,,12-7= ?,,,,,,,,,,,,,,,,,,,,0,115,115,115,,,,,,,,,,,,,,,,,,,,,moral_self_bias,03,19,59.8222293219,f,001,2018_Apr_02_1011,
,,,,,,,,,,,,,,,,,,,,,8-4= ?,,,,,,,,,,,,,,,,,,,,0,116,116,40,,,,,,,,,,,,,,,,,,,,,moral_self_bias,03,19,59.8222293219,f,001,2018_Apr_02_1011,
,,,,,,,,,,,,,,,,,,,,,1+1= ?,,,,,,,,,,,,,,,,,,,,0,117,117,0,,,,,,,,,,,,,,,,,,,,,moral_self_bias,03,19,59.8222293219,f,001,2018_Apr_02_1011,
,,,,,,,,,,,,,,,,,,,,,9-2= ?,,,,,,,,,,,,,,,,,,,,0,118,118,14,,,,,,,,,,,,,,,,,,,,,moral_self_bias,03,19,59.8222293219,f,001,2018_Apr_02_1011,
,,,,,,,,,,,,,,,,,,,,,2+4= ?,,,,,,,,,,,,,,,,,,,,0,119,119,10,,,,,,,,,,,,,,,,,,,,,moral_self_bias,03,19,59.8222293219,f,001,2018_Apr_02_1011,
,,,,,,,,,,,,,,,,,,,,,,,,,,,,,,,,,,,,,,,,,,,,,,,,,,,,,,,,,3,1.9765958786,,,,,,,moral_self_bias,03,19,59.8222293219,f,001,2018_Apr_02_1011,
,,,,,,,,,,,,,,,,,,,,,,material/158.png,2,浅薄,material/58.png,2,material/158.png,肤浅,2,j,j,j,2,2,2,浅薄,,,,,,,,,0,0,0,57,,,,,,,,,,,j,1,2.29070496559,,,,moral_self_bias,03,19,59.8222293219,f,001,2018_Apr_02_1011,
,,,,,,,,,,,,,,,,,,,,,,material/125.png,1,果敢,material/25.png,1,material/125.png,果断,1,j,j,j,2,2,2,果敢,,,,,,,,,0,1,1,24,0,0,0,0,,,,,,,f,0,2.71700501442,j,1,2.30634999275,moral_self_bias,03,19,59.8222293219,f,001,2018_Apr_02_1011,
,,,,,,,,,,,,,,,,,,,,,,material/125.png,1,果敢,material/25.png,1,material/125.png,果断,1,j,j,j,2,2,2,果敢,,,,,,,,,0,1,1,24,,,,,,,,,,,,,,,,,moral_self_bias,03,19,59.8222293219,f,001,2018_Apr_02_1011,
,,,,,,,,,,,,,,,,,,,,,,material/12.png,1,忠心,material/112.png,1,material/112.png,忠心,1,f,f,f,1,1,1,忠诚,,,,,,,,,0,2,2,91,0,0,0,0,,,,,,,f,1,0.940796136856,f,0,3.0415968895,moral_self_bias,03,19,59.8222293219,f,001,2018_Apr_02_1011,
,,,,,,,,,,,,,,,,,,,,,,material/12.png,1,忠心,material/112.png,1,material/112.png,忠心,1,f,f,f,1,1,1,忠诚,,,,,,,,,0,2,2,91,,,,,,,,,,,,,,,,,moral_self_bias,03,19,59.8222293219,f,001,2018_Apr_02_1011,
,,,,,,,,,,,,,,,,,,,,,,material/165.png,1,平等,material/161.png,1,material/61.png,勇敢,1,f,f,f,1,1,1,独立,,,,,,,,,0,3,3,140,0,0,0,0,,,,,,,f,1,5.3244509697,f,0,0.609152078629,moral_self_bias,03,19,59.8222293219,f,001,2018_Apr_02_1011,
,,,,,,,,,,,,,,,,,,,,,,material/165.png,1,平等,material/161.png,1,material/61.png,勇敢,1,f,f,f,1,1,1,独立,,,,,,,,,0,3,3,140,,,,,,,,,,,,,,,,,moral_self_bias,03,19,59.8222293219,f,001,2018_Apr_02_1011,
,,,,,,,,,,,,,,,,,,,,,,material/178.png,2,窝囊,material/82.png,2,material/82.png,窝囊,2,j,j,j,2,2,2,毛糙,,,,,,,,,0,4,4,78,,,,,,,,,,,j,1,1.75087308884,,,,moral_self_bias,03,19,59.8222293219,f,001,2018_Apr_02_1011,
,,,,,,,,,,,,,,,,,,,,,,material/48.png,2,愚蠢,material/148.png,2,material/48.png,笨蛋,2,f,f,f,2,2,2,愚蠢,,,,,,,,,0,5,5,127,,,,,,,,,,,j,0,0.9583568573,,,,moral_self_bias,03,19,59.8222293219,f,001,2018_Apr_02_1011,
,,,,,,,,,,,,,,,,,,,,,,material/109.png,1,秉直,material/9.png,1,material/9.png,秉直,1,j,j,j,1,1,1,正直,,,,,,,,,0,6,6,8,,,,,,,,,,,j,1,0.891427993774,,,,moral_self_bias,03,19,59.8222293219,f,001,2018_Apr_02_1011,
,,,,,,,,,,,,,,,,,,,,,,material/127.png,1,超群,material/27.png,1,material/127.png,卓越,1,j,j,j,2,2,2,超群,,,,,,,,,0,7,7,26,0,0,0,0,,,,,,,f,0,2.13967204094,j,1,0.641503095627,moral_self_bias,03,19,59.8222293219,f,001,2018_Apr_02_1011,
,,,,,,,,,,,,,,,,,,,,,,material/127.png,1,超群,material/27.png,1,material/127.png,卓越,1,j,j,j,2,2,2,超群,,,,,,,,,0,7,7,26,,,,,,,,,,,,,,,,,moral_self_bias,03,19,59.8222293219,f,001,2018_Apr_02_1011,
,,,,,,,,,,,,,,,,,,,,,,material/149.png,2,白痴,material/49.png,2,material/149.png,痴呆,2,j,j,j,2,2,2,白痴,,,,,,,,,0,8,8,48,0,0,0,0,,,,,,,f,0,3.08370900154,j,1,0.673885822296,moral_self_bias,03,19,59.8222293219,f,001,2018_Apr_02_1011,
,,,,,,,,,,,,,,,,,,,,,,material/149.png,2,白痴,material/49.png,2,material/149.png,痴呆,2,j,j,j,2,2,2,白痴,,,,,,,,,0,8,8,48,,,,,,,,,,,,,,,,,moral_self_bias,03,19,59.8222293219,f,001,2018_Apr_02_1011,
,,,,,,,,,,,,,,,,,,,,,,material/104.png,1,友爱,material/4.png,1,material/4.png,友爱,1,j,j,j,1,1,1,友善,,,,,,,,,0,9,9,3,0,0,0,0,,,,,,,f,0,3.67481803894,j,1,1.09988999367,moral_self_bias,03,19,59.8222293219,f,001,2018_Apr_02_1011,
,,,,,,,,,,,,,,,,,,,,,,material/104.png,1,友爱,material/4.png,1,material/4.png,友爱,1,j,j,j,1,1,1,友善,,,,,,,,,0,9,9,3,,,,,,,,,,,,,,,,,moral_self_bias,03,19,59.8222293219,f,001,2018_Apr_02_1011,
,,,,,,,,,,,,,,,,,,,,,,material/71.png,1,严谨,material/68.png,1,material/71.png,广博,1,j,j,j,2,2,2,严谨,,,,,,,,,0,10,10,66,0,0,0,0,,,,,,,f,0,1.69149804115,j,1,0.509037017822,moral_self_bias,03,19,59.8222293219,f,001,2018_Apr_02_1011,
,,,,,,,,,,,,,,,,,,,,,,material/71.png,1,严谨,material/68.png,1,material/71.png,广博,1,j,j,j,2,2,2,严谨,,,,,,,,,0,10,10,66,,,,,,,,,,,,,,,,,moral_self_bias,03,19,59.8222293219,f,001,2018_Apr_02_1011,
,,,,,,,,,,,,,,,,,,,,,,material/119.png,1,机灵,material/19.png,1,material/119.png,灵活,1,j,j,j,2,2,2,机灵,,,,,,,,,0,11,11,18,0,0,0,0,,,,,,,f,0,1.04139018059,j,1,0.392082929611,moral_self_bias,03,19,59.8222293219,f,001,2018_Apr_02_1011,
,,,,,,,,,,,,,,,,,,,,,,material/119.png,1,机灵,material/19.png,1,material/119.png,灵活,1,j,j,j,2,2,2,机灵,,,,,,,,,0,11,11,18,,,,,,,,,,,,,,,,,moral_self_bias,03,19,59.8222293219,f,001,2018_Apr_02_1011,
,,,,,,,,,,,,,,,,,,,,,,material/155.png,2,盲目,material/55.png,2,material/155.png,盲从,2,j,j,j,2,2,2,盲目,,,,,,,,,0,12,12,54,0,0,0,0,,,,,,,f,0,1.67514395714,f,0,0.475377082825,moral_self_bias,03,19,59.8222293219,f,001,2018_Apr_02_1011,
,,,,,,,,,,,,,,,,,,,,,,material/155.png,2,盲目,material/55.png,2,material/155.png,盲从,2,j,j,j,2,2,2,盲目,,,,,,,,,0,12,12,54,,,,,,,,,,,,,,,,,moral_self_bias,03,19,59.8222293219,f,001,2018_Apr_02_1011,
,,,,,,,,,,,,,,,,,,,,,,material/26.png,1,刻苦,material/126.png,1,material/26.png,勤快,1,f,f,f,2,2,2,刻苦,,,,,,,,,0,13,13,105,,,,,,,,,,,j,0,1.24161911011,,,,moral_self_bias,03,19,59.8222293219,f,001,2018_Apr_02_1011,
,,,,,,,,,,,,,,,,,,,,,,material/7.png,1,公平,material/107.png,1,material/107.png,公平,1,f,f,f,1,1,1,公正,,,,,,,,,0,14,14,86,,,,,,,,,,,j,0,0.758166074753,,,,moral_self_bias,03,19,59.8222293219,f,001,2018_Apr_02_1011,
,,,,,,,,,,,,,,,,,,,,,,material/177.png,2,谄媚,material/72.png,2,material/72.png,谄媚,2,j,j,j,1,1,1,恶心,,,,,,,,,0,15,15,69,0,0,0,0,,,,,,,f,0,3.20743894577,f,0,1.1575961113,moral_self_bias,03,19,59.8222293219,f,001,2018_Apr_02_1011,
,,,,,,,,,,,,,,,,,,,,,,material/177.png,2,谄媚,material/72.png,2,material/72.png,谄媚,2,j,j,j,1,1,1,恶心,,,,,,,,,0,15,15,69,,,,,,,,,,,,,,,,,moral_self_bias,03,19,59.8222293219,f,001,2018_Apr_02_1011,
,,,,,,,,,,,,,,,,,,,,,,material/55.png,2,盲从,material/155.png,2,material/55.png,盲目,2,f,f,f,2,2,2,盲从,,,,,,,,,0,16,16,134,0,0,0,0,,,,,,,f,1,1.00763607025,f,0,0.508069992065,moral_self_bias,03,19,59.8222293219,f,001,2018_Apr_02_1011,
,,,,,,,,,,,,,,,,,,,,,,material/55.png,2,盲从,material/155.png,2,material/55.png,盲目,2,f,f,f,2,2,2,盲从,,,,,,,,,0,16,16,134,,,,,,,,,,,,,,,,,moral_self_bias,03,19,59.8222293219,f,001,2018_Apr_02_1011,
,,,,,,,,,,,,,,,,,,,,,,material/146.png,2,小气,material/46.png,2,material/46.png,小气,2,j,j,j,1,1,1,自私,,,,,,,,,0,17,17,45,0,0,0,0,,,,,,,f,0,0.956830024719,f,0,0.641051054001,moral_self_bias,03,19,59.8222293219,f,001,2018_Apr_02_1011,
,,,,,,,,,,,,,,,,,,,,,,material/146.png,2,小气,material/46.png,2,material/46.png,小气,2,j,j,j,1,1,1,自私,,,,,,,,,0,17,17,45,,,,,,,,,,,,,,,,,moral_self_bias,03,19,59.8222293219,f,001,2018_Apr_02_1011,
,,,,,,,,,,,,,,,,,,,,,,material/170.png,1,坚忍,material/71.png,1,material/170.png,严谨,1,j,j,j,2,2,2,坚忍,,,,,,,,,0,18,18,68,0,0,0,0,,,,,,,f,0,2.57548499107,j,1,0.541401147842,moral_self_bias,03,19,59.8222293219,f,001,2018_Apr_02_1011,
,,,,,,,,,,,,,,,,,,,,,,material/170.png,1,坚忍,material/71.png,1,material/170.png,严谨,1,j,j,j,2,2,2,坚忍,,,,,,,,,0,18,18,68,,,,,,,,,,,,,,,,,moral_self_bias,03,19,59.8222293219,f,001,2018_Apr_02_1011,
,,,,,,,,,,,,,,,,,,,,,,material/69.png,1,高明,material/69.png,1,material/69.png,高明,1,f,f,f,2,2,2,高明,,,,,,,,,0,19,19,166,0,0,0,0,,,,,,,f,1,0.724180936813,j,1,0.374481916428,moral_self_bias,03,19,59.8222293219,f,001,2018_Apr_02_1011,
,,,,,,,,,,,,,,,,,,,,,,material/69.png,1,高明,material/69.png,1,material/69.png,高明,1,f,f,f,2,2,2,高明,,,,,,,,,0,19,19,166,,,,,,,,,,,,,,,,,moral_self_bias,03,19,59.8222293219,f,001,2018_Apr_02_1011,
,,,,,,,,,,,,,,,,,,,,,,material/6.png,1,厚道,material/106.png,1,material/106.png,厚道,1,f,f,f,1,1,1,诚实,,,,,,,,,0,20,20,85,0,0,0,0,,,,,,,f,1,0.625012874603,j,1,0.34198307991,moral_self_bias,03,19,59.8222293219,f,001,2018_Apr_02_1011,
,,,,,,,,,,,,,,,,,,,,,,material/6.png,1,厚道,material/106.png,1,material/106.png,厚道,1,f,f,f,1,1,1,诚实,,,,,,,,,0,20,20,85,,,,,,,,,,,,,,,,,moral_self_bias,03,19,59.8222293219,f,001,2018_Apr_02_1011,
,,,,,,,,,,,,,,,,,,,,,,material/118.png,1,机敏,material/18.png,1,material/118.png,敏锐,1,j,j,j,2,2,2,机敏,,,,,,,,,0,21,21,17,0,0,0,0,,,,,,,f,0,0.658154010773,j,1,0.325623989105,moral_self_bias,03,19,59.8222293219,f,001,2018_Apr_02_1011,
,,,,,,,,,,,,,,,,,,,,,,material/118.png,1,机敏,material/18.png,1,material/118.png,敏锐,1,j,j,j,2,2,2,机敏,,,,,,,,,0,21,21,17,,,,,,,,,,,,,,,,,moral_self_bias,03,19,59.8222293219,f,001,2018_Apr_02_1011,
,,,,,,,,,,,,,,,,,,,,,,material/18.png,1,敏锐,material/118.png,1,material/18.png,机敏,1,f,f,f,2,2,2,敏锐,,,,,,,,,0,22,22,97,0,0,0,0,,,,,,,f,1,0.7576379776,j,1,0.324733972549,moral_self_bias,03,19,59.8222293219,f,001,2018_Apr_02_1011,
,,,,,,,,,,,,,,,,,,,,,,material/18.png,1,敏锐,material/118.png,1,material/18.png,机敏,1,f,f,f,2,2,2,敏锐,,,,,,,,,0,22,22,97,,,,,,,,,,,,,,,,,moral_self_bias,03,19,59.8222293219,f,001,2018_Apr_02_1011,
,,,,,,,,,,,,,,,,,,,,,,material/175.png,2,残虐,material/73.png,2,material/73.png,残虐,2,f,f,f,1,1,1,无情,,,,,,,,,0,23,23,165,0,0,0,0,,,,,,,f,1,0.957836151123,f,0,0.392151832581,moral_self_bias,03,19,59.8222293219,f,001,2018_Apr_02_1011,
,,,,,,,,,,,,,,,,,,,,,,material/175.png,2,残虐,material/73.png,2,material/73.png,残虐,2,f,f,f,1,1,1,无情,,,,,,,,,0,23,23,165,,,,,,,,,,,,,,,,,moral_self_bias,03,19,59.8222293219,f,001,2018_Apr_02_1011,
,,,,,,,,,,,,,,,,,,,,,,material/53.png,2,迟缓,material/153.png,2,material/53.png,迟钝,2,f,f,f,2,2,2,迟缓,,,,,,,,,0,24,24,132,0,0,0,0,,,,,,,f,1,1.19203209877,j,1,0.641782999039,moral_self_bias,03,19,59.8222293219,f,001,2018_Apr_02_1011,
,,,,,,,,,,,,,,,,,,,,,,material/53.png,2,迟缓,material/153.png,2,material/53.png,迟钝,2,f,f,f,2,2,2,迟缓,,,,,,,,,0,24,24,132,,,,,,,,,,,,,,,,,moral_self_bias,03,19,59.8222293219,f,001,2018_Apr_02_1011,
,,,,,,,,,,,,,,,,,,,,,,material/145.png,2,下流,material/45.png,2,material/45.png,下流,2,j,j,j,1,1,1,小人,,,,,,,,,0,25,25,44,0,0,0,0,,,,,,,f,0,1.34252691269,j,1,0.740446090698,moral_self_bias,03,19,59.8222293219,f,001,2018_Apr_02_1011,
,,,,,,,,,,,,,,,,,,,,,,material/145.png,2,下流,material/45.png,2,material/45.png,下流,2,j,j,j,1,1,1,小人,,,,,,,,,0,25,25,44,,,,,,,,,,,,,,,,,moral_self_bias,03,19,59.8222293219,f,001,2018_Apr_02_1011,
,,,,,,,,,,,,,,,,,,,,,,material/139.png,2,凶残,material/39.png,2,material/39.png,凶残,2,j,j,j,1,1,1,恶毒,,,,,,,,,0,26,26,38,0,0,0,0,,,,,,,f,0,0.850121974945,f,0,3.44094204903,moral_self_bias,03,19,59.8222293219,f,001,2018_Apr_02_1011,
,,,,,,,,,,,,,,,,,,,,,,material/139.png,2,凶残,material/39.png,2,material/39.png,凶残,2,j,j,j,1,1,1,恶毒,,,,,,,,,0,26,26,38,,,,,,,,,,,,,,,,,moral_self_bias,03,19,59.8222293219,f,001,2018_Apr_02_1011,
,,,,,,,,,,,,,,,,,,,,,,material/126.png,1,勤快,material/26.png,1,material/126.png,刻苦,1,j,j,j,2,2,2,勤快,,,,,,,,,0,27,27,25,0,0,0,0,,,,,,,f,0,0.908233880997,j,1,0.759155988693,moral_self_bias,03,19,59.8222293219,f,001,2018_Apr_02_1011,
,,,,,,,,,,,,,,,,,,,,,,material/126.png,1,勤快,material/26.png,1,material/126.png,刻苦,1,j,j,j,2,2,2,勤快,,,,,,,,,0,27,27,25,,,,,,,,,,,,,,,,,moral_self_bias,03,19,59.8222293219,f,001,2018_Apr_02_1011,
,,,,,,,,,,,,,,,,,,,,,,material/121.png,1,精干,material/21.png,1,material/121.png,干练,1,j,j,j,2,2,2,精干,,,,,,,,,0,28,28,20,,,,,,,,,,,j,1,1.84099507332,,,,moral_self_bias,03,19,59.8222293219,f,001,2018_Apr_02_1011,
,,,,,,,,,,,,,,,,,,,,,,material/82.png,2,毛糙,material/183.png,2,material/178.png,薄弱,2,f,f,f,2,2,2,窝囊,,,,,,,,,0,29,29,162,,,,,,,,,,,j,0,0.99150800705,,,,moral_self_bias,03,19,59.8222293219,f,001,2018_Apr_02_1011,
,,,,,,,,,,,,,,,,,,,,,,material/10.png,1,坚毅,material/110.png,1,material/110.png,坚毅,1,f,f,f,1,1,1,顽强,,,,,,,,,0,30,30,89,0,0,0,0,,,,,,,f,1,0.925424098969,j,1,0.508819103241,moral_self_bias,03,19,59.8222293219,f,001,2018_Apr_02_1011,
,,,,,,,,,,,,,,,,,,,,,,material/10.png,1,坚毅,material/110.png,1,material/110.png,坚毅,1,f,f,f,1,1,1,顽强,,,,,,,,,0,30,30,89,,,,,,,,,,,,,,,,,moral_self_bias,03,19,59.8222293219,f,001,2018_Apr_02_1011,
,,,,,,,,,,,,,,,,,,,,,,material/32.png,2,背叛,material/132.png,2,material/132.png,背叛,2,f,f,f,1,1,1,不忠,,,,,,,,,0,31,31,111,0,0,0,0,,,,,,,f,1,0.991111040115,f,0,0.441370010376,moral_self_bias,03,19,59.8222293219,f,001,2018_Apr_02_1011,
,,,,,,,,,,,,,,,,,,,,,,material/32.png,2,背叛,material/132.png,2,material/132.png,背叛,2,f,f,f,1,1,1,不忠,,,,,,,,,0,31,31,111,,,,,,,,,,,,,,,,,moral_self_bias,03,19,59.8222293219,f,001,2018_Apr_02_1011,
,,,,,,,,,,,,,,,,,,,,,,material/151.png,2,迷糊,material/51.png,2,material/151.png,糊涂,2,j,j,j,2,2,2,迷糊,,,,,,,,,0,32,32,50,,,,,,,,,,,j,1,2.92411398888,,,,moral_self_bias,03,19,59.8222293219,f,001,2018_Apr_02_1011,
,,,,,,,,,,,,,,,,,,,,,,material/16.png,1,睿智,material/116.png,1,material/16.png,机智,1,f,f,f,2,2,2,睿智,,,,,,,,,0,33,33,95,,,,,,,,,,,j,0,1.00744009018,,,,moral_self_bias,03,19,59.8222293219,f,001,2018_Apr_02_1011,
,,,,,,,,,,,,,,,,,,,,,,material/28.png,1,克己,material/128.png,1,material/28.png,自律,1,f,f,f,2,2,2,克己,,,,,,,,,0,34,34,107,0,0,0,0,,,,,,,f,1,1.02450418472,f,0,2.79179501534,moral_self_bias,03,19,59.8222293219,f,001,2018_Apr_02_1011,
,,,,,,,,,,,,,,,,,,,,,,material/28.png,1,克己,material/128.png,1,material/28.png,自律,1,f,f,f,2,2,2,克己,,,,,,,,,0,34,34,107,,,,,,,,,,,,,,,,,moral_self_bias,03,19,59.8222293219,f,001,2018_Apr_02_1011,
,,,,,,,,,,,,,,,,,,,,,,material/9.png,1,正直,material/109.png,1,material/109.png,正直,1,f,f,f,1,1,1,秉直,,,,,,,,,0,35,35,88,0,0,0,0,,,,,,,f,1,0.917051076889,f,0,0.39111495018,moral_self_bias,03,19,59.8222293219,f,001,2018_Apr_02_1011,
,,,,,,,,,,,,,,,,,,,,,,material/9.png,1,正直,material/109.png,1,material/109.png,正直,1,f,f,f,1,1,1,秉直,,,,,,,,,0,35,35,88,,,,,,,,,,,,,,,,,moral_self_bias,03,19,59.8222293219,f,001,2018_Apr_02_1011,
,,,,,,,,,,,,,,,,,,,,,,material/105.png,1,守信,material/5.png,1,material/5.png,守信,1,j,j,j,1,1,1,诚信,,,,,,,,,0,36,36,4,0,0,0,0,,,,,,,f,0,1.32500910759,f,0,1.49143791199,moral_self_bias,03,19,59.8222293219,f,001,2018_Apr_02_1011,
,,,,,,,,,,,,,,,,,,,,,,material/105.png,1,守信,material/5.png,1,material/5.png,守信,1,j,j,j,1,1,1,诚信,,,,,,,,,0,36,36,4,,,,,,,,,,,,,,,,,moral_self_bias,03,19,59.8222293219,f,001,2018_Apr_02_1011,
,,,,,,,,,,,,,,,,,,,,,,material/81.png,2,呆笨,material/179.png,2,material/83.png,差生,2,f,f,f,2,2,2,无助,,,,,,,,,0,37,37,158,,,,,,,,,,,j,0,1.44057416916,,,,moral_self_bias,03,19,59.8222293219,f,001,2018_Apr_02_1011,
,,,,,,,,,,,,,,,,,,,,,,material/27.png,1,卓越,material/127.png,1,material/27.png,超群,1,f,f,f,2,2,2,卓越,,,,,,,,,0,38,38,106,,,,,,,,,,,j,0,0.72495508194,,,,moral_self_bias,03,19,59.8222293219,f,001,2018_Apr_02_1011,
,,,,,,,,,,,,,,,,,,,,,,material/80.png,2,才尽,material/83.png,2,material/182.png,呆笨,2,j,j,j,2,2,2,健忘,,,,,,,,,0,39,39,79,,,,,,,,,,,j,1,0.866126060486,,,,moral_self_bias,03,19,59.8222293219,f,001,2018_Apr_02_1011,
,,,,,,,,,,,,,,,,,,,,,,material/83.png,2,差生,material/78.png,2,material/179.png,草率,2,j,j,j,2,2,2,呆笨,,,,,,,,,0,40,40,74,,,,,,,,,,,j,1,0.64151597023,,,,moral_self_bias,03,19,59.8222293219,f,001,2018_Apr_02_1011,
,,,,,,,,,,,,,,,,,,,,,,material/183.png,2,颓废,material/182.png,2,material/79.png,才尽,2,f,f,f,2,2,2,薄弱,,,,,,,,,0,41,41,161,,,,,,,,,,,j,0,0.690778017044,,,,moral_self_bias,03,19,59.8222293219,f,001,2018_Apr_02_1011,
,,,,,,,,,,,,,,,,,,,,,,material/56.png,2,愚昧,material/156.png,2,material/56.png,愚钝,2,f,f,f,2,2,2,愚昧,,,,,,,,,0,42,42,135,0,0,0,0,,,,,,,f,1,1.45779800415,f,0,1.69214582443,moral_self_bias,03,19,59.8222293219,f,001,2018_Apr_02_1011,
,,,,,,,,,,,,,,,,,,,,,,material/56.png,2,愚昧,material/156.png,2,material/56.png,愚钝,2,f,f,f,2,2,2,愚昧,,,,,,,,,0,42,42,135,,,,,,,,,,,,,,,,,moral_self_bias,03,19,59.8222293219,f,001,2018_Apr_02_1011,
,,,,,,,,,,,,,,,,,,,,,,material/124.png,1,冷静,material/24.png,1,material/124.png,理智,1,j,j,j,2,2,2,冷静,,,,,,,,,0,43,43,23,0,0,0,0,,,,,,,f,0,1.57405090332,f,0,0.425375938416,moral_self_bias,03,19,59.8222293219,f,001,2018_Apr_02_1011,
,,,,,,,,,,,,,,,,,,,,,,material/124.png,1,冷静,material/24.png,1,material/124.png,理智,1,j,j,j,2,2,2,冷静,,,,,,,,,0,43,43,23,,,,,,,,,,,,,,,,,moral_self_bias,03,19,59.8222293219,f,001,2018_Apr_02_1011,
,,,,,,,,,,,,,,,,,,,,,,material/171.png,1,高效,material/67.png,1,material/171.png,骁勇,1,j,j,j,2,2,2,高效,,,,,,,,,0,44,44,65,,,,,,,,,,,j,1,1.19163203239,,,,moral_self_bias,03,19,59.8222293219,f,001,2018_Apr_02_1011,
,,,,,,,,,,,,,,,,,,,,,,material/181.png,2,怠惰,material/180.png,2,material/180.png,怠惰,2,f,f,f,2,2,2,犹豫,,,,,,,,,0,45,45,159,0,0,0,0,,,,,,,f,1,0.907916069031,j,1,0.892421007156,moral_self_bias,03,19,59.8222293219,f,001,2018_Apr_02_1011,
,,,,,,,,,,,,,,,,,,,,,,material/181.png,2,怠惰,material/180.png,2,material/180.png,怠惰,2,f,f,f,2,2,2,犹豫,,,,,,,,,0,45,45,159,,,,,,,,,,,,,,,,,moral_self_bias,03,19,59.8222293219,f,001,2018_Apr_02_1011,
,,,,,,,,,,,,,,,,,,,,,,material/8.png,1,无私,material/108.png,1,material/108.png,无私,1,f,f,f,1,1,1,公道,,,,,,,,,0,46,46,87,0,0,0,0,,,,,,,f,1,1.10031104088,j,1,0.474328994751,moral_self_bias,03,19,59.8222293219,f,001,2018_Apr_02_1011,
,,,,,,,,,,,,,,,,,,,,,,material/8.png,1,无私,material/108.png,1,material/108.png,无私,1,f,f,f,1,1,1,公道,,,,,,,,,0,46,46,87,,,,,,,,,,,,,,,,,moral_self_bias,03,19,59.8222293219,f,001,2018_Apr_02_1011,
,,,,,,,,,,,,,,,,,,,,,,material/150.png,2,鲁钝,material/50.png,2,material/150.png,愚笨,2,j,j,j,2,2,2,鲁钝,,,,,,,,,0,47,47,49,0,0,0,0,,,,,,,f,0,0.758694887161,f,0,1.32480812073,moral_self_bias,03,19,59.8222293219,f,001,2018_Apr_02_1011,
,,,,,,,,,,,,,,,,,,,,,,material/150.png,2,鲁钝,material/50.png,2,material/150.png,愚笨,2,j,j,j,2,2,2,鲁钝,,,,,,,,,0,47,47,49,,,,,,,,,,,,,,,,,moral_self_bias,03,19,59.8222293219,f,001,2018_Apr_02_1011,
,,,,,,,,,,,,,,,,,,,,,,material/120.png,1,能干,material/20.png,1,material/120.png,厉害,1,j,j,j,2,2,2,能干,,,,,,,,,0,48,48,19,0,0,0,0,,,,,,,f,0,1.0570731163,j,1,0.442117929459,moral_self_bias,03,19,59.8222293219,f,001,2018_Apr_02_1011,
,,,,,,,,,,,,,,,,,,,,,,material/120.png,1,能干,material/20.png,1,material/120.png,厉害,1,j,j,j,2,2,2,能干,,,,,,,,,0,48,48,19,,,,,,,,,,,,,,,,,moral_self_bias,03,19,59.8222293219,f,001,2018_Apr_02_1011,
,,,,,,,,,,,,,,,,,,,,,,material/138.png,2,无德,material/38.png,2,material/38.png,无德,2,j,j,j,1,1,1,缺德,,,,,,,,,0,49,49,37,,,,,,,,,,,j,1,1.0751979351,,,,moral_self_bias,03,19,59.8222293219,f,001,2018_Apr_02_1011,
,,,,,,,,,,,,,,,,,,,,,,material/15.png,1,纯洁,material/115.png,1,material/115.png,纯洁,1,f,f,f,1,1,1,清白,,,,,,,,,0,50,50,94,,,,,,,,,,,j,0,0.807940006256,,,,moral_self_bias,03,19,59.8222293219,f,001,2018_Apr_02_1011,
,,,,,,,,,,,,,,,,,,,,,,material/117.png,1,聪颖,material/17.png,1,material/117.png,聪明,1,j,j,j,2,2,2,聪颖,,,,,,,,,0,51,51,16,0,0,0,0,,,,,,,f,0,1.05821299553,j,1,0.725718975067,moral_self_bias,03,19,59.8222293219,f,001,2018_Apr_02_1011,
,,,,,,,,,,,,,,,,,,,,,,material/117.png,1,聪颖,material/17.png,1,material/117.png,聪明,1,j,j,j,2,2,2,聪颖,,,,,,,,,0,51,51,16,,,,,,,,,,,,,,,,,moral_self_bias,03,19,59.8222293219,f,001,2018_Apr_02_1011,
,,,,,,,,,,,,,,,,,,,,,,material/132.png,2,不忠,material/32.png,2,material/32.png,不忠,2,j,j,j,1,1,1,背叛,,,,,,,,,0,52,52,31,0,0,0,0,,,,,,,f,0,1.85789704323,f,0,0.942833900452,moral_self_bias,03,19,59.8222293219,f,001,2018_Apr_02_1011,
,,,,,,,,,,,,,,,,,,,,,,material/132.png,2,不忠,material/32.png,2,material/32.png,不忠,2,j,j,j,1,1,1,背叛,,,,,,,,,0,52,52,31,,,,,,,,,,,,,,,,,moral_self_bias,03,19,59.8222293219,f,001,2018_Apr_02_1011,
,,,,,,,,,,,,,,,,,,,,,,material/116.png,1,机智,material/16.png,1,material/116.png,睿智,1,j,j,j,2,2,2,机智,,,,,,,,,0,53,53,15,0,0,0,0,,,,,,,f,0,0.890449047089,j,1,0.558189153671,moral_self_bias,03,19,59.8222293219,f,001,2018_Apr_02_1011,
,,,,,,,,,,,,,,,,,,,,,,material/116.png,1,机智,material/16.png,1,material/116.png,睿智,1,j,j,j,2,2,2,机智,,,,,,,,,0,53,53,15,,,,,,,,,,,,,,,,,moral_self_bias,03,19,59.8222293219,f,001,2018_Apr_02_1011,
,,,,,,,,,,,,,,,,,,,,,,material/49.png,2,痴呆,material/149.png,2,material/49.png,白痴,2,f,f,f,2,2,2,痴呆,,,,,,,,,0,54,54,128,,,,,,,,,,,j,0,1.0751080513,,,,moral_self_bias,03,19,59.8222293219,f,001,2018_Apr_02_1011,
,,,,,,,,,,,,,,,,,,,,,,material/44.png,2,爽约,material/144.png,2,material/144.png,爽约,2,f,f,f,1,1,1,失信,,,,,,,,,0,55,55,123,,,,,,,,,,,j,0,0.591187953949,,,,moral_self_bias,03,19,59.8222293219,f,001,2018_Apr_02_1011,
,,,,,,,,,,,,,,,,,,,,,,material/179.png,2,顽愚,material/178.png,2,material/84.png,毛糙,2,f,f,f,2,2,2,差生,,,,,,,,,0,56,56,157,0,0,0,0,,,,,,,f,1,1.30851507187,f,0,0.707816839218,moral_self_bias,03,19,59.8222293219,f,001,2018_Apr_02_1011,
,,,,,,,,,,,,,,,,,,,,,,material/179.png,2,顽愚,material/178.png,2,material/84.png,毛糙,2,f,f,f,2,2,2,差生,,,,,,,,,0,56,56,157,,,,,,,,,,,,,,,,,moral_self_bias,03,19,59.8222293219,f,001,2018_Apr_02_1011,
,,,,,,,,,,,,,,,,,,,,,,material/137.png,2,无耻,material/37.png,2,material/37.png,无耻,2,j,j,j,1,1,1,卑鄙,,,,,,,,,0,57,57,36,,,,,,,,,,,j,1,1.56700396538,,,,moral_self_bias,03,19,59.8222293219,f,001,2018_Apr_02_1011,
,,,,,,,,,,,,,,,,,,,,,,material/114.png,1,爱国,material/14.png,1,material/14.png,爱国,1,j,j,j,1,1,1,忠贞,,,,,,,,,0,58,58,13,,,,,,,,,,,j,1,0.633359909058,,,,moral_self_bias,03,19,59.8222293219,f,001,2018_Apr_02_1011,
,,,,,,,,,,,,,,,,,,,,,,material/156.png,2,愚钝,material/56.png,2,material/156.png,愚昧,2,j,j,j,2,2,2,愚钝,,,,,,,,,0,59,59,55,0,0,0,0,,,,,,,f,0,1.40798807144,f,0,0.37477016449,moral_self_bias,03,19,59.8222293219,f,001,2018_Apr_02_1011,
,,,,,,,,,,,,,,,,,,,,,,material/156.png,2,愚钝,material/56.png,2,material/156.png,愚昧,2,j,j,j,2,2,2,愚钝,,,,,,,,,0,59,59,55,,,,,,,,,,,,,,,,,moral_self_bias,03,19,59.8222293219,f,001,2018_Apr_02_1011,
,,,,,,,,,,,,,,,,,,,,,,material/3.png,1,仁厚,material/103.png,1,material/103.png,仁厚,1,f,f,f,1,1,1,仁慈,,,,,,,,,0,60,60,82,0,0,0,0,,,,,,,f,1,3.55812287331,j,1,0.766998052597,moral_self_bias,03,19,59.8222293219,f,001,2018_Apr_02_1011,
,,,,,,,,,,,,,,,,,,,,,,material/3.png,1,仁厚,material/103.png,1,material/103.png,仁厚,1,f,f,f,1,1,1,仁慈,,,,,,,,,0,60,60,82,,,,,,,,,,,,,,,,,moral_self_bias,03,19,59.8222293219,f,001,2018_Apr_02_1011,
,,,,,,,,,,,,,,,,,,,,,,material/34.png,2,可恶,material/134.png,2,material/134.png,可恶,2,f,f,f,1,1,1,可恨,,,,,,,,,0,61,61,113,,,,,,,,,,,j,0,1.92470312119,,,,moral_self_bias,03,19,59.8222293219,f,001,2018_Apr_02_1011,
,,,,,,,,,,,,,,,,,,,,,,material/108.png,1,公道,material/8.png,1,material/8.png,公道,1,j,j,j,1,1,1,无私,,,,,,,,,0,62,62,7,,,,,,,,,,,j,1,0.607553005219,,,,moral_self_bias,03,19,59.8222293219,f,001,2018_Apr_02_1011,
,,,,,,,,,,,,,,,,,,,,,,material/51.png,2,糊涂,material/151.png,2,material/51.png,迷糊,2,f,f,f,2,2,2,糊涂,,,,,,,,,0,63,63,130,,,,,,,,,,,j,0,0.6589179039,,,,moral_self_bias,03,19,59.8222293219,f,001,2018_Apr_02_1011,
,,,,,,,,,,,,,,,,,,,,,,material/164.png,1,宽容,material/63.png,1,material/163.png,文明,1,j,j,j,1,1,1,孝顺,,,,,,,,,0,64,64,62,0,0,0,0,,,,,,,f,0,1.30898499489,j,1,0.457125902176,moral_self_bias,03,19,59.8222293219,f,001,2018_Apr_02_1011,
,,,,,,,,,,,,,,,,,,,,,,material/164.png,1,宽容,material/63.png,1,material/163.png,文明,1,j,j,j,1,1,1,孝顺,,,,,,,,,0,64,64,62,,,,,,,,,,,,,,,,,moral_self_bias,03,19,59.8222293219,f,001,2018_Apr_02_1011,
,,,,,,,,,,,,,,,,,,,,,,material/103.png,1,仁慈,material/3.png,1,material/3.png,仁慈,1,j,j,j,1,1,1,仁厚,,,,,,,,,0,65,65,2,0,0,0,0,,,,,,,f,0,0.724236965179,j,1,0.525782108307,moral_self_bias,03,19,59.8222293219,f,001,2018_Apr_02_1011,
,,,,,,,,,,,,,,,,,,,,,,material/103.png,1,仁慈,material/3.png,1,material/3.png,仁慈,1,j,j,j,1,1,1,仁厚,,,,,,,,,0,65,65,2,,,,,,,,,,,,,,,,,moral_self_bias,03,19,59.8222293219,f,001,2018_Apr_02_1011,
,,,,,,,,,,,,,,,,,,,,,,material/76.png,2,放纵,material/176.png,2,material/176.png,放纵,2,f,f,f,1,1,1,虚伪,,,,,,,,,0,66,66,155,,,,,,,,,,,j,0,1.48368692398,,,,moral_self_bias,03,19,59.8222293219,f,001,2018_Apr_02_1011,
,,,,,,,,,,,,,,,,,,,,,,material/111.png,1,高雅,material/11.png,1,material/11.png,高雅,1,j,j,j,1,1,1,高尚,,,,,,,,,0,67,67,10,,,,,,,,,,,j,1,0.625070095062,,,,moral_self_bias,03,19,59.8222293219,f,001,2018_Apr_02_1011,
,,,,,,,,,,,,,,,,,,,,,,material/73.png,2,恶心,material/177.png,2,material/177.png,恶心,2,f,f,f,1,1,1,残虐,,,,,,,,,0,68,68,156,0,0,0,0,,,,,,,f,1,0.850488901138,f,0,0.408123970032,moral_self_bias,03,19,59.8222293219,f,001,2018_Apr_02_1011,
,,,,,,,,,,,,,,,,,,,,,,material/73.png,2,恶心,material/177.png,2,material/177.png,恶心,2,f,f,f,1,1,1,残虐,,,,,,,,,0,68,68,156,,,,,,,,,,,,,,,,,moral_self_bias,03,19,59.8222293219,f,001,2018_Apr_02_1011,
,,,,,,,,,,,,,,,,,,,,,,material/129.png,1,好问,material/29.png,1,material/129.png,好学,1,j,j,j,2,2,2,好问,,,,,,,,,0,69,69,28,0,0,0,0,,,,,,,f,0,1.70541214943,j,1,1.6719148159,moral_self_bias,03,19,59.8222293219,f,001,2018_Apr_02_1011,
,,,,,,,,,,,,,,,,,,,,,,material/129.png,1,好问,material/29.png,1,material/129.png,好学,1,j,j,j,2,2,2,好问,,,,,,,,,0,69,69,28,,,,,,,,,,,,,,,,,moral_self_bias,03,19,59.8222293219,f,001,2018_Apr_02_1011,
,,,,,,,,,,,,,,,,,,,,,,material/163.png,1,文明,material/163.png,1,material/63.png,宽容,1,f,f,f,1,1,1,宽容,,,,,,,,,0,70,70,142,,,,,,,,,,,j,0,1.55736303329,,,,moral_self_bias,03,19,59.8222293219,f,001,2018_Apr_02_1011,
,,,,,,,,,,,,,,,,,,,,,,material/59.png,2,智障,material/159.png,2,material/59.png,弱智,2,f,f,f,2,2,2,智障,,,,,,,,,0,71,71,138,0,0,0,0,,,,,,,f,1,1.27452397346,f,0,0.424955129623,moral_self_bias,03,19,59.8222293219,f,001,2018_Apr_02_1011,
,,,,,,,,,,,,,,,,,,,,,,material/59.png,2,智障,material/159.png,2,material/59.png,弱智,2,f,f,f,2,2,2,智障,,,,,,,,,0,71,71,138,,,,,,,,,,,,,,,,,moral_self_bias,03,19,59.8222293219,f,001,2018_Apr_02_1011,
,,,,,,,,,,,,,,,,,,,,,,material/20.png,1,厉害,material/120.png,1,material/20.png,能干,1,f,f,f,2,2,2,厉害,,,,,,,,,0,72,72,99,,,,,,,,,,,j,0,1.09198904037,,,,moral_self_bias,03,19,59.8222293219,f,001,2018_Apr_02_1011,
,,,,,,,,,,,,,,,,,,,,,,material/154.png,2,依靠,material/54.png,2,material/154.png,依赖,2,j,j,j,2,2,2,依靠,,,,,,,,,0,73,73,53,0,0,0,0,,,,,,,f,0,1.65766000748,f,0,0.55669593811,moral_self_bias,03,19,59.8222293219,f,001,2018_Apr_02_1011,
,,,,,,,,,,,,,,,,,,,,,,material/154.png,2,依靠,material/54.png,2,material/154.png,依赖,2,j,j,j,2,2,2,依靠,,,,,,,,,0,73,73,53,,,,,,,,,,,,,,,,,moral_self_bias,03,19,59.8222293219,f,001,2018_Apr_02_1011,
,,,,,,,,,,,,,,,,,,,,,,material/157.png,2,无能,material/57.png,2,material/157.png,无知,2,j,j,j,2,2,2,无能,,,,,,,,,0,74,74,56,0,0,0,0,,,,,,,f,0,0.974391937256,f,0,0.341136932373,moral_self_bias,03,19,59.8222293219,f,001,2018_Apr_02_1011,
,,,,,,,,,,,,,,,,,,,,,,material/157.png,2,无能,material/57.png,2,material/157.png,无知,2,j,j,j,2,2,2,无能,,,,,,,,,0,74,74,56,,,,,,,,,,,,,,,,,moral_self_bias,03,19,59.8222293219,f,001,2018_Apr_02_1011,
,,,,,,,,,,,,,,,,,,,,,,material/21.png,1,干练,material/121.png,1,material/21.png,精干,1,f,f,f,2,2,2,干练,,,,,,,,,0,75,75,100,,,,,,,,,,,j,0,1.20017790794,,,,moral_self_bias,03,19,59.8222293219,f,001,2018_Apr_02_1011,
,,,,,,,,,,,,,,,,,,,,,,material/79.png,2,薄弱,material/81.png,2,material/183.png,无助,2,j,j,j,2,2,2,颓废,,,,,,,,,0,76,76,77,,,,,,,,,,,j,1,0.691868066788,,,,moral_self_bias,03,19,59.8222293219,f,001,2018_Apr_02_1011,
,,,,,,,,,,,,,,,,,,,,,,material/144.png,2,失信,material/44.png,2,material/44.png,失信,2,j,j,j,1,1,1,爽约,,,,,,,,,0,77,77,43,,,,,,,,,,,j,1,0.674531936646,,,,moral_self_bias,03,19,59.8222293219,f,001,2018_Apr_02_1011,
,,,,,,,,,,,,,,,,,,,,,,material/42.png,2,奸诈,material/142.png,2,material/142.png,奸诈,2,f,f,f,1,1,1,阴险,,,,,,,,,0,78,78,121,0,0,0,0,,,,,,,f,1,0.991320848465,f,0,0.475701093674,moral_self_bias,03,19,59.8222293219,f,001,2018_Apr_02_1011,
,,,,,,,,,,,,,,,,,,,,,,material/42.png,2,奸诈,material/142.png,2,material/142.png,奸诈,2,f,f,f,1,1,1,阴险,,,,,,,,,0,78,78,121,,,,,,,,,,,,,,,,,moral_self_bias,03,19,59.8222293219,f,001,2018_Apr_02_1011,
,,,,,,,,,,,,,,,,,,,,,,material/173.png,2,不义,material/174.png,2,material/174.png,不义,2,f,f,f,1,1,1,黑心,,,,,,,,,0,79,79,153,,,,,,,,,,,j,0,0.766592025757,,,,moral_self_bias,03,19,59.8222293219,f,001,2018_Apr_02_1011,
,,,,,,,,,,,,,,,,,,,,,,material/25.png,1,果断,material/125.png,1,material/25.png,果敢,1,f,f,f,2,2,2,果断,,,,,,,,,0,80,80,104,,,,,,,,,,,j,0,0.924160003662,,,,moral_self_bias,03,19,59.8222293219,f,001,2018_Apr_02_1011,
,,,,,,,,,,,,,,,,,,,,,,material/72.png,2,软弱,material/77.png,2,material/77.png,软弱,2,j,j,j,1,1,1,谄媚,,,,,,,,,0,81,81,73,,,,,,,,,,,j,1,0.857861042023,,,,moral_self_bias,03,19,59.8222293219,f,001,2018_Apr_02_1011,
,,,,,,,,,,,,,,,,,,,,,,material/123.png,1,多才,material/23.png,1,material/123.png,有才,1,j,j,j,2,2,2,多才,,,,,,,,,0,82,82,22,0,0,0,0,,,,,,,f,0,0.941612958908,j,1,0.39204287529,moral_self_bias,03,19,59.8222293219,f,001,2018_Apr_02_1011,
,,,,,,,,,,,,,,,,,,,,,,material/123.png,1,多才,material/23.png,1,material/123.png,有才,1,j,j,j,2,2,2,多才,,,,,,,,,0,82,82,22,,,,,,,,,,,,,,,,,moral_self_bias,03,19,59.8222293219,f,001,2018_Apr_02_1011,
,,,,,,,,,,,,,,,,,,,,,,material/67.png,1,骁勇,material/70.png,1,material/67.png,全面,1,j,j,j,2,2,2,骁勇,,,,,,,,,0,83,83,67,0,0,0,0,,,,,,,f,0,0.966485023499,j,1,0.291398048401,moral_self_bias,03,19,59.8222293219,f,001,2018_Apr_02_1011,
,,,,,,,,,,,,,,,,,,,,,,material/67.png,1,骁勇,material/70.png,1,material/67.png,全面,1,j,j,j,2,2,2,骁勇,,,,,,,,,0,83,83,67,,,,,,,,,,,,,,,,,moral_self_bias,03,19,59.8222293219,f,001,2018_Apr_02_1011,
,,,,,,,,,,,,,,,,,,,,,,material/152.png,2,缓慢,material/52.png,2,material/152.png,拖延,2,j,j,j,2,2,2,缓慢,,,,,,,,,0,84,84,51,0,0,0,0,,,,,,,f,0,0.808099031448,f,0,0.291253805161,moral_self_bias,03,19,59.8222293219,f,001,2018_Apr_02_1011,
,,,,,,,,,,,,,,,,,,,,,,material/152.png,2,缓慢,material/52.png,2,material/152.png,拖延,2,j,j,j,2,2,2,缓慢,,,,,,,,,0,84,84,51,,,,,,,,,,,,,,,,,moral_self_bias,03,19,59.8222293219,f,001,2018_Apr_02_1011,
,,,,,,,,,,,,,,,,,,,,,,material/41.png,2,残忍,material/141.png,2,material/141.png,残忍,2,f,f,f,1,1,1,歹毒,,,,,,,,,0,85,85,120,0,0,0,0,,,,,,,f,1,1.32544589043,f,0,0.258316993713,moral_self_bias,03,19,59.8222293219,f,001,2018_Apr_02_1011,
,,,,,,,,,,,,,,,,,,,,,,material/41.png,2,残忍,material/141.png,2,material/141.png,残忍,2,f,f,f,1,1,1,歹毒,,,,,,,,,0,85,85,120,,,,,,,,,,,,,,,,,moral_self_bias,03,19,59.8222293219,f,001,2018_Apr_02_1011,
,,,,,,,,,,,,,,,,,,,,,,material/58.png,2,肤浅,material/158.png,2,material/58.png,浅薄,2,f,f,f,2,2,2,肤浅,,,,,,,,,0,86,86,137,0,0,0,0,,,,,,,f,1,1.13331198692,j,1,0.423888921738,moral_self_bias,03,19,59.8222293219,f,001,2018_Apr_02_1011,
,,,,,,,,,,,,,,,,,,,,,,material/58.png,2,肤浅,material/158.png,2,material/58.png,浅薄,2,f,f,f,2,2,2,肤浅,,,,,,,,,0,86,86,137,,,,,,,,,,,,,,,,,moral_self_bias,03,19,59.8222293219,f,001,2018_Apr_02_1011,
,,,,,,,,,,,,,,,,,,,,,,material/2.png,1,爱心,material/102.png,1,material/102.png,爱心,1,f,f,f,1,1,1,善心,,,,,,,,,0,87,87,81,0,0,0,0,,,,,,,f,1,0.649967908859,f,0,0.341200113297,moral_self_bias,03,19,59.8222293219,f,001,2018_Apr_02_1011,
,,,,,,,,,,,,,,,,,,,,,,material/2.png,1,爱心,material/102.png,1,material/102.png,爱心,1,f,f,f,1,1,1,善心,,,,,,,,,0,87,87,81,,,,,,,,,,,,,,,,,moral_self_bias,03,19,59.8222293219,f,001,2018_Apr_02_1011,
,,,,,,,,,,,,,,,,,,,,,,material/4.png,1,友善,material/104.png,1,material/104.png,友善,1,f,f,f,1,1,1,友爱,,,,,,,,,0,88,88,83,0,0,0,0,,,,,,,f,1,0.70840215683,j,1,0.342149019241,moral_self_bias,03,19,59.8222293219,f,001,2018_Apr_02_1011,
,,,,,,,,,,,,,,,,,,,,,,material/4.png,1,友善,material/104.png,1,material/104.png,友善,1,f,f,f,1,1,1,友爱,,,,,,,,,0,88,88,83,,,,,,,,,,,,,,,,,moral_self_bias,03,19,59.8222293219,f,001,2018_Apr_02_1011,
,,,,,,,,,,,,,,,,,,,,,,material/1.png,1,博爱,material/101.png,1,material/101.png,博爱,1,f,f,f,1,1,1,善良,,,,,,,,,0,89,89,80,0,0,0,0,,,,,,,f,1,0.62490105629,j,1,0.242275953293,moral_self_bias,03,19,59.8222293219,f,001,2018_Apr_02_1011,
,,,,,,,,,,,,,,,,,,,,,,material/1.png,1,博爱,material/101.png,1,material/101.png,博爱,1,f,f,f,1,1,1,善良,,,,,,,,,0,89,89,80,,,,,,,,,,,,,,,,,moral_self_bias,03,19,59.8222293219,f,001,2018_Apr_02_1011,
,,,,,,,,,,,,,,,,,,,,,,material/176.png,2,害人,material/75.png,2,material/75.png,害人,2,j,j,j,1,1,1,放纵,,,,,,,,,0,90,90,71,,,,,,,,,,,j,1,1.3583548069,,,,moral_self_bias,03,19,59.8222293219,f,001,2018_Apr_02_1011,
,,,,,,,,,,,,,,,,,,,,,,material/17.png,1,聪明,material/117.png,1,material/17.png,聪颖,1,f,f,f,2,2,2,聪明,,,,,,,,,0,91,91,96,0,0,0,0,,,,,,,f,1,1.52531790733,j,1,0.241765022278,moral_self_bias,03,19,59.8222293219,f,001,2018_Apr_02_1011,
,,,,,,,,,,,,,,,,,,,,,,material/17.png,1,聪明,material/117.png,1,material/17.png,聪颖,1,f,f,f,2,2,2,聪明,,,,,,,,,0,91,91,96,,,,,,,,,,,,,,,,,moral_self_bias,03,19,59.8222293219,f,001,2018_Apr_02_1011,
,,,,,,,,,,,,,,,,,,,,,,material/66.png,1,独立,material/66.png,1,material/165.png,正义,1,f,f,f,1,1,1,正义,,,,,,,,,0,92,92,164,0,0,0,0,,,,,,,f,1,0.774810791016,j,1,0.292104005814,moral_self_bias,03,19,59.8222293219,f,001,2018_Apr_02_1011,
,,,,,,,,,,,,,,,,,,,,,,material/66.png,1,独立,material/66.png,1,material/165.png,正义,1,f,f,f,1,1,1,正义,,,,,,,,,0,92,92,164,,,,,,,,,,,,,,,,,moral_self_bias,03,19,59.8222293219,f,001,2018_Apr_02_1011,
,,,,,,,,,,,,,,,,,,,,,,material/38.png,2,缺德,material/138.png,2,material/138.png,缺德,2,f,f,f,1,1,1,无德,,,,,,,,,0,93,93,117,,,,,,,,,,,j,0,1.15902805328,,,,moral_self_bias,03,19,59.8222293219,f,001,2018_Apr_02_1011,
,,,,,,,,,,,,,,,,,,,,,,material/57.png,2,无知,material/157.png,2,material/57.png,无能,2,f,f,f,2,2,2,无知,,,,,,,,,0,94,94,136,,,,,,,,,,,j,0,0.917068958282,,,,moral_self_bias,03,19,59.8222293219,f,001,2018_Apr_02_1011,
,,,,,,,,,,,,,,,,,,,,,,material/113.png,1,廉洁,material/13.png,1,material/13.png,廉洁,1,j,j,j,1,1,1,廉明,,,,,,,,,0,95,95,12,0,0,0,0,,,,,,,f,0,0.839898109436,j,1,0.308564186096,moral_self_bias,03,19,59.8222293219,f,001,2018_Apr_02_1011,
,,,,,,,,,,,,,,,,,,,,,,material/113.png,1,廉洁,material/13.png,1,material/13.png,廉洁,1,j,j,j,1,1,1,廉明,,,,,,,,,0,95,95,12,,,,,,,,,,,,,,,,,moral_self_bias,03,19,59.8222293219,f,001,2018_Apr_02_1011,
,,,,,,,,,,,,,,,,,,,,,,material/40.png,2,狠毒,material/140.png,2,material/140.png,狠毒,2,f,f,f,1,1,1,邪恶,,,,,,,,,0,96,96,119,0,0,0,0,,,,,,,f,1,1.20879387856,f,0,0.274358034134,moral_self_bias,03,19,59.8222293219,f,001,2018_Apr_02_1011,
,,,,,,,,,,,,,,,,,,,,,,material/40.png,2,狠毒,material/140.png,2,material/140.png,狠毒,2,f,f,f,1,1,1,邪恶,,,,,,,,,0,96,96,119,,,,,,,,,,,,,,,,,moral_self_bias,03,19,59.8222293219,f,001,2018_Apr_02_1011,
,,,,,,,,,,,,,,,,,,,,,,material/130.png,1,进取,material/30.png,1,material/130.png,上进,1,j,j,j,2,2,2,进取,,,,,,,,,0,97,97,29,0,0,0,0,,,,,,,f,0,1.10749816895,j,1,0.391470909119,moral_self_bias,03,19,59.8222293219,f,001,2018_Apr_02_1011,
,,,,,,,,,,,,,,,,,,,,,,material/130.png,1,进取,material/30.png,1,material/130.png,上进,1,j,j,j,2,2,2,进取,,,,,,,,,0,97,97,29,,,,,,,,,,,,,,,,,moral_self_bias,03,19,59.8222293219,f,001,2018_Apr_02_1011,
,,,,,,,,,,,,,,,,,,,,,,material/61.png,1,仗义,material/65.png,1,material/166.png,谦虚,1,j,j,j,1,1,1,平等,,,,,,,,,0,98,98,64,0,0,0,0,,,,,,,f,0,2.04011106491,j,1,0.291258096695,moral_self_bias,03,19,59.8222293219,f,001,2018_Apr_02_1011,
,,,,,,,,,,,,,,,,,,,,,,material/61.png,1,仗义,material/65.png,1,material/166.png,谦虚,1,j,j,j,1,1,1,平等,,,,,,,,,0,98,98,64,,,,,,,,,,,,,,,,,moral_self_bias,03,19,59.8222293219,f,001,2018_Apr_02_1011,
,,,,,,,,,,,,,,,,,,,,,,material/122.png,1,博学,material/22.png,1,material/122.png,才学,1,j,j,j,2,2,2,博学,,,,,,,,,0,99,99,21,0,0,0,0,,,,,,,f,0,0.506923913956,j,1,0.275312900543,moral_self_bias,03,19,59.8222293219,f,001,2018_Apr_02_1011,
,,,,,,,,,,,,,,,,,,,,,,material/122.png,1,博学,material/22.png,1,material/122.png,才学,1,j,j,j,2,2,2,博学,,,,,,,,,0,99,99,21,,,,,,,,,,,,,,,,,moral_self_bias,03,19,59.8222293219,f,001,2018_Apr_02_1011,
,,,,,,,,,,,,,,,,,,,,,,material/180.png,2,无助,material/79.png,2,material/81.png,颓废,2,j,j,j,2,2,2,怠惰,,,,,,,,,0,100,100,75,0,0,0,0,,,,,,,f,0,0.957193136215,f,0,0.257786989212,moral_self_bias,03,19,59.8222293219,f,001,2018_Apr_02_1011,
,,,,,,,,,,,,,,,,,,,,,,material/180.png,2,无助,material/79.png,2,material/81.png,颓废,2,j,j,j,2,2,2,怠惰,,,,,,,,,0,100,100,75,,,,,,,,,,,,,,,,,moral_self_bias,03,19,59.8222293219,f,001,2018_Apr_02_1011,
,,,,,,,,,,,,,,,,,,,,,,material/43.png,2,虚荣,material/143.png,2,material/143.png,虚荣,2,f,f,f,1,1,1,拜金,,,,,,,,,0,101,101,122,0,0,0,0,,,,,,,f,1,1.05837798119,f,0,0.292413949966,moral_self_bias,03,19,59.8222293219,f,001,2018_Apr_02_1011,
,,,,,,,,,,,,,,,,,,,,,,material/43.png,2,虚荣,material/143.png,2,material/143.png,虚荣,2,f,f,f,1,1,1,拜金,,,,,,,,,0,101,101,122,,,,,,,,,,,,,,,,,moral_self_bias,03,19,59.8222293219,f,001,2018_Apr_02_1011,
,,,,,,,,,,,,,,,,,,,,,,material/162.png,1,敬业,material/62.png,1,material/162.png,坚韧,1,j,j,j,1,1,1,敬业,,,,,,,,,0,102,102,61,0,0,0,0,,,,,,,f,0,0.840296983719,j,1,0.325308799744,moral_self_bias,03,19,59.8222293219,f,001,2018_Apr_02_1011,
,,,,,,,,,,,,,,,,,,,,,,material/162.png,1,敬业,material/62.png,1,material/162.png,坚韧,1,j,j,j,1,1,1,敬业,,,,,,,,,0,102,102,61,,,,,,,,,,,,,,,,,moral_self_bias,03,19,59.8222293219,f,001,2018_Apr_02_1011,
,,,,,,,,,,,,,,,,,,,,,,material/141.png,2,歹毒,material/41.png,2,material/41.png,歹毒,2,j,j,j,1,1,1,残忍,,,,,,,,,0,103,103,40,,,,,,,,,,,j,1,1.39175915718,,,,moral_self_bias,03,19,59.8222293219,f,001,2018_Apr_02_1011,
,,,,,,,,,,,,,,,,,,,,,,material/39.png,2,恶毒,material/139.png,2,material/139.png,恶毒,2,f,f,f,1,1,1,凶残,,,,,,,,,0,104,104,118,,,,,,,,,,,j,0,0.941879987717,,,,moral_self_bias,03,19,59.8222293219,f,001,2018_Apr_02_1011,
,,,,,,,,,,,,,,,,,,,,,,material/24.png,1,理智,material/124.png,1,material/24.png,冷静,1,f,f,f,2,2,2,理智,,,,,,,,,0,105,105,103,,,,,,,,,,,j,0,0.892320871353,,,,moral_self_bias,03,19,59.8222293219,f,001,2018_Apr_02_1011,
,,,,,,,,,,,,,,,,,,,,,,material/166.png,1,孝顺,material/64.png,1,material/164.png,奉献,1,j,j,j,1,1,1,仗义,,,,,,,,,0,106,106,63,0,0,0,0,,,,,,,f,0,1.32422113419,f,0,0.225793838501,moral_self_bias,03,19,59.8222293219,f,001,2018_Apr_02_1011,
,,,,,,,,,,,,,,,,,,,,,,material/166.png,1,孝顺,material/64.png,1,material/164.png,奉献,1,j,j,j,1,1,1,仗义,,,,,,,,,0,106,106,63,,,,,,,,,,,,,,,,,moral_self_bias,03,19,59.8222293219,f,001,2018_Apr_02_1011,
,,,,,,,,,,,,,,,,,,,,,,material/140.png,2,邪恶,material/40.png,2,material/40.png,邪恶,2,j,j,j,1,1,1,狠毒,,,,,,,,,0,107,107,39,,,,,,,,,,,j,1,1.47535705566,,,,moral_self_bias,03,19,59.8222293219,f,001,2018_Apr_02_1011,
,,,,,,,,,,,,,,,,,,,,,,material/131.png,1,笃行,material/31.png,1,material/131.png,笃学,1,j,j,j,2,2,2,笃行,,,,,,,,,0,108,108,30,0,0,0,0,,,,,,,f,0,0.723753929138,f,0,0.308166027069,moral_self_bias,03,19,59.8222293219,f,001,2018_Apr_02_1011,
,,,,,,,,,,,,,,,,,,,,,,material/131.png,1,笃行,material/31.png,1,material/131.png,笃学,1,j,j,j,2,2,2,笃行,,,,,,,,,0,108,108,30,,,,,,,,,,,,,,,,,moral_self_bias,03,19,59.8222293219,f,001,2018_Apr_02_1011,
,,,,,,,,,,,,,,,,,,,,,,material/174.png,2,虚伪,material/76.png,2,material/76.png,虚伪,2,j,j,j,1,1,1,不义,,,,,,,,,0,109,109,72,0,0,0,0,,,,,,,f,0,1.5170109272,f,0,0.307127952576,moral_self_bias,03,19,59.8222293219,f,001,2018_Apr_02_1011,
,,,,,,,,,,,,,,,,,,,,,,material/174.png,2,虚伪,material/76.png,2,material/76.png,虚伪,2,j,j,j,1,1,1,不义,,,,,,,,,0,109,109,72,,,,,,,,,,,,,,,,,moral_self_bias,03,19,59.8222293219,f,001,2018_Apr_02_1011,
,,,,,,,,,,,,,,,,,,,,,,material/68.png,1,广博,material/167.png,1,material/68.png,高手,1,f,f,f,2,2,2,广博,,,,,,,,,0,110,110,146,0,0,0,0,,,,,,,f,1,2.34118008614,f,0,1.87462592125,moral_self_bias,03,19,59.8222293219,f,001,2018_Apr_02_1011,
,,,,,,,,,,,,,,,,,,,,,,material/68.png,1,广博,material/167.png,1,material/68.png,高手,1,f,f,f,2,2,2,广博,,,,,,,,,0,110,110,146,,,,,,,,,,,,,,,,,moral_self_bias,03,19,59.8222293219,f,001,2018_Apr_02_1011,
,,,,,,,,,,,,,,,,,,,,,,material/78.png,2,厌学,material/181.png,2,material/184.png,犹豫,2,f,f,f,2,2,2,草率,,,,,,,,,0,111,111,160,0,0,0,0,,,,,,,f,1,0.70779299736,f,0,0.2406270504,moral_self_bias,03,19,59.8222293219,f,001,2018_Apr_02_1011,
,,,,,,,,,,,,,,,,,,,,,,material/78.png,2,厌学,material/181.png,2,material/184.png,犹豫,2,f,f,f,2,2,2,草率,,,,,,,,,0,111,111,160,,,,,,,,,,,,,,,,,moral_self_bias,03,19,59.8222293219,f,001,2018_Apr_02_1011,
,,,,,,,,,,,,,,,,,,,,,,material/142.png,2,阴险,material/42.png,2,material/42.png,阴险,2,j,j,j,1,1,1,奸诈,,,,,,,,,0,112,112,41,,,,,,,,,,,j,1,1.09066700935,,,,moral_self_bias,03,19,59.8222293219,f,001,2018_Apr_02_1011,
,,,,,,,,,,,,,,,,,,,,,,material/107.png,1,公正,material/7.png,1,material/7.png,公正,1,j,j,j,1,1,1,公平,,,,,,,,,0,113,113,6,0,0,0,0,,,,,,,f,0,1.65811681747,j,1,0.242515087128,moral_self_bias,03,19,59.8222293219,f,001,2018_Apr_02_1011,
,,,,,,,,,,,,,,,,,,,,,,material/107.png,1,公正,material/7.png,1,material/7.png,公正,1,j,j,j,1,1,1,公平,,,,,,,,,0,113,113,6,,,,,,,,,,,,,,,,,moral_self_bias,03,19,59.8222293219,f,001,2018_Apr_02_1011,
,,,,,,,,,,,,,,,,,,,,,,material/133.png,2,腐败,material/33.png,2,material/33.png,腐败,2,j,j,j,1,1,1,贪污,,,,,,,,,0,114,114,32,0,0,0,0,,,,,,,f,0,3.15763998032,f,0,0.257981061935,moral_self_bias,03,19,59.8222293219,f,001,2018_Apr_02_1011,
,,,,,,,,,,,,,,,,,,,,,,material/133.png,2,腐败,material/33.png,2,material/33.png,腐败,2,j,j,j,1,1,1,贪污,,,,,,,,,0,114,114,32,,,,,,,,,,,,,,,,,moral_self_bias,03,19,59.8222293219,f,001,2018_Apr_02_1011,
,,,,,,,,,,,,,,,,,,,,,,material/60.png,2,粗拙,material/160.png,2,material/60.png,笨拙,2,f,f,f,2,2,2,粗拙,,,,,,,,,0,115,115,139,0,0,0,0,,,,,,,f,1,0.724390029907,f,0,0.258893966675,moral_self_bias,03,19,59.8222293219,f,001,2018_Apr_02_1011,
,,,,,,,,,,,,,,,,,,,,,,material/60.png,2,粗拙,material/160.png,2,material/60.png,笨拙,2,f,f,f,2,2,2,粗拙,,,,,,,,,0,115,115,139,,,,,,,,,,,,,,,,,moral_self_bias,03,19,59.8222293219,f,001,2018_Apr_02_1011,
,,,,,,,,,,,,,,,,,,,,,,material/19.png,1,灵活,material/119.png,1,material/19.png,机灵,1,f,f,f,2,2,2,灵活,,,,,,,,,0,116,116,98,0,0,0,0,,,,,,,f,1,0.824784040451,j,1,0.357555866241,moral_self_bias,03,19,59.8222293219,f,001,2018_Apr_02_1011,
,,,,,,,,,,,,,,,,,,,,,,material/19.png,1,灵活,material/119.png,1,material/19.png,机灵,1,f,f,f,2,2,2,灵活,,,,,,,,,0,116,116,98,,,,,,,,,,,,,,,,,moral_self_bias,03,19,59.8222293219,f,001,2018_Apr_02_1011,
,,,,,,,,,,,,,,,,,,,,,,material/31.png,1,笃学,material/131.png,1,material/31.png,笃行,1,f,f,f,2,2,2,笃学,,,,,,,,,0,117,117,110,0,0,0,0,,,,,,,f,1,0.617199897766,f,0,0.250452041626,moral_self_bias,03,19,59.8222293219,f,001,2018_Apr_02_1011,
,,,,,,,,,,,,,,,,,,,,,,material/31.png,1,笃学,material/131.png,1,material/31.png,笃行,1,f,f,f,2,2,2,笃学,,,,,,,,,0,117,117,110,,,,,,,,,,,,,,,,,moral_self_bias,03,19,59.8222293219,f,001,2018_Apr_02_1011,
,,,,,,,,,,,,,,,,,,,,,,material/23.png,1,有才,material/123.png,1,material/23.png,多才,1,f,f,f,2,2,2,有才,,,,,,,,,0,118,118,102,0,0,0,0,,,,,,,f,1,1.29147005081,f,0,0.242624044418,moral_self_bias,03,19,59.8222293219,f,001,2018_Apr_02_1011,
,,,,,,,,,,,,,,,,,,,,,,material/23.png,1,有才,material/123.png,1,material/23.png,多才,1,f,f,f,2,2,2,有才,,,,,,,,,0,118,118,102,,,,,,,,,,,,,,,,,moral_self_bias,03,19,59.8222293219,f,001,2018_Apr_02_1011,
,,,,,,,,,,,,,,,,,,,,,,material/35.png,2,冷血,material/135.png,2,material/135.png,冷血,2,f,f,f,1,1,1,冷漠,,,,,,,,,0,119,119,114,,,,,,,,,,,j,0,1.04246592522,,,,moral_self_bias,03,19,59.8222293219,f,001,2018_Apr_02_1011,
,,,,,,,,,,,,,,,,,,,,,,material/45.png,2,小人,material/145.png,2,material/145.png,小人,2,f,f,f,1,1,1,下流,,,,,,,,,0,120,120,124,,,,,,,,,,,j,0,0.825254201889,,,,moral_self_bias,03,19,59.8222293219,f,001,2018_Apr_02_1011,
,,,,,,,,,,,,,,,,,,,,,,material/36.png,2,撒谎,material/136.png,2,material/136.png,撒谎,2,f,f,f,1,1,1,说谎,,,,,,,,,0,121,121,115,0,0,0,0,,,,,,,f,1,0.774755001068,f,0,0.258517980576,moral_self_bias,03,19,59.8222293219,f,001,2018_Apr_02_1011,
,,,,,,,,,,,,,,,,,,,,,,material/36.png,2,撒谎,material/136.png,2,material/136.png,撒谎,2,f,f,f,1,1,1,说谎,,,,,,,,,0,121,121,115,,,,,,,,,,,,,,,,,moral_self_bias,03,19,59.8222293219,f,001,2018_Apr_02_1011,
,,,,,,,,,,,,,,,,,,,,,,material/182.png,2,健忘,material/184.png,2,material/80.png,厌学,2,f,f,f,2,2,2,才尽,,,,,,,,,0,122,122,163,0,0,0,0,,,,,,,f,1,8.538367033,f,0,0.272830963135,moral_self_bias,03,19,59.8222293219,f,001,2018_Apr_02_1011,
,,,,,,,,,,,,,,,,,,,,,,material/182.png,2,健忘,material/184.png,2,material/80.png,厌学,2,f,f,f,2,2,2,才尽,,,,,,,,,0,122,122,163,,,,,,,,,,,,,,,,,moral_self_bias,03,19,59.8222293219,f,001,2018_Apr_02_1011,
,,,,,,,,,,,,,,,,,,,,,,material/33.png,2,贪污,material/133.png,2,material/133.png,贪污,2,f,f,f,1,1,1,腐败,,,,,,,,,0,123,123,112,0,0,0,0,,,,,,,f,1,1.57222008705,f,0,0.691289901733,moral_self_bias,03,19,59.8222293219,f,001,2018_Apr_02_1011,
,,,,,,,,,,,,,,,,,,,,,,material/33.png,2,贪污,material/133.png,2,material/133.png,贪污,2,f,f,f,1,1,1,腐败,,,,,,,,,0,123,123,112,,,,,,,,,,,,,,,,,moral_self_bias,03,19,59.8222293219,f,001,2018_Apr_02_1011,
,,,,,,,,,,,,,,,,,,,,,,material/84.png,2,犹豫,material/84.png,2,material/181.png,顽愚,2,f,f,f,2,2,2,顽愚,,,,,,,,,0,124,124,167,0,0,0,0,,,,,,,f,1,3.11716389656,j,1,1.0910949707,moral_self_bias,03,19,59.8222293219,f,001,2018_Apr_02_1011,
,,,,,,,,,,,,,,,,,,,,,,material/84.png,2,犹豫,material/84.png,2,material/181.png,顽愚,2,f,f,f,2,2,2,顽愚,,,,,,,,,0,124,124,167,,,,,,,,,,,,,,,,,moral_self_bias,03,19,59.8222293219,f,001,2018_Apr_02_1011,
,,,,,,,,,,,,,,,,,,,,,,material/101.png,1,善良,material/1.png,1,material/1.png,善良,1,j,j,j,1,1,1,博爱,,,,,,,,,0,125,125,0,0,0,0,0,,,,,,,f,0,0.758003950119,j,1,0.274184942245,moral_self_bias,03,19,59.8222293219,f,001,2018_Apr_02_1011,
,,,,,,,,,,,,,,,,,,,,,,material/101.png,1,善良,material/1.png,1,material/1.png,善良,1,j,j,j,1,1,1,博爱,,,,,,,,,0,125,125,0,,,,,,,,,,,,,,,,,moral_self_bias,03,19,59.8222293219,f,001,2018_Apr_02_1011,
,,,,,,,,,,,,,,,,,,,,,,material/169.png,1,颖悟,material/171.png,1,material/169.png,高效,1,f,f,f,2,2,2,颖悟,,,,,,,,,0,126,126,150,0,0,0,0,,,,,,,f,1,0.624063968658,j,1,0.274718999863,moral_self_bias,03,19,59.8222293219,f,001,2018_Apr_02_1011,
,,,,,,,,,,,,,,,,,,,,,,material/169.png,1,颖悟,material/171.png,1,material/169.png,高效,1,f,f,f,2,2,2,颖悟,,,,,,,,,0,126,126,150,,,,,,,,,,,,,,,,,moral_self_bias,03,19,59.8222293219,f,001,2018_Apr_02_1011,
,,,,,,,,,,,,,,,,,,,,,,material/168.png,1,机变,material/170.png,1,material/168.png,坚忍,1,f,f,f,2,2,2,机变,,,,,,,,,0,127,127,149,0,0,0,0,,,,,,,f,1,2.32506585121,j,1,0.908350944519,moral_self_bias,03,19,59.8222293219,f,001,2018_Apr_02_1011,
,,,,,,,,,,,,,,,,,,,,,,material/168.png,1,机变,material/170.png,1,material/168.png,坚忍,1,f,f,f,2,2,2,机变,,,,,,,,,0,127,127,149,,,,,,,,,,,,,,,,,moral_self_bias,03,19,59.8222293219,f,001,2018_Apr_02_1011,
,,,,,,,,,,,,,,,,,,,,,,material/70.png,1,全面,material/168.png,1,material/70.png,机变,1,f,f,f,2,2,2,全面,,,,,,,,,0,128,128,147,0,0,0,0,,,,,,,f,1,1.09168195724,f,0,0.325278043747,moral_self_bias,03,19,59.8222293219,f,001,2018_Apr_02_1011,
,,,,,,,,,,,,,,,,,,,,,,material/70.png,1,全面,material/168.png,1,material/70.png,机变,1,f,f,f,2,2,2,全面,,,,,,,,,0,128,128,147,,,,,,,,,,,,,,,,,moral_self_bias,03,19,59.8222293219,f,001,2018_Apr_02_1011,
,,,,,,,,,,,,,,,,,,,,,,material/136.png,2,说谎,material/36.png,2,material/36.png,说谎,2,j,j,j,1,1,1,撒谎,,,,,,,,,0,129,129,35,0,0,0,0,,,,,,,f,0,0.840897083282,f,0,0.524772882462,moral_self_bias,03,19,59.8222293219,f,001,2018_Apr_02_1011,
,,,,,,,,,,,,,,,,,,,,,,material/136.png,2,说谎,material/36.png,2,material/36.png,说谎,2,j,j,j,1,1,1,撒谎,,,,,,,,,0,129,129,35,,,,,,,,,,,,,,,,,moral_self_bias,03,19,59.8222293219,f,001,2018_Apr_02_1011,
,,,,,,,,,,,,,,,,,,,,,,material/30.png,1,上进,material/130.png,1,material/30.png,进取,1,f,f,f,2,2,2,上进,,,,,,,,,0,130,130,109,0,0,0,0,,,,,,,f,1,1.07519888878,f,0,0.574134111404,moral_self_bias,03,19,59.8222293219,f,001,2018_Apr_02_1011,
,,,,,,,,,,,,,,,,,,,,,,material/30.png,1,上进,material/130.png,1,material/30.png,进取,1,f,f,f,2,2,2,上进,,,,,,,,,0,130,130,109,,,,,,,,,,,,,,,,,moral_self_bias,03,19,59.8222293219,f,001,2018_Apr_02_1011,
,,,,,,,,,,,,,,,,,,,,,,material/106.png,1,诚实,material/6.png,1,material/6.png,诚实,1,j,j,j,1,1,1,厚道,,,,,,,,,0,131,131,5,0,0,0,0,,,,,,,f,0,0.591377973557,f,0,0.842354059219,moral_self_bias,03,19,59.8222293219,f,001,2018_Apr_02_1011,
,,,,,,,,,,,,,,,,,,,,,,material/106.png,1,诚实,material/6.png,1,material/6.png,诚实,1,j,j,j,1,1,1,厚道,,,,,,,,,0,131,131,5,,,,,,,,,,,,,,,,,moral_self_bias,03,19,59.8222293219,f,001,2018_Apr_02_1011,
,,,,,,,,,,,,,,,,,,,,,,material/160.png,2,笨拙,material/60.png,2,material/160.png,粗拙,2,j,j,j,2,2,2,笨拙,,,,,,,,,0,132,132,59,0,0,0,0,,,,,,,f,0,0.757936954498,f,0,1.8263938427,moral_self_bias,03,19,59.8222293219,f,001,2018_Apr_02_1011,
,,,,,,,,,,,,,,,,,,,,,,material/160.png,2,笨拙,material/60.png,2,material/160.png,粗拙,2,j,j,j,2,2,2,笨拙,,,,,,,,,0,132,132,59,,,,,,,,,,,,,,,,,moral_self_bias,03,19,59.8222293219,f,001,2018_Apr_02_1011,
,,,,,,,,,,,,,,,,,,,,,,material/46.png,2,自私,material/146.png,2,material/146.png,自私,2,f,f,f,1,1,1,小气,,,,,,,,,0,133,133,125,0,0,0,0,,,,,,,f,1,0.823598861694,f,0,0.524801969528,moral_self_bias,03,19,59.8222293219,f,001,2018_Apr_02_1011,
,,,,,,,,,,,,,,,,,,,,,,material/46.png,2,自私,material/146.png,2,material/146.png,自私,2,f,f,f,1,1,1,小气,,,,,,,,,0,133,133,125,,,,,,,,,,,,,,,,,moral_self_bias,03,19,59.8222293219,f,001,2018_Apr_02_1011,
,,,,,,,,,,,,,,,,,,,,,,material/102.png,1,善心,material/2.png,1,material/2.png,善心,1,j,j,j,1,1,1,爱心,,,,,,,,,0,134,134,1,,,,,,,,,,,j,1,1.34089899063,,,,moral_self_bias,03,19,59.8222293219,f,001,2018_Apr_02_1011,
,,,,,,,,,,,,,,,,,,,,,,material/153.png,2,迟钝,material/53.png,2,material/153.png,迟缓,2,j,j,j,2,2,2,迟钝,,,,,,,,,0,135,135,52,0,0,0,0,,,,,,,f,0,1.05823087692,j,1,0.658946037292,moral_self_bias,03,19,59.8222293219,f,001,2018_Apr_02_1011,
,,,,,,,,,,,,,,,,,,,,,,material/153.png,2,迟钝,material/53.png,2,material/153.png,迟缓,2,j,j,j,2,2,2,迟钝,,,,,,,,,0,135,135,52,,,,,,,,,,,,,,,,,moral_self_bias,03,19,59.8222293219,f,001,2018_Apr_02_1011,
,,,,,,,,,,,,,,,,,,,,,,material/110.png,1,顽强,material/10.png,1,material/10.png,顽强,1,j,j,j,1,1,1,坚毅,,,,,,,,,0,136,136,9,,,,,,,,,,,j,1,1.42472600937,,,,moral_self_bias,03,19,59.8222293219,f,001,2018_Apr_02_1011,
,,,,,,,,,,,,,,,,,,,,,,material/64.png,1,谦虚,material/165.png,1,material/65.png,独立,1,f,f,f,1,1,1,奉献,,,,,,,,,0,137,137,144,0,0,0,0,,,,,,,f,1,0.874830007553,f,0,0.325176000595,moral_self_bias,03,19,59.8222293219,f,001,2018_Apr_02_1011,
,,,,,,,,,,,,,,,,,,,,,,material/64.png,1,谦虚,material/165.png,1,material/65.png,独立,1,f,f,f,1,1,1,奉献,,,,,,,,,0,137,137,144,,,,,,,,,,,,,,,,,moral_self_bias,03,19,59.8222293219,f,001,2018_Apr_02_1011,
,,,,,,,,,,,,,,,,,,,,,,material/50.png,2,愚笨,material/150.png,2,material/50.png,鲁钝,2,f,f,f,2,2,2,愚笨,,,,,,,,,0,138,138,129,,,,,,,,,,,j,0,0.857885837555,,,,moral_self_bias,03,19,59.8222293219,f,001,2018_Apr_02_1011,
,,,,,,,,,,,,,,,,,,,,,,material/54.png,2,依赖,material/154.png,2,material/54.png,依靠,2,f,f,f,2,2,2,依赖,,,,,,,,,0,139,139,133,,,,,,,,,,,j,0,0.807937145233,,,,moral_self_bias,03,19,59.8222293219,f,001,2018_Apr_02_1011,
,,,,,,,,,,,,,,,,,,,,,,material/74.png,2,黑心,material/173.png,2,material/173.png,黑心,2,f,f,f,1,1,1,卑劣,,,,,,,,,0,140,140,152,,,,,,,,,,,j,0,0.708341121674,,,,moral_self_bias,03,19,59.8222293219,f,001,2018_Apr_02_1011,
,,,,,,,,,,,,,,,,,,,,,,material/47.png,2,死板,material/147.png,2,material/47.png,刻板,2,f,f,f,2,2,2,死板,,,,,,,,,0,141,141,126,0,0,0,0,,,,,,,f,1,1.44141387939,j,1,0.324752807617,moral_self_bias,03,19,59.8222293219,f,001,2018_Apr_02_1011,
,,,,,,,,,,,,,,,,,,,,,,material/47.png,2,死板,material/147.png,2,material/47.png,刻板,2,f,f,f,2,2,2,死板,,,,,,,,,0,141,141,126,,,,,,,,,,,,,,,,,moral_self_bias,03,19,59.8222293219,f,001,2018_Apr_02_1011,
,,,,,,,,,,,,,,,,,,,,,,material/11.png,1,高尚,material/111.png,1,material/111.png,高尚,1,f,f,f,1,1,1,高雅,,,,,,,,,0,142,142,90,0,0,0,0,,,,,,,f,1,1.35884213448,j,1,0.308370828629,moral_self_bias,03,19,59.8222293219,f,001,2018_Apr_02_1011,
,,,,,,,,,,,,,,,,,,,,,,material/11.png,1,高尚,material/111.png,1,material/111.png,高尚,1,f,f,f,1,1,1,高雅,,,,,,,,,0,142,142,90,,,,,,,,,,,,,,,,,moral_self_bias,03,19,59.8222293219,f,001,2018_Apr_02_1011,
,,,,,,,,,,,,,,,,,,,,,,material/135.png,2,冷漠,material/35.png,2,material/35.png,冷漠,2,j,j,j,1,1,1,冷血,,,,,,,,,0,143,143,34,,,,,,,,,,,j,1,1.15847396851,,,,moral_self_bias,03,19,59.8222293219,f,001,2018_Apr_02_1011,
,,,,,,,,,,,,,,,,,,,,,,material/147.png,2,刻板,material/47.png,2,material/147.png,死板,2,j,j,j,2,2,2,刻板,,,,,,,,,0,144,144,46,0,0,0,0,,,,,,,f,0,1.81631493568,j,1,0.308226108551,moral_self_bias,03,19,59.8222293219,f,001,2018_Apr_02_1011,
,,,,,,,,,,,,,,,,,,,,,,material/147.png,2,刻板,material/47.png,2,material/147.png,死板,2,j,j,j,2,2,2,刻板,,,,,,,,,0,144,144,46,,,,,,,,,,,,,,,,,moral_self_bias,03,19,59.8222293219,f,001,2018_Apr_02_1011,
,,,,,,,,,,,,,,,,,,,,,,material/143.png,2,拜金,material/43.png,2,material/43.png,拜金,2,j,j,j,1,1,1,虚荣,,,,,,,,,0,145,145,42,,,,,,,,,,,j,1,0.891678094864,,,,moral_self_bias,03,19,59.8222293219,f,001,2018_Apr_02_1011,
,,,,,,,,,,,,,,,,,,,,,,material/29.png,1,好学,material/129.png,1,material/29.png,好问,1,f,f,f,2,2,2,好学,,,,,,,,,0,146,146,108,,,,,,,,,,,j,0,0.80745100975,,,,moral_self_bias,03,19,59.8222293219,f,001,2018_Apr_02_1011,
,,,,,,,,,,,,,,,,,,,,,,material/159.png,2,弱智,material/59.png,2,material/159.png,智障,2,j,j,j,2,2,2,弱智,,,,,,,,,0,147,147,58,,,,,,,,,,,j,1,2.13995599747,,,,moral_self_bias,03,19,59.8222293219,f,001,2018_Apr_02_1011,
,,,,,,,,,,,,,,,,,,,,,,material/75.png,2,卑劣,material/74.png,2,material/74.png,卑劣,2,j,j,j,1,1,1,害人,,,,,,,,,0,148,148,70,,,,,,,,,,,j,1,1.6395919323,,,,moral_self_bias,03,19,59.8222293219,f,001,2018_Apr_02_1011,
,,,,,,,,,,,,,,,,,,,,,,material/5.png,1,诚信,material/105.png,1,material/105.png,诚信,1,f,f,f,1,1,1,守信,,,,,,,,,0,149,149,84,0,0,0,0,,,,,,,f,1,1.10770702362,j,1,0.341784000397,moral_self_bias,03,19,59.8222293219,f,001,2018_Apr_02_1011,
,,,,,,,,,,,,,,,,,,,,,,material/5.png,1,诚信,material/105.png,1,material/105.png,诚信,1,f,f,f,1,1,1,守信,,,,,,,,,0,149,149,84,,,,,,,,,,,,,,,,,moral_self_bias,03,19,59.8222293219,f,001,2018_Apr_02_1011,
,,,,,,,,,,,,,,,,,,,,,,material/37.png,2,卑鄙,material/137.png,2,material/137.png,卑鄙,2,f,f,f,1,1,1,无耻,,,,,,,,,0,150,150,116,,,,,,,,,,,j,0,2.05717301369,,,,moral_self_bias,03,19,59.8222293219,f,001,2018_Apr_02_1011,
,,,,,,,,,,,,,,,,,,,,,,material/128.png,1,自律,material/28.png,1,material/128.png,克己,1,j,j,j,2,2,2,自律,,,,,,,,,0,151,151,27,0,0,0,0,,,,,,,f,0,1.14096689224,f,0,1.07535099983,moral_self_bias,03,19,59.8222293219,f,001,2018_Apr_02_1011,
,,,,,,,,,,,,,,,,,,,,,,material/128.png,1,自律,material/28.png,1,material/128.png,克己,1,j,j,j,2,2,2,自律,,,,,,,,,0,151,151,27,,,,,,,,,,,,,,,,,moral_self_bias,03,19,59.8222293219,f,001,2018_Apr_02_1011,
,,,,,,,,,,,,,,,,,,,,,,material/167.png,1,高手,material/169.png,1,material/167.png,颖悟,1,f,f,f,2,2,2,高手,,,,,,,,,0,152,152,148,,,,,,,,,,,j,0,1.45811104774,,,,moral_self_bias,03,19,59.8222293219,f,001,2018_Apr_02_1011,
,,,,,,,,,,,,,,,,,,,,,,material/172.png,2,无情,material/175.png,2,material/175.png,无情,2,f,f,f,1,1,1,浮夸,,,,,,,,,0,153,153,154,0,0,0,0,,,,,,,f,1,1.24204802513,f,0,0.391309976578,moral_self_bias,03,19,59.8222293219,f,001,2018_Apr_02_1011,
,,,,,,,,,,,,,,,,,,,,,,material/172.png,2,无情,material/175.png,2,material/175.png,无情,2,f,f,f,1,1,1,浮夸,,,,,,,,,0,153,153,154,,,,,,,,,,,,,,,,,moral_self_bias,03,19,59.8222293219,f,001,2018_Apr_02_1011,
,,,,,,,,,,,,,,,,,,,,,,material/13.png,1,廉明,material/113.png,1,material/113.png,廉明,1,f,f,f,1,1,1,廉洁,,,,,,,,,0,154,154,92,0,0,0,0,,,,,,,f,1,1.67465305328,j,1,0.442450046539,moral_self_bias,03,19,59.8222293219,f,001,2018_Apr_02_1011,
,,,,,,,,,,,,,,,,,,,,,,material/13.png,1,廉明,material/113.png,1,material/113.png,廉明,1,f,f,f,1,1,1,廉洁,,,,,,,,,0,154,154,92,,,,,,,,,,,,,,,,,moral_self_bias,03,19,59.8222293219,f,001,2018_Apr_02_1011,
,,,,,,,,,,,,,,,,,,,,,,material/161.png,1,奉献,material/164.png,1,material/64.png,孝顺,1,f,f,f,1,1,1,勇敢,,,,,,,,,0,155,155,143,,,,,,,,,,,j,0,0.923973083496,,,,moral_self_bias,03,19,59.8222293219,f,001,2018_Apr_02_1011,
,,,,,,,,,,,,,,,,,,,,,,material/65.png,1,勇敢,material/61.png,1,material/161.png,平等,1,j,j,j,1,1,1,谦虚,,,,,,,,,0,156,156,60,0,0,0,0,,,,,,,f,0,1.44124102592,j,1,0.366775989532,moral_self_bias,03,19,59.8222293219,f,001,2018_Apr_02_1011,
,,,,,,,,,,,,,,,,,,,,,,material/65.png,1,勇敢,material/61.png,1,material/161.png,平等,1,j,j,j,1,1,1,谦虚,,,,,,,,,0,156,156,60,,,,,,,,,,,,,,,,,moral_self_bias,03,19,59.8222293219,f,001,2018_Apr_02_1011,
,,,,,,,,,,,,,,,,,,,,,,material/184.png,2,草率,material/80.png,2,material/78.png,健忘,2,j,j,j,2,2,2,厌学,,,,,,,,,0,157,157,76,0,0,0,0,,,,,,,f,0,2.59044504166,f,0,0.49192905426,moral_self_bias,03,19,59.8222293219,f,001,2018_Apr_02_1011,
,,,,,,,,,,,,,,,,,,,,,,material/184.png,2,草率,material/80.png,2,material/78.png,健忘,2,j,j,j,2,2,2,厌学,,,,,,,,,0,157,157,76,,,,,,,,,,,,,,,,,moral_self_bias,03,19,59.8222293219,f,001,2018_Apr_02_1011,
,,,,,,,,,,,,,,,,,,,,,,material/148.png,2,笨蛋,material/48.png,2,material/148.png,愚蠢,2,j,j,j,2,2,2,笨蛋,,,,,,,,,0,158,158,47,,,,,,,,,,,j,1,2.00863695145,,,,moral_self_bias,03,19,59.8222293219,f,001,2018_Apr_02_1011,
,,,,,,,,,,,,,,,,,,,,,,material/63.png,1,正义,material/166.png,1,material/66.png,仗义,1,f,f,f,1,1,1,文明,,,,,,,,,0,159,159,145,0,0,0,0,,,,,,,f,1,1.42492794991,j,1,0.391928195953,moral_self_bias,03,19,59.8222293219,f,001,2018_Apr_02_1011,
,,,,,,,,,,,,,,,,,,,,,,material/63.png,1,正义,material/166.png,1,material/66.png,仗义,1,f,f,f,1,1,1,文明,,,,,,,,,0,159,159,145,,,,,,,,,,,,,,,,,moral_self_bias,03,19,59.8222293219,f,001,2018_Apr_02_1011,
,,,,,,,,,,,,,,,,,,,,,,material/52.png,2,拖延,material/152.png,2,material/52.png,缓慢,2,f,f,f,2,2,2,拖延,,,,,,,,,0,160,160,131,,,,,,,,,,,j,0,1.4081299305,,,,moral_self_bias,03,19,59.8222293219,f,001,2018_Apr_02_1011,
,,,,,,,,,,,,,,,,,,,,,,material/77.png,2,浮夸,material/172.png,2,material/172.png,浮夸,2,f,f,f,1,1,1,软弱,,,,,,,,,0,161,161,151,,,,,,,,,,,j,0,1.32414698601,,,,moral_self_bias,03,19,59.8222293219,f,001,2018_Apr_02_1011,
,,,,,,,,,,,,,,,,,,,,,,material/14.png,1,忠贞,material/114.png,1,material/114.png,忠贞,1,f,f,f,1,1,1,爱国,,,,,,,,,0,162,162,93,0,0,0,0,,,,,,,f,1,0.825310945511,f,0,1.17531991005,moral_self_bias,03,19,59.8222293219,f,001,2018_Apr_02_1011,
,,,,,,,,,,,,,,,,,,,,,,material/14.png,1,忠贞,material/114.png,1,material/114.png,忠贞,1,f,f,f,1,1,1,爱国,,,,,,,,,0,162,162,93,,,,,,,,,,,,,,,,,moral_self_bias,03,19,59.8222293219,f,001,2018_Apr_02_1011,
,,,,,,,,,,,,,,,,,,,,,,material/112.png,1,忠诚,material/12.png,1,material/12.png,忠诚,1,j,j,j,1,1,1,忠心,,,,,,,,,0,163,163,11,0,0,0,0,,,,,,,f,0,2.42371296883,j,1,0.458508014679,moral_self_bias,03,19,59.8222293219,f,001,2018_Apr_02_1011,
,,,,,,,,,,,,,,,,,,,,,,material/112.png,1,忠诚,material/12.png,1,material/12.png,忠诚,1,j,j,j,1,1,1,忠心,,,,,,,,,0,163,163,11,,,,,,,,,,,,,,,,,moral_self_bias,03,19,59.8222293219,f,001,2018_Apr_02_1011,
,,,,,,,,,,,,,,,,,,,,,,material/22.png,1,才学,material/122.png,1,material/22.png,博学,1,f,f,f,2,2,2,才学,,,,,,,,,0,164,164,101,0,0,0,0,,,,,,,f,1,1.80805110931,j,1,1.32559204102,moral_self_bias,03,19,59.8222293219,f,001,2018_Apr_02_1011,
,,,,,,,,,,,,,,,,,,,,,,material/22.png,1,才学,material/122.png,1,material/22.png,博学,1,f,f,f,2,2,2,才学,,,,,,,,,0,164,164,101,,,,,,,,,,,,,,,,,moral_self_bias,03,19,59.8222293219,f,001,2018_Apr_02_1011,
,,,,,,,,,,,,,,,,,,,,,,material/134.png,2,可恨,material/34.png,2,material/34.png,可恨,2,j,j,j,1,1,1,可恶,,,,,,,,,0,165,165,33,,,,,,,,,,,j,1,1.05881094933,,,,moral_self_bias,03,19,59.8222293219,f,001,2018_Apr_02_1011,
