Block1_Old,Num_Source3,Num_Source2,Num_Source1,valence1,valence2,valence3,Num_Old2,Corr_S1,Num_Old1,Corr_S3,Corr_S2,Block3_Old,Block2_Old,Source_2,Source_3,Source_1,domain3,domain2,domain1,Num_Old3,math,Num_All2,valence_all1,All_Words3,Num_All1,valence_all2,Num_All3,All_Words1,valence_all3,Corr_Rec2,Corr_Rec3,Corr_Rec1,domian_all3,domian_all2,domian_all1,All_Words2,trials.thisRepN,trials.thisTrialN,trials.thisN,trials.thisIndex,trials_2.thisRepN,trials_2.thisTrialN,trials_2.thisN,trials_2.thisIndex,trials_4.thisRepN,trials_4.thisTrialN,trials_4.thisN,trials_4.thisIndex,trials_3.thisRepN,trials_3.thisTrialN,trials_3.thisN,trials_3.thisIndex,block_resp_1.keys,block_resp_1.rt,words_rating.keys,words_rating.rt,block_resp_2.keys,block_resp_2.rt,Rec_resp.keys,Rec_resp.corr,Rec_resp.rt,Source_resp.keys,Source_resp.corr,Source_resp.rt,expName,participant,Age,frameRate,Sex,session,date,
,,,,,,,,,,,,,,,,,,,,,,,,,,,,,,,,,,,,,,,,,,,,,,,,,,,,,3,2.5428109169,,,,,,,,,,,moral_self_bias,06,20,60.0283088672,f,001,2018_Apr_02_1228,
孝顺,material/instr2_1.png,material/instr2_1.png,material/instr2_1.png,1,1,1,material/161.png,f,material/164.png,f,f,奉献,勇敢,self,self,self,1,1,1,material/64.png,,,,,,,,,,,,,,,,,0,0,0,63,,,,,,,,,,,,,,,None,,,,,,,,,,moral_self_bias,06,20,60.0283088672,f,001,2018_Apr_02_1228,
公平,material/instr2_2.png,material/instr2_2.png,material/instr2_2.png,1,1,1,material/7.png,j,material/107.png,j,j,公平,公正,friend,friend,friend,1,1,1,material/107.png,,,,,,,,,,,,,,,,,0,1,1,6,,,,,,,,,,,,,,,4,1.45067191124,,,,,,,,,moral_self_bias,06,20,60.0283088672,f,001,2018_Apr_02_1228,
背叛,material/instr2_1.png,material/instr2_1.png,material/instr2_1.png,2,2,2,material/32.png,f,material/132.png,f,f,背叛,不忠,self,self,self,1,1,1,material/132.png,,,,,,,,,,,,,,,,,0,2,2,31,,,,,,,,,,,,,,,5,1.82519197464,,,,,,,,,moral_self_bias,06,20,60.0283088672,f,001,2018_Apr_02_1228,
勇敢,material/instr2_2.png,material/instr2_2.png,material/instr2_2.png,1,1,1,material/165.png,j,material/161.png,j,j,平等,独立,friend,friend,friend,1,1,1,material/61.png,,,,,,,,,,,,,,,,,0,3,3,60,,,,,,,,,,,,,,,None,,,,,,,,,,moral_self_bias,06,20,60.0283088672,f,001,2018_Apr_02_1228,
坚忍,material/instr2_1.png,material/instr2_1.png,material/instr2_1.png,1,1,1,material/168.png,f,material/170.png,f,f,机变,机变,self,self,self,2,2,2,material/168.png,,,,,,,,,,,,,,,,,0,4,4,69,,,,,,,,,,,,,,,2,1.22529911995,,,,,,,,,moral_self_bias,06,20,60.0283088672,f,001,2018_Apr_02_1228,
果敢,material/instr2_1.png,material/instr2_1.png,material/instr2_1.png,1,1,1,material/25.png,f,material/125.png,f,f,果断,果断,self,self,self,2,2,2,material/25.png,,,,,,,,,,,,,,,,,0,5,5,24,,,,,,,,,,,,,,,1,2.68369603157,,,,,,,,,moral_self_bias,06,20,60.0283088672,f,001,2018_Apr_02_1228,
好问,material/instr2_1.png,material/instr2_1.png,material/instr2_1.png,1,1,1,material/29.png,f,material/129.png,f,f,好学,好学,self,self,self,2,2,2,material/29.png,,,,,,,,,,,,,,,,,0,6,6,28,,,,,,,,,,,,,,,2,1.09202289581,,,,,,,,,moral_self_bias,06,20,60.0283088672,f,001,2018_Apr_02_1228,
聪颖,material/instr2_2.png,material/instr2_2.png,material/instr2_2.png,1,1,1,material/17.png,j,material/117.png,j,j,聪明,聪明,friend,friend,friend,2,2,2,material/17.png,,,,,,,,,,,,,,,,,0,7,7,16,,,,,,,,,,,,,,,4,1.17796015739,,,,,,,,,moral_self_bias,06,20,60.0283088672,f,001,2018_Apr_02_1228,
博爱,material/instr2_1.png,material/instr2_1.png,material/instr2_1.png,1,1,1,material/1.png,f,material/101.png,f,f,博爱,善良,self,self,self,1,1,1,material/101.png,,,,,,,,,,,,,,,,,0,8,8,0,,,,,,,,,,,,,,,2,1.09214401245,,,,,,,,,moral_self_bias,06,20,60.0283088672,f,001,2018_Apr_02_1228,
恶心,material/instr2_1.png,material/instr2_1.png,material/instr2_1.png,2,2,2,material/73.png,f,material/177.png,f,f,恶心,残虐,self,self,self,1,1,1,material/177.png,,,,,,,,,,,,,,,,,0,9,9,76,,,,,,,,,,,,,,,3,1.14192700386,,,,,,,,,moral_self_bias,06,20,60.0283088672,f,001,2018_Apr_02_1228,
机敏,material/instr2_2.png,material/instr2_2.png,material/instr2_2.png,1,1,1,material/18.png,j,material/118.png,j,j,敏锐,敏锐,friend,friend,friend,2,2,2,material/18.png,,,,,,,,,,,,,,,,,0,10,10,17,,,,,,,,,,,,,,,4,1.04998588562,,,,,,,,,moral_self_bias,06,20,60.0283088672,f,001,2018_Apr_02_1228,
自律,material/instr2_2.png,material/instr2_2.png,material/instr2_2.png,1,1,1,material/28.png,j,material/128.png,j,j,克己,克己,friend,friend,friend,2,2,2,material/28.png,,,,,,,,,,,,,,,,,0,11,11,27,,,,,,,,,,,,,,,4,0.891952037811,,,,,,,,,moral_self_bias,06,20,60.0283088672,f,001,2018_Apr_02_1228,
无能,material/instr2_2.png,material/instr2_2.png,material/instr2_2.png,2,2,2,material/57.png,j,material/157.png,j,j,无知,无知,friend,friend,friend,2,2,2,material/57.png,,,,,,,,,,,,,,,,,0,12,12,56,,,,,,,,,,,,,,,2,0.942355155945,,,,,,,,,moral_self_bias,06,20,60.0283088672,f,001,2018_Apr_02_1228,
依靠,material/instr2_1.png,material/instr2_1.png,material/instr2_1.png,2,2,2,material/54.png,f,material/154.png,f,f,依赖,依赖,self,self,self,2,2,2,material/54.png,,,,,,,,,,,,,,,,,0,13,13,53,,,,,,,,,,,,,,,3,1.20956707001,,,,,,,,,moral_self_bias,06,20,60.0283088672,f,001,2018_Apr_02_1228,
薄弱,material/instr2_1.png,material/instr2_1.png,material/instr2_1.png,2,2,2,material/82.png,f,material/183.png,f,f,毛糙,窝囊,self,self,self,2,2,2,material/178.png,,,,,,,,,,,,,,,,,0,14,14,82,,,,,,,,,,,,,,,5,1.17686104774,,,,,,,,,moral_self_bias,06,20,60.0283088672,f,001,2018_Apr_02_1228,
放纵,material/instr2_1.png,material/instr2_1.png,material/instr2_1.png,2,2,2,material/76.png,f,material/176.png,f,f,放纵,虚伪,self,self,self,1,1,1,material/176.png,,,,,,,,,,,,,,,,,0,15,15,75,,,,,,,,,,,,,,,4,0.942805051804,,,,,,,,,moral_self_bias,06,20,60.0283088672,f,001,2018_Apr_02_1228,
爱心,material/instr2_1.png,material/instr2_1.png,material/instr2_1.png,1,1,1,material/2.png,f,material/102.png,f,f,爱心,善心,self,self,self,1,1,1,material/102.png,,,,,,,,,,,,,,,,,0,16,16,1,,,,,,,,,,,,,,,3,1.10839390755,,,,,,,,,moral_self_bias,06,20,60.0283088672,f,001,2018_Apr_02_1228,
纯洁,material/instr2_2.png,material/instr2_2.png,material/instr2_2.png,1,1,1,material/15.png,j,material/115.png,j,j,纯洁,清白,friend,friend,friend,1,1,1,material/115.png,,,,,,,,,,,,,,,,,0,17,17,14,,,,,,,,,,,,,,,4,1.00012803078,,,,,,,,,moral_self_bias,06,20,60.0283088672,f,001,2018_Apr_02_1228,
坚毅,material/instr2_2.png,material/instr2_2.png,material/instr2_2.png,1,1,1,material/10.png,j,material/110.png,j,j,坚毅,顽强,friend,friend,friend,1,1,1,material/110.png,,,,,,,,,,,,,,,,,0,18,18,9,,,,,,,,,,,,,,,4,0.945261955261,,,,,,,,,moral_self_bias,06,20,60.0283088672,f,001,2018_Apr_02_1228,
残虐,material/instr2_1.png,material/instr2_1.png,material/instr2_1.png,2,2,2,material/175.png,f,material/73.png,f,f,残虐,无情,self,self,self,1,1,1,material/73.png,,,,,,,,,,,,,,,,,0,19,19,85,,,,,,,,,,,,,,,2,1.12561011314,,,,,,,,,moral_self_bias,06,20,60.0283088672,f,001,2018_Apr_02_1228,
无情,material/instr2_1.png,material/instr2_1.png,material/instr2_1.png,2,2,2,material/172.png,f,material/175.png,f,f,无情,浮夸,self,self,self,1,1,1,material/175.png,,,,,,,,,,,,,,,,,0,20,20,74,,,,,,,,,,,,,,,2,1.0915210247,,,,,,,,,moral_self_bias,06,20,60.0283088672,f,001,2018_Apr_02_1228,
机变,material/instr2_2.png,material/instr2_2.png,material/instr2_2.png,1,1,1,material/70.png,j,material/168.png,j,j,全面,全面,friend,friend,friend,2,2,2,material/70.png,,,,,,,,,,,,,,,,,0,21,21,67,,,,,,,,,,,,,,,4,1.22595596313,,,,,,,,,moral_self_bias,06,20,60.0283088672,f,001,2018_Apr_02_1228,
厌学,material/instr2_2.png,material/instr2_2.png,material/instr2_2.png,2,2,2,material/182.png,j,material/184.png,j,j,健忘,才尽,friend,friend,friend,2,2,2,material/80.png,,,,,,,,,,,,,,,,,0,22,22,83,,,,,,,,,,,,,,,2,1.27577090263,,,,,,,,,moral_self_bias,06,20,60.0283088672,f,001,2018_Apr_02_1228,
博学,material/instr2_1.png,material/instr2_1.png,material/instr2_1.png,1,1,1,material/22.png,f,material/122.png,f,f,才学,才学,self,self,self,2,2,2,material/22.png,,,,,,,,,,,,,,,,,0,23,23,21,,,,,,,,,,,,,,,3,1.52583599091,,,,,,,,,moral_self_bias,06,20,60.0283088672,f,001,2018_Apr_02_1228,
愚钝,material/instr2_1.png,material/instr2_1.png,material/instr2_1.png,2,2,2,material/56.png,f,material/156.png,f,f,愚昧,愚昧,self,self,self,2,2,2,material/56.png,,,,,,,,,,,,,,,,,0,24,24,55,,,,,,,,,,,,,,,3,1.19250106812,,,,,,,,,moral_self_bias,06,20,60.0283088672,f,001,2018_Apr_02_1228,
廉明,material/instr2_2.png,material/instr2_2.png,material/instr2_2.png,1,1,1,material/13.png,j,material/113.png,j,j,廉明,廉洁,friend,friend,friend,1,1,1,material/113.png,,,,,,,,,,,,,,,,,0,25,25,12,,,,,,,,,,,,,,,3,1.19308018684,,,,,,,,,moral_self_bias,06,20,60.0283088672,f,001,2018_Apr_02_1228,
毛糙,material/instr2_2.png,material/instr2_2.png,material/instr2_2.png,2,2,2,material/179.png,j,material/178.png,j,j,顽愚,差生,friend,friend,friend,2,2,2,material/84.png,,,,,,,,,,,,,,,,,0,26,26,77,,,,,,,,,,,,,,,2,0.958303928375,,,,,,,,,moral_self_bias,06,20,60.0283088672,f,001,2018_Apr_02_1228,
冷血,material/instr2_1.png,material/instr2_1.png,material/instr2_1.png,2,2,2,material/35.png,f,material/135.png,f,f,冷血,冷漠,self,self,self,1,1,1,material/135.png,,,,,,,,,,,,,,,,,0,27,27,34,,,,,,,,,,,,,,,2,1.12542200089,,,,,,,,,moral_self_bias,06,20,60.0283088672,f,001,2018_Apr_02_1228,
浮夸,material/instr2_2.png,material/instr2_2.png,material/instr2_2.png,2,2,2,material/77.png,j,material/172.png,j,j,浮夸,软弱,friend,friend,friend,1,1,1,material/172.png,,,,,,,,,,,,,,,,,0,28,28,71,,,,,,,,,,,,,,,1,1.40881896019,,,,,,,,,moral_self_bias,06,20,60.0283088672,f,001,2018_Apr_02_1228,
贪污,material/instr2_1.png,material/instr2_1.png,material/instr2_1.png,2,2,2,material/33.png,f,material/133.png,f,f,贪污,腐败,self,self,self,1,1,1,material/133.png,,,,,,,,,,,,,,,,,0,29,29,32,,,,,,,,,,,,,,,1,1.20877504349,,,,,,,,,moral_self_bias,06,20,60.0283088672,f,001,2018_Apr_02_1228,
仗义,material/instr2_1.png,material/instr2_1.png,material/instr2_1.png,1,1,1,material/63.png,f,material/166.png,f,f,正义,文明,self,self,self,1,1,1,material/66.png,,,,,,,,,,,,,,,,,0,30,30,65,,,,,,,,,,,,,,,2,0.965896844864,,,,,,,,,moral_self_bias,06,20,60.0283088672,f,001,2018_Apr_02_1228,
犹豫,material/instr2_1.png,material/instr2_1.png,material/instr2_1.png,2,2,2,material/78.png,f,material/181.png,f,f,厌学,草率,self,self,self,2,2,2,material/184.png,,,,,,,,,,,,,,,,,0,31,31,80,,,,,,,,,,,,,,,3,1.20816206932,,,,,,,,,moral_self_bias,06,20,60.0283088672,f,001,2018_Apr_02_1228,
忠心,material/instr2_1.png,material/instr2_1.png,material/instr2_1.png,1,1,1,material/12.png,f,material/112.png,f,f,忠心,忠诚,self,self,self,1,1,1,material/112.png,,,,,,,,,,,,,,,,,0,32,32,11,,,,,,,,,,,,,,,2,1.09225702286,,,,,,,,,moral_self_bias,06,20,60.0283088672,f,001,2018_Apr_02_1228,
机灵,material/instr2_2.png,material/instr2_2.png,material/instr2_2.png,1,1,1,material/19.png,j,material/119.png,j,j,灵活,灵活,friend,friend,friend,2,2,2,material/19.png,,,,,,,,,,,,,,,,,0,33,33,18,,,,,,,,,,,,,,,4,0.809263944626,,,,,,,,,moral_self_bias,06,20,60.0283088672,f,001,2018_Apr_02_1228,
颖悟,material/instr2_2.png,material/instr2_2.png,material/instr2_2.png,1,1,1,material/167.png,j,material/169.png,j,j,高手,高手,friend,friend,friend,2,2,2,material/167.png,,,,,,,,,,,,,,,,,0,34,34,68,,,,,,,,,,,,,,,4,0.900010824203,,,,,,,,,moral_self_bias,06,20,60.0283088672,f,001,2018_Apr_02_1228,
能干,material/instr2_2.png,material/instr2_2.png,material/instr2_2.png,1,1,1,material/20.png,j,material/120.png,j,j,厉害,厉害,friend,friend,friend,2,2,2,material/20.png,,,,,,,,,,,,,,,,,0,35,35,19,,,,,,,,,,,,,,,4,0.922732830048,,,,,,,,,moral_self_bias,06,20,60.0283088672,f,001,2018_Apr_02_1228,
超群,material/instr2_2.png,material/instr2_2.png,material/instr2_2.png,1,1,1,material/27.png,j,material/127.png,j,j,卓越,卓越,friend,friend,friend,2,2,2,material/27.png,,,,,,,,,,,,,,,,,0,36,36,26,,,,,,,,,,,,,,,4,0.822885990143,,,,,,,,,moral_self_bias,06,20,60.0283088672,f,001,2018_Apr_02_1228,
黑心,material/instr2_2.png,material/instr2_2.png,material/instr2_2.png,2,2,2,material/74.png,j,material/173.png,j,j,黑心,卑劣,friend,friend,friend,1,1,1,material/173.png,,,,,,,,,,,,,,,,,0,37,37,72,,,,,,,,,,,,,,,2,0.992447853088,,,,,,,,,moral_self_bias,06,20,60.0283088672,f,001,2018_Apr_02_1228,
笃行,material/instr2_1.png,material/instr2_1.png,material/instr2_1.png,1,1,1,material/31.png,f,material/131.png,f,f,笃学,笃学,self,self,self,2,2,2,material/31.png,,,,,,,,,,,,,,,,,0,38,38,30,,,,,,,,,,,,,,,4,0.809262037277,,,,,,,,,moral_self_bias,06,20,60.0283088672,f,001,2018_Apr_02_1228,
高手,material/instr2_2.png,material/instr2_2.png,material/instr2_2.png,1,1,1,material/68.png,j,material/167.png,j,j,广博,广博,friend,friend,friend,2,2,2,material/68.png,,,,,,,,,,,,,,,,,0,39,39,66,,,,,,,,,,,,,,,4,0.954066991806,,,,,,,,,moral_self_bias,06,20,60.0283088672,f,001,2018_Apr_02_1228,
独立,material/instr2_1.png,material/instr2_1.png,material/instr2_1.png,1,1,1,material/64.png,f,material/165.png,f,f,谦虚,奉献,self,self,self,1,1,1,material/65.png,,,,,,,,,,,,,,,,,0,40,40,64,,,,,,,,,,,,,,,2,1.04986906052,,,,,,,,,moral_self_bias,06,20,60.0283088672,f,001,2018_Apr_02_1228,
厚道,material/instr2_2.png,material/instr2_2.png,material/instr2_2.png,1,1,1,material/6.png,j,material/106.png,j,j,厚道,诚实,friend,friend,friend,1,1,1,material/106.png,,,,,,,,,,,,,,,,,0,41,41,5,,,,,,,,,,,,,,,4,0.892679929733,,,,,,,,,moral_self_bias,06,20,60.0283088672,f,001,2018_Apr_02_1228,
高效,material/instr2_1.png,material/instr2_1.png,material/instr2_1.png,1,1,1,material/169.png,f,material/171.png,f,f,颖悟,颖悟,self,self,self,2,2,2,material/169.png,,,,,,,,,,,,,,,,,0,42,42,70,,,,,,,,,,,,,,,2,1.24270296097,,,,,,,,,moral_self_bias,06,20,60.0283088672,f,001,2018_Apr_02_1228,
精干,material/instr2_1.png,material/instr2_1.png,material/instr2_1.png,1,1,1,material/21.png,f,material/121.png,f,f,干练,干练,self,self,self,2,2,2,material/21.png,,,,,,,,,,,,,,,,,0,43,43,20,,,,,,,,,,,,,,,2,0.808815956116,,,,,,,,,moral_self_bias,06,20,60.0283088672,f,001,2018_Apr_02_1228,
残忍,material/instr2_2.png,material/instr2_2.png,material/instr2_2.png,2,2,2,material/41.png,j,material/141.png,j,j,残忍,歹毒,friend,friend,friend,1,1,1,material/141.png,,,,,,,,,,,,,,,,,0,44,44,40,,,,,,,,,,,,,,,1,1.05609107018,,,,,,,,,moral_self_bias,06,20,60.0283088672,f,001,2018_Apr_02_1228,
弱智,material/instr2_1.png,material/instr2_1.png,material/instr2_1.png,2,2,2,material/59.png,f,material/159.png,f,f,智障,智障,self,self,self,2,2,2,material/59.png,,,,,,,,,,,,,,,,,0,45,45,58,,,,,,,,,,,,,,,4,1.59166502953,,,,,,,,,moral_self_bias,06,20,60.0283088672,f,001,2018_Apr_02_1228,
冷静,material/instr2_1.png,material/instr2_1.png,material/instr2_1.png,1,1,1,material/24.png,f,material/124.png,f,f,理智,理智,self,self,self,2,2,2,material/24.png,,,,,,,,,,,,,,,,,0,46,46,23,,,,,,,,,,,,,,,2,1.12562894821,,,,,,,,,moral_self_bias,06,20,60.0283088672,f,001,2018_Apr_02_1228,
自私,material/instr2_2.png,material/instr2_2.png,material/instr2_2.png,2,2,2,material/46.png,j,material/146.png,j,j,自私,小气,friend,friend,friend,1,1,1,material/146.png,,,,,,,,,,,,,,,,,0,47,47,45,,,,,,,,,,,,,,,1,0.909348964691,,,,,,,,,moral_self_bias,06,20,60.0283088672,f,001,2018_Apr_02_1228,
浅薄,material/instr2_2.png,material/instr2_2.png,material/instr2_2.png,2,2,2,material/58.png,j,material/158.png,j,j,肤浅,肤浅,friend,friend,friend,2,2,2,material/58.png,,,,,,,,,,,,,,,,,0,48,48,57,,,,,,,,,,,,,,,1,0.941797971725,,,,,,,,,moral_self_bias,06,20,60.0283088672,f,001,2018_Apr_02_1228,
不义,material/instr2_2.png,material/instr2_2.png,material/instr2_2.png,2,2,2,material/173.png,j,material/174.png,j,j,不义,黑心,friend,friend,friend,1,1,1,material/174.png,,,,,,,,,,,,,,,,,0,49,49,73,,,,,,,,,,,,,,,2,0.825510978699,,,,,,,,,moral_self_bias,06,20,60.0283088672,f,001,2018_Apr_02_1228,
迷糊,material/instr2_2.png,material/instr2_2.png,material/instr2_2.png,2,2,2,material/51.png,j,material/151.png,j,j,糊涂,糊涂,friend,friend,friend,2,2,2,material/51.png,,,,,,,,,,,,,,,,,0,50,50,50,,,,,,,,,,,,,,,1,0.800096035004,,,,,,,,,moral_self_bias,06,20,60.0283088672,f,001,2018_Apr_02_1228,
笨蛋,material/instr2_2.png,material/instr2_2.png,material/instr2_2.png,2,2,2,material/48.png,j,material/148.png,j,j,愚蠢,愚蠢,friend,friend,friend,2,2,2,material/48.png,,,,,,,,,,,,,,,,,0,51,51,47,,,,,,,,,,,,,,,1,0.776057958603,,,,,,,,,moral_self_bias,06,20,60.0283088672,f,001,2018_Apr_02_1228,
进取,material/instr2_1.png,material/instr2_1.png,material/instr2_1.png,1,1,1,material/30.png,f,material/130.png,f,f,上进,上进,self,self,self,2,2,2,material/30.png,,,,,,,,,,,,,,,,,0,52,52,29,,,,,,,,,,,,,,,2,1.0754570961,,,,,,,,,moral_self_bias,06,20,60.0283088672,f,001,2018_Apr_02_1228,
才尽,material/instr2_1.png,material/instr2_1.png,material/instr2_1.png,2,2,2,material/183.png,f,material/182.png,f,f,颓废,薄弱,self,self,self,2,2,2,material/79.png,,,,,,,,,,,,,,,,,0,53,53,81,,,,,,,,,,,,,,,4,1.17441511154,,,,,,,,,moral_self_bias,06,20,60.0283088672,f,001,2018_Apr_02_1228,
卑鄙,material/instr2_2.png,material/instr2_2.png,material/instr2_2.png,2,2,2,material/37.png,j,material/137.png,j,j,卑鄙,无耻,friend,friend,friend,1,1,1,material/137.png,,,,,,,,,,,,,,,,,0,54,54,36,,,,,,,,,,,,,,,1,0.8594789505,,,,,,,,,moral_self_bias,06,20,60.0283088672,f,001,2018_Apr_02_1228,
多才,material/instr2_1.png,material/instr2_1.png,material/instr2_1.png,1,1,1,material/23.png,f,material/123.png,f,f,有才,有才,self,self,self,2,2,2,material/23.png,,,,,,,,,,,,,,,,,0,55,55,22,,,,,,,,,,,,,,,2,1.59225106239,,,,,,,,,moral_self_bias,06,20,60.0283088672,f,001,2018_Apr_02_1228,
诚信,material/instr2_1.png,material/instr2_1.png,material/instr2_1.png,1,1,1,material/5.png,f,material/105.png,f,f,诚信,守信,self,self,self,1,1,1,material/105.png,,,,,,,,,,,,,,,,,0,56,56,4,,,,,,,,,,,,,,,3,1.14183497429,,,,,,,,,moral_self_bias,06,20,60.0283088672,f,001,2018_Apr_02_1228,
正直,material/instr2_2.png,material/instr2_2.png,material/instr2_2.png,1,1,1,material/9.png,j,material/109.png,j,j,正直,秉直,friend,friend,friend,1,1,1,material/109.png,,,,,,,,,,,,,,,,,0,57,57,8,,,,,,,,,,,,,,,4,0.900126934052,,,,,,,,,moral_self_bias,06,20,60.0283088672,f,001,2018_Apr_02_1228,
怠惰,material/instr2_2.png,material/instr2_2.png,material/instr2_2.png,2,2,2,material/181.png,j,material/180.png,j,j,怠惰,犹豫,friend,friend,friend,2,2,2,material/180.png,,,,,,,,,,,,,,,,,0,58,58,79,,,,,,,,,,,,,,,1,1.04948806763,,,,,,,,,moral_self_bias,06,20,60.0283088672,f,001,2018_Apr_02_1228,
机智,material/instr2_2.png,material/instr2_2.png,material/instr2_2.png,1,1,1,material/16.png,j,material/116.png,j,j,睿智,睿智,friend,friend,friend,2,2,2,material/16.png,,,,,,,,,,,,,,,,,0,59,59,15,,,,,,,,,,,,,,,4,0.824966907501,,,,,,,,,moral_self_bias,06,20,60.0283088672,f,001,2018_Apr_02_1228,
宽容,material/instr2_2.png,material/instr2_2.png,material/instr2_2.png,1,1,1,material/163.png,j,material/163.png,j,j,文明,宽容,friend,friend,friend,1,1,1,material/63.png,,,,,,,,,,,,,,,,,0,60,60,62,,,,,,,,,,,,,,,3,0.917062997818,,,,,,,,,moral_self_bias,06,20,60.0283088672,f,001,2018_Apr_02_1228,
鲁钝,material/instr2_2.png,material/instr2_2.png,material/instr2_2.png,2,2,2,material/50.png,j,material/150.png,j,j,愚笨,愚笨,friend,friend,friend,2,2,2,material/50.png,,,,,,,,,,,,,,,,,0,61,61,49,,,,,,,,,,,,,,,2,0.908763885498,,,,,,,,,moral_self_bias,06,20,60.0283088672,f,001,2018_Apr_02_1228,
无私,material/instr2_2.png,material/instr2_2.png,material/instr2_2.png,1,1,1,material/8.png,j,material/108.png,j,j,无私,公道,friend,friend,friend,1,1,1,material/108.png,,,,,,,,,,,,,,,,,0,62,62,7,,,,,,,,,,,,,,,3,1.24238491058,,,,,,,,,moral_self_bias,06,20,60.0283088672,f,001,2018_Apr_02_1228,
勤快,material/instr2_2.png,material/instr2_2.png,material/instr2_2.png,1,1,1,material/26.png,j,material/126.png,j,j,刻苦,刻苦,friend,friend,friend,2,2,2,material/26.png,,,,,,,,,,,,,,,,,0,63,63,25,,,,,,,,,,,,,,,4,0.942231178284,,,,,,,,,moral_self_bias,06,20,60.0283088672,f,001,2018_Apr_02_1228,
高明,material/instr2_1.png,material/instr2_1.png,material/instr2_1.png,1,1,1,material/69.png,f,material/69.png,f,f,高明,高明,self,self,self,2,2,2,material/69.png,,,,,,,,,,,,,,,,,0,64,64,86,,,,,,,,,,,,,,,1,0.992819070816,,,,,,,,,moral_self_bias,06,20,60.0283088672,f,001,2018_Apr_02_1228,
笨拙,material/instr2_1.png,material/instr2_1.png,material/instr2_1.png,2,2,2,material/60.png,f,material/160.png,f,f,粗拙,粗拙,self,self,self,2,2,2,material/60.png,,,,,,,,,,,,,,,,,0,65,65,59,,,,,,,,,,,,,,,3,1.19441413879,,,,,,,,,moral_self_bias,06,20,60.0283088672,f,001,2018_Apr_02_1228,
可恶,material/instr2_1.png,material/instr2_1.png,material/instr2_1.png,2,2,2,material/34.png,f,material/134.png,f,f,可恶,可恨,self,self,self,1,1,1,material/134.png,,,,,,,,,,,,,,,,,0,66,66,33,,,,,,,,,,,,,,,2,1.07565689087,,,,,,,,,moral_self_bias,06,20,60.0283088672,f,001,2018_Apr_02_1228,
迟钝,material/instr2_1.png,material/instr2_1.png,material/instr2_1.png,2,2,2,material/53.png,f,material/153.png,f,f,迟缓,迟缓,self,self,self,2,2,2,material/53.png,,,,,,,,,,,,,,,,,0,67,67,52,,,,,,,,,,,,,,,4,1.47558903694,,,,,,,,,moral_self_bias,06,20,60.0283088672,f,001,2018_Apr_02_1228,
奸诈,material/instr2_1.png,material/instr2_1.png,material/instr2_1.png,2,2,2,material/42.png,f,material/142.png,f,f,奸诈,阴险,self,self,self,1,1,1,material/142.png,,,,,,,,,,,,,,,,,0,68,68,41,,,,,,,,,,,,,,,2,1.21646404266,,,,,,,,,moral_self_bias,06,20,60.0283088672,f,001,2018_Apr_02_1228,
狠毒,material/instr2_2.png,material/instr2_2.png,material/instr2_2.png,2,2,2,material/40.png,j,material/140.png,j,j,狠毒,邪恶,friend,friend,friend,1,1,1,material/140.png,,,,,,,,,,,,,,,,,0,69,69,39,,,,,,,,,,,,,,,1,1.00896501541,,,,,,,,,moral_self_bias,06,20,60.0283088672,f,001,2018_Apr_02_1228,
高尚,material/instr2_1.png,material/instr2_1.png,material/instr2_1.png,1,1,1,material/11.png,f,material/111.png,f,f,高尚,高雅,self,self,self,1,1,1,material/111.png,,,,,,,,,,,,,,,,,0,70,70,10,,,,,,,,,,,,,,,1,0.892277956009,,,,,,,,,moral_self_bias,06,20,60.0283088672,f,001,2018_Apr_02_1228,
撒谎,material/instr2_1.png,material/instr2_1.png,material/instr2_1.png,2,2,2,material/36.png,f,material/136.png,f,f,撒谎,说谎,self,self,self,1,1,1,material/136.png,,,,,,,,,,,,,,,,,0,71,71,35,,,,,,,,,,,,,,,5,1.25911998749,,,,,,,,,moral_self_bias,06,20,60.0283088672,f,001,2018_Apr_02_1228,
刻板,material/instr2_2.png,material/instr2_2.png,material/instr2_2.png,2,2,2,material/47.png,j,material/147.png,j,j,死板,死板,friend,friend,friend,2,2,2,material/47.png,,,,,,,,,,,,,,,,,0,72,72,46,,,,,,,,,,,,,,,1,1.02499103546,,,,,,,,,moral_self_bias,06,20,60.0283088672,f,001,2018_Apr_02_1228,
正义,material/instr2_1.png,material/instr2_1.png,material/instr2_1.png,1,1,1,material/66.png,f,material/66.png,f,f,独立,正义,self,self,self,1,1,1,material/165.png,,,,,,,,,,,,,,,,,0,73,73,84,,,,,,,,,,,,,,,2,0.958579063416,,,,,,,,,moral_self_bias,06,20,60.0283088672,f,001,2018_Apr_02_1228,
敬业,material/instr2_2.png,material/instr2_2.png,material/instr2_2.png,1,1,1,material/62.png,j,material/162.png,j,j,坚韧,坚韧,friend,friend,friend,1,1,1,material/62.png,,,,,,,,,,,,,,,,,0,74,74,61,,,,,,,,,,,,,,,3,1.19254398346,,,,,,,,,moral_self_bias,06,20,60.0283088672,f,001,2018_Apr_02_1228,
缓慢,material/instr2_1.png,material/instr2_1.png,material/instr2_1.png,2,2,2,material/52.png,f,material/152.png,f,f,拖延,拖延,self,self,self,2,2,2,material/52.png,,,,,,,,,,,,,,,,,0,75,75,51,,,,,,,,,,,,,,,5,1.12572598457,,,,,,,,,moral_self_bias,06,20,60.0283088672,f,001,2018_Apr_02_1228,
虚荣,material/instr2_1.png,material/instr2_1.png,material/instr2_1.png,2,2,2,material/43.png,f,material/143.png,f,f,虚荣,拜金,self,self,self,1,1,1,material/143.png,,,,,,,,,,,,,,,,,0,76,76,42,,,,,,,,,,,,,,,4,1.53897619247,,,,,,,,,moral_self_bias,06,20,60.0283088672,f,001,2018_Apr_02_1228,
白痴,material/instr2_2.png,material/instr2_2.png,material/instr2_2.png,2,2,2,material/49.png,j,material/149.png,j,j,痴呆,痴呆,friend,friend,friend,2,2,2,material/49.png,,,,,,,,,,,,,,,,,0,77,77,48,,,,,,,,,,,,,,,1,0.9426009655,,,,,,,,,moral_self_bias,06,20,60.0283088672,f,001,2018_Apr_02_1228,
盲目,material/instr2_1.png,material/instr2_1.png,material/instr2_1.png,2,2,2,material/55.png,f,material/155.png,f,f,盲从,盲从,self,self,self,2,2,2,material/55.png,,,,,,,,,,,,,,,,,0,78,78,54,,,,,,,,,,,,,,,5,1.06697297096,,,,,,,,,moral_self_bias,06,20,60.0283088672,f,001,2018_Apr_02_1228,
差生,material/instr2_2.png,material/instr2_2.png,material/instr2_2.png,2,2,2,material/81.png,j,material/179.png,j,j,呆笨,无助,friend,friend,friend,2,2,2,material/83.png,,,,,,,,,,,,,,,,,0,79,79,78,,,,,,,,,,,,,,,1,0.792627096176,,,,,,,,,moral_self_bias,06,20,60.0283088672,f,001,2018_Apr_02_1228,
友善,material/instr2_1.png,material/instr2_1.png,material/instr2_1.png,1,1,1,material/4.png,f,material/104.png,f,f,友善,友爱,self,self,self,1,1,1,material/104.png,,,,,,,,,,,,,,,,,0,80,80,3,,,,,,,,,,,,,,,2,1.24332714081,,,,,,,,,moral_self_bias,06,20,60.0283088672,f,001,2018_Apr_02_1228,
小人,material/instr2_2.png,material/instr2_2.png,material/instr2_2.png,2,2,2,material/45.png,j,material/145.png,j,j,小人,下流,friend,friend,friend,1,1,1,material/145.png,,,,,,,,,,,,,,,,,0,81,81,44,,,,,,,,,,,,,,,1,0.776067972183,,,,,,,,,moral_self_bias,06,20,60.0283088672,f,001,2018_Apr_02_1228,
爽约,material/instr2_2.png,material/instr2_2.png,material/instr2_2.png,2,2,2,material/44.png,j,material/144.png,j,j,爽约,失信,friend,friend,friend,1,1,1,material/144.png,,,,,,,,,,,,,,,,,0,82,82,43,,,,,,,,,,,,,,,1,0.957979917526,,,,,,,,,moral_self_bias,06,20,60.0283088672,f,001,2018_Apr_02_1228,
忠贞,material/instr2_2.png,material/instr2_2.png,material/instr2_2.png,1,1,1,material/14.png,j,material/114.png,j,j,忠贞,爱国,friend,friend,friend,1,1,1,material/114.png,,,,,,,,,,,,,,,,,0,83,83,13,,,,,,,,,,,,,,,3,1.19266009331,,,,,,,,,moral_self_bias,06,20,60.0283088672,f,001,2018_Apr_02_1228,
缺德,material/instr2_2.png,material/instr2_2.png,material/instr2_2.png,2,2,2,material/38.png,j,material/138.png,j,j,缺德,无德,friend,friend,friend,1,1,1,material/138.png,,,,,,,,,,,,,,,,,0,84,84,37,,,,,,,,,,,,,,,1,0.791069030762,,,,,,,,,moral_self_bias,06,20,60.0283088672,f,001,2018_Apr_02_1228,
仁厚,material/instr2_1.png,material/instr2_1.png,material/instr2_1.png,1,1,1,material/3.png,f,material/103.png,f,f,仁厚,仁慈,self,self,self,1,1,1,material/103.png,,,,,,,,,,,,,,,,,0,85,85,2,,,,,,,,,,,,,,,1,0.742938995361,,,,,,,,,moral_self_bias,06,20,60.0283088672,f,001,2018_Apr_02_1228,
恶毒,material/instr2_2.png,material/instr2_2.png,material/instr2_2.png,2,2,2,material/39.png,j,material/139.png,j,j,恶毒,凶残,friend,friend,friend,1,1,1,material/139.png,,,,,,,,,,,,,,,,,0,86,86,38,,,,,,,,,,,,,,,1,0.741771936417,,,,,,,,,moral_self_bias,06,20,60.0283088672,f,001,2018_Apr_02_1228,
顽愚,material/instr2_1.png,material/instr2_1.png,material/instr2_1.png,2,2,2,material/84.png,f,material/84.png,f,f,犹豫,顽愚,self,self,self,2,2,2,material/181.png,,,,,,,,,,,,,,,,,0,87,87,87,,,,,,,,,,,,,,,3,1.02531409264,,,,,,,,,moral_self_bias,06,20,60.0283088672,f,001,2018_Apr_02_1228,
,,,,,,,,,,,,,,,,,,,,,22/11= ?,,,,,,,,,,,,,,,,,,,,0,0,0,71,,,,,,,,,,,,,,,,,,,,,moral_self_bias,06,20,60.0283088672,f,001,2018_Apr_02_1228,
,,,,,,,,,,,,,,,,,,,,,18/9= ?,,,,,,,,,,,,,,,,,,,,0,1,1,96,,,,,,,,,,,,,,,,,,,,,moral_self_bias,06,20,60.0283088672,f,001,2018_Apr_02_1228,
,,,,,,,,,,,,,,,,,,,,,4^1= ?,,,,,,,,,,,,,,,,,,,,0,2,2,102,,,,,,,,,,,,,,,,,,,,,moral_self_bias,06,20,60.0283088672,f,001,2018_Apr_02_1228,
,,,,,,,,,,,,,,,,,,,,,15-10=？,,,,,,,,,,,,,,,,,,,,0,3,3,61,,,,,,,,,,,,,,,,,,,,,moral_self_bias,06,20,60.0283088672,f,001,2018_Apr_02_1228,
,,,,,,,,,,,,,,,,,,,,,3+0= ?,,,,,,,,,,,,,,,,,,,,0,4,4,105,,,,,,,,,,,,,,,,,,,,,moral_self_bias,06,20,60.0283088672,f,001,2018_Apr_02_1228,
,,,,,,,,,,,,,,,,,,,,,3+6= ?,,,,,,,,,,,,,,,,,,,,0,5,5,21,,,,,,,,,,,,,,,,,,,,,moral_self_bias,06,20,60.0283088672,f,001,2018_Apr_02_1228,
,,,,,,,,,,,,,,,,,,,,,4+1= ?,,,,,,,,,,,,,,,,,,,,0,6,6,25,,,,,,,,,,,,,,,,,,,,,moral_self_bias,06,20,60.0283088672,f,001,2018_Apr_02_1228,
,,,,,,,,,,,,,,,,,,,,,5/1= ?,,,,,,,,,,,,,,,,,,,,0,7,7,59,,,,,,,,,,,,,,,,,,,,,moral_self_bias,06,20,60.0283088672,f,001,2018_Apr_02_1228,
,,,,,,,,,,,,,,,,,,,,,2+2= ?,,,,,,,,,,,,,,,,,,,,0,8,8,8,,,,,,,,,,,,,,,,,,,,,moral_self_bias,06,20,60.0283088672,f,001,2018_Apr_02_1228,
,,,,,,,,,,,,,,,,,,,,,4+5= ?,,,,,,,,,,,,,,,,,,,,0,9,9,29,,,,,,,,,,,,,,,,,,,,,moral_self_bias,06,20,60.0283088672,f,001,2018_Apr_02_1228,
,,,,,,,,,,,,,,,,,,,,,9-7= ?,,,,,,,,,,,,,,,,,,,,0,10,10,30,,,,,,,,,,,,,,,,,,,,,moral_self_bias,06,20,60.0283088672,f,001,2018_Apr_02_1228,
,,,,,,,,,,,,,,,,,,,,,13-9= ?,,,,,,,,,,,,,,,,,,,,0,11,11,92,,,,,,,,,,,,,,,,,,,,,moral_self_bias,06,20,60.0283088672,f,001,2018_Apr_02_1228,
,,,,,,,,,,,,,,,,,,,,,8*1= ?,,,,,,,,,,,,,,,,,,,,0,12,12,111,,,,,,,,,,,,,,,,,,,,,moral_self_bias,06,20,60.0283088672,f,001,2018_Apr_02_1228,
,,,,,,,,,,,,,,,,,,,,,8-6= ?,,,,,,,,,,,,,,,,,,,,0,13,13,42,,,,,,,,,,,,,,,,,,,,,moral_self_bias,06,20,60.0283088672,f,001,2018_Apr_02_1228,
,,,,,,,,,,,,,,,,,,,,,17-12= ? ,,,,,,,,,,,,,,,,,,,,0,14,14,104,,,,,,,,,,,,,,,,,,,,,moral_self_bias,06,20,60.0283088672,f,001,2018_Apr_02_1228,
,,,,,,,,,,,,,,,,,,,,,32-32= ?,,,,,,,,,,,,,,,,,,,,0,15,15,80,,,,,,,,,,,,,,,,,,,,,moral_self_bias,06,20,60.0283088672,f,001,2018_Apr_02_1228,
,,,,,,,,,,,,,,,,,,,,,2+4= ?,,,,,,,,,,,,,,,,,,,,0,16,16,10,,,,,,,,,,,,,,,,,,,,,moral_self_bias,06,20,60.0283088672,f,001,2018_Apr_02_1228,
,,,,,,,,,,,,,,,,,,,,,8-2= ?,,,,,,,,,,,,,,,,,,,,0,17,17,38,,,,,,,,,,,,,,,,,,,,,moral_self_bias,06,20,60.0283088672,f,001,2018_Apr_02_1228,
,,,,,,,,,,,,,,,,,,,,,50-42= ?,,,,,,,,,,,,,,,,,,,,0,18,18,81,,,,,,,,,,,,,,,,,,,,,moral_self_bias,06,20,60.0283088672,f,001,2018_Apr_02_1228,
,,,,,,,,,,,,,,,,,,,,,6+2= ?,,,,,,,,,,,,,,,,,,,,0,19,19,44,,,,,,,,,,,,,,,,,,,,,moral_self_bias,06,20,60.0283088672,f,001,2018_Apr_02_1228,
,,,,,,,,,,,,,,,,,,,,,8+1= ?,,,,,,,,,,,,,,,,,,,,0,20,20,48,,,,,,,,,,,,,,,,,,,,,moral_self_bias,06,20,60.0283088672,f,001,2018_Apr_02_1228,
,,,,,,,,,,,,,,,,,,,,,30-29= ?,,,,,,,,,,,,,,,,,,,,0,21,21,73,,,,,,,,,,,,,,,,,,,,,moral_self_bias,06,20,60.0283088672,f,001,2018_Apr_02_1228,
,,,,,,,,,,,,,,,,,,,,,8/4= ?,,,,,,,,,,,,,,,,,,,,0,22,22,57,,,,,,,,,,,,,,,,,,,,,moral_self_bias,06,20,60.0283088672,f,001,2018_Apr_02_1228,
,,,,,,,,,,,,,,,,,,,,,9+0= ?,,,,,,,,,,,,,,,,,,,,0,23,23,118,,,,,,,,,,,,,,,,,,,,,moral_self_bias,06,20,60.0283088672,f,001,2018_Apr_02_1228,
,,,,,,,,,,,,,,,,,,,,,1+2= ?,,,,,,,,,,,,,,,,,,,,0,24,24,1,,,,,,,,,,,,,,,,,,,,,moral_self_bias,06,20,60.0283088672,f,001,2018_Apr_02_1228,
,,,,,,,,,,,,,,,,,,,,,2+3= ?,,,,,,,,,,,,,,,,,,,,0,25,25,9,,,,,,,,,,,,,,,,,,,,,moral_self_bias,06,20,60.0283088672,f,001,2018_Apr_02_1228,
,,,,,,,,,,,,,,,,,,,,,4*2= ?,,,,,,,,,,,,,,,,,,,,0,26,26,82,,,,,,,,,,,,,,,,,,,,,moral_self_bias,06,20,60.0283088672,f,001,2018_Apr_02_1228,
,,,,,,,,,,,,,,,,,,,,,4/4= ?,,,,,,,,,,,,,,,,,,,,0,27,27,55,,,,,,,,,,,,,,,,,,,,,moral_self_bias,06,20,60.0283088672,f,001,2018_Apr_02_1228,
,,,,,,,,,,,,,,,,,,,,,3^1= ?,,,,,,,,,,,,,,,,,,,,0,28,28,101,,,,,,,,,,,,,,,,,,,,,moral_self_bias,06,20,60.0283088672,f,001,2018_Apr_02_1228,
,,,,,,,,,,,,,,,,,,,,,12-12= ?,,,,,,,,,,,,,,,,,,,,0,29,29,99,,,,,,,,,,,,,,,,,,,,,moral_self_bias,06,20,60.0283088672,f,001,2018_Apr_02_1228,
,,,,,,,,,,,,,,,,,,,,,5*0= ?,,,,,,,,,,,,,,,,,,,,0,30,30,86,,,,,,,,,,,,,,,,,,,,,moral_self_bias,06,20,60.0283088672,f,001,2018_Apr_02_1228,
,,,,,,,,,,,,,,,,,,,,,3+4= ?,,,,,,,,,,,,,,,,,,,,0,31,31,19,,,,,,,,,,,,,,,,,,,,,moral_self_bias,06,20,60.0283088672,f,001,2018_Apr_02_1228,
,,,,,,,,,,,,,,,,,,,,,6^0= ?,,,,,,,,,,,,,,,,,,,,0,32,32,114,,,,,,,,,,,,,,,,,,,,,moral_self_bias,06,20,60.0283088672,f,001,2018_Apr_02_1228,
,,,,,,,,,,,,,,,,,,,,,9-1=?,,,,,,,,,,,,,,,,,,,,0,33,33,2,,,,,,,,,,,,,,,,,,,,,moral_self_bias,06,20,60.0283088672,f,001,2018_Apr_02_1228,
,,,,,,,,,,,,,,,,,,,,,2+1= ?,,,,,,,,,,,,,,,,,,,,0,34,34,7,,,,,,,,,,,,,,,,,,,,,moral_self_bias,06,20,60.0283088672,f,001,2018_Apr_02_1228,
,,,,,,,,,,,,,,,,,,,,,6+3= ?,,,,,,,,,,,,,,,,,,,,0,35,35,45,,,,,,,,,,,,,,,,,,,,,moral_self_bias,06,20,60.0283088672,f,001,2018_Apr_02_1228,
,,,,,,,,,,,,,,,,,,,,,4+2= ?,,,,,,,,,,,,,,,,,,,,0,36,36,26,,,,,,,,,,,,,,,,,,,,,moral_self_bias,06,20,60.0283088672,f,001,2018_Apr_02_1228,
,,,,,,,,,,,,,,,,,,,,,9-9= ?,,,,,,,,,,,,,,,,,,,,0,37,37,32,,,,,,,,,,,,,,,,,,,,,moral_self_bias,06,20,60.0283088672,f,001,2018_Apr_02_1228,
,,,,,,,,,,,,,,,,,,,,,8-3= ?,,,,,,,,,,,,,,,,,,,,0,38,38,39,,,,,,,,,,,,,,,,,,,,,moral_self_bias,06,20,60.0283088672,f,001,2018_Apr_02_1228,
,,,,,,,,,,,,,,,,,,,,,43-34= ?,,,,,,,,,,,,,,,,,,,,0,39,39,79,,,,,,,,,,,,,,,,,,,,,moral_self_bias,06,20,60.0283088672,f,001,2018_Apr_02_1228,
,,,,,,,,,,,,,,,,,,,,,3+3= ?,,,,,,,,,,,,,,,,,,,,0,40,40,18,,,,,,,,,,,,,,,,,,,,,moral_self_bias,06,20,60.0283088672,f,001,2018_Apr_02_1228,
,,,,,,,,,,,,,,,,,,,,,3*2= ?,,,,,,,,,,,,,,,,,,,,0,41,41,53,,,,,,,,,,,,,,,,,,,,,moral_self_bias,06,20,60.0283088672,f,001,2018_Apr_02_1228,
,,,,,,,,,,,,,,,,,,,,,49/7 = ?,,,,,,,,,,,,,,,,,,,,0,42,42,78,,,,,,,,,,,,,,,,,,,,,moral_self_bias,06,20,60.0283088672,f,001,2018_Apr_02_1228,
,,,,,,,,,,,,,,,,,,,,,1-1= ?,,,,,,,,,,,,,,,,,,,,0,43,43,52,,,,,,,,,,,,,,,,,,,,,moral_self_bias,06,20,60.0283088672,f,001,2018_Apr_02_1228,
,,,,,,,,,,,,,,,,,,,,,7*1= ?,,,,,,,,,,,,,,,,,,,,0,44,44,113,,,,,,,,,,,,,,,,,,,,,moral_self_bias,06,20,60.0283088672,f,001,2018_Apr_02_1228,
,,,,,,,,,,,,,,,,,,,,,3^2= ?,,,,,,,,,,,,,,,,,,,,0,45,45,50,,,,,,,,,,,,,,,,,,,,,moral_self_bias,06,20,60.0283088672,f,001,2018_Apr_02_1228,
,,,,,,,,,,,,,,,,,,,,,9-6= ?,,,,,,,,,,,,,,,,,,,,0,46,46,24,,,,,,,,,,,,,,,,,,,,,moral_self_bias,06,20,60.0283088672,f,001,2018_Apr_02_1228,
,,,,,,,,,,,,,,,,,,,,,19-17= ?,,,,,,,,,,,,,,,,,,,,0,47,47,100,,,,,,,,,,,,,,,,,,,,,moral_self_bias,06,20,60.0283088672,f,001,2018_Apr_02_1228,
,,,,,,,,,,,,,,,,,,,,,2*4= ?,,,,,,,,,,,,,,,,,,,,0,48,48,84,,,,,,,,,,,,,,,,,,,,,moral_self_bias,06,20,60.0283088672,f,001,2018_Apr_02_1228,
,,,,,,,,,,,,,,,,,,,,,5+3= ?,,,,,,,,,,,,,,,,,,,,0,49,49,36,,,,,,,,,,,,,,,,,,,,,moral_self_bias,06,20,60.0283088672,f,001,2018_Apr_02_1228,
,,,,,,,,,,,,,,,,,,,,,20/5=？,,,,,,,,,,,,,,,,,,,,0,50,50,69,,,,,,,,,,,,,,,,,,,,,moral_self_bias,06,20,60.0283088672,f,001,2018_Apr_02_1228,
,,,,,,,,,,,,,,,,,,,,,6*0= ?,,,,,,,,,,,,,,,,,,,,0,51,51,87,,,,,,,,,,,,,,,,,,,,,moral_self_bias,06,20,60.0283088672,f,001,2018_Apr_02_1228,
,,,,,,,,,,,,,,,,,,,,,29-27= ?,,,,,,,,,,,,,,,,,,,,0,52,52,72,,,,,,,,,,,,,,,,,,,,,moral_self_bias,06,20,60.0283088672,f,001,2018_Apr_02_1228,
,,,,,,,,,,,,,,,,,,,,,12/4= ?,,,,,,,,,,,,,,,,,,,,0,53,53,89,,,,,,,,,,,,,,,,,,,,,moral_self_bias,06,20,60.0283088672,f,001,2018_Apr_02_1228,
,,,,,,,,,,,,,,,,,,,,,1+6= ?,,,,,,,,,,,,,,,,,,,,0,54,54,5,,,,,,,,,,,,,,,,,,,,,moral_self_bias,06,20,60.0283088672,f,001,2018_Apr_02_1228,
,,,,,,,,,,,,,,,,,,,,,1+1= ?,,,,,,,,,,,,,,,,,,,,0,55,55,0,,,,,,,,,,,,,,,,,,,,,moral_self_bias,06,20,60.0283088672,f,001,2018_Apr_02_1228,
,,,,,,,,,,,,,,,,,,,,,9-8= ?,,,,,,,,,,,,,,,,,,,,0,56,56,31,,,,,,,,,,,,,,,,,,,,,moral_self_bias,06,20,60.0283088672,f,001,2018_Apr_02_1228,
,,,,,,,,,,,,,,,,,,,,,2^2= ?,,,,,,,,,,,,,,,,,,,,0,57,57,49,,,,,,,,,,,,,,,,,,,,,moral_self_bias,06,20,60.0283088672,f,001,2018_Apr_02_1228,
,,,,,,,,,,,,,,,,,,,,,3+5= ?,,,,,,,,,,,,,,,,,,,,0,58,58,20,,,,,,,,,,,,,,,,,,,,,moral_self_bias,06,20,60.0283088672,f,001,2018_Apr_02_1228,
,,,,,,,,,,,,,,,,,,,,,3+2= ?,,,,,,,,,,,,,,,,,,,,0,59,59,17,,,,,,,,,,,,,,,,,,,,,moral_self_bias,06,20,60.0283088672,f,001,2018_Apr_02_1228,
,,,,,,,,,,,,,,,,,,,,,9-3= ?,,,,,,,,,,,,,,,,,,,,0,60,60,15,,,,,,,,,,,,,,,,,,,,,moral_self_bias,06,20,60.0283088672,f,001,2018_Apr_02_1228,
,,,,,,,,,,,,,,,,,,,,,1^2= ?,,,,,,,,,,,,,,,,,,,,0,61,61,51,,,,,,,,,,,,,,,,,,,,,moral_self_bias,06,20,60.0283088672,f,001,2018_Apr_02_1228,
,,,,,,,,,,,,,,,,,,,,,90/45= ?,,,,,,,,,,,,,,,,,,,,0,62,62,74,,,,,,,,,,,,,,,,,,,,,moral_self_bias,06,20,60.0283088672,f,001,2018_Apr_02_1228,
,,,,,,,,,,,,,,,,,,,,,3+1= ?,,,,,,,,,,,,,,,,,,,,0,63,63,16,,,,,,,,,,,,,,,,,,,,,moral_self_bias,06,20,60.0283088672,f,001,2018_Apr_02_1228,
,,,,,,,,,,,,,,,,,,,,,13-5= ?,,,,,,,,,,,,,,,,,,,,0,64,64,98,,,,,,,,,,,,,,,,,,,,,moral_self_bias,06,20,60.0283088672,f,001,2018_Apr_02_1228,
,,,,,,,,,,,,,,,,,,,,,3*3= ?,,,,,,,,,,,,,,,,,,,,0,65,65,54,,,,,,,,,,,,,,,,,,,,,moral_self_bias,06,20,60.0283088672,f,001,2018_Apr_02_1228,
,,,,,,,,,,,,,,,,,,,,,18/2= ?,,,,,,,,,,,,,,,,,,,,0,66,66,97,,,,,,,,,,,,,,,,,,,,,moral_self_bias,06,20,60.0283088672,f,001,2018_Apr_02_1228,
,,,,,,,,,,,,,,,,,,,,,4+3= ?,,,,,,,,,,,,,,,,,,,,0,67,67,27,,,,,,,,,,,,,,,,,,,,,moral_self_bias,06,20,60.0283088672,f,001,2018_Apr_02_1228,
,,,,,,,,,,,,,,,,,,,,,2+6= ?,,,,,,,,,,,,,,,,,,,,0,68,68,12,,,,,,,,,,,,,,,,,,,,,moral_self_bias,06,20,60.0283088672,f,001,2018_Apr_02_1228,
,,,,,,,,,,,,,,,,,,,,,12-5=？,,,,,,,,,,,,,,,,,,,,0,69,69,65,,,,,,,,,,,,,,,,,,,,,moral_self_bias,06,20,60.0283088672,f,001,2018_Apr_02_1228,
,,,,,,,,,,,,,,,,,,,,,9-2= ?,,,,,,,,,,,,,,,,,,,,0,70,70,14,,,,,,,,,,,,,,,,,,,,,moral_self_bias,06,20,60.0283088672,f,001,2018_Apr_02_1228,
,,,,,,,,,,,,,,,,,,,,,1*8= ?,,,,,,,,,,,,,,,,,,,,0,71,71,110,,,,,,,,,,,,,,,,,,,,,moral_self_bias,06,20,60.0283088672,f,001,2018_Apr_02_1228,
,,,,,,,,,,,,,,,,,,,,,2+5= ?,,,,,,,,,,,,,,,,,,,,0,72,72,11,,,,,,,,,,,,,,,,,,,,,moral_self_bias,06,20,60.0283088672,f,001,2018_Apr_02_1228,
,,,,,,,,,,,,,,,,,,,,,8-4= ?,,,,,,,,,,,,,,,,,,,,0,73,73,40,,,,,,,,,,,,,,,,,,,,,moral_self_bias,06,20,60.0283088672,f,001,2018_Apr_02_1228,
,,,,,,,,,,,,,,,,,,,,,1+7= ?,,,,,,,,,,,,,,,,,,,,0,74,74,4,,,,,,,,,,,,,,,,,,,,,moral_self_bias,06,20,60.0283088672,f,001,2018_Apr_02_1228,
,,,,,,,,,,,,,,,,,,,,,7*0= ?,,,,,,,,,,,,,,,,,,,,0,75,75,88,,,,,,,,,,,,,,,,,,,,,moral_self_bias,06,20,60.0283088672,f,001,2018_Apr_02_1228,
,,,,,,,,,,,,,,,,,,,,,5+4= ?,,,,,,,,,,,,,,,,,,,,0,76,76,37,,,,,,,,,,,,,,,,,,,,,moral_self_bias,06,20,60.0283088672,f,001,2018_Apr_02_1228,
,,,,,,,,,,,,,,,,,,,,,6/2= ?,,,,,,,,,,,,,,,,,,,,0,77,77,58,,,,,,,,,,,,,,,,,,,,,moral_self_bias,06,20,60.0283088672,f,001,2018_Apr_02_1228,
,,,,,,,,,,,,,,,,,,,,,14-9=？,,,,,,,,,,,,,,,,,,,,0,78,78,63,,,,,,,,,,,,,,,,,,,,,moral_self_bias,06,20,60.0283088672,f,001,2018_Apr_02_1228,
,,,,,,,,,,,,,,,,,,,,,8-5= ?,,,,,,,,,,,,,,,,,,,,0,79,79,41,,,,,,,,,,,,,,,,,,,,,moral_self_bias,06,20,60.0283088672,f,001,2018_Apr_02_1228,
,,,,,,,,,,,,,,,,,,,,,5-3= ?,,,,,,,,,,,,,,,,,,,,0,80,80,116,,,,,,,,,,,,,,,,,,,,,moral_self_bias,06,20,60.0283088672,f,001,2018_Apr_02_1228,
,,,,,,,,,,,,,,,,,,,,,2*3= ?,,,,,,,,,,,,,,,,,,,,0,81,81,108,,,,,,,,,,,,,,,,,,,,,moral_self_bias,06,20,60.0283088672,f,001,2018_Apr_02_1228,
,,,,,,,,,,,,,,,,,,,,,10-9= ?,,,,,,,,,,,,,,,,,,,,0,82,82,112,,,,,,,,,,,,,,,,,,,,,moral_self_bias,06,20,60.0283088672,f,001,2018_Apr_02_1228,
,,,,,,,,,,,,,,,,,,,,,10-5=？,,,,,,,,,,,,,,,,,,,,0,83,83,67,,,,,,,,,,,,,,,,,,,,,moral_self_bias,06,20,60.0283088672,f,001,2018_Apr_02_1228,
,,,,,,,,,,,,,,,,,,,,,56/7= ?,,,,,,,,,,,,,,,,,,,,0,84,84,77,,,,,,,,,,,,,,,,,,,,,moral_self_bias,06,20,60.0283088672,f,001,2018_Apr_02_1228,
,,,,,,,,,,,,,,,,,,,,,11-3=？,,,,,,,,,,,,,,,,,,,,0,85,85,68,,,,,,,,,,,,,,,,,,,,,moral_self_bias,06,20,60.0283088672,f,001,2018_Apr_02_1228,
,,,,,,,,,,,,,,,,,,,,,11-5= ?,,,,,,,,,,,,,,,,,,,,0,86,86,107,,,,,,,,,,,,,,,,,,,,,moral_self_bias,06,20,60.0283088672,f,001,2018_Apr_02_1228,
,,,,,,,,,,,,,,,,,,,,,72/9= ?,,,,,,,,,,,,,,,,,,,,0,87,87,76,,,,,,,,,,,,,,,,,,,,,moral_self_bias,06,20,60.0283088672,f,001,2018_Apr_02_1228,
,,,,,,,,,,,,,,,,,,,,,21/3= ? ,,,,,,,,,,,,,,,,,,,,0,88,88,95,,,,,,,,,,,,,,,,,,,,,moral_self_bias,06,20,60.0283088672,f,001,2018_Apr_02_1228,
,,,,,,,,,,,,,,,,,,,,,23^0= ?,,,,,,,,,,,,,,,,,,,,0,89,89,94,,,,,,,,,,,,,,,,,,,,,moral_self_bias,06,20,60.0283088672,f,001,2018_Apr_02_1228,
,,,,,,,,,,,,,,,,,,,,,1+9= ?,,,,,,,,,,,,,,,,,,,,0,90,90,3,,,,,,,,,,,,,,,,,,,,,moral_self_bias,06,20,60.0283088672,f,001,2018_Apr_02_1228,
,,,,,,,,,,,,,,,,,,,,,3*1= ?,,,,,,,,,,,,,,,,,,,,0,91,91,83,,,,,,,,,,,,,,,,,,,,,moral_self_bias,06,20,60.0283088672,f,001,2018_Apr_02_1228,
,,,,,,,,,,,,,,,,,,,,,2+7= ?,,,,,,,,,,,,,,,,,,,,0,92,92,13,,,,,,,,,,,,,,,,,,,,,moral_self_bias,06,20,60.0283088672,f,001,2018_Apr_02_1228,
,,,,,,,,,,,,,,,,,,,,,9-5= ?,,,,,,,,,,,,,,,,,,,,0,93,93,23,,,,,,,,,,,,,,,,,,,,,moral_self_bias,06,20,60.0283088672,f,001,2018_Apr_02_1228,
,,,,,,,,,,,,,,,,,,,,,4+4= ?,,,,,,,,,,,,,,,,,,,,0,94,94,28,,,,,,,,,,,,,,,,,,,,,moral_self_bias,06,20,60.0283088672,f,001,2018_Apr_02_1228,
,,,,,,,,,,,,,,,,,,,,,9/3= ?,,,,,,,,,,,,,,,,,,,,0,95,95,56,,,,,,,,,,,,,,,,,,,,,moral_self_bias,06,20,60.0283088672,f,001,2018_Apr_02_1228,
,,,,,,,,,,,,,,,,,,,,,16-11=？,,,,,,,,,,,,,,,,,,,,0,96,96,62,,,,,,,,,,,,,,,,,,,,,moral_self_bias,06,20,60.0283088672,f,001,2018_Apr_02_1228,
,,,,,,,,,,,,,,,,,,,,,6+1= ?,,,,,,,,,,,,,,,,,,,,0,97,97,43,,,,,,,,,,,,,,,,,,,,,moral_self_bias,06,20,60.0283088672,f,001,2018_Apr_02_1228,
,,,,,,,,,,,,,,,,,,,,,32-23=？,,,,,,,,,,,,,,,,,,,,0,98,98,60,,,,,,,,,,,,,,,,,,,,,moral_self_bias,06,20,60.0283088672,f,001,2018_Apr_02_1228,
,,,,,,,,,,,,,,,,,,,,,11-8= ?,,,,,,,,,,,,,,,,,,,,0,99,99,106,,,,,,,,,,,,,,,,,,,,,moral_self_bias,06,20,60.0283088672,f,001,2018_Apr_02_1228,
,,,,,,,,,,,,,,,,,,,,,11-11= ?,,,,,,,,,,,,,,,,,,,,0,100,100,119,,,,,,,,,,,,,,,,,,,,,moral_self_bias,06,20,60.0283088672,f,001,2018_Apr_02_1228,
,,,,,,,,,,,,,,,,,,,,,7+1= ?,,,,,,,,,,,,,,,,,,,,0,101,101,46,,,,,,,,,,,,,,,,,,,,,moral_self_bias,06,20,60.0283088672,f,001,2018_Apr_02_1228,
,,,,,,,,,,,,,,,,,,,,,7+2= ?,,,,,,,,,,,,,,,,,,,,0,102,102,47,,,,,,,,,,,,,,,,,,,,,moral_self_bias,06,20,60.0283088672,f,001,2018_Apr_02_1228,
,,,,,,,,,,,,,,,,,,,,,22-22= ?,,,,,,,,,,,,,,,,,,,,0,103,103,93,,,,,,,,,,,,,,,,,,,,,moral_self_bias,06,20,60.0283088672,f,001,2018_Apr_02_1228,
,,,,,,,,,,,,,,,,,,,,,6^0= ?,,,,,,,,,,,,,,,,,,,,0,104,104,103,,,,,,,,,,,,,,,,,,,,,moral_self_bias,06,20,60.0283088672,f,001,2018_Apr_02_1228,
,,,,,,,,,,,,,,,,,,,,,12-7= ?,,,,,,,,,,,,,,,,,,,,0,105,105,115,,,,,,,,,,,,,,,,,,,,,moral_self_bias,06,20,60.0283088672,f,001,2018_Apr_02_1228,
,,,,,,,,,,,,,,,,,,,,,9-4= ?,,,,,,,,,,,,,,,,,,,,0,106,106,22,,,,,,,,,,,,,,,,,,,,,moral_self_bias,06,20,60.0283088672,f,001,2018_Apr_02_1228,
,,,,,,,,,,,,,,,,,,,,,4*1= ?,,,,,,,,,,,,,,,,,,,,0,107,107,85,,,,,,,,,,,,,,,,,,,,,moral_self_bias,06,20,60.0283088672,f,001,2018_Apr_02_1228,
,,,,,,,,,,,,,,,,,,,,,13-6=？,,,,,,,,,,,,,,,,,,,,0,108,108,64,,,,,,,,,,,,,,,,,,,,,moral_self_bias,06,20,60.0283088672,f,001,2018_Apr_02_1228,
,,,,,,,,,,,,,,,,,,,,,7-0= ?,,,,,,,,,,,,,,,,,,,,0,109,109,117,,,,,,,,,,,,,,,,,,,,,moral_self_bias,06,20,60.0283088672,f,001,2018_Apr_02_1228,
,,,,,,,,,,,,,,,,,,,,,1+8= ?,,,,,,,,,,,,,,,,,,,,0,110,110,6,,,,,,,,,,,,,,,,,,,,,moral_self_bias,06,20,60.0283088672,f,001,2018_Apr_02_1228,
,,,,,,,,,,,,,,,,,,,,,1*9= ?,,,,,,,,,,,,,,,,,,,,0,111,111,109,,,,,,,,,,,,,,,,,,,,,moral_self_bias,06,20,60.0283088672,f,001,2018_Apr_02_1228,
,,,,,,,,,,,,,,,,,,,,,21/7= ?,,,,,,,,,,,,,,,,,,,,0,112,112,70,,,,,,,,,,,,,,,,,,,,,moral_self_bias,06,20,60.0283088672,f,001,2018_Apr_02_1228,
,,,,,,,,,,,,,,,,,,,,,81/9= ?,,,,,,,,,,,,,,,,,,,,0,113,113,75,,,,,,,,,,,,,,,,,,,,,moral_self_bias,06,20,60.0283088672,f,001,2018_Apr_02_1228,
,,,,,,,,,,,,,,,,,,,,,5+1= ?,,,,,,,,,,,,,,,,,,,,0,114,114,34,,,,,,,,,,,,,,,,,,,,,moral_self_bias,06,20,60.0283088672,f,001,2018_Apr_02_1228,
,,,,,,,,,,,,,,,,,,,,,12/12= ?,,,,,,,,,,,,,,,,,,,,0,115,115,91,,,,,,,,,,,,,,,,,,,,,moral_self_bias,06,20,60.0283088672,f,001,2018_Apr_02_1228,
,,,,,,,,,,,,,,,,,,,,,12/6= ?,,,,,,,,,,,,,,,,,,,,0,116,116,90,,,,,,,,,,,,,,,,,,,,,moral_self_bias,06,20,60.0283088672,f,001,2018_Apr_02_1228,
,,,,,,,,,,,,,,,,,,,,,8-1= ?,,,,,,,,,,,,,,,,,,,,0,117,117,33,,,,,,,,,,,,,,,,,,,,,moral_self_bias,06,20,60.0283088672,f,001,2018_Apr_02_1228,
,,,,,,,,,,,,,,,,,,,,,5+2= ?,,,,,,,,,,,,,,,,,,,,0,118,118,35,,,,,,,,,,,,,,,,,,,,,moral_self_bias,06,20,60.0283088672,f,001,2018_Apr_02_1228,
,,,,,,,,,,,,,,,,,,,,,11-4=？,,,,,,,,,,,,,,,,,,,,0,119,119,66,,,,,,,,,,,,,,,,,,,,,moral_self_bias,06,20,60.0283088672,f,001,2018_Apr_02_1228,
,,,,,,,,,,,,,,,,,,,,,,,,,,,,,,,,,,,,,,,,,,,,,,,,,,,,,,,,,3,12.8596208096,,,,,,,moral_self_bias,06,20,60.0283088672,f,001,2018_Apr_02_1228,
,,,,,,,,,,,,,,,,,,,,,,material/102.png,1,善心,material/2.png,1,material/2.png,善心,1,j,j,j,1,1,1,爱心,,,,,,,,,0,0,0,1,0,0,0,0,,,,,,,f,0,15.0255379677,j,0,2.87497019768,moral_self_bias,06,20,60.0283088672,f,001,2018_Apr_02_1228,
,,,,,,,,,,,,,,,,,,,,,,material/102.png,1,善心,material/2.png,1,material/2.png,善心,1,j,j,j,1,1,1,爱心,,,,,,,,,0,0,0,1,,,,,,,,,,,,,,,,,moral_self_bias,06,20,60.0283088672,f,001,2018_Apr_02_1228,
,,,,,,,,,,,,,,,,,,,,,,material/66.png,1,独立,material/66.png,1,material/165.png,正义,1,f,f,f,1,1,1,正义,,,,,,,,,0,1,1,164,0,0,0,0,,,,,,,f,1,2.85745000839,f,1,0.675564050674,moral_self_bias,06,20,60.0283088672,f,001,2018_Apr_02_1228,
,,,,,,,,,,,,,,,,,,,,,,material/66.png,1,独立,material/66.png,1,material/165.png,正义,1,f,f,f,1,1,1,正义,,,,,,,,,0,1,1,164,,,,,,,,,,,,,,,,,moral_self_bias,06,20,60.0283088672,f,001,2018_Apr_02_1228,
,,,,,,,,,,,,,,,,,,,,,,material/52.png,2,拖延,material/152.png,2,material/52.png,缓慢,2,f,f,f,2,2,2,拖延,,,,,,,,,0,2,2,131,0,0,0,0,,,,,,,f,1,2.19212388992,j,0,3.2746348381,moral_self_bias,06,20,60.0283088672,f,001,2018_Apr_02_1228,
,,,,,,,,,,,,,,,,,,,,,,material/52.png,2,拖延,material/152.png,2,material/52.png,缓慢,2,f,f,f,2,2,2,拖延,,,,,,,,,0,2,2,131,,,,,,,,,,,,,,,,,moral_self_bias,06,20,60.0283088672,f,001,2018_Apr_02_1228,
,,,,,,,,,,,,,,,,,,,,,,material/25.png,1,果断,material/125.png,1,material/25.png,果敢,1,f,f,f,2,2,2,果断,,,,,,,,,0,3,3,104,,,,,,,,,,,j,0,3.8410718441,,,,moral_self_bias,06,20,60.0283088672,f,001,2018_Apr_02_1228,
,,,,,,,,,,,,,,,,,,,,,,material/177.png,2,谄媚,material/72.png,2,material/72.png,谄媚,2,j,j,j,1,1,1,恶心,,,,,,,,,0,4,4,69,,,,,,,,,,,j,1,1.22464203835,,,,moral_self_bias,06,20,60.0283088672,f,001,2018_Apr_02_1228,
,,,,,,,,,,,,,,,,,,,,,,material/153.png,2,迟钝,material/53.png,2,material/153.png,迟缓,2,j,j,j,2,2,2,迟钝,,,,,,,,,0,5,5,52,0,0,0,0,,,,,,,f,0,2.17561292648,f,1,1.32540297508,moral_self_bias,06,20,60.0283088672,f,001,2018_Apr_02_1228,
,,,,,,,,,,,,,,,,,,,,,,material/153.png,2,迟钝,material/53.png,2,material/153.png,迟缓,2,j,j,j,2,2,2,迟钝,,,,,,,,,0,5,5,52,,,,,,,,,,,,,,,,,moral_self_bias,06,20,60.0283088672,f,001,2018_Apr_02_1228,
,,,,,,,,,,,,,,,,,,,,,,material/61.png,1,仗义,material/65.png,1,material/166.png,谦虚,1,j,j,j,1,1,1,平等,,,,,,,,,0,6,6,64,0,0,0,0,,,,,,,f,0,2.25841212273,f,1,0.624992847443,moral_self_bias,06,20,60.0283088672,f,001,2018_Apr_02_1228,
,,,,,,,,,,,,,,,,,,,,,,material/61.png,1,仗义,material/65.png,1,material/166.png,谦虚,1,j,j,j,1,1,1,平等,,,,,,,,,0,6,6,64,,,,,,,,,,,,,,,,,moral_self_bias,06,20,60.0283088672,f,001,2018_Apr_02_1228,
,,,,,,,,,,,,,,,,,,,,,,material/46.png,2,自私,material/146.png,2,material/146.png,自私,2,f,f,f,1,1,1,小气,,,,,,,,,0,7,7,125,0,0,0,0,,,,,,,f,1,1.40848398209,j,0,0.524790048599,moral_self_bias,06,20,60.0283088672,f,001,2018_Apr_02_1228,
,,,,,,,,,,,,,,,,,,,,,,material/46.png,2,自私,material/146.png,2,material/146.png,自私,2,f,f,f,1,1,1,小气,,,,,,,,,0,7,7,125,,,,,,,,,,,,,,,,,moral_self_bias,06,20,60.0283088672,f,001,2018_Apr_02_1228,
,,,,,,,,,,,,,,,,,,,,,,material/73.png,2,恶心,material/177.png,2,material/177.png,恶心,2,f,f,f,1,1,1,残虐,,,,,,,,,0,8,8,156,0,0,0,0,,,,,,,f,1,1.19060206413,f,1,0.392629861832,moral_self_bias,06,20,60.0283088672,f,001,2018_Apr_02_1228,
,,,,,,,,,,,,,,,,,,,,,,material/73.png,2,恶心,material/177.png,2,material/177.png,恶心,2,f,f,f,1,1,1,残虐,,,,,,,,,0,8,8,156,,,,,,,,,,,,,,,,,moral_self_bias,06,20,60.0283088672,f,001,2018_Apr_02_1228,
,,,,,,,,,,,,,,,,,,,,,,material/75.png,2,卑劣,material/74.png,2,material/74.png,卑劣,2,j,j,j,1,1,1,害人,,,,,,,,,0,9,9,70,0,0,0,0,,,,,,,f,0,0.766459941864,j,0,1.00848293304,moral_self_bias,06,20,60.0283088672,f,001,2018_Apr_02_1228,
,,,,,,,,,,,,,,,,,,,,,,material/75.png,2,卑劣,material/74.png,2,material/74.png,卑劣,2,j,j,j,1,1,1,害人,,,,,,,,,0,9,9,70,,,,,,,,,,,,,,,,,moral_self_bias,06,20,60.0283088672,f,001,2018_Apr_02_1228,
,,,,,,,,,,,,,,,,,,,,,,material/64.png,1,谦虚,material/165.png,1,material/65.png,独立,1,f,f,f,1,1,1,奉献,,,,,,,,,0,10,10,144,0,0,0,0,,,,,,,f,1,1.15795207024,f,1,0.325609922409,moral_self_bias,06,20,60.0283088672,f,001,2018_Apr_02_1228,
,,,,,,,,,,,,,,,,,,,,,,material/64.png,1,谦虚,material/165.png,1,material/65.png,独立,1,f,f,f,1,1,1,奉献,,,,,,,,,0,10,10,144,,,,,,,,,,,,,,,,,moral_self_bias,06,20,60.0283088672,f,001,2018_Apr_02_1228,
,,,,,,,,,,,,,,,,,,,,,,material/9.png,1,正直,material/109.png,1,material/109.png,正直,1,f,f,f,1,1,1,秉直,,,,,,,,,0,11,11,88,0,0,0,0,,,,,,,f,1,1.12527179718,j,0,0.592614889145,moral_self_bias,06,20,60.0283088672,f,001,2018_Apr_02_1228,
,,,,,,,,,,,,,,,,,,,,,,material/9.png,1,正直,material/109.png,1,material/109.png,正直,1,f,f,f,1,1,1,秉直,,,,,,,,,0,11,11,88,,,,,,,,,,,,,,,,,moral_self_bias,06,20,60.0283088672,f,001,2018_Apr_02_1228,
,,,,,,,,,,,,,,,,,,,,,,material/133.png,2,腐败,material/33.png,2,material/33.png,腐败,2,j,j,j,1,1,1,贪污,,,,,,,,,0,12,12,32,,,,,,,,,,,j,1,1.42492318153,,,,moral_self_bias,06,20,60.0283088672,f,001,2018_Apr_02_1228,
,,,,,,,,,,,,,,,,,,,,,,material/16.png,1,睿智,material/116.png,1,material/16.png,机智,1,f,f,f,2,2,2,睿智,,,,,,,,,0,13,13,95,0,0,0,0,,,,,,,f,1,1.62360405922,j,0,0.725679159164,moral_self_bias,06,20,60.0283088672,f,001,2018_Apr_02_1228,
,,,,,,,,,,,,,,,,,,,,,,material/16.png,1,睿智,material/116.png,1,material/16.png,机智,1,f,f,f,2,2,2,睿智,,,,,,,,,0,13,13,95,,,,,,,,,,,,,,,,,moral_self_bias,06,20,60.0283088672,f,001,2018_Apr_02_1228,
,,,,,,,,,,,,,,,,,,,,,,material/21.png,1,干练,material/121.png,1,material/21.png,精干,1,f,f,f,2,2,2,干练,,,,,,,,,0,14,14,100,,,,,,,,,,,j,0,1.32437896729,,,,moral_self_bias,06,20,60.0283088672,f,001,2018_Apr_02_1228,
,,,,,,,,,,,,,,,,,,,,,,material/109.png,1,秉直,material/9.png,1,material/9.png,秉直,1,j,j,j,1,1,1,正直,,,,,,,,,0,15,15,8,,,,,,,,,,,j,1,1.28289794922,,,,moral_self_bias,06,20,60.0283088672,f,001,2018_Apr_02_1228,
,,,,,,,,,,,,,,,,,,,,,,material/1.png,1,博爱,material/101.png,1,material/101.png,博爱,1,f,f,f,1,1,1,善良,,,,,,,,,0,16,16,80,0,0,0,0,,,,,,,f,1,1.40930509567,f,1,0.941401958466,moral_self_bias,06,20,60.0283088672,f,001,2018_Apr_02_1228,
,,,,,,,,,,,,,,,,,,,,,,material/1.png,1,博爱,material/101.png,1,material/101.png,博爱,1,f,f,f,1,1,1,善良,,,,,,,,,0,16,16,80,,,,,,,,,,,,,,,,,moral_self_bias,06,20,60.0283088672,f,001,2018_Apr_02_1228,
,,,,,,,,,,,,,,,,,,,,,,material/74.png,2,黑心,material/173.png,2,material/173.png,黑心,2,f,f,f,1,1,1,卑劣,,,,,,,,,0,17,17,152,0,0,0,0,,,,,,,f,1,1.40849590302,j,0,0.958528995514,moral_self_bias,06,20,60.0283088672,f,001,2018_Apr_02_1228,
,,,,,,,,,,,,,,,,,,,,,,material/74.png,2,黑心,material/173.png,2,material/173.png,黑心,2,f,f,f,1,1,1,卑劣,,,,,,,,,0,17,17,152,,,,,,,,,,,,,,,,,moral_self_bias,06,20,60.0283088672,f,001,2018_Apr_02_1228,
,,,,,,,,,,,,,,,,,,,,,,material/26.png,1,刻苦,material/126.png,1,material/26.png,勤快,1,f,f,f,2,2,2,刻苦,,,,,,,,,0,18,18,105,,,,,,,,,,,j,0,4.64114785194,,,,moral_self_bias,06,20,60.0283088672,f,001,2018_Apr_02_1228,
,,,,,,,,,,,,,,,,,,,,,,material/24.png,1,理智,material/124.png,1,material/24.png,冷静,1,f,f,f,2,2,2,理智,,,,,,,,,0,19,19,103,0,0,0,0,,,,,,,f,1,1.69113612175,f,1,1.45841193199,moral_self_bias,06,20,60.0283088672,f,001,2018_Apr_02_1228,
,,,,,,,,,,,,,,,,,,,,,,material/24.png,1,理智,material/124.png,1,material/24.png,冷静,1,f,f,f,2,2,2,理智,,,,,,,,,0,19,19,103,,,,,,,,,,,,,,,,,moral_self_bias,06,20,60.0283088672,f,001,2018_Apr_02_1228,
,,,,,,,,,,,,,,,,,,,,,,material/114.png,1,爱国,material/14.png,1,material/14.png,爱国,1,j,j,j,1,1,1,忠贞,,,,,,,,,0,20,20,13,,,,,,,,,,,j,1,1.27495503426,,,,moral_self_bias,06,20,60.0283088672,f,001,2018_Apr_02_1228,
,,,,,,,,,,,,,,,,,,,,,,material/19.png,1,灵活,material/119.png,1,material/19.png,机灵,1,f,f,f,2,2,2,灵活,,,,,,,,,0,21,21,98,0,0,0,0,,,,,,,f,1,1.20820403099,j,0,0.692071914673,moral_self_bias,06,20,60.0283088672,f,001,2018_Apr_02_1228,
,,,,,,,,,,,,,,,,,,,,,,material/19.png,1,灵活,material/119.png,1,material/19.png,机灵,1,f,f,f,2,2,2,灵活,,,,,,,,,0,21,21,98,,,,,,,,,,,,,,,,,moral_self_bias,06,20,60.0283088672,f,001,2018_Apr_02_1228,
,,,,,,,,,,,,,,,,,,,,,,material/68.png,1,广博,material/167.png,1,material/68.png,高手,1,f,f,f,2,2,2,广博,,,,,,,,,0,22,22,146,0,0,0,0,,,,,,,f,1,1.34062099457,j,0,0.441822052002,moral_self_bias,06,20,60.0283088672,f,001,2018_Apr_02_1228,
,,,,,,,,,,,,,,,,,,,,,,material/68.png,1,广博,material/167.png,1,material/68.png,高手,1,f,f,f,2,2,2,广博,,,,,,,,,0,22,22,146,,,,,,,,,,,,,,,,,moral_self_bias,06,20,60.0283088672,f,001,2018_Apr_02_1228,
,,,,,,,,,,,,,,,,,,,,,,material/30.png,1,上进,material/130.png,1,material/30.png,进取,1,f,f,f,2,2,2,上进,,,,,,,,,0,23,23,109,,,,,,,,,,,j,0,2.30753493309,,,,moral_self_bias,06,20,60.0283088672,f,001,2018_Apr_02_1228,
,,,,,,,,,,,,,,,,,,,,,,material/171.png,1,高效,material/67.png,1,material/171.png,骁勇,1,j,j,j,2,2,2,高效,,,,,,,,,0,24,24,65,,,,,,,,,,,j,1,0.991870880127,,,,moral_self_bias,06,20,60.0283088672,f,001,2018_Apr_02_1228,
,,,,,,,,,,,,,,,,,,,,,,material/176.png,2,害人,material/75.png,2,material/75.png,害人,2,j,j,j,1,1,1,放纵,,,,,,,,,0,25,25,71,,,,,,,,,,,j,1,1.20862317085,,,,moral_self_bias,06,20,60.0283088672,f,001,2018_Apr_02_1228,
,,,,,,,,,,,,,,,,,,,,,,material/57.png,2,无知,material/157.png,2,material/57.png,无能,2,f,f,f,2,2,2,无知,,,,,,,,,0,26,26,136,,,,,,,,,,,j,0,1.641477108,,,,moral_self_bias,06,20,60.0283088672,f,001,2018_Apr_02_1228,
,,,,,,,,,,,,,,,,,,,,,,material/39.png,2,恶毒,material/139.png,2,material/139.png,恶毒,2,f,f,f,1,1,1,凶残,,,,,,,,,0,27,27,118,0,0,0,0,,,,,,,f,1,0.983142852783,j,0,1.69100809097,moral_self_bias,06,20,60.0283088672,f,001,2018_Apr_02_1228,
,,,,,,,,,,,,,,,,,,,,,,material/39.png,2,恶毒,material/139.png,2,material/139.png,恶毒,2,f,f,f,1,1,1,凶残,,,,,,,,,0,27,27,118,,,,,,,,,,,,,,,,,moral_self_bias,06,20,60.0283088672,f,001,2018_Apr_02_1228,
,,,,,,,,,,,,,,,,,,,,,,material/44.png,2,爽约,material/144.png,2,material/144.png,爽约,2,f,f,f,1,1,1,失信,,,,,,,,,0,28,28,123,0,0,0,0,,,,,,,f,1,1.17467498779,j,0,0.367003917694,moral_self_bias,06,20,60.0283088672,f,001,2018_Apr_02_1228,
,,,,,,,,,,,,,,,,,,,,,,material/44.png,2,爽约,material/144.png,2,material/144.png,爽约,2,f,f,f,1,1,1,失信,,,,,,,,,0,28,28,123,,,,,,,,,,,,,,,,,moral_self_bias,06,20,60.0283088672,f,001,2018_Apr_02_1228,
,,,,,,,,,,,,,,,,,,,,,,material/11.png,1,高尚,material/111.png,1,material/111.png,高尚,1,f,f,f,1,1,1,高雅,,,,,,,,,0,29,29,90,0,0,0,0,,,,,,,f,1,2.19268107414,f,1,0.341393947601,moral_self_bias,06,20,60.0283088672,f,001,2018_Apr_02_1228,
,,,,,,,,,,,,,,,,,,,,,,material/11.png,1,高尚,material/111.png,1,material/111.png,高尚,1,f,f,f,1,1,1,高雅,,,,,,,,,0,29,29,90,,,,,,,,,,,,,,,,,moral_self_bias,06,20,60.0283088672,f,001,2018_Apr_02_1228,
,,,,,,,,,,,,,,,,,,,,,,material/71.png,1,严谨,material/68.png,1,material/71.png,广博,1,j,j,j,2,2,2,严谨,,,,,,,,,0,30,30,66,0,0,0,0,,,,,,,f,0,1.00871014595,j,0,0.358453035355,moral_self_bias,06,20,60.0283088672,f,001,2018_Apr_02_1228,
,,,,,,,,,,,,,,,,,,,,,,material/71.png,1,严谨,material/68.png,1,material/71.png,广博,1,j,j,j,2,2,2,严谨,,,,,,,,,0,30,30,66,,,,,,,,,,,,,,,,,moral_self_bias,06,20,60.0283088672,f,001,2018_Apr_02_1228,
,,,,,,,,,,,,,,,,,,,,,,material/80.png,2,才尽,material/83.png,2,material/182.png,呆笨,2,j,j,j,2,2,2,健忘,,,,,,,,,0,31,31,79,0,0,0,0,,,,,,,f,0,1.10792922974,j,0,0.358975172043,moral_self_bias,06,20,60.0283088672,f,001,2018_Apr_02_1228,
,,,,,,,,,,,,,,,,,,,,,,material/80.png,2,才尽,material/83.png,2,material/182.png,呆笨,2,j,j,j,2,2,2,健忘,,,,,,,,,0,31,31,79,,,,,,,,,,,,,,,,,moral_self_bias,06,20,60.0283088672,f,001,2018_Apr_02_1228,
,,,,,,,,,,,,,,,,,,,,,,material/67.png,1,骁勇,material/70.png,1,material/67.png,全面,1,j,j,j,2,2,2,骁勇,,,,,,,,,0,32,32,67,0,0,0,0,,,,,,,f,0,1.54189014435,j,0,0.607665061951,moral_self_bias,06,20,60.0283088672,f,001,2018_Apr_02_1228,
,,,,,,,,,,,,,,,,,,,,,,material/67.png,1,骁勇,material/70.png,1,material/67.png,全面,1,j,j,j,2,2,2,骁勇,,,,,,,,,0,32,32,67,,,,,,,,,,,,,,,,,moral_self_bias,06,20,60.0283088672,f,001,2018_Apr_02_1228,
,,,,,,,,,,,,,,,,,,,,,,material/107.png,1,公正,material/7.png,1,material/7.png,公正,1,j,j,j,1,1,1,公平,,,,,,,,,0,33,33,6,0,0,0,0,,,,,,,f,0,2.49222278595,j,0,0.242977142334,moral_self_bias,06,20,60.0283088672,f,001,2018_Apr_02_1228,
,,,,,,,,,,,,,,,,,,,,,,material/107.png,1,公正,material/7.png,1,material/7.png,公正,1,j,j,j,1,1,1,公平,,,,,,,,,0,33,33,6,,,,,,,,,,,,,,,,,moral_self_bias,06,20,60.0283088672,f,001,2018_Apr_02_1228,
,,,,,,,,,,,,,,,,,,,,,,material/135.png,2,冷漠,material/35.png,2,material/35.png,冷漠,2,j,j,j,1,1,1,冷血,,,,,,,,,0,34,34,34,,,,,,,,,,,j,1,1.62510800362,,,,moral_self_bias,06,20,60.0283088672,f,001,2018_Apr_02_1228,
,,,,,,,,,,,,,,,,,,,,,,material/35.png,2,冷血,material/135.png,2,material/135.png,冷血,2,f,f,f,1,1,1,冷漠,,,,,,,,,0,35,35,114,0,0,0,0,,,,,,,f,1,2.85895395279,f,1,0.19090294838,moral_self_bias,06,20,60.0283088672,f,001,2018_Apr_02_1228,
,,,,,,,,,,,,,,,,,,,,,,material/35.png,2,冷血,material/135.png,2,material/135.png,冷血,2,f,f,f,1,1,1,冷漠,,,,,,,,,0,35,35,114,,,,,,,,,,,,,,,,,moral_self_bias,06,20,60.0283088672,f,001,2018_Apr_02_1228,
,,,,,,,,,,,,,,,,,,,,,,material/158.png,2,浅薄,material/58.png,2,material/158.png,肤浅,2,j,j,j,2,2,2,浅薄,,,,,,,,,0,36,36,57,0,0,0,0,,,,,,,f,0,1.2084171772,j,0,0.324959993362,moral_self_bias,06,20,60.0283088672,f,001,2018_Apr_02_1228,
,,,,,,,,,,,,,,,,,,,,,,material/158.png,2,浅薄,material/58.png,2,material/158.png,肤浅,2,j,j,j,2,2,2,浅薄,,,,,,,,,0,36,36,57,,,,,,,,,,,,,,,,,moral_self_bias,06,20,60.0283088672,f,001,2018_Apr_02_1228,
,,,,,,,,,,,,,,,,,,,,,,material/58.png,2,肤浅,material/158.png,2,material/58.png,浅薄,2,f,f,f,2,2,2,肤浅,,,,,,,,,0,37,37,137,0,0,0,0,,,,,,,f,1,1.20838093758,j,0,0.508618831635,moral_self_bias,06,20,60.0283088672,f,001,2018_Apr_02_1228,
,,,,,,,,,,,,,,,,,,,,,,material/58.png,2,肤浅,material/158.png,2,material/58.png,浅薄,2,f,f,f,2,2,2,肤浅,,,,,,,,,0,37,37,137,,,,,,,,,,,,,,,,,moral_self_bias,06,20,60.0283088672,f,001,2018_Apr_02_1228,
,,,,,,,,,,,,,,,,,,,,,,material/50.png,2,愚笨,material/150.png,2,material/50.png,鲁钝,2,f,f,f,2,2,2,愚笨,,,,,,,,,0,38,38,129,,,,,,,,,,,j,0,1.57404494286,,,,moral_self_bias,06,20,60.0283088672,f,001,2018_Apr_02_1228,
,,,,,,,,,,,,,,,,,,,,,,material/182.png,2,健忘,material/184.png,2,material/80.png,厌学,2,f,f,f,2,2,2,才尽,,,,,,,,,0,39,39,163,0,0,0,0,,,,,,,f,1,2.94949007034,f,1,0.907810211182,moral_self_bias,06,20,60.0283088672,f,001,2018_Apr_02_1228,
,,,,,,,,,,,,,,,,,,,,,,material/182.png,2,健忘,material/184.png,2,material/80.png,厌学,2,f,f,f,2,2,2,才尽,,,,,,,,,0,39,39,163,,,,,,,,,,,,,,,,,moral_self_bias,06,20,60.0283088672,f,001,2018_Apr_02_1228,
,,,,,,,,,,,,,,,,,,,,,,material/184.png,2,草率,material/80.png,2,material/78.png,健忘,2,j,j,j,2,2,2,厌学,,,,,,,,,0,40,40,76,0,0,0,0,,,,,,,f,0,1.08332395554,j,0,0.323762178421,moral_self_bias,06,20,60.0283088672,f,001,2018_Apr_02_1228,
,,,,,,,,,,,,,,,,,,,,,,material/184.png,2,草率,material/80.png,2,material/78.png,健忘,2,j,j,j,2,2,2,厌学,,,,,,,,,0,40,40,76,,,,,,,,,,,,,,,,,moral_self_bias,06,20,60.0283088672,f,001,2018_Apr_02_1228,
,,,,,,,,,,,,,,,,,,,,,,material/23.png,1,有才,material/123.png,1,material/23.png,多才,1,f,f,f,2,2,2,有才,,,,,,,,,0,41,41,102,0,0,0,0,,,,,,,f,1,1.34243798256,j,0,0.517982006073,moral_self_bias,06,20,60.0283088672,f,001,2018_Apr_02_1228,
,,,,,,,,,,,,,,,,,,,,,,material/23.png,1,有才,material/123.png,1,material/23.png,多才,1,f,f,f,2,2,2,有才,,,,,,,,,0,41,41,102,,,,,,,,,,,,,,,,,moral_self_bias,06,20,60.0283088672,f,001,2018_Apr_02_1228,
,,,,,,,,,,,,,,,,,,,,,,material/65.png,1,勇敢,material/61.png,1,material/161.png,平等,1,j,j,j,1,1,1,谦虚,,,,,,,,,0,42,42,60,0,0,0,0,,,,,,,f,0,1.24223017693,j,0,0.274523973465,moral_self_bias,06,20,60.0283088672,f,001,2018_Apr_02_1228,
,,,,,,,,,,,,,,,,,,,,,,material/65.png,1,勇敢,material/61.png,1,material/161.png,平等,1,j,j,j,1,1,1,谦虚,,,,,,,,,0,42,42,60,,,,,,,,,,,,,,,,,moral_self_bias,06,20,60.0283088672,f,001,2018_Apr_02_1228,
,,,,,,,,,,,,,,,,,,,,,,material/51.png,2,糊涂,material/151.png,2,material/51.png,迷糊,2,f,f,f,2,2,2,糊涂,,,,,,,,,0,43,43,130,0,0,0,0,,,,,,,f,1,2.32497596741,j,0,0.525327920914,moral_self_bias,06,20,60.0283088672,f,001,2018_Apr_02_1228,
,,,,,,,,,,,,,,,,,,,,,,material/51.png,2,糊涂,material/151.png,2,material/51.png,迷糊,2,f,f,f,2,2,2,糊涂,,,,,,,,,0,43,43,130,,,,,,,,,,,,,,,,,moral_self_bias,06,20,60.0283088672,f,001,2018_Apr_02_1228,
,,,,,,,,,,,,,,,,,,,,,,material/159.png,2,弱智,material/59.png,2,material/159.png,智障,2,j,j,j,2,2,2,弱智,,,,,,,,,0,44,44,58,0,0,0,0,,,,,,,f,0,0.974816083908,f,1,0.22487616539,moral_self_bias,06,20,60.0283088672,f,001,2018_Apr_02_1228,
,,,,,,,,,,,,,,,,,,,,,,material/159.png,2,弱智,material/59.png,2,material/159.png,智障,2,j,j,j,2,2,2,弱智,,,,,,,,,0,44,44,58,,,,,,,,,,,,,,,,,moral_self_bias,06,20,60.0283088672,f,001,2018_Apr_02_1228,
,,,,,,,,,,,,,,,,,,,,,,material/123.png,1,多才,material/23.png,1,material/123.png,有才,1,j,j,j,2,2,2,多才,,,,,,,,,0,45,45,22,0,0,0,0,,,,,,,f,0,2.99156212807,j,0,0.342377901077,moral_self_bias,06,20,60.0283088672,f,001,2018_Apr_02_1228,
,,,,,,,,,,,,,,,,,,,,,,material/123.png,1,多才,material/23.png,1,material/123.png,有才,1,j,j,j,2,2,2,多才,,,,,,,,,0,45,45,22,,,,,,,,,,,,,,,,,moral_self_bias,06,20,60.0283088672,f,001,2018_Apr_02_1228,
,,,,,,,,,,,,,,,,,,,,,,material/141.png,2,歹毒,material/41.png,2,material/41.png,歹毒,2,j,j,j,1,1,1,残忍,,,,,,,,,0,46,46,40,0,0,0,0,,,,,,,f,0,2.70110201836,f,1,0.224448204041,moral_self_bias,06,20,60.0283088672,f,001,2018_Apr_02_1228,
,,,,,,,,,,,,,,,,,,,,,,material/141.png,2,歹毒,material/41.png,2,material/41.png,歹毒,2,j,j,j,1,1,1,残忍,,,,,,,,,0,46,46,40,,,,,,,,,,,,,,,,,moral_self_bias,06,20,60.0283088672,f,001,2018_Apr_02_1228,
,,,,,,,,,,,,,,,,,,,,,,material/130.png,1,进取,material/30.png,1,material/130.png,上进,1,j,j,j,2,2,2,进取,,,,,,,,,0,47,47,29,,,,,,,,,,,j,1,9.09147596359,,,,moral_self_bias,06,20,60.0283088672,f,001,2018_Apr_02_1228,
,,,,,,,,,,,,,,,,,,,,,,material/134.png,2,可恨,material/34.png,2,material/34.png,可恨,2,j,j,j,1,1,1,可恶,,,,,,,,,0,48,48,33,,,,,,,,,,,j,1,1.29153323174,,,,moral_self_bias,06,20,60.0283088672,f,001,2018_Apr_02_1228,
,,,,,,,,,,,,,,,,,,,,,,material/83.png,2,差生,material/78.png,2,material/179.png,草率,2,j,j,j,2,2,2,呆笨,,,,,,,,,0,49,49,74,,,,,,,,,,,j,1,0.956701040268,,,,moral_self_bias,06,20,60.0283088672,f,001,2018_Apr_02_1228,
,,,,,,,,,,,,,,,,,,,,,,material/119.png,1,机灵,material/19.png,1,material/119.png,灵活,1,j,j,j,2,2,2,机灵,,,,,,,,,0,50,50,18,0,0,0,0,,,,,,,f,0,0.825665950775,j,0,0.841858148575,moral_self_bias,06,20,60.0283088672,f,001,2018_Apr_02_1228,
,,,,,,,,,,,,,,,,,,,,,,material/119.png,1,机灵,material/19.png,1,material/119.png,灵活,1,j,j,j,2,2,2,机灵,,,,,,,,,0,50,50,18,,,,,,,,,,,,,,,,,moral_self_bias,06,20,60.0283088672,f,001,2018_Apr_02_1228,
,,,,,,,,,,,,,,,,,,,,,,material/146.png,2,小气,material/46.png,2,material/46.png,小气,2,j,j,j,1,1,1,自私,,,,,,,,,0,51,51,45,,,,,,,,,,,j,1,1.24168300629,,,,moral_self_bias,06,20,60.0283088672,f,001,2018_Apr_02_1228,
,,,,,,,,,,,,,,,,,,,,,,material/120.png,1,能干,material/20.png,1,material/120.png,厉害,1,j,j,j,2,2,2,能干,,,,,,,,,0,52,52,19,,,,,,,,,,,j,1,1.29190897942,,,,moral_self_bias,06,20,60.0283088672,f,001,2018_Apr_02_1228,
,,,,,,,,,,,,,,,,,,,,,,material/31.png,1,笃学,material/131.png,1,material/31.png,笃行,1,f,f,f,2,2,2,笃学,,,,,,,,,0,53,53,110,0,0,0,0,,,,,,,f,1,0.907907009125,j,0,0.542406082153,moral_self_bias,06,20,60.0283088672,f,001,2018_Apr_02_1228,
,,,,,,,,,,,,,,,,,,,,,,material/31.png,1,笃学,material/131.png,1,material/31.png,笃行,1,f,f,f,2,2,2,笃学,,,,,,,,,0,53,53,110,,,,,,,,,,,,,,,,,moral_self_bias,06,20,60.0283088672,f,001,2018_Apr_02_1228,
,,,,,,,,,,,,,,,,,,,,,,material/78.png,2,厌学,material/181.png,2,material/184.png,犹豫,2,f,f,f,2,2,2,草率,,,,,,,,,0,54,54,160,0,0,0,0,,,,,,,f,1,1.14176797867,f,1,0.624698877335,moral_self_bias,06,20,60.0283088672,f,001,2018_Apr_02_1228,
,,,,,,,,,,,,,,,,,,,,,,material/78.png,2,厌学,material/181.png,2,material/184.png,犹豫,2,f,f,f,2,2,2,草率,,,,,,,,,0,54,54,160,,,,,,,,,,,,,,,,,moral_self_bias,06,20,60.0283088672,f,001,2018_Apr_02_1228,
,,,,,,,,,,,,,,,,,,,,,,material/45.png,2,小人,material/145.png,2,material/145.png,小人,2,f,f,f,1,1,1,下流,,,,,,,,,0,55,55,124,0,0,0,0,,,,,,,f,1,1.54103708267,f,1,0.0924229621887,moral_self_bias,06,20,60.0283088672,f,001,2018_Apr_02_1228,
,,,,,,,,,,,,,,,,,,,,,,material/45.png,2,小人,material/145.png,2,material/145.png,小人,2,f,f,f,1,1,1,下流,,,,,,,,,0,55,55,124,,,,,,,,,,,,,,,,,moral_self_bias,06,20,60.0283088672,f,001,2018_Apr_02_1228,
,,,,,,,,,,,,,,,,,,,,,,material/40.png,2,狠毒,material/140.png,2,material/140.png,狠毒,2,f,f,f,1,1,1,邪恶,,,,,,,,,0,56,56,119,0,0,0,0,,,,,,,f,1,3.84153795242,j,0,0.591317892075,moral_self_bias,06,20,60.0283088672,f,001,2018_Apr_02_1228,
,,,,,,,,,,,,,,,,,,,,,,material/40.png,2,狠毒,material/140.png,2,material/140.png,狠毒,2,f,f,f,1,1,1,邪恶,,,,,,,,,0,56,56,119,,,,,,,,,,,,,,,,,moral_self_bias,06,20,60.0283088672,f,001,2018_Apr_02_1228,
,,,,,,,,,,,,,,,,,,,,,,material/121.png,1,精干,material/21.png,1,material/121.png,干练,1,j,j,j,2,2,2,精干,,,,,,,,,0,57,57,20,0,0,0,0,,,,,,,f,0,0.974821090698,j,0,1.34220409393,moral_self_bias,06,20,60.0283088672,f,001,2018_Apr_02_1228,
,,,,,,,,,,,,,,,,,,,,,,material/121.png,1,精干,material/21.png,1,material/121.png,干练,1,j,j,j,2,2,2,精干,,,,,,,,,0,57,57,20,,,,,,,,,,,,,,,,,moral_self_bias,06,20,60.0283088672,f,001,2018_Apr_02_1228,
,,,,,,,,,,,,,,,,,,,,,,material/122.png,1,博学,material/22.png,1,material/122.png,才学,1,j,j,j,2,2,2,博学,,,,,,,,,0,58,58,21,,,,,,,,,,,j,1,1.15695810318,,,,moral_self_bias,06,20,60.0283088672,f,001,2018_Apr_02_1228,
,,,,,,,,,,,,,,,,,,,,,,material/147.png,2,刻板,material/47.png,2,material/147.png,死板,2,j,j,j,2,2,2,刻板,,,,,,,,,0,59,59,46,,,,,,,,,,,j,1,1.02525186539,,,,moral_self_bias,06,20,60.0283088672,f,001,2018_Apr_02_1228,
,,,,,,,,,,,,,,,,,,,,,,material/41.png,2,残忍,material/141.png,2,material/141.png,残忍,2,f,f,f,1,1,1,歹毒,,,,,,,,,0,60,60,120,0,0,0,0,,,,,,,f,1,1.25757884979,f,1,0.825870990753,moral_self_bias,06,20,60.0283088672,f,001,2018_Apr_02_1228,
,,,,,,,,,,,,,,,,,,,,,,material/41.png,2,残忍,material/141.png,2,material/141.png,残忍,2,f,f,f,1,1,1,歹毒,,,,,,,,,0,60,60,120,,,,,,,,,,,,,,,,,moral_self_bias,06,20,60.0283088672,f,001,2018_Apr_02_1228,
,,,,,,,,,,,,,,,,,,,,,,material/145.png,2,下流,material/45.png,2,material/45.png,下流,2,j,j,j,1,1,1,小人,,,,,,,,,0,61,61,44,,,,,,,,,,,j,1,1.05078196526,,,,moral_self_bias,06,20,60.0283088672,f,001,2018_Apr_02_1228,
,,,,,,,,,,,,,,,,,,,,,,material/181.png,2,怠惰,material/180.png,2,material/180.png,怠惰,2,f,f,f,2,2,2,犹豫,,,,,,,,,0,62,62,159,0,0,0,0,,,,,,,f,1,1.05723118782,j,0,0.524702072144,moral_self_bias,06,20,60.0283088672,f,001,2018_Apr_02_1228,
,,,,,,,,,,,,,,,,,,,,,,material/181.png,2,怠惰,material/180.png,2,material/180.png,怠惰,2,f,f,f,2,2,2,犹豫,,,,,,,,,0,62,62,159,,,,,,,,,,,,,,,,,moral_self_bias,06,20,60.0283088672,f,001,2018_Apr_02_1228,
,,,,,,,,,,,,,,,,,,,,,,material/129.png,1,好问,material/29.png,1,material/129.png,好学,1,j,j,j,2,2,2,好问,,,,,,,,,0,63,63,28,0,0,0,0,,,,,,,f,0,1.00484704971,j,0,0.591700077057,moral_self_bias,06,20,60.0283088672,f,001,2018_Apr_02_1228,
,,,,,,,,,,,,,,,,,,,,,,material/129.png,1,好问,material/29.png,1,material/129.png,好学,1,j,j,j,2,2,2,好问,,,,,,,,,0,63,63,28,,,,,,,,,,,,,,,,,moral_self_bias,06,20,60.0283088672,f,001,2018_Apr_02_1228,
,,,,,,,,,,,,,,,,,,,,,,material/77.png,2,浮夸,material/172.png,2,material/172.png,浮夸,2,f,f,f,1,1,1,软弱,,,,,,,,,0,64,64,151,0,0,0,0,,,,,,,f,1,1.84171009064,j,0,0.425096988678,moral_self_bias,06,20,60.0283088672,f,001,2018_Apr_02_1228,
,,,,,,,,,,,,,,,,,,,,,,material/77.png,2,浮夸,material/172.png,2,material/172.png,浮夸,2,f,f,f,1,1,1,软弱,,,,,,,,,0,64,64,151,,,,,,,,,,,,,,,,,moral_self_bias,06,20,60.0283088672,f,001,2018_Apr_02_1228,
,,,,,,,,,,,,,,,,,,,,,,material/127.png,1,超群,material/27.png,1,material/127.png,卓越,1,j,j,j,2,2,2,超群,,,,,,,,,0,65,65,26,0,0,0,0,,,,,,,f,0,1.14208197594,j,0,0.267828941345,moral_self_bias,06,20,60.0283088672,f,001,2018_Apr_02_1228,
,,,,,,,,,,,,,,,,,,,,,,material/127.png,1,超群,material/27.png,1,material/127.png,卓越,1,j,j,j,2,2,2,超群,,,,,,,,,0,65,65,26,,,,,,,,,,,,,,,,,moral_self_bias,06,20,60.0283088672,f,001,2018_Apr_02_1228,
,,,,,,,,,,,,,,,,,,,,,,material/117.png,1,聪颖,material/17.png,1,material/117.png,聪明,1,j,j,j,2,2,2,聪颖,,,,,,,,,0,66,66,16,,,,,,,,,,,j,1,3.69983100891,,,,moral_self_bias,06,20,60.0283088672,f,001,2018_Apr_02_1228,
,,,,,,,,,,,,,,,,,,,,,,material/5.png,1,诚信,material/105.png,1,material/105.png,诚信,1,f,f,f,1,1,1,守信,,,,,,,,,0,67,67,84,,,,,,,,,,,j,0,2.27424001694,,,,moral_self_bias,06,20,60.0283088672,f,001,2018_Apr_02_1228,
,,,,,,,,,,,,,,,,,,,,,,material/79.png,2,薄弱,material/81.png,2,material/183.png,无助,2,j,j,j,2,2,2,颓废,,,,,,,,,0,68,68,77,,,,,,,,,,,j,1,1.19162607193,,,,moral_self_bias,06,20,60.0283088672,f,001,2018_Apr_02_1228,
,,,,,,,,,,,,,,,,,,,,,,material/170.png,1,坚忍,material/71.png,1,material/170.png,严谨,1,j,j,j,2,2,2,坚忍,,,,,,,,,0,69,69,68,0,0,0,0,,,,,,,f,0,3.77460813522,f,1,1.09178900719,moral_self_bias,06,20,60.0283088672,f,001,2018_Apr_02_1228,
,,,,,,,,,,,,,,,,,,,,,,material/170.png,1,坚忍,material/71.png,1,material/170.png,严谨,1,j,j,j,2,2,2,坚忍,,,,,,,,,0,69,69,68,,,,,,,,,,,,,,,,,moral_self_bias,06,20,60.0283088672,f,001,2018_Apr_02_1228,
,,,,,,,,,,,,,,,,,,,,,,material/106.png,1,诚实,material/6.png,1,material/6.png,诚实,1,j,j,j,1,1,1,厚道,,,,,,,,,0,70,70,5,0,0,0,0,,,,,,,f,0,2.41781592369,f,1,0.357953071594,moral_self_bias,06,20,60.0283088672,f,001,2018_Apr_02_1228,
,,,,,,,,,,,,,,,,,,,,,,material/106.png,1,诚实,material/6.png,1,material/6.png,诚实,1,j,j,j,1,1,1,厚道,,,,,,,,,0,70,70,5,,,,,,,,,,,,,,,,,moral_self_bias,06,20,60.0283088672,f,001,2018_Apr_02_1228,
,,,,,,,,,,,,,,,,,,,,,,material/6.png,1,厚道,material/106.png,1,material/106.png,厚道,1,f,f,f,1,1,1,诚实,,,,,,,,,0,71,71,85,,,,,,,,,,,j,0,12.0409300327,,,,moral_self_bias,06,20,60.0283088672,f,001,2018_Apr_02_1228,
,,,,,,,,,,,,,,,,,,,,,,material/28.png,1,克己,material/128.png,1,material/28.png,自律,1,f,f,f,2,2,2,克己,,,,,,,,,0,72,72,107,0,0,0,0,,,,,,,f,1,1.57429003716,j,0,0.356857061386,moral_self_bias,06,20,60.0283088672,f,001,2018_Apr_02_1228,
,,,,,,,,,,,,,,,,,,,,,,material/28.png,1,克己,material/128.png,1,material/28.png,自律,1,f,f,f,2,2,2,克己,,,,,,,,,0,72,72,107,,,,,,,,,,,,,,,,,moral_self_bias,06,20,60.0283088672,f,001,2018_Apr_02_1228,
,,,,,,,,,,,,,,,,,,,,,,material/47.png,2,死板,material/147.png,2,material/47.png,刻板,2,f,f,f,2,2,2,死板,,,,,,,,,0,73,73,126,,,,,,,,,,,j,0,0.924302101135,,,,moral_self_bias,06,20,60.0283088672,f,001,2018_Apr_02_1228,
,,,,,,,,,,,,,,,,,,,,,,material/154.png,2,依靠,material/54.png,2,material/154.png,依赖,2,j,j,j,2,2,2,依靠,,,,,,,,,0,74,74,53,0,0,0,0,,,,,,,f,0,1.00782489777,f,1,0.374428033829,moral_self_bias,06,20,60.0283088672,f,001,2018_Apr_02_1228,
,,,,,,,,,,,,,,,,,,,,,,material/154.png,2,依靠,material/54.png,2,material/154.png,依赖,2,j,j,j,2,2,2,依靠,,,,,,,,,0,74,74,53,,,,,,,,,,,,,,,,,moral_self_bias,06,20,60.0283088672,f,001,2018_Apr_02_1228,
,,,,,,,,,,,,,,,,,,,,,,material/81.png,2,呆笨,material/179.png,2,material/83.png,差生,2,f,f,f,2,2,2,无助,,,,,,,,,0,75,75,158,,,,,,,,,,,j,0,0.941508054733,,,,moral_self_bias,06,20,60.0283088672,f,001,2018_Apr_02_1228,
,,,,,,,,,,,,,,,,,,,,,,material/4.png,1,友善,material/104.png,1,material/104.png,友善,1,f,f,f,1,1,1,友爱,,,,,,,,,0,76,76,83,,,,,,,,,,,j,0,6.44096302986,,,,moral_self_bias,06,20,60.0283088672,f,001,2018_Apr_02_1228,
,,,,,,,,,,,,,,,,,,,,,,material/59.png,2,智障,material/159.png,2,material/59.png,弱智,2,f,f,f,2,2,2,智障,,,,,,,,,0,77,77,138,0,0,0,0,,,,,,,f,1,1.95655894279,f,1,0.405466794968,moral_self_bias,06,20,60.0283088672,f,001,2018_Apr_02_1228,
,,,,,,,,,,,,,,,,,,,,,,material/59.png,2,智障,material/159.png,2,material/59.png,弱智,2,f,f,f,2,2,2,智障,,,,,,,,,0,77,77,138,,,,,,,,,,,,,,,,,moral_self_bias,06,20,60.0283088672,f,001,2018_Apr_02_1228,
,,,,,,,,,,,,,,,,,,,,,,material/62.png,1,坚韧,material/162.png,1,material/62.png,敬业,1,f,f,f,1,1,1,坚韧,,,,,,,,,0,78,78,141,,,,,,,,,,,j,0,1.07460784912,,,,moral_self_bias,06,20,60.0283088672,f,001,2018_Apr_02_1228,
,,,,,,,,,,,,,,,,,,,,,,material/49.png,2,痴呆,material/149.png,2,material/49.png,白痴,2,f,f,f,2,2,2,痴呆,,,,,,,,,0,79,79,128,,,,,,,,,,,j,0,1.13336086273,,,,moral_self_bias,06,20,60.0283088672,f,001,2018_Apr_02_1228,
,,,,,,,,,,,,,,,,,,,,,,material/139.png,2,凶残,material/39.png,2,material/39.png,凶残,2,j,j,j,1,1,1,恶毒,,,,,,,,,0,80,80,38,0,0,0,0,,,,,,,f,0,1.24164104462,f,1,2.22484397888,moral_self_bias,06,20,60.0283088672,f,001,2018_Apr_02_1228,
,,,,,,,,,,,,,,,,,,,,,,material/139.png,2,凶残,material/39.png,2,material/39.png,凶残,2,j,j,j,1,1,1,恶毒,,,,,,,,,0,80,80,38,,,,,,,,,,,,,,,,,moral_self_bias,06,20,60.0283088672,f,001,2018_Apr_02_1228,
,,,,,,,,,,,,,,,,,,,,,,material/165.png,1,平等,material/161.png,1,material/61.png,勇敢,1,f,f,f,1,1,1,独立,,,,,,,,,0,81,81,140,,,,,,,,,,,j,0,1.52424693108,,,,moral_self_bias,06,20,60.0283088672,f,001,2018_Apr_02_1228,
,,,,,,,,,,,,,,,,,,,,,,material/105.png,1,守信,material/5.png,1,material/5.png,守信,1,j,j,j,1,1,1,诚信,,,,,,,,,0,82,82,4,0,0,0,0,,,,,,,f,0,1.107640028,j,0,0.640935897827,moral_self_bias,06,20,60.0283088672,f,001,2018_Apr_02_1228,
,,,,,,,,,,,,,,,,,,,,,,material/105.png,1,守信,material/5.png,1,material/5.png,守信,1,j,j,j,1,1,1,诚信,,,,,,,,,0,82,82,4,,,,,,,,,,,,,,,,,moral_self_bias,06,20,60.0283088672,f,001,2018_Apr_02_1228,
,,,,,,,,,,,,,,,,,,,,,,material/82.png,2,毛糙,material/183.png,2,material/178.png,薄弱,2,f,f,f,2,2,2,窝囊,,,,,,,,,0,83,83,162,,,,,,,,,,,j,0,1.32551693916,,,,moral_self_bias,06,20,60.0283088672,f,001,2018_Apr_02_1228,
,,,,,,,,,,,,,,,,,,,,,,material/29.png,1,好学,material/129.png,1,material/29.png,好问,1,f,f,f,2,2,2,好学,,,,,,,,,0,84,84,108,,,,,,,,,,,j,0,1.10787510872,,,,moral_self_bias,06,20,60.0283088672,f,001,2018_Apr_02_1228,
,,,,,,,,,,,,,,,,,,,,,,material/14.png,1,忠贞,material/114.png,1,material/114.png,忠贞,1,f,f,f,1,1,1,爱国,,,,,,,,,0,85,85,93,0,0,0,0,,,,,,,f,1,1.12556600571,j,0,0.291601896286,moral_self_bias,06,20,60.0283088672,f,001,2018_Apr_02_1228,
,,,,,,,,,,,,,,,,,,,,,,material/14.png,1,忠贞,material/114.png,1,material/114.png,忠贞,1,f,f,f,1,1,1,爱国,,,,,,,,,0,85,85,93,,,,,,,,,,,,,,,,,moral_self_bias,06,20,60.0283088672,f,001,2018_Apr_02_1228,
,,,,,,,,,,,,,,,,,,,,,,material/150.png,2,鲁钝,material/50.png,2,material/150.png,愚笨,2,j,j,j,2,2,2,鲁钝,,,,,,,,,0,86,86,49,0,0,0,0,,,,,,,f,0,1.70814990997,j,0,0.375311851501,moral_self_bias,06,20,60.0283088672,f,001,2018_Apr_02_1228,
,,,,,,,,,,,,,,,,,,,,,,material/150.png,2,鲁钝,material/50.png,2,material/150.png,愚笨,2,j,j,j,2,2,2,鲁钝,,,,,,,,,0,86,86,49,,,,,,,,,,,,,,,,,moral_self_bias,06,20,60.0283088672,f,001,2018_Apr_02_1228,
,,,,,,,,,,,,,,,,,,,,,,material/101.png,1,善良,material/1.png,1,material/1.png,善良,1,j,j,j,1,1,1,博爱,,,,,,,,,0,87,87,0,,,,,,,,,,,j,1,8.22484087944,,,,moral_self_bias,06,20,60.0283088672,f,001,2018_Apr_02_1228,
,,,,,,,,,,,,,,,,,,,,,,material/143.png,2,拜金,material/43.png,2,material/43.png,拜金,2,j,j,j,1,1,1,虚荣,,,,,,,,,0,88,88,42,,,,,,,,,,,j,1,0.957232952118,,,,moral_self_bias,06,20,60.0283088672,f,001,2018_Apr_02_1228,
,,,,,,,,,,,,,,,,,,,,,,material/8.png,1,无私,material/108.png,1,material/108.png,无私,1,f,f,f,1,1,1,公道,,,,,,,,,0,89,89,87,0,0,0,0,,,,,,,f,1,1.02421307564,j,0,0.492459058762,moral_self_bias,06,20,60.0283088672,f,001,2018_Apr_02_1228,
,,,,,,,,,,,,,,,,,,,,,,material/8.png,1,无私,material/108.png,1,material/108.png,无私,1,f,f,f,1,1,1,公道,,,,,,,,,0,89,89,87,,,,,,,,,,,,,,,,,moral_self_bias,06,20,60.0283088672,f,001,2018_Apr_02_1228,
,,,,,,,,,,,,,,,,,,,,,,material/140.png,2,邪恶,material/40.png,2,material/40.png,邪恶,2,j,j,j,1,1,1,狠毒,,,,,,,,,0,90,90,39,,,,,,,,,,,j,1,1.25800204277,,,,moral_self_bias,06,20,60.0283088672,f,001,2018_Apr_02_1228,
,,,,,,,,,,,,,,,,,,,,,,material/54.png,2,依赖,material/154.png,2,material/54.png,依靠,2,f,f,f,2,2,2,依赖,,,,,,,,,0,91,91,133,,,,,,,,,,,j,0,1.5916788578,,,,moral_self_bias,06,20,60.0283088672,f,001,2018_Apr_02_1228,
,,,,,,,,,,,,,,,,,,,,,,material/112.png,1,忠诚,material/12.png,1,material/12.png,忠诚,1,j,j,j,1,1,1,忠心,,,,,,,,,0,92,92,11,,,,,,,,,,,j,1,10.5418798923,,,,moral_self_bias,06,20,60.0283088672,f,001,2018_Apr_02_1228,
,,,,,,,,,,,,,,,,,,,,,,material/149.png,2,白痴,material/49.png,2,material/149.png,痴呆,2,j,j,j,2,2,2,白痴,,,,,,,,,0,93,93,48,0,0,0,0,,,,,,,f,0,1.24184393883,f,1,0.433010101318,moral_self_bias,06,20,60.0283088672,f,001,2018_Apr_02_1228,
,,,,,,,,,,,,,,,,,,,,,,material/149.png,2,白痴,material/49.png,2,material/149.png,痴呆,2,j,j,j,2,2,2,白痴,,,,,,,,,0,93,93,48,,,,,,,,,,,,,,,,,moral_self_bias,06,20,60.0283088672,f,001,2018_Apr_02_1228,
,,,,,,,,,,,,,,,,,,,,,,material/60.png,2,粗拙,material/160.png,2,material/60.png,笨拙,2,f,f,f,2,2,2,粗拙,,,,,,,,,0,94,94,139,,,,,,,,,,,j,0,1.73356485367,,,,moral_self_bias,06,20,60.0283088672,f,001,2018_Apr_02_1228,
,,,,,,,,,,,,,,,,,,,,,,material/113.png,1,廉洁,material/13.png,1,material/13.png,廉洁,1,j,j,j,1,1,1,廉明,,,,,,,,,0,95,95,12,,,,,,,,,,,j,1,2.14218902588,,,,moral_self_bias,06,20,60.0283088672,f,001,2018_Apr_02_1228,
,,,,,,,,,,,,,,,,,,,,,,material/18.png,1,敏锐,material/118.png,1,material/18.png,机敏,1,f,f,f,2,2,2,敏锐,,,,,,,,,0,96,96,97,0,0,0,0,,,,,,,f,1,1.10820603371,j,0,0.391862154007,moral_self_bias,06,20,60.0283088672,f,001,2018_Apr_02_1228,
,,,,,,,,,,,,,,,,,,,,,,material/18.png,1,敏锐,material/118.png,1,material/18.png,机敏,1,f,f,f,2,2,2,敏锐,,,,,,,,,0,96,96,97,,,,,,,,,,,,,,,,,moral_self_bias,06,20,60.0283088672,f,001,2018_Apr_02_1228,
,,,,,,,,,,,,,,,,,,,,,,material/34.png,2,可恶,material/134.png,2,material/134.png,可恶,2,f,f,f,1,1,1,可恨,,,,,,,,,0,97,97,113,0,0,0,0,,,,,,,f,1,1.1077709198,f,1,0.225656986237,moral_self_bias,06,20,60.0283088672,f,001,2018_Apr_02_1228,
,,,,,,,,,,,,,,,,,,,,,,material/34.png,2,可恶,material/134.png,2,material/134.png,可恶,2,f,f,f,1,1,1,可恨,,,,,,,,,0,97,97,113,,,,,,,,,,,,,,,,,moral_self_bias,06,20,60.0283088672,f,001,2018_Apr_02_1228,
,,,,,,,,,,,,,,,,,,,,,,material/173.png,2,不义,material/174.png,2,material/174.png,不义,2,f,f,f,1,1,1,黑心,,,,,,,,,0,98,98,153,0,0,0,0,,,,,,,f,1,2.44022893906,f,1,2.07472586632,moral_self_bias,06,20,60.0283088672,f,001,2018_Apr_02_1228,
,,,,,,,,,,,,,,,,,,,,,,material/173.png,2,不义,material/174.png,2,material/174.png,不义,2,f,f,f,1,1,1,黑心,,,,,,,,,0,98,98,153,,,,,,,,,,,,,,,,,moral_self_bias,06,20,60.0283088672,f,001,2018_Apr_02_1228,
,,,,,,,,,,,,,,,,,,,,,,material/108.png,1,公道,material/8.png,1,material/8.png,公道,1,j,j,j,1,1,1,无私,,,,,,,,,0,99,99,7,0,0,0,0,,,,,,,f,0,1.21654295921,j,0,0.208549976349,moral_self_bias,06,20,60.0283088672,f,001,2018_Apr_02_1228,
,,,,,,,,,,,,,,,,,,,,,,material/108.png,1,公道,material/8.png,1,material/8.png,公道,1,j,j,j,1,1,1,无私,,,,,,,,,0,99,99,7,,,,,,,,,,,,,,,,,moral_self_bias,06,20,60.0283088672,f,001,2018_Apr_02_1228,
,,,,,,,,,,,,,,,,,,,,,,material/48.png,2,愚蠢,material/148.png,2,material/48.png,笨蛋,2,f,f,f,2,2,2,愚蠢,,,,,,,,,0,100,100,127,,,,,,,,,,,j,0,1.05792784691,,,,moral_self_bias,06,20,60.0283088672,f,001,2018_Apr_02_1228,
,,,,,,,,,,,,,,,,,,,,,,material/136.png,2,说谎,material/36.png,2,material/36.png,说谎,2,j,j,j,1,1,1,撒谎,,,,,,,,,0,101,101,35,0,0,0,0,,,,,,,f,0,1.1251039505,f,1,0.359034061432,moral_self_bias,06,20,60.0283088672,f,001,2018_Apr_02_1228,
,,,,,,,,,,,,,,,,,,,,,,material/136.png,2,说谎,material/36.png,2,material/36.png,说谎,2,j,j,j,1,1,1,撒谎,,,,,,,,,0,101,101,35,,,,,,,,,,,,,,,,,moral_self_bias,06,20,60.0283088672,f,001,2018_Apr_02_1228,
,,,,,,,,,,,,,,,,,,,,,,material/164.png,1,宽容,material/63.png,1,material/163.png,文明,1,j,j,j,1,1,1,孝顺,,,,,,,,,0,102,102,62,,,,,,,,,,,j,1,1.25834107399,,,,moral_self_bias,06,20,60.0283088672,f,001,2018_Apr_02_1228,
,,,,,,,,,,,,,,,,,,,,,,material/111.png,1,高雅,material/11.png,1,material/11.png,高雅,1,j,j,j,1,1,1,高尚,,,,,,,,,0,103,103,10,,,,,,,,,,,j,1,0.85803103447,,,,moral_self_bias,06,20,60.0283088672,f,001,2018_Apr_02_1228,
,,,,,,,,,,,,,,,,,,,,,,material/27.png,1,卓越,material/127.png,1,material/27.png,超群,1,f,f,f,2,2,2,卓越,,,,,,,,,0,104,104,106,,,,,,,,,,,j,0,3.89200305939,,,,moral_self_bias,06,20,60.0283088672,f,001,2018_Apr_02_1228,
,,,,,,,,,,,,,,,,,,,,,,material/70.png,1,全面,material/168.png,1,material/70.png,机变,1,f,f,f,2,2,2,全面,,,,,,,,,0,105,105,147,0,0,0,0,,,,,,,f,1,1.10745596886,j,0,0.441674947739,moral_self_bias,06,20,60.0283088672,f,001,2018_Apr_02_1228,
,,,,,,,,,,,,,,,,,,,,,,material/70.png,1,全面,material/168.png,1,material/70.png,机变,1,f,f,f,2,2,2,全面,,,,,,,,,0,105,105,147,,,,,,,,,,,,,,,,,moral_self_bias,06,20,60.0283088672,f,001,2018_Apr_02_1228,
,,,,,,,,,,,,,,,,,,,,,,material/155.png,2,盲目,material/55.png,2,material/155.png,盲从,2,j,j,j,2,2,2,盲目,,,,,,,,,0,106,106,54,0,0,0,0,,,,,,,f,0,1.0995349884,f,1,0.257721185684,moral_self_bias,06,20,60.0283088672,f,001,2018_Apr_02_1228,
,,,,,,,,,,,,,,,,,,,,,,material/155.png,2,盲目,material/55.png,2,material/155.png,盲从,2,j,j,j,2,2,2,盲目,,,,,,,,,0,106,106,54,,,,,,,,,,,,,,,,,moral_self_bias,06,20,60.0283088672,f,001,2018_Apr_02_1228,
,,,,,,,,,,,,,,,,,,,,,,material/33.png,2,贪污,material/133.png,2,material/133.png,贪污,2,f,f,f,1,1,1,腐败,,,,,,,,,0,107,107,112,0,0,0,0,,,,,,,f,1,1.49121689796,j,0,0.258769035339,moral_self_bias,06,20,60.0283088672,f,001,2018_Apr_02_1228,
,,,,,,,,,,,,,,,,,,,,,,material/33.png,2,贪污,material/133.png,2,material/133.png,贪污,2,f,f,f,1,1,1,腐败,,,,,,,,,0,107,107,112,,,,,,,,,,,,,,,,,moral_self_bias,06,20,60.0283088672,f,001,2018_Apr_02_1228,
,,,,,,,,,,,,,,,,,,,,,,material/163.png,1,文明,material/163.png,1,material/63.png,宽容,1,f,f,f,1,1,1,宽容,,,,,,,,,0,108,108,142,,,,,,,,,,,j,0,0.874868869781,,,,moral_self_bias,06,20,60.0283088672,f,001,2018_Apr_02_1228,
,,,,,,,,,,,,,,,,,,,,,,material/110.png,1,顽强,material/10.png,1,material/10.png,顽强,1,j,j,j,1,1,1,坚毅,,,,,,,,,0,109,109,9,,,,,,,,,,,j,1,1.24091100693,,,,moral_self_bias,06,20,60.0283088672,f,001,2018_Apr_02_1228,
,,,,,,,,,,,,,,,,,,,,,,material/15.png,1,纯洁,material/115.png,1,material/115.png,纯洁,1,f,f,f,1,1,1,清白,,,,,,,,,0,110,110,94,,,,,,,,,,,j,0,1.29131793976,,,,moral_self_bias,06,20,60.0283088672,f,001,2018_Apr_02_1228,
,,,,,,,,,,,,,,,,,,,,,,material/84.png,2,犹豫,material/84.png,2,material/181.png,顽愚,2,f,f,f,2,2,2,顽愚,,,,,,,,,0,111,111,167,0,0,0,0,,,,,,,f,1,1.62544512749,f,1,0.97459602356,moral_self_bias,06,20,60.0283088672,f,001,2018_Apr_02_1228,
,,,,,,,,,,,,,,,,,,,,,,material/84.png,2,犹豫,material/84.png,2,material/181.png,顽愚,2,f,f,f,2,2,2,顽愚,,,,,,,,,0,111,111,167,,,,,,,,,,,,,,,,,moral_self_bias,06,20,60.0283088672,f,001,2018_Apr_02_1228,
,,,,,,,,,,,,,,,,,,,,,,material/38.png,2,缺德,material/138.png,2,material/138.png,缺德,2,f,f,f,1,1,1,无德,,,,,,,,,0,112,112,117,,,,,,,,,,,j,0,2.2237970829,,,,moral_self_bias,06,20,60.0283088672,f,001,2018_Apr_02_1228,
,,,,,,,,,,,,,,,,,,,,,,material/167.png,1,高手,material/169.png,1,material/167.png,颖悟,1,f,f,f,2,2,2,高手,,,,,,,,,0,113,113,148,0,0,0,0,,,,,,,f,1,0.874595880508,j,0,0.375822067261,moral_self_bias,06,20,60.0283088672,f,001,2018_Apr_02_1228,
,,,,,,,,,,,,,,,,,,,,,,material/167.png,1,高手,material/169.png,1,material/167.png,颖悟,1,f,f,f,2,2,2,高手,,,,,,,,,0,113,113,148,,,,,,,,,,,,,,,,,moral_self_bias,06,20,60.0283088672,f,001,2018_Apr_02_1228,
,,,,,,,,,,,,,,,,,,,,,,material/160.png,2,笨拙,material/60.png,2,material/160.png,粗拙,2,j,j,j,2,2,2,笨拙,,,,,,,,,0,114,114,59,0,0,0,0,,,,,,,f,0,0.973783969879,f,1,0.407896995544,moral_self_bias,06,20,60.0283088672,f,001,2018_Apr_02_1228,
,,,,,,,,,,,,,,,,,,,,,,material/160.png,2,笨拙,material/60.png,2,material/160.png,粗拙,2,j,j,j,2,2,2,笨拙,,,,,,,,,0,114,114,59,,,,,,,,,,,,,,,,,moral_self_bias,06,20,60.0283088672,f,001,2018_Apr_02_1228,
,,,,,,,,,,,,,,,,,,,,,,material/124.png,1,冷静,material/24.png,1,material/124.png,理智,1,j,j,j,2,2,2,冷静,,,,,,,,,0,115,115,23,0,0,0,0,,,,,,,f,0,3.55862998962,j,0,0.708693981171,moral_self_bias,06,20,60.0283088672,f,001,2018_Apr_02_1228,
,,,,,,,,,,,,,,,,,,,,,,material/124.png,1,冷静,material/24.png,1,material/124.png,理智,1,j,j,j,2,2,2,冷静,,,,,,,,,0,115,115,23,,,,,,,,,,,,,,,,,moral_self_bias,06,20,60.0283088672,f,001,2018_Apr_02_1228,
,,,,,,,,,,,,,,,,,,,,,,material/168.png,1,机变,material/170.png,1,material/168.png,坚忍,1,f,f,f,2,2,2,机变,,,,,,,,,0,116,116,149,,,,,,,,,,,j,0,0.924754858017,,,,moral_self_bias,06,20,60.0283088672,f,001,2018_Apr_02_1228,
,,,,,,,,,,,,,,,,,,,,,,material/118.png,1,机敏,material/18.png,1,material/118.png,敏锐,1,j,j,j,2,2,2,机敏,,,,,,,,,0,117,117,17,0,0,0,0,,,,,,,f,0,0.990158081055,j,0,0.291889190674,moral_self_bias,06,20,60.0283088672,f,001,2018_Apr_02_1228,
,,,,,,,,,,,,,,,,,,,,,,material/118.png,1,机敏,material/18.png,1,material/118.png,敏锐,1,j,j,j,2,2,2,机敏,,,,,,,,,0,117,117,17,,,,,,,,,,,,,,,,,moral_self_bias,06,20,60.0283088672,f,001,2018_Apr_02_1228,
,,,,,,,,,,,,,,,,,,,,,,material/76.png,2,放纵,material/176.png,2,material/176.png,放纵,2,f,f,f,1,1,1,虚伪,,,,,,,,,0,118,118,155,0,0,0,0,,,,,,,f,1,2.79099416733,f,1,0.317427873611,moral_self_bias,06,20,60.0283088672,f,001,2018_Apr_02_1228,
,,,,,,,,,,,,,,,,,,,,,,material/76.png,2,放纵,material/176.png,2,material/176.png,放纵,2,f,f,f,1,1,1,虚伪,,,,,,,,,0,118,118,155,,,,,,,,,,,,,,,,,moral_self_bias,06,20,60.0283088672,f,001,2018_Apr_02_1228,
,,,,,,,,,,,,,,,,,,,,,,material/56.png,2,愚昧,material/156.png,2,material/56.png,愚钝,2,f,f,f,2,2,2,愚昧,,,,,,,,,0,119,119,135,0,0,0,0,,,,,,,f,1,7.65634608269,f,1,0.44170999527,moral_self_bias,06,20,60.0283088672,f,001,2018_Apr_02_1228,
,,,,,,,,,,,,,,,,,,,,,,material/56.png,2,愚昧,material/156.png,2,material/56.png,愚钝,2,f,f,f,2,2,2,愚昧,,,,,,,,,0,119,119,135,,,,,,,,,,,,,,,,,moral_self_bias,06,20,60.0283088672,f,001,2018_Apr_02_1228,
,,,,,,,,,,,,,,,,,,,,,,material/17.png,1,聪明,material/117.png,1,material/17.png,聪颖,1,f,f,f,2,2,2,聪明,,,,,,,,,0,120,120,96,0,0,0,0,,,,,,,f,1,0.840685129166,j,0,0.29181098938,moral_self_bias,06,20,60.0283088672,f,001,2018_Apr_02_1228,
,,,,,,,,,,,,,,,,,,,,,,material/17.png,1,聪明,material/117.png,1,material/17.png,聪颖,1,f,f,f,2,2,2,聪明,,,,,,,,,0,120,120,96,,,,,,,,,,,,,,,,,moral_self_bias,06,20,60.0283088672,f,001,2018_Apr_02_1228,
,,,,,,,,,,,,,,,,,,,,,,material/156.png,2,愚钝,material/56.png,2,material/156.png,愚昧,2,j,j,j,2,2,2,愚钝,,,,,,,,,0,121,121,55,0,0,0,0,,,,,,,f,0,2.49150085449,f,1,1.40900301933,moral_self_bias,06,20,60.0283088672,f,001,2018_Apr_02_1228,
,,,,,,,,,,,,,,,,,,,,,,material/156.png,2,愚钝,material/56.png,2,material/156.png,愚昧,2,j,j,j,2,2,2,愚钝,,,,,,,,,0,121,121,55,,,,,,,,,,,,,,,,,moral_self_bias,06,20,60.0283088672,f,001,2018_Apr_02_1228,
,,,,,,,,,,,,,,,,,,,,,,material/43.png,2,虚荣,material/143.png,2,material/143.png,虚荣,2,f,f,f,1,1,1,拜金,,,,,,,,,0,122,122,122,0,0,0,0,,,,,,,f,1,0.841540813446,f,1,0.175019025803,moral_self_bias,06,20,60.0283088672,f,001,2018_Apr_02_1228,
,,,,,,,,,,,,,,,,,,,,,,material/43.png,2,虚荣,material/143.png,2,material/143.png,虚荣,2,f,f,f,1,1,1,拜金,,,,,,,,,0,122,122,122,,,,,,,,,,,,,,,,,moral_self_bias,06,20,60.0283088672,f,001,2018_Apr_02_1228,
,,,,,,,,,,,,,,,,,,,,,,material/144.png,2,失信,material/44.png,2,material/44.png,失信,2,j,j,j,1,1,1,爽约,,,,,,,,,0,123,123,43,,,,,,,,,,,j,1,1.45832180977,,,,moral_self_bias,06,20,60.0283088672,f,001,2018_Apr_02_1228,
,,,,,,,,,,,,,,,,,,,,,,material/36.png,2,撒谎,material/136.png,2,material/136.png,撒谎,2,f,f,f,1,1,1,说谎,,,,,,,,,0,124,124,115,0,0,0,0,,,,,,,f,1,1.1087269783,f,1,0.291879892349,moral_self_bias,06,20,60.0283088672,f,001,2018_Apr_02_1228,
,,,,,,,,,,,,,,,,,,,,,,material/36.png,2,撒谎,material/136.png,2,material/136.png,撒谎,2,f,f,f,1,1,1,说谎,,,,,,,,,0,124,124,115,,,,,,,,,,,,,,,,,moral_self_bias,06,20,60.0283088672,f,001,2018_Apr_02_1228,
,,,,,,,,,,,,,,,,,,,,,,material/174.png,2,虚伪,material/76.png,2,material/76.png,虚伪,2,j,j,j,1,1,1,不义,,,,,,,,,0,125,125,72,0,0,0,0,,,,,,,f,0,0.807687044144,f,1,1.2244040966,moral_self_bias,06,20,60.0283088672,f,001,2018_Apr_02_1228,
,,,,,,,,,,,,,,,,,,,,,,material/174.png,2,虚伪,material/76.png,2,material/76.png,虚伪,2,j,j,j,1,1,1,不义,,,,,,,,,0,125,125,72,,,,,,,,,,,,,,,,,moral_self_bias,06,20,60.0283088672,f,001,2018_Apr_02_1228,
,,,,,,,,,,,,,,,,,,,,,,material/10.png,1,坚毅,material/110.png,1,material/110.png,坚毅,1,f,f,f,1,1,1,顽强,,,,,,,,,0,126,126,89,0,0,0,0,,,,,,,f,1,1.39182186127,j,0,0.440786123276,moral_self_bias,06,20,60.0283088672,f,001,2018_Apr_02_1228,
,,,,,,,,,,,,,,,,,,,,,,material/10.png,1,坚毅,material/110.png,1,material/110.png,坚毅,1,f,f,f,1,1,1,顽强,,,,,,,,,0,126,126,89,,,,,,,,,,,,,,,,,moral_self_bias,06,20,60.0283088672,f,001,2018_Apr_02_1228,
,,,,,,,,,,,,,,,,,,,,,,material/55.png,2,盲从,material/155.png,2,material/55.png,盲目,2,f,f,f,2,2,2,盲从,,,,,,,,,0,127,127,134,,,,,,,,,,,j,0,1.99133896828,,,,moral_self_bias,06,20,60.0283088672,f,001,2018_Apr_02_1228,
,,,,,,,,,,,,,,,,,,,,,,material/32.png,2,背叛,material/132.png,2,material/132.png,背叛,2,f,f,f,1,1,1,不忠,,,,,,,,,0,128,128,111,0,0,0,0,,,,,,,f,1,1.44094705582,j,0,0.333806991577,moral_self_bias,06,20,60.0283088672,f,001,2018_Apr_02_1228,
,,,,,,,,,,,,,,,,,,,,,,material/32.png,2,背叛,material/132.png,2,material/132.png,背叛,2,f,f,f,1,1,1,不忠,,,,,,,,,0,128,128,111,,,,,,,,,,,,,,,,,moral_self_bias,06,20,60.0283088672,f,001,2018_Apr_02_1228,
,,,,,,,,,,,,,,,,,,,,,,material/138.png,2,无德,material/38.png,2,material/38.png,无德,2,j,j,j,1,1,1,缺德,,,,,,,,,0,129,129,37,,,,,,,,,,,j,1,1.80733108521,,,,moral_self_bias,06,20,60.0283088672,f,001,2018_Apr_02_1228,
,,,,,,,,,,,,,,,,,,,,,,material/42.png,2,奸诈,material/142.png,2,material/142.png,奸诈,2,f,f,f,1,1,1,阴险,,,,,,,,,0,130,130,121,0,0,0,0,,,,,,,f,1,3.3579480648,j,0,0.341292858124,moral_self_bias,06,20,60.0283088672,f,001,2018_Apr_02_1228,
,,,,,,,,,,,,,,,,,,,,,,material/42.png,2,奸诈,material/142.png,2,material/142.png,奸诈,2,f,f,f,1,1,1,阴险,,,,,,,,,0,130,130,121,,,,,,,,,,,,,,,,,moral_self_bias,06,20,60.0283088672,f,001,2018_Apr_02_1228,
,,,,,,,,,,,,,,,,,,,,,,material/137.png,2,无耻,material/37.png,2,material/37.png,无耻,2,j,j,j,1,1,1,卑鄙,,,,,,,,,0,131,131,36,,,,,,,,,,,j,1,1.23363804817,,,,moral_self_bias,06,20,60.0283088672,f,001,2018_Apr_02_1228,
,,,,,,,,,,,,,,,,,,,,,,material/12.png,1,忠心,material/112.png,1,material/112.png,忠心,1,f,f,f,1,1,1,忠诚,,,,,,,,,0,132,132,91,0,0,0,0,,,,,,,f,1,5.8760740757,f,1,0.29197716713,moral_self_bias,06,20,60.0283088672,f,001,2018_Apr_02_1228,
,,,,,,,,,,,,,,,,,,,,,,material/12.png,1,忠心,material/112.png,1,material/112.png,忠心,1,f,f,f,1,1,1,忠诚,,,,,,,,,0,132,132,91,,,,,,,,,,,,,,,,,moral_self_bias,06,20,60.0283088672,f,001,2018_Apr_02_1228,
,,,,,,,,,,,,,,,,,,,,,,material/148.png,2,笨蛋,material/48.png,2,material/148.png,愚蠢,2,j,j,j,2,2,2,笨蛋,,,,,,,,,0,133,133,47,,,,,,,,,,,j,1,1.09166908264,,,,moral_self_bias,06,20,60.0283088672,f,001,2018_Apr_02_1228,
,,,,,,,,,,,,,,,,,,,,,,material/7.png,1,公平,material/107.png,1,material/107.png,公平,1,f,f,f,1,1,1,公正,,,,,,,,,0,134,134,86,0,0,0,0,,,,,,,f,1,1.10851216316,j,0,0.441892147064,moral_self_bias,06,20,60.0283088672,f,001,2018_Apr_02_1228,
,,,,,,,,,,,,,,,,,,,,,,material/7.png,1,公平,material/107.png,1,material/107.png,公平,1,f,f,f,1,1,1,公正,,,,,,,,,0,134,134,86,,,,,,,,,,,,,,,,,moral_self_bias,06,20,60.0283088672,f,001,2018_Apr_02_1228,
,,,,,,,,,,,,,,,,,,,,,,material/162.png,1,敬业,material/62.png,1,material/162.png,坚韧,1,j,j,j,1,1,1,敬业,,,,,,,,,0,135,135,61,,,,,,,,,,,j,1,1.24221682549,,,,moral_self_bias,06,20,60.0283088672,f,001,2018_Apr_02_1228,
,,,,,,,,,,,,,,,,,,,,,,material/103.png,1,仁慈,material/3.png,1,material/3.png,仁慈,1,j,j,j,1,1,1,仁厚,,,,,,,,,0,136,136,2,,,,,,,,,,,j,1,0.991286993027,,,,moral_self_bias,06,20,60.0283088672,f,001,2018_Apr_02_1228,
,,,,,,,,,,,,,,,,,,,,,,material/20.png,1,厉害,material/120.png,1,material/20.png,能干,1,f,f,f,2,2,2,厉害,,,,,,,,,0,137,137,99,0,0,0,0,,,,,,,f,1,1.1566529274,j,0,0.333462953568,moral_self_bias,06,20,60.0283088672,f,001,2018_Apr_02_1228,
,,,,,,,,,,,,,,,,,,,,,,material/20.png,1,厉害,material/120.png,1,material/20.png,能干,1,f,f,f,2,2,2,厉害,,,,,,,,,0,137,137,99,,,,,,,,,,,,,,,,,moral_self_bias,06,20,60.0283088672,f,001,2018_Apr_02_1228,
,,,,,,,,,,,,,,,,,,,,,,material/116.png,1,机智,material/16.png,1,material/116.png,睿智,1,j,j,j,2,2,2,机智,,,,,,,,,0,138,138,15,,,,,,,,,,,j,1,3.85813498497,,,,moral_self_bias,06,20,60.0283088672,f,001,2018_Apr_02_1228,
,,,,,,,,,,,,,,,,,,,,,,material/151.png,2,迷糊,material/51.png,2,material/151.png,糊涂,2,j,j,j,2,2,2,迷糊,,,,,,,,,0,139,139,50,,,,,,,,,,,j,1,1.52521896362,,,,moral_self_bias,06,20,60.0283088672,f,001,2018_Apr_02_1228,
,,,,,,,,,,,,,,,,,,,,,,material/166.png,1,孝顺,material/64.png,1,material/164.png,奉献,1,j,j,j,1,1,1,仗义,,,,,,,,,0,140,140,63,0,0,0,0,,,,,,,f,0,0.850651979446,j,0,0.357789039612,moral_self_bias,06,20,60.0283088672,f,001,2018_Apr_02_1228,
,,,,,,,,,,,,,,,,,,,,,,material/166.png,1,孝顺,material/64.png,1,material/164.png,奉献,1,j,j,j,1,1,1,仗义,,,,,,,,,0,140,140,63,,,,,,,,,,,,,,,,,moral_self_bias,06,20,60.0283088672,f,001,2018_Apr_02_1228,
,,,,,,,,,,,,,,,,,,,,,,material/132.png,2,不忠,material/32.png,2,material/32.png,不忠,2,j,j,j,1,1,1,背叛,,,,,,,,,0,141,141,31,,,,,,,,,,,j,1,1.6417350769,,,,moral_self_bias,06,20,60.0283088672,f,001,2018_Apr_02_1228,
,,,,,,,,,,,,,,,,,,,,,,material/13.png,1,廉明,material/113.png,1,material/113.png,廉明,1,f,f,f,1,1,1,廉洁,,,,,,,,,0,142,142,92,,,,,,,,,,,j,0,0.708113908768,,,,moral_self_bias,06,20,60.0283088672,f,001,2018_Apr_02_1228,
,,,,,,,,,,,,,,,,,,,,,,material/104.png,1,友爱,material/4.png,1,material/4.png,友爱,1,j,j,j,1,1,1,友善,,,,,,,,,0,143,143,3,,,,,,,,,,,j,1,0.974474191666,,,,moral_self_bias,06,20,60.0283088672,f,001,2018_Apr_02_1228,
,,,,,,,,,,,,,,,,,,,,,,material/178.png,2,窝囊,material/82.png,2,material/82.png,窝囊,2,j,j,j,2,2,2,毛糙,,,,,,,,,0,144,144,78,,,,,,,,,,,j,1,1.15713715553,,,,moral_self_bias,06,20,60.0283088672,f,001,2018_Apr_02_1228,
,,,,,,,,,,,,,,,,,,,,,,material/37.png,2,卑鄙,material/137.png,2,material/137.png,卑鄙,2,f,f,f,1,1,1,无耻,,,,,,,,,0,145,145,116,0,0,0,0,,,,,,,f,1,1.47443008423,j,0,0.942493915558,moral_self_bias,06,20,60.0283088672,f,001,2018_Apr_02_1228,
,,,,,,,,,,,,,,,,,,,,,,material/37.png,2,卑鄙,material/137.png,2,material/137.png,卑鄙,2,f,f,f,1,1,1,无耻,,,,,,,,,0,145,145,116,,,,,,,,,,,,,,,,,moral_self_bias,06,20,60.0283088672,f,001,2018_Apr_02_1228,
,,,,,,,,,,,,,,,,,,,,,,material/72.png,2,软弱,material/77.png,2,material/77.png,软弱,2,j,j,j,1,1,1,谄媚,,,,,,,,,0,146,146,73,,,,,,,,,,,j,1,5.27468800545,,,,moral_self_bias,06,20,60.0283088672,f,001,2018_Apr_02_1228,
,,,,,,,,,,,,,,,,,,,,,,material/125.png,1,果敢,material/25.png,1,material/125.png,果断,1,j,j,j,2,2,2,果敢,,,,,,,,,0,147,147,24,0,0,0,0,,,,,,,f,0,0.957735061646,f,1,0.491101026535,moral_self_bias,06,20,60.0283088672,f,001,2018_Apr_02_1228,
,,,,,,,,,,,,,,,,,,,,,,material/125.png,1,果敢,material/25.png,1,material/125.png,果断,1,j,j,j,2,2,2,果敢,,,,,,,,,0,147,147,24,,,,,,,,,,,,,,,,,moral_self_bias,06,20,60.0283088672,f,001,2018_Apr_02_1228,
,,,,,,,,,,,,,,,,,,,,,,material/22.png,1,才学,material/122.png,1,material/22.png,博学,1,f,f,f,2,2,2,才学,,,,,,,,,0,148,148,101,0,0,0,0,,,,,,,f,1,1.42441797256,j,0,0.284236907959,moral_self_bias,06,20,60.0283088672,f,001,2018_Apr_02_1228,
,,,,,,,,,,,,,,,,,,,,,,material/22.png,1,才学,material/122.png,1,material/22.png,博学,1,f,f,f,2,2,2,才学,,,,,,,,,0,148,148,101,,,,,,,,,,,,,,,,,moral_self_bias,06,20,60.0283088672,f,001,2018_Apr_02_1228,
,,,,,,,,,,,,,,,,,,,,,,material/157.png,2,无能,material/57.png,2,material/157.png,无知,2,j,j,j,2,2,2,无能,,,,,,,,,0,149,149,56,,,,,,,,,,,j,1,0.874745130539,,,,moral_self_bias,06,20,60.0283088672,f,001,2018_Apr_02_1228,
,,,,,,,,,,,,,,,,,,,,,,material/169.png,1,颖悟,material/171.png,1,material/169.png,高效,1,f,f,f,2,2,2,颖悟,,,,,,,,,0,150,150,150,,,,,,,,,,,j,0,0.858758926392,,,,moral_self_bias,06,20,60.0283088672,f,001,2018_Apr_02_1228,
,,,,,,,,,,,,,,,,,,,,,,material/2.png,1,爱心,material/102.png,1,material/102.png,爱心,1,f,f,f,1,1,1,善心,,,,,,,,,0,151,151,81,,,,,,,,,,,j,0,0.707641839981,,,,moral_self_bias,06,20,60.0283088672,f,001,2018_Apr_02_1228,
,,,,,,,,,,,,,,,,,,,,,,material/126.png,1,勤快,material/26.png,1,material/126.png,刻苦,1,j,j,j,2,2,2,勤快,,,,,,,,,0,152,152,25,,,,,,,,,,,j,1,1.1755502224,,,,moral_self_bias,06,20,60.0283088672,f,001,2018_Apr_02_1228,
,,,,,,,,,,,,,,,,,,,,,,material/142.png,2,阴险,material/42.png,2,material/42.png,阴险,2,j,j,j,1,1,1,奸诈,,,,,,,,,0,153,153,41,0,0,0,0,,,,,,,f,0,1.22528004646,f,1,0.608481168747,moral_self_bias,06,20,60.0283088672,f,001,2018_Apr_02_1228,
,,,,,,,,,,,,,,,,,,,,,,material/142.png,2,阴险,material/42.png,2,material/42.png,阴险,2,j,j,j,1,1,1,奸诈,,,,,,,,,0,153,153,41,,,,,,,,,,,,,,,,,moral_self_bias,06,20,60.0283088672,f,001,2018_Apr_02_1228,
,,,,,,,,,,,,,,,,,,,,,,material/69.png,1,高明,material/69.png,1,material/69.png,高明,1,f,f,f,2,2,2,高明,,,,,,,,,0,154,154,166,0,0,0,0,,,,,,,f,1,5.02517485619,j,0,1.30805897713,moral_self_bias,06,20,60.0283088672,f,001,2018_Apr_02_1228,
,,,,,,,,,,,,,,,,,,,,,,material/69.png,1,高明,material/69.png,1,material/69.png,高明,1,f,f,f,2,2,2,高明,,,,,,,,,0,154,154,166,,,,,,,,,,,,,,,,,moral_self_bias,06,20,60.0283088672,f,001,2018_Apr_02_1228,
,,,,,,,,,,,,,,,,,,,,,,material/152.png,2,缓慢,material/52.png,2,material/152.png,拖延,2,j,j,j,2,2,2,缓慢,,,,,,,,,0,155,155,51,0,0,0,0,,,,,,,f,0,1.06712198257,f,1,0.257915019989,moral_self_bias,06,20,60.0283088672,f,001,2018_Apr_02_1228,
,,,,,,,,,,,,,,,,,,,,,,material/152.png,2,缓慢,material/52.png,2,material/152.png,拖延,2,j,j,j,2,2,2,缓慢,,,,,,,,,0,155,155,51,,,,,,,,,,,,,,,,,moral_self_bias,06,20,60.0283088672,f,001,2018_Apr_02_1228,
,,,,,,,,,,,,,,,,,,,,,,material/180.png,2,无助,material/79.png,2,material/81.png,颓废,2,j,j,j,2,2,2,怠惰,,,,,,,,,0,156,156,75,0,0,0,0,,,,,,,f,0,2.14063191414,f,1,1.32308888435,moral_self_bias,06,20,60.0283088672,f,001,2018_Apr_02_1228,
,,,,,,,,,,,,,,,,,,,,,,material/180.png,2,无助,material/79.png,2,material/81.png,颓废,2,j,j,j,2,2,2,怠惰,,,,,,,,,0,156,156,75,,,,,,,,,,,,,,,,,moral_self_bias,06,20,60.0283088672,f,001,2018_Apr_02_1228,
,,,,,,,,,,,,,,,,,,,,,,material/183.png,2,颓废,material/182.png,2,material/79.png,才尽,2,f,f,f,2,2,2,薄弱,,,,,,,,,0,157,157,161,,,,,,,,,,,j,0,1.09095096588,,,,moral_self_bias,06,20,60.0283088672,f,001,2018_Apr_02_1228,
,,,,,,,,,,,,,,,,,,,,,,material/128.png,1,自律,material/28.png,1,material/128.png,克己,1,j,j,j,2,2,2,自律,,,,,,,,,0,158,158,27,0,0,0,0,,,,,,,f,0,1.62510204315,j,0,0.341460943222,moral_self_bias,06,20,60.0283088672,f,001,2018_Apr_02_1228,
,,,,,,,,,,,,,,,,,,,,,,material/128.png,1,自律,material/28.png,1,material/128.png,克己,1,j,j,j,2,2,2,自律,,,,,,,,,0,158,158,27,,,,,,,,,,,,,,,,,moral_self_bias,06,20,60.0283088672,f,001,2018_Apr_02_1228,
,,,,,,,,,,,,,,,,,,,,,,material/172.png,2,无情,material/175.png,2,material/175.png,无情,2,f,f,f,1,1,1,浮夸,,,,,,,,,0,159,159,154,0,0,0,0,,,,,,,f,1,3.50785398483,j,0,1.72576808929,moral_self_bias,06,20,60.0283088672,f,001,2018_Apr_02_1228,
,,,,,,,,,,,,,,,,,,,,,,material/172.png,2,无情,material/175.png,2,material/175.png,无情,2,f,f,f,1,1,1,浮夸,,,,,,,,,0,159,159,154,,,,,,,,,,,,,,,,,moral_self_bias,06,20,60.0283088672,f,001,2018_Apr_02_1228,
,,,,,,,,,,,,,,,,,,,,,,material/3.png,1,仁厚,material/103.png,1,material/103.png,仁厚,1,f,f,f,1,1,1,仁慈,,,,,,,,,0,160,160,82,0,0,0,0,,,,,,,f,1,2.51605510712,j,0,0.241440057755,moral_self_bias,06,20,60.0283088672,f,001,2018_Apr_02_1228,
,,,,,,,,,,,,,,,,,,,,,,material/3.png,1,仁厚,material/103.png,1,material/103.png,仁厚,1,f,f,f,1,1,1,仁慈,,,,,,,,,0,160,160,82,,,,,,,,,,,,,,,,,moral_self_bias,06,20,60.0283088672,f,001,2018_Apr_02_1228,
,,,,,,,,,,,,,,,,,,,,,,material/53.png,2,迟缓,material/153.png,2,material/53.png,迟钝,2,f,f,f,2,2,2,迟缓,,,,,,,,,0,161,161,132,,,,,,,,,,,j,0,5.2072250843,,,,moral_self_bias,06,20,60.0283088672,f,001,2018_Apr_02_1228,
,,,,,,,,,,,,,,,,,,,,,,material/161.png,1,奉献,material/164.png,1,material/64.png,孝顺,1,f,f,f,1,1,1,勇敢,,,,,,,,,0,162,162,143,,,,,,,,,,,j,0,3.40883898735,,,,moral_self_bias,06,20,60.0283088672,f,001,2018_Apr_02_1228,
,,,,,,,,,,,,,,,,,,,,,,material/179.png,2,顽愚,material/178.png,2,material/84.png,毛糙,2,f,f,f,2,2,2,差生,,,,,,,,,0,163,163,157,0,0,0,0,,,,,,,f,1,1.12416100502,f,1,0.274518013,moral_self_bias,06,20,60.0283088672,f,001,2018_Apr_02_1228,
,,,,,,,,,,,,,,,,,,,,,,material/179.png,2,顽愚,material/178.png,2,material/84.png,毛糙,2,f,f,f,2,2,2,差生,,,,,,,,,0,163,163,157,,,,,,,,,,,,,,,,,moral_self_bias,06,20,60.0283088672,f,001,2018_Apr_02_1228,
,,,,,,,,,,,,,,,,,,,,,,material/63.png,1,正义,material/166.png,1,material/66.png,仗义,1,f,f,f,1,1,1,文明,,,,,,,,,0,164,164,145,,,,,,,,,,,j,0,1.64151716232,,,,moral_self_bias,06,20,60.0283088672,f,001,2018_Apr_02_1228,
,,,,,,,,,,,,,,,,,,,,,,material/115.png,1,清白,material/15.png,1,material/15.png,清白,1,j,j,j,1,1,1,纯洁,,,,,,,,,0,165,165,14,,,,,,,,,,,j,1,0.875360965729,,,,moral_self_bias,06,20,60.0283088672,f,001,2018_Apr_02_1228,
,,,,,,,,,,,,,,,,,,,,,,material/175.png,2,残虐,material/73.png,2,material/73.png,残虐,2,f,f,f,1,1,1,无情,,,,,,,,,0,166,166,165,0,0,0,0,,,,,,,f,1,1.25735092163,j,0,0.324039936066,moral_self_bias,06,20,60.0283088672,f,001,2018_Apr_02_1228,
,,,,,,,,,,,,,,,,,,,,,,material/175.png,2,残虐,material/73.png,2,material/73.png,残虐,2,f,f,f,1,1,1,无情,,,,,,,,,0,166,166,165,,,,,,,,,,,,,,,,,moral_self_bias,06,20,60.0283088672,f,001,2018_Apr_02_1228,
,,,,,,,,,,,,,,,,,,,,,,material/131.png,1,笃行,material/31.png,1,material/131.png,笃学,1,j,j,j,2,2,2,笃行,,,,,,,,,0,167,167,30,0,0,0,0,,,,,,,f,0,0.992409944534,j,0,0.308859109879,moral_self_bias,06,20,60.0283088672,f,001,2018_Apr_02_1228,
,,,,,,,,,,,,,,,,,,,,,,material/131.png,1,笃行,material/31.png,1,material/131.png,笃学,1,j,j,j,2,2,2,笃行,,,,,,,,,0,167,167,30,,,,,,,,,,,,,,,,,moral_self_bias,06,20,60.0283088672,f,001,2018_Apr_02_1228,
