Block1_Old,Num_Source3,Num_Source2,Num_Source1,valence1,valence2,valence3,Num_Old2,Corr_S1,Num_Old1,Corr_S3,Corr_S2,Block3_Old,Block2_Old,Source_2,Source_3,Source_1,domain3,domain2,domain1,Num_Old3,math,Num_All2,valence_all1,All_Words3,Num_All1,valence_all2,Num_All3,All_Words1,valence_all3,Corr_Rec2,Corr_Rec3,Corr_Rec1,domian_all3,domian_all2,domian_all1,All_Words2,trials.thisRepN,trials.thisTrialN,trials.thisN,trials.thisIndex,trials_2.thisRepN,trials_2.thisTrialN,trials_2.thisN,trials_2.thisIndex,trials_4.thisRepN,trials_4.thisTrialN,trials_4.thisN,trials_4.thisIndex,trials_3.thisRepN,trials_3.thisTrialN,trials_3.thisN,trials_3.thisIndex,block_resp_1.keys,block_resp_1.rt,words_rating.keys,words_rating.rt,block_resp_2.keys,block_resp_2.rt,Rec_resp.keys,Rec_resp.corr,Rec_resp.rt,Source_resp.keys,Source_resp.corr,Source_resp.rt,expName,participant,Age,frameRate,Sex,session,date,
,,,,,,,,,,,,,,,,,,,,,,,,,,,,,,,,,,,,,,,,,,,,,,,,,,,,,3,6.37672305107,,,,,,,,,,,moral_self_bias,12,19,59.9959376225,f,001,2018_Apr_02_1435,
愚钝,material/instr2_1.png,material/instr2_1.png,material/instr2_1.png,2,2,2,material/56.png,f,material/156.png,f,f,愚昧,愚昧,self,self,self,2,2,2,material/56.png,,,,,,,,,,,,,,,,,0,0,0,55,,,,,,,,,,,,,,,None,,,,,,,,,,moral_self_bias,12,19,59.9959376225,f,001,2018_Apr_02_1435,
好问,material/instr2_1.png,material/instr2_1.png,material/instr2_1.png,1,1,1,material/29.png,f,material/129.png,f,f,好学,好学,self,self,self,2,2,2,material/29.png,,,,,,,,,,,,,,,,,0,1,1,28,,,,,,,,,,,,,,,None,,,,,,,,,,moral_self_bias,12,19,59.9959376225,f,001,2018_Apr_02_1435,
残虐,material/instr2_1.png,material/instr2_1.png,material/instr2_1.png,2,2,2,material/175.png,f,material/73.png,f,f,残虐,无情,self,self,self,1,1,1,material/73.png,,,,,,,,,,,,,,,,,0,2,2,85,,,,,,,,,,,,,,,None,,,,,,,,,,moral_self_bias,12,19,59.9959376225,f,001,2018_Apr_02_1435,
纯洁,material/instr2_2.png,material/instr2_2.png,material/instr2_2.png,1,1,1,material/15.png,j,material/115.png,j,j,纯洁,清白,friend,friend,friend,1,1,1,material/115.png,,,,,,,,,,,,,,,,,0,3,3,14,,,,,,,,,,,,,,,None,,,,,,,,,,moral_self_bias,12,19,59.9959376225,f,001,2018_Apr_02_1435,
友善,material/instr2_1.png,material/instr2_1.png,material/instr2_1.png,1,1,1,material/4.png,f,material/104.png,f,f,友善,友爱,self,self,self,1,1,1,material/104.png,,,,,,,,,,,,,,,,,0,4,4,3,,,,,,,,,,,,,,,4,2.85958218575,,,,,,,,,moral_self_bias,12,19,59.9959376225,f,001,2018_Apr_02_1435,
贪污,material/instr2_1.png,material/instr2_1.png,material/instr2_1.png,2,2,2,material/33.png,f,material/133.png,f,f,贪污,腐败,self,self,self,1,1,1,material/133.png,,,,,,,,,,,,,,,,,0,5,5,32,,,,,,,,,,,,,,,2,2.29242920876,,,,,,,,,moral_self_bias,12,19,59.9959376225,f,001,2018_Apr_02_1435,
颖悟,material/instr2_2.png,material/instr2_2.png,material/instr2_2.png,1,1,1,material/167.png,j,material/169.png,j,j,高手,高手,friend,friend,friend,2,2,2,material/167.png,,,,,,,,,,,,,,,,,0,6,6,68,,,,,,,,,,,,,,,4,2.79237699509,,,,,,,,,moral_self_bias,12,19,59.9959376225,f,001,2018_Apr_02_1435,
无私,material/instr2_2.png,material/instr2_2.png,material/instr2_2.png,1,1,1,material/8.png,j,material/108.png,j,j,无私,公道,friend,friend,friend,1,1,1,material/108.png,,,,,,,,,,,,,,,,,0,7,7,7,,,,,,,,,,,,,,,4,2.60880303383,,,,,,,,,moral_self_bias,12,19,59.9959376225,f,001,2018_Apr_02_1435,
放纵,material/instr2_1.png,material/instr2_1.png,material/instr2_1.png,2,2,2,material/76.png,f,material/176.png,f,f,放纵,虚伪,self,self,self,1,1,1,material/176.png,,,,,,,,,,,,,,,,,0,8,8,75,,,,,,,,,,,,,,,4,1.75896000862,,,,,,,,,moral_self_bias,12,19,59.9959376225,f,001,2018_Apr_02_1435,
薄弱,material/instr2_1.png,material/instr2_1.png,material/instr2_1.png,2,2,2,material/82.png,f,material/183.png,f,f,毛糙,窝囊,self,self,self,2,2,2,material/178.png,,,,,,,,,,,,,,,,,0,9,9,82,,,,,,,,,,,,,,,2,1.63290119171,,,,,,,,,moral_self_bias,12,19,59.9959376225,f,001,2018_Apr_02_1435,
敬业,material/instr2_2.png,material/instr2_2.png,material/instr2_2.png,1,1,1,material/62.png,j,material/162.png,j,j,坚韧,坚韧,friend,friend,friend,1,1,1,material/62.png,,,,,,,,,,,,,,,,,0,10,10,61,,,,,,,,,,,,,,,4,1.82562804222,,,,,,,,,moral_self_bias,12,19,59.9959376225,f,001,2018_Apr_02_1435,
诚信,material/instr2_1.png,material/instr2_1.png,material/instr2_1.png,1,1,1,material/5.png,f,material/105.png,f,f,诚信,守信,self,self,self,1,1,1,material/105.png,,,,,,,,,,,,,,,,,0,11,11,4,,,,,,,,,,,,,,,None,,,,,,,,,,moral_self_bias,12,19,59.9959376225,f,001,2018_Apr_02_1435,
仗义,material/instr2_1.png,material/instr2_1.png,material/instr2_1.png,1,1,1,material/63.png,f,material/166.png,f,f,正义,文明,self,self,self,1,1,1,material/66.png,,,,,,,,,,,,,,,,,0,12,12,65,,,,,,,,,,,,,,,4,2.20895814896,,,,,,,,,moral_self_bias,12,19,59.9959376225,f,001,2018_Apr_02_1435,
缓慢,material/instr2_1.png,material/instr2_1.png,material/instr2_1.png,2,2,2,material/52.png,f,material/152.png,f,f,拖延,拖延,self,self,self,2,2,2,material/52.png,,,,,,,,,,,,,,,,,0,13,13,51,,,,,,,,,,,,,,,4,2.12547588348,,,,,,,,,moral_self_bias,12,19,59.9959376225,f,001,2018_Apr_02_1435,
冷静,material/instr2_1.png,material/instr2_1.png,material/instr2_1.png,1,1,1,material/24.png,f,material/124.png,f,f,理智,理智,self,self,self,2,2,2,material/24.png,,,,,,,,,,,,,,,,,0,14,14,23,,,,,,,,,,,,,,,4,1.40918803215,,,,,,,,,moral_self_bias,12,19,59.9959376225,f,001,2018_Apr_02_1435,
冷血,material/instr2_1.png,material/instr2_1.png,material/instr2_1.png,2,2,2,material/35.png,f,material/135.png,f,f,冷血,冷漠,self,self,self,1,1,1,material/135.png,,,,,,,,,,,,,,,,,0,15,15,34,,,,,,,,,,,,,,,2,1.87579298019,,,,,,,,,moral_self_bias,12,19,59.9959376225,f,001,2018_Apr_02_1435,
可恶,material/instr2_1.png,material/instr2_1.png,material/instr2_1.png,2,2,2,material/34.png,f,material/134.png,f,f,可恶,可恨,self,self,self,1,1,1,material/134.png,,,,,,,,,,,,,,,,,0,16,16,33,,,,,,,,,,,,,,,2,1.79248189926,,,,,,,,,moral_self_bias,12,19,59.9959376225,f,001,2018_Apr_02_1435,
虚荣,material/instr2_1.png,material/instr2_1.png,material/instr2_1.png,2,2,2,material/43.png,f,material/143.png,f,f,虚荣,拜金,self,self,self,1,1,1,material/143.png,,,,,,,,,,,,,,,,,0,17,17,42,,,,,,,,,,,,,,,2,2.19229197502,,,,,,,,,moral_self_bias,12,19,59.9959376225,f,001,2018_Apr_02_1435,
机智,material/instr2_2.png,material/instr2_2.png,material/instr2_2.png,1,1,1,material/16.png,j,material/116.png,j,j,睿智,睿智,friend,friend,friend,2,2,2,material/16.png,,,,,,,,,,,,,,,,,0,18,18,15,,,,,,,,,,,,,,,4,1.55800485611,,,,,,,,,moral_self_bias,12,19,59.9959376225,f,001,2018_Apr_02_1435,
厚道,material/instr2_2.png,material/instr2_2.png,material/instr2_2.png,1,1,1,material/6.png,j,material/106.png,j,j,厚道,诚实,friend,friend,friend,1,1,1,material/106.png,,,,,,,,,,,,,,,,,0,19,19,5,,,,,,,,,,,,,,,2,1.43346691132,,,,,,,,,moral_self_bias,12,19,59.9959376225,f,001,2018_Apr_02_1435,
顽愚,material/instr2_1.png,material/instr2_1.png,material/instr2_1.png,2,2,2,material/84.png,f,material/84.png,f,f,犹豫,顽愚,self,self,self,2,2,2,material/181.png,,,,,,,,,,,,,,,,,0,20,20,87,,,,,,,,,,,,,,,4,2.00941491127,,,,,,,,,moral_self_bias,12,19,59.9959376225,f,001,2018_Apr_02_1435,
正义,material/instr2_1.png,material/instr2_1.png,material/instr2_1.png,1,1,1,material/66.png,f,material/66.png,f,f,独立,正义,self,self,self,1,1,1,material/165.png,,,,,,,,,,,,,,,,,0,21,21,84,,,,,,,,,,,,,,,4,1.60892605782,,,,,,,,,moral_self_bias,12,19,59.9959376225,f,001,2018_Apr_02_1435,
高明,material/instr2_1.png,material/instr2_1.png,material/instr2_1.png,1,1,1,material/69.png,f,material/69.png,f,f,高明,高明,self,self,self,2,2,2,material/69.png,,,,,,,,,,,,,,,,,0,22,22,86,,,,,,,,,,,,,,,2,1.34011316299,,,,,,,,,moral_self_bias,12,19,59.9959376225,f,001,2018_Apr_02_1435,
超群,material/instr2_2.png,material/instr2_2.png,material/instr2_2.png,1,1,1,material/27.png,j,material/127.png,j,j,卓越,卓越,friend,friend,friend,2,2,2,material/27.png,,,,,,,,,,,,,,,,,0,23,23,26,,,,,,,,,,,,,,,4,1.5090739727,,,,,,,,,moral_self_bias,12,19,59.9959376225,f,001,2018_Apr_02_1435,
怠惰,material/instr2_2.png,material/instr2_2.png,material/instr2_2.png,2,2,2,material/181.png,j,material/180.png,j,j,怠惰,犹豫,friend,friend,friend,2,2,2,material/180.png,,,,,,,,,,,,,,,,,0,24,24,79,,,,,,,,,,,,,,,4,1.90865302086,,,,,,,,,moral_self_bias,12,19,59.9959376225,f,001,2018_Apr_02_1435,
坚毅,material/instr2_2.png,material/instr2_2.png,material/instr2_2.png,1,1,1,material/10.png,j,material/110.png,j,j,坚毅,顽强,friend,friend,friend,1,1,1,material/110.png,,,,,,,,,,,,,,,,,0,25,25,9,,,,,,,,,,,,,,,4,2.14248800278,,,,,,,,,moral_self_bias,12,19,59.9959376225,f,001,2018_Apr_02_1435,
聪颖,material/instr2_2.png,material/instr2_2.png,material/instr2_2.png,1,1,1,material/17.png,j,material/117.png,j,j,聪明,聪明,friend,friend,friend,2,2,2,material/17.png,,,,,,,,,,,,,,,,,0,26,26,16,,,,,,,,,,,,,,,4,1.25851821899,,,,,,,,,moral_self_bias,12,19,59.9959376225,f,001,2018_Apr_02_1435,
笨拙,material/instr2_1.png,material/instr2_1.png,material/instr2_1.png,2,2,2,material/60.png,f,material/160.png,f,f,粗拙,粗拙,self,self,self,2,2,2,material/60.png,,,,,,,,,,,,,,,,,0,27,27,59,,,,,,,,,,,,,,,4,1.37229895592,,,,,,,,,moral_self_bias,12,19,59.9959376225,f,001,2018_Apr_02_1435,
仁厚,material/instr2_1.png,material/instr2_1.png,material/instr2_1.png,1,1,1,material/3.png,f,material/103.png,f,f,仁厚,仁慈,self,self,self,1,1,1,material/103.png,,,,,,,,,,,,,,,,,0,28,28,2,,,,,,,,,,,,,,,4,1.20558214188,,,,,,,,,moral_self_bias,12,19,59.9959376225,f,001,2018_Apr_02_1435,
卑鄙,material/instr2_2.png,material/instr2_2.png,material/instr2_2.png,2,2,2,material/37.png,j,material/137.png,j,j,卑鄙,无耻,friend,friend,friend,1,1,1,material/137.png,,,,,,,,,,,,,,,,,0,29,29,36,,,,,,,,,,,,,,,1,1.49209904671,,,,,,,,,moral_self_bias,12,19,59.9959376225,f,001,2018_Apr_02_1435,
机变,material/instr2_2.png,material/instr2_2.png,material/instr2_2.png,1,1,1,material/70.png,j,material/168.png,j,j,全面,全面,friend,friend,friend,2,2,2,material/70.png,,,,,,,,,,,,,,,,,0,30,30,67,,,,,,,,,,,,,,,4,2.52369117737,,,,,,,,,moral_self_bias,12,19,59.9959376225,f,001,2018_Apr_02_1435,
孝顺,material/instr2_1.png,material/instr2_1.png,material/instr2_1.png,1,1,1,material/161.png,f,material/164.png,f,f,奉献,勇敢,self,self,self,1,1,1,material/64.png,,,,,,,,,,,,,,,,,0,31,31,63,,,,,,,,,,,,,,,4,1.6915910244,,,,,,,,,moral_self_bias,12,19,59.9959376225,f,001,2018_Apr_02_1435,
宽容,material/instr2_2.png,material/instr2_2.png,material/instr2_2.png,1,1,1,material/163.png,j,material/163.png,j,j,文明,宽容,friend,friend,friend,1,1,1,material/63.png,,,,,,,,,,,,,,,,,0,32,32,62,,,,,,,,,,,,,,,4,1.12577199936,,,,,,,,,moral_self_bias,12,19,59.9959376225,f,001,2018_Apr_02_1435,
毛糙,material/instr2_2.png,material/instr2_2.png,material/instr2_2.png,2,2,2,material/179.png,j,material/178.png,j,j,顽愚,差生,friend,friend,friend,2,2,2,material/84.png,,,,,,,,,,,,,,,,,0,33,33,77,,,,,,,,,,,,,,,2,1.10900616646,,,,,,,,,moral_self_bias,12,19,59.9959376225,f,001,2018_Apr_02_1435,
小人,material/instr2_2.png,material/instr2_2.png,material/instr2_2.png,2,2,2,material/45.png,j,material/145.png,j,j,小人,下流,friend,friend,friend,1,1,1,material/145.png,,,,,,,,,,,,,,,,,0,34,34,44,,,,,,,,,,,,,,,2,0.974412918091,,,,,,,,,moral_self_bias,12,19,59.9959376225,f,001,2018_Apr_02_1435,
恶毒,material/instr2_2.png,material/instr2_2.png,material/instr2_2.png,2,2,2,material/39.png,j,material/139.png,j,j,恶毒,凶残,friend,friend,friend,1,1,1,material/139.png,,,,,,,,,,,,,,,,,0,35,35,38,,,,,,,,,,,,,,,1,1.52542710304,,,,,,,,,moral_self_bias,12,19,59.9959376225,f,001,2018_Apr_02_1435,
缺德,material/instr2_2.png,material/instr2_2.png,material/instr2_2.png,2,2,2,material/38.png,j,material/138.png,j,j,缺德,无德,friend,friend,friend,1,1,1,material/138.png,,,,,,,,,,,,,,,,,0,36,36,37,,,,,,,,,,,,,,,1,1.07517504692,,,,,,,,,moral_self_bias,12,19,59.9959376225,f,001,2018_Apr_02_1435,
犹豫,material/instr2_1.png,material/instr2_1.png,material/instr2_1.png,2,2,2,material/78.png,f,material/181.png,f,f,厌学,草率,self,self,self,2,2,2,material/184.png,,,,,,,,,,,,,,,,,0,37,37,80,,,,,,,,,,,,,,,1,1.70876312256,,,,,,,,,moral_self_bias,12,19,59.9959376225,f,001,2018_Apr_02_1435,
多才,material/instr2_1.png,material/instr2_1.png,material/instr2_1.png,1,1,1,material/23.png,f,material/123.png,f,f,有才,有才,self,self,self,2,2,2,material/23.png,,,,,,,,,,,,,,,,,0,38,38,22,,,,,,,,,,,,,,,5,1.34236192703,,,,,,,,,moral_self_bias,12,19,59.9959376225,f,001,2018_Apr_02_1435,
坚忍,material/instr2_1.png,material/instr2_1.png,material/instr2_1.png,1,1,1,material/168.png,f,material/170.png,f,f,机变,机变,self,self,self,2,2,2,material/168.png,,,,,,,,,,,,,,,,,0,39,39,69,,,,,,,,,,,,,,,5,1.45887994766,,,,,,,,,moral_self_bias,12,19,59.9959376225,f,001,2018_Apr_02_1435,
果敢,material/instr2_1.png,material/instr2_1.png,material/instr2_1.png,1,1,1,material/25.png,f,material/125.png,f,f,果断,果断,self,self,self,2,2,2,material/25.png,,,,,,,,,,,,,,,,,0,40,40,24,,,,,,,,,,,,,,,5,1.27456998825,,,,,,,,,moral_self_bias,12,19,59.9959376225,f,001,2018_Apr_02_1435,
无能,material/instr2_2.png,material/instr2_2.png,material/instr2_2.png,2,2,2,material/57.png,j,material/157.png,j,j,无知,无知,friend,friend,friend,2,2,2,material/57.png,,,,,,,,,,,,,,,,,0,41,41,56,,,,,,,,,,,,,,,1,2.26008105278,,,,,,,,,moral_self_bias,12,19,59.9959376225,f,001,2018_Apr_02_1435,
鲁钝,material/instr2_2.png,material/instr2_2.png,material/instr2_2.png,2,2,2,material/50.png,j,material/150.png,j,j,愚笨,愚笨,friend,friend,friend,2,2,2,material/50.png,,,,,,,,,,,,,,,,,0,42,42,49,,,,,,,,,,,,,,,1,1.10576605797,,,,,,,,,moral_self_bias,12,19,59.9959376225,f,001,2018_Apr_02_1435,
无情,material/instr2_1.png,material/instr2_1.png,material/instr2_1.png,2,2,2,material/172.png,f,material/175.png,f,f,无情,浮夸,self,self,self,1,1,1,material/175.png,,,,,,,,,,,,,,,,,0,43,43,74,,,,,,,,,,,,,,,1,2.35881710052,,,,,,,,,moral_self_bias,12,19,59.9959376225,f,001,2018_Apr_02_1435,
奸诈,material/instr2_1.png,material/instr2_1.png,material/instr2_1.png,2,2,2,material/42.png,f,material/142.png,f,f,奸诈,阴险,self,self,self,1,1,1,material/142.png,,,,,,,,,,,,,,,,,0,44,44,41,,,,,,,,,,,,,,,1,1.00850009918,,,,,,,,,moral_self_bias,12,19,59.9959376225,f,001,2018_Apr_02_1435,
残忍,material/instr2_2.png,material/instr2_2.png,material/instr2_2.png,2,2,2,material/41.png,j,material/141.png,j,j,残忍,歹毒,friend,friend,friend,1,1,1,material/141.png,,,,,,,,,,,,,,,,,0,45,45,40,,,,,,,,,,,,,,,1,1.35784697533,,,,,,,,,moral_self_bias,12,19,59.9959376225,f,001,2018_Apr_02_1435,
廉明,material/instr2_2.png,material/instr2_2.png,material/instr2_2.png,1,1,1,material/13.png,j,material/113.png,j,j,廉明,廉洁,friend,friend,friend,1,1,1,material/113.png,,,,,,,,,,,,,,,,,0,46,46,12,,,,,,,,,,,,,,,4,1.87515306473,,,,,,,,,moral_self_bias,12,19,59.9959376225,f,001,2018_Apr_02_1435,
高尚,material/instr2_1.png,material/instr2_1.png,material/instr2_1.png,1,1,1,material/11.png,f,material/111.png,f,f,高尚,高雅,self,self,self,1,1,1,material/111.png,,,,,,,,,,,,,,,,,0,47,47,10,,,,,,,,,,,,,,,4,2.32558488846,,,,,,,,,moral_self_bias,12,19,59.9959376225,f,001,2018_Apr_02_1435,
自私,material/instr2_2.png,material/instr2_2.png,material/instr2_2.png,2,2,2,material/46.png,j,material/146.png,j,j,自私,小气,friend,friend,friend,1,1,1,material/146.png,,,,,,,,,,,,,,,,,0,48,48,45,,,,,,,,,,,,,,,1,1.40874505043,,,,,,,,,moral_self_bias,12,19,59.9959376225,f,001,2018_Apr_02_1435,
依靠,material/instr2_1.png,material/instr2_1.png,material/instr2_1.png,2,2,2,material/54.png,f,material/154.png,f,f,依赖,依赖,self,self,self,2,2,2,material/54.png,,,,,,,,,,,,,,,,,0,49,49,53,,,,,,,,,,,,,,,4,2.45866107941,,,,,,,,,moral_self_bias,12,19,59.9959376225,f,001,2018_Apr_02_1435,
机敏,material/instr2_2.png,material/instr2_2.png,material/instr2_2.png,1,1,1,material/18.png,j,material/118.png,j,j,敏锐,敏锐,friend,friend,friend,2,2,2,material/18.png,,,,,,,,,,,,,,,,,0,50,50,17,,,,,,,,,,,,,,,5,1.84246921539,,,,,,,,,moral_self_bias,12,19,59.9959376225,f,001,2018_Apr_02_1435,
独立,material/instr2_1.png,material/instr2_1.png,material/instr2_1.png,1,1,1,material/64.png,f,material/165.png,f,f,谦虚,奉献,self,self,self,1,1,1,material/65.png,,,,,,,,,,,,,,,,,0,51,51,64,,,,,,,,,,,,,,,2,2.04208993912,,,,,,,,,moral_self_bias,12,19,59.9959376225,f,001,2018_Apr_02_1435,
正直,material/instr2_2.png,material/instr2_2.png,material/instr2_2.png,1,1,1,material/9.png,j,material/109.png,j,j,正直,秉直,friend,friend,friend,1,1,1,material/109.png,,,,,,,,,,,,,,,,,0,52,52,8,,,,,,,,,,,,,,,5,2.10926604271,,,,,,,,,moral_self_bias,12,19,59.9959376225,f,001,2018_Apr_02_1435,
恶心,material/instr2_1.png,material/instr2_1.png,material/instr2_1.png,2,2,2,material/73.png,f,material/177.png,f,f,恶心,残虐,self,self,self,1,1,1,material/177.png,,,,,,,,,,,,,,,,,0,53,53,76,,,,,,,,,,,,,,,1,1.18349289894,,,,,,,,,moral_self_bias,12,19,59.9959376225,f,001,2018_Apr_02_1435,
爱心,material/instr2_1.png,material/instr2_1.png,material/instr2_1.png,1,1,1,material/2.png,f,material/102.png,f,f,爱心,善心,self,self,self,1,1,1,material/102.png,,,,,,,,,,,,,,,,,0,54,54,1,,,,,,,,,,,,,,,4,1.74208903313,,,,,,,,,moral_self_bias,12,19,59.9959376225,f,001,2018_Apr_02_1435,
自律,material/instr2_2.png,material/instr2_2.png,material/instr2_2.png,1,1,1,material/28.png,j,material/128.png,j,j,克己,克己,friend,friend,friend,2,2,2,material/28.png,,,,,,,,,,,,,,,,,0,55,55,27,,,,,,,,,,,,,,,5,1.92559695244,,,,,,,,,moral_self_bias,12,19,59.9959376225,f,001,2018_Apr_02_1435,
忠贞,material/instr2_2.png,material/instr2_2.png,material/instr2_2.png,1,1,1,material/14.png,j,material/114.png,j,j,忠贞,爱国,friend,friend,friend,1,1,1,material/114.png,,,,,,,,,,,,,,,,,0,56,56,13,,,,,,,,,,,,,,,4,1.45864200592,,,,,,,,,moral_self_bias,12,19,59.9959376225,f,001,2018_Apr_02_1435,
狠毒,material/instr2_2.png,material/instr2_2.png,material/instr2_2.png,2,2,2,material/40.png,j,material/140.png,j,j,狠毒,邪恶,friend,friend,friend,1,1,1,material/140.png,,,,,,,,,,,,,,,,,0,57,57,39,,,,,,,,,,,,,,,1,1.00853204727,,,,,,,,,moral_self_bias,12,19,59.9959376225,f,001,2018_Apr_02_1435,
高手,material/instr2_2.png,material/instr2_2.png,material/instr2_2.png,1,1,1,material/68.png,j,material/167.png,j,j,广博,广博,friend,friend,friend,2,2,2,material/68.png,,,,,,,,,,,,,,,,,0,58,58,66,,,,,,,,,,,,,,,5,1.35905814171,,,,,,,,,moral_self_bias,12,19,59.9959376225,f,001,2018_Apr_02_1435,
黑心,material/instr2_2.png,material/instr2_2.png,material/instr2_2.png,2,2,2,material/74.png,j,material/173.png,j,j,黑心,卑劣,friend,friend,friend,1,1,1,material/173.png,,,,,,,,,,,,,,,,,0,59,59,72,,,,,,,,,,,,,,,1,1.02485609055,,,,,,,,,moral_self_bias,12,19,59.9959376225,f,001,2018_Apr_02_1435,
勇敢,material/instr2_2.png,material/instr2_2.png,material/instr2_2.png,1,1,1,material/165.png,j,material/161.png,j,j,平等,独立,friend,friend,friend,1,1,1,material/61.png,,,,,,,,,,,,,,,,,0,60,60,60,,,,,,,,,,,,,,,4,1.57511115074,,,,,,,,,moral_self_bias,12,19,59.9959376225,f,001,2018_Apr_02_1435,
才尽,material/instr2_1.png,material/instr2_1.png,material/instr2_1.png,2,2,2,material/183.png,f,material/182.png,f,f,颓废,薄弱,self,self,self,2,2,2,material/79.png,,,,,,,,,,,,,,,,,0,61,61,81,,,,,,,,,,,,,,,2,1.89212298393,,,,,,,,,moral_self_bias,12,19,59.9959376225,f,001,2018_Apr_02_1435,
忠心,material/instr2_1.png,material/instr2_1.png,material/instr2_1.png,1,1,1,material/12.png,f,material/112.png,f,f,忠心,忠诚,self,self,self,1,1,1,material/112.png,,,,,,,,,,,,,,,,,0,62,62,11,,,,,,,,,,,,,,,4,1.78344392776,,,,,,,,,moral_self_bias,12,19,59.9959376225,f,001,2018_Apr_02_1435,
博学,material/instr2_1.png,material/instr2_1.png,material/instr2_1.png,1,1,1,material/22.png,f,material/122.png,f,f,才学,才学,self,self,self,2,2,2,material/22.png,,,,,,,,,,,,,,,,,0,63,63,21,,,,,,,,,,,,,,,4,1.13387799263,,,,,,,,,moral_self_bias,12,19,59.9959376225,f,001,2018_Apr_02_1435,
白痴,material/instr2_2.png,material/instr2_2.png,material/instr2_2.png,2,2,2,material/49.png,j,material/149.png,j,j,痴呆,痴呆,friend,friend,friend,2,2,2,material/49.png,,,,,,,,,,,,,,,,,0,64,64,48,,,,,,,,,,,,,,,1,1.12586092949,,,,,,,,,moral_self_bias,12,19,59.9959376225,f,001,2018_Apr_02_1435,
爽约,material/instr2_2.png,material/instr2_2.png,material/instr2_2.png,2,2,2,material/44.png,j,material/144.png,j,j,爽约,失信,friend,friend,friend,1,1,1,material/144.png,,,,,,,,,,,,,,,,,0,65,65,43,,,,,,,,,,,,,,,1,1.68888711929,,,,,,,,,moral_self_bias,12,19,59.9959376225,f,001,2018_Apr_02_1435,
差生,material/instr2_2.png,material/instr2_2.png,material/instr2_2.png,2,2,2,material/81.png,j,material/179.png,j,j,呆笨,无助,friend,friend,friend,2,2,2,material/83.png,,,,,,,,,,,,,,,,,0,66,66,78,,,,,,,,,,,,,,,1,1.15921998024,,,,,,,,,moral_self_bias,12,19,59.9959376225,f,001,2018_Apr_02_1435,
博爱,material/instr2_1.png,material/instr2_1.png,material/instr2_1.png,1,1,1,material/1.png,f,material/101.png,f,f,博爱,善良,self,self,self,1,1,1,material/101.png,,,,,,,,,,,,,,,,,0,67,67,0,,,,,,,,,,,,,,,4,2.65805697441,,,,,,,,,moral_self_bias,12,19,59.9959376225,f,001,2018_Apr_02_1435,
不义,material/instr2_2.png,material/instr2_2.png,material/instr2_2.png,2,2,2,material/173.png,j,material/174.png,j,j,不义,黑心,friend,friend,friend,1,1,1,material/174.png,,,,,,,,,,,,,,,,,0,68,68,73,,,,,,,,,,,,,,,1,1.09121990204,,,,,,,,,moral_self_bias,12,19,59.9959376225,f,001,2018_Apr_02_1435,
勤快,material/instr2_2.png,material/instr2_2.png,material/instr2_2.png,1,1,1,material/26.png,j,material/126.png,j,j,刻苦,刻苦,friend,friend,friend,2,2,2,material/26.png,,,,,,,,,,,,,,,,,0,69,69,25,,,,,,,,,,,,,,,5,2.04253792763,,,,,,,,,moral_self_bias,12,19,59.9959376225,f,001,2018_Apr_02_1435,
背叛,material/instr2_1.png,material/instr2_1.png,material/instr2_1.png,2,2,2,material/32.png,f,material/132.png,f,f,背叛,不忠,self,self,self,1,1,1,material/132.png,,,,,,,,,,,,,,,,,0,70,70,31,,,,,,,,,,,,,,,1,1.94254302979,,,,,,,,,moral_self_bias,12,19,59.9959376225,f,001,2018_Apr_02_1435,
机灵,material/instr2_2.png,material/instr2_2.png,material/instr2_2.png,1,1,1,material/19.png,j,material/119.png,j,j,灵活,灵活,friend,friend,friend,2,2,2,material/19.png,,,,,,,,,,,,,,,,,0,71,71,18,,,,,,,,,,,,,,,4,1.67606902122,,,,,,,,,moral_self_bias,12,19,59.9959376225,f,001,2018_Apr_02_1435,
精干,material/instr2_1.png,material/instr2_1.png,material/instr2_1.png,1,1,1,material/21.png,f,material/121.png,f,f,干练,干练,self,self,self,2,2,2,material/21.png,,,,,,,,,,,,,,,,,0,72,72,20,,,,,,,,,,,,,,,4,1.84244608879,,,,,,,,,moral_self_bias,12,19,59.9959376225,f,001,2018_Apr_02_1435,
撒谎,material/instr2_1.png,material/instr2_1.png,material/instr2_1.png,2,2,2,material/36.png,f,material/136.png,f,f,撒谎,说谎,self,self,self,1,1,1,material/136.png,,,,,,,,,,,,,,,,,0,73,73,35,,,,,,,,,,,,,,,1,1.74226498604,,,,,,,,,moral_self_bias,12,19,59.9959376225,f,001,2018_Apr_02_1435,
浮夸,material/instr2_2.png,material/instr2_2.png,material/instr2_2.png,2,2,2,material/77.png,j,material/172.png,j,j,浮夸,软弱,friend,friend,friend,1,1,1,material/172.png,,,,,,,,,,,,,,,,,0,74,74,71,,,,,,,,,,,,,,,1,1.49326992035,,,,,,,,,moral_self_bias,12,19,59.9959376225,f,001,2018_Apr_02_1435,
浅薄,material/instr2_2.png,material/instr2_2.png,material/instr2_2.png,2,2,2,material/58.png,j,material/158.png,j,j,肤浅,肤浅,friend,friend,friend,2,2,2,material/58.png,,,,,,,,,,,,,,,,,0,75,75,57,,,,,,,,,,,,,,,1,1.02578997612,,,,,,,,,moral_self_bias,12,19,59.9959376225,f,001,2018_Apr_02_1435,
笨蛋,material/instr2_2.png,material/instr2_2.png,material/instr2_2.png,2,2,2,material/48.png,j,material/148.png,j,j,愚蠢,愚蠢,friend,friend,friend,2,2,2,material/48.png,,,,,,,,,,,,,,,,,0,76,76,47,,,,,,,,,,,,,,,1,2.44268894196,,,,,,,,,moral_self_bias,12,19,59.9959376225,f,001,2018_Apr_02_1435,
盲目,material/instr2_1.png,material/instr2_1.png,material/instr2_1.png,2,2,2,material/55.png,f,material/155.png,f,f,盲从,盲从,self,self,self,2,2,2,material/55.png,,,,,,,,,,,,,,,,,0,77,77,54,,,,,,,,,,,,,,,4,2.85936403275,,,,,,,,,moral_self_bias,12,19,59.9959376225,f,001,2018_Apr_02_1435,
公平,material/instr2_2.png,material/instr2_2.png,material/instr2_2.png,1,1,1,material/7.png,j,material/107.png,j,j,公平,公正,friend,friend,friend,1,1,1,material/107.png,,,,,,,,,,,,,,,,,0,78,78,6,,,,,,,,,,,,,,,5,1.74289608002,,,,,,,,,moral_self_bias,12,19,59.9959376225,f,001,2018_Apr_02_1435,
厌学,material/instr2_2.png,material/instr2_2.png,material/instr2_2.png,2,2,2,material/182.png,j,material/184.png,j,j,健忘,才尽,friend,friend,friend,2,2,2,material/80.png,,,,,,,,,,,,,,,,,0,79,79,83,,,,,,,,,,,,,,,2,2.05885791779,,,,,,,,,moral_self_bias,12,19,59.9959376225,f,001,2018_Apr_02_1435,
弱智,material/instr2_1.png,material/instr2_1.png,material/instr2_1.png,2,2,2,material/59.png,f,material/159.png,f,f,智障,智障,self,self,self,2,2,2,material/59.png,,,,,,,,,,,,,,,,,0,80,80,58,,,,,,,,,,,,,,,1,2.15885710716,,,,,,,,,moral_self_bias,12,19,59.9959376225,f,001,2018_Apr_02_1435,
迟钝,material/instr2_1.png,material/instr2_1.png,material/instr2_1.png,2,2,2,material/53.png,f,material/153.png,f,f,迟缓,迟缓,self,self,self,2,2,2,material/53.png,,,,,,,,,,,,,,,,,0,81,81,52,,,,,,,,,,,,,,,2,2.74259614944,,,,,,,,,moral_self_bias,12,19,59.9959376225,f,001,2018_Apr_02_1435,
迷糊,material/instr2_2.png,material/instr2_2.png,material/instr2_2.png,2,2,2,material/51.png,j,material/151.png,j,j,糊涂,糊涂,friend,friend,friend,2,2,2,material/51.png,,,,,,,,,,,,,,,,,0,82,82,50,,,,,,,,,,,,,,,1,2.4089319706,,,,,,,,,moral_self_bias,12,19,59.9959376225,f,001,2018_Apr_02_1435,
笃行,material/instr2_1.png,material/instr2_1.png,material/instr2_1.png,1,1,1,material/31.png,f,material/131.png,f,f,笃学,笃学,self,self,self,2,2,2,material/31.png,,,,,,,,,,,,,,,,,0,83,83,30,,,,,,,,,,,,,,,5,1.62587285042,,,,,,,,,moral_self_bias,12,19,59.9959376225,f,001,2018_Apr_02_1435,
进取,material/instr2_1.png,material/instr2_1.png,material/instr2_1.png,1,1,1,material/30.png,f,material/130.png,f,f,上进,上进,self,self,self,2,2,2,material/30.png,,,,,,,,,,,,,,,,,0,84,84,29,,,,,,,,,,,,,,,5,1.29284000397,,,,,,,,,moral_self_bias,12,19,59.9959376225,f,001,2018_Apr_02_1435,
高效,material/instr2_1.png,material/instr2_1.png,material/instr2_1.png,1,1,1,material/169.png,f,material/171.png,f,f,颖悟,颖悟,self,self,self,2,2,2,material/169.png,,,,,,,,,,,,,,,,,0,85,85,70,,,,,,,,,,,,,,,5,1.37559294701,,,,,,,,,moral_self_bias,12,19,59.9959376225,f,001,2018_Apr_02_1435,
能干,material/instr2_2.png,material/instr2_2.png,material/instr2_2.png,1,1,1,material/20.png,j,material/120.png,j,j,厉害,厉害,friend,friend,friend,2,2,2,material/20.png,,,,,,,,,,,,,,,,,0,86,86,19,,,,,,,,,,,,,,,4,1.89188885689,,,,,,,,,moral_self_bias,12,19,59.9959376225,f,001,2018_Apr_02_1435,
刻板,material/instr2_2.png,material/instr2_2.png,material/instr2_2.png,2,2,2,material/47.png,j,material/147.png,j,j,死板,死板,friend,friend,friend,2,2,2,material/47.png,,,,,,,,,,,,,,,,,0,87,87,46,,,,,,,,,,,,,,,1,2.2424890995,,,,,,,,,moral_self_bias,12,19,59.9959376225,f,001,2018_Apr_02_1435,
,,,,,,,,,,,,,,,,,,,,,3^2= ?,,,,,,,,,,,,,,,,,,,,0,0,0,50,,,,,,,,,,,,,,,,,,,,,moral_self_bias,12,19,59.9959376225,f,001,2018_Apr_02_1435,
,,,,,,,,,,,,,,,,,,,,,6+1= ?,,,,,,,,,,,,,,,,,,,,0,1,1,43,,,,,,,,,,,,,,,,,,,,,moral_self_bias,12,19,59.9959376225,f,001,2018_Apr_02_1435,
,,,,,,,,,,,,,,,,,,,,,2+7= ?,,,,,,,,,,,,,,,,,,,,0,2,2,13,,,,,,,,,,,,,,,,,,,,,moral_self_bias,12,19,59.9959376225,f,001,2018_Apr_02_1435,
,,,,,,,,,,,,,,,,,,,,,9-3= ?,,,,,,,,,,,,,,,,,,,,0,3,3,15,,,,,,,,,,,,,,,,,,,,,moral_self_bias,12,19,59.9959376225,f,001,2018_Apr_02_1435,
,,,,,,,,,,,,,,,,,,,,,10-5=？,,,,,,,,,,,,,,,,,,,,0,4,4,67,,,,,,,,,,,,,,,,,,,,,moral_self_bias,12,19,59.9959376225,f,001,2018_Apr_02_1435,
,,,,,,,,,,,,,,,,,,,,,9-8= ?,,,,,,,,,,,,,,,,,,,,0,5,5,31,,,,,,,,,,,,,,,,,,,,,moral_self_bias,12,19,59.9959376225,f,001,2018_Apr_02_1435,
,,,,,,,,,,,,,,,,,,,,,7-0= ?,,,,,,,,,,,,,,,,,,,,0,6,6,117,,,,,,,,,,,,,,,,,,,,,moral_self_bias,12,19,59.9959376225,f,001,2018_Apr_02_1435,
,,,,,,,,,,,,,,,,,,,,,5+2= ?,,,,,,,,,,,,,,,,,,,,0,7,7,35,,,,,,,,,,,,,,,,,,,,,moral_self_bias,12,19,59.9959376225,f,001,2018_Apr_02_1435,
,,,,,,,,,,,,,,,,,,,,,5+1= ?,,,,,,,,,,,,,,,,,,,,0,8,8,34,,,,,,,,,,,,,,,,,,,,,moral_self_bias,12,19,59.9959376225,f,001,2018_Apr_02_1435,
,,,,,,,,,,,,,,,,,,,,,8-2= ?,,,,,,,,,,,,,,,,,,,,0,9,9,38,,,,,,,,,,,,,,,,,,,,,moral_self_bias,12,19,59.9959376225,f,001,2018_Apr_02_1435,
,,,,,,,,,,,,,,,,,,,,,4+1= ?,,,,,,,,,,,,,,,,,,,,0,10,10,25,,,,,,,,,,,,,,,,,,,,,moral_self_bias,12,19,59.9959376225,f,001,2018_Apr_02_1435,
,,,,,,,,,,,,,,,,,,,,,2+4= ?,,,,,,,,,,,,,,,,,,,,0,11,11,10,,,,,,,,,,,,,,,,,,,,,moral_self_bias,12,19,59.9959376225,f,001,2018_Apr_02_1435,
,,,,,,,,,,,,,,,,,,,,,6*0= ?,,,,,,,,,,,,,,,,,,,,0,12,12,87,,,,,,,,,,,,,,,,,,,,,moral_self_bias,12,19,59.9959376225,f,001,2018_Apr_02_1435,
,,,,,,,,,,,,,,,,,,,,,3+4= ?,,,,,,,,,,,,,,,,,,,,0,13,13,19,,,,,,,,,,,,,,,,,,,,,moral_self_bias,12,19,59.9959376225,f,001,2018_Apr_02_1435,
,,,,,,,,,,,,,,,,,,,,,7+1= ?,,,,,,,,,,,,,,,,,,,,0,14,14,46,,,,,,,,,,,,,,,,,,,,,moral_self_bias,12,19,59.9959376225,f,001,2018_Apr_02_1435,
,,,,,,,,,,,,,,,,,,,,,3+0= ?,,,,,,,,,,,,,,,,,,,,0,15,15,105,,,,,,,,,,,,,,,,,,,,,moral_self_bias,12,19,59.9959376225,f,001,2018_Apr_02_1435,
,,,,,,,,,,,,,,,,,,,,,7*0= ?,,,,,,,,,,,,,,,,,,,,0,16,16,88,,,,,,,,,,,,,,,,,,,,,moral_self_bias,12,19,59.9959376225,f,001,2018_Apr_02_1435,
,,,,,,,,,,,,,,,,,,,,,11-5= ?,,,,,,,,,,,,,,,,,,,,0,17,17,107,,,,,,,,,,,,,,,,,,,,,moral_self_bias,12,19,59.9959376225,f,001,2018_Apr_02_1435,
,,,,,,,,,,,,,,,,,,,,,9-4= ?,,,,,,,,,,,,,,,,,,,,0,18,18,22,,,,,,,,,,,,,,,,,,,,,moral_self_bias,12,19,59.9959376225,f,001,2018_Apr_02_1435,
,,,,,,,,,,,,,,,,,,,,,5/1= ?,,,,,,,,,,,,,,,,,,,,0,19,19,59,,,,,,,,,,,,,,,,,,,,,moral_self_bias,12,19,59.9959376225,f,001,2018_Apr_02_1435,
,,,,,,,,,,,,,,,,,,,,,2+1= ?,,,,,,,,,,,,,,,,,,,,0,20,20,7,,,,,,,,,,,,,,,,,,,,,moral_self_bias,12,19,59.9959376225,f,001,2018_Apr_02_1435,
,,,,,,,,,,,,,,,,,,,,,12/12= ?,,,,,,,,,,,,,,,,,,,,0,21,21,91,,,,,,,,,,,,,,,,,,,,,moral_self_bias,12,19,59.9959376225,f,001,2018_Apr_02_1435,
,,,,,,,,,,,,,,,,,,,,,2^2= ?,,,,,,,,,,,,,,,,,,,,0,22,22,49,,,,,,,,,,,,,,,,,,,,,moral_self_bias,12,19,59.9959376225,f,001,2018_Apr_02_1435,
,,,,,,,,,,,,,,,,,,,,,8-4= ?,,,,,,,,,,,,,,,,,,,,0,23,23,40,,,,,,,,,,,,,,,,,,,,,moral_self_bias,12,19,59.9959376225,f,001,2018_Apr_02_1435,
,,,,,,,,,,,,,,,,,,,,,3*1= ?,,,,,,,,,,,,,,,,,,,,0,24,24,83,,,,,,,,,,,,,,,,,,,,,moral_self_bias,12,19,59.9959376225,f,001,2018_Apr_02_1435,
,,,,,,,,,,,,,,,,,,,,,18/9= ?,,,,,,,,,,,,,,,,,,,,0,25,25,96,,,,,,,,,,,,,,,,,,,,,moral_self_bias,12,19,59.9959376225,f,001,2018_Apr_02_1435,
,,,,,,,,,,,,,,,,,,,,,12-12= ?,,,,,,,,,,,,,,,,,,,,0,26,26,99,,,,,,,,,,,,,,,,,,,,,moral_self_bias,12,19,59.9959376225,f,001,2018_Apr_02_1435,
,,,,,,,,,,,,,,,,,,,,,72/9= ?,,,,,,,,,,,,,,,,,,,,0,27,27,76,,,,,,,,,,,,,,,,,,,,,moral_self_bias,12,19,59.9959376225,f,001,2018_Apr_02_1435,
,,,,,,,,,,,,,,,,,,,,,8/4= ?,,,,,,,,,,,,,,,,,,,,0,28,28,57,,,,,,,,,,,,,,,,,,,,,moral_self_bias,12,19,59.9959376225,f,001,2018_Apr_02_1435,
,,,,,,,,,,,,,,,,,,,,,13-9= ?,,,,,,,,,,,,,,,,,,,,0,29,29,92,,,,,,,,,,,,,,,,,,,,,moral_self_bias,12,19,59.9959376225,f,001,2018_Apr_02_1435,
,,,,,,,,,,,,,,,,,,,,,4+2= ?,,,,,,,,,,,,,,,,,,,,0,30,30,26,,,,,,,,,,,,,,,,,,,,,moral_self_bias,12,19,59.9959376225,f,001,2018_Apr_02_1435,
,,,,,,,,,,,,,,,,,,,,,17-12= ? ,,,,,,,,,,,,,,,,,,,,0,31,31,104,,,,,,,,,,,,,,,,,,,,,moral_self_bias,12,19,59.9959376225,f,001,2018_Apr_02_1435,
,,,,,,,,,,,,,,,,,,,,,8-5= ?,,,,,,,,,,,,,,,,,,,,0,32,32,41,,,,,,,,,,,,,,,,,,,,,moral_self_bias,12,19,59.9959376225,f,001,2018_Apr_02_1435,
,,,,,,,,,,,,,,,,,,,,,19-17= ?,,,,,,,,,,,,,,,,,,,,0,33,33,100,,,,,,,,,,,,,,,,,,,,,moral_self_bias,12,19,59.9959376225,f,001,2018_Apr_02_1435,
,,,,,,,,,,,,,,,,,,,,,1-1= ?,,,,,,,,,,,,,,,,,,,,0,34,34,52,,,,,,,,,,,,,,,,,,,,,moral_self_bias,12,19,59.9959376225,f,001,2018_Apr_02_1435,
,,,,,,,,,,,,,,,,,,,,,13-6=？,,,,,,,,,,,,,,,,,,,,0,35,35,64,,,,,,,,,,,,,,,,,,,,,moral_self_bias,12,19,59.9959376225,f,001,2018_Apr_02_1435,
,,,,,,,,,,,,,,,,,,,,,1+7= ?,,,,,,,,,,,,,,,,,,,,0,36,36,4,,,,,,,,,,,,,,,,,,,,,moral_self_bias,12,19,59.9959376225,f,001,2018_Apr_02_1435,
,,,,,,,,,,,,,,,,,,,,,8-1= ?,,,,,,,,,,,,,,,,,,,,0,37,37,33,,,,,,,,,,,,,,,,,,,,,moral_self_bias,12,19,59.9959376225,f,001,2018_Apr_02_1435,
,,,,,,,,,,,,,,,,,,,,,2+5= ?,,,,,,,,,,,,,,,,,,,,0,38,38,11,,,,,,,,,,,,,,,,,,,,,moral_self_bias,12,19,59.9959376225,f,001,2018_Apr_02_1435,
,,,,,,,,,,,,,,,,,,,,,20/5=？,,,,,,,,,,,,,,,,,,,,0,39,39,69,,,,,,,,,,,,,,,,,,,,,moral_self_bias,12,19,59.9959376225,f,001,2018_Apr_02_1435,
,,,,,,,,,,,,,,,,,,,,,22-22= ?,,,,,,,,,,,,,,,,,,,,0,40,40,93,,,,,,,,,,,,,,,,,,,,,moral_self_bias,12,19,59.9959376225,f,001,2018_Apr_02_1435,
,,,,,,,,,,,,,,,,,,,,,3+6= ?,,,,,,,,,,,,,,,,,,,,0,41,41,21,,,,,,,,,,,,,,,,,,,,,moral_self_bias,12,19,59.9959376225,f,001,2018_Apr_02_1435,
,,,,,,,,,,,,,,,,,,,,,4*2= ?,,,,,,,,,,,,,,,,,,,,0,42,42,82,,,,,,,,,,,,,,,,,,,,,moral_self_bias,12,19,59.9959376225,f,001,2018_Apr_02_1435,
,,,,,,,,,,,,,,,,,,,,,12-7= ?,,,,,,,,,,,,,,,,,,,,0,43,43,115,,,,,,,,,,,,,,,,,,,,,moral_self_bias,12,19,59.9959376225,f,001,2018_Apr_02_1435,
,,,,,,,,,,,,,,,,,,,,,1+6= ?,,,,,,,,,,,,,,,,,,,,0,44,44,5,,,,,,,,,,,,,,,,,,,,,moral_self_bias,12,19,59.9959376225,f,001,2018_Apr_02_1435,
,,,,,,,,,,,,,,,,,,,,,4*1= ?,,,,,,,,,,,,,,,,,,,,0,45,45,85,,,,,,,,,,,,,,,,,,,,,moral_self_bias,12,19,59.9959376225,f,001,2018_Apr_02_1435,
,,,,,,,,,,,,,,,,,,,,,5+4= ?,,,,,,,,,,,,,,,,,,,,0,46,46,37,,,,,,,,,,,,,,,,,,,,,moral_self_bias,12,19,59.9959376225,f,001,2018_Apr_02_1435,
,,,,,,,,,,,,,,,,,,,,,11-8= ?,,,,,,,,,,,,,,,,,,,,0,47,47,106,,,,,,,,,,,,,,,,,,,,,moral_self_bias,12,19,59.9959376225,f,001,2018_Apr_02_1435,
,,,,,,,,,,,,,,,,,,,,,23^0= ?,,,,,,,,,,,,,,,,,,,,0,48,48,94,,,,,,,,,,,,,,,,,,,,,moral_self_bias,12,19,59.9959376225,f,001,2018_Apr_02_1435,
,,,,,,,,,,,,,,,,,,,,,3+2= ?,,,,,,,,,,,,,,,,,,,,0,49,49,17,,,,,,,,,,,,,,,,,,,,,moral_self_bias,12,19,59.9959376225,f,001,2018_Apr_02_1435,
,,,,,,,,,,,,,,,,,,,,,8+1= ?,,,,,,,,,,,,,,,,,,,,0,50,50,48,,,,,,,,,,,,,,,,,,,,,moral_self_bias,12,19,59.9959376225,f,001,2018_Apr_02_1435,
,,,,,,,,,,,,,,,,,,,,,9+0= ?,,,,,,,,,,,,,,,,,,,,0,51,51,118,,,,,,,,,,,,,,,,,,,,,moral_self_bias,12,19,59.9959376225,f,001,2018_Apr_02_1435,
,,,,,,,,,,,,,,,,,,,,,11-4=？,,,,,,,,,,,,,,,,,,,,0,52,52,66,,,,,,,,,,,,,,,,,,,,,moral_self_bias,12,19,59.9959376225,f,001,2018_Apr_02_1435,
,,,,,,,,,,,,,,,,,,,,,16-11=？,,,,,,,,,,,,,,,,,,,,0,53,53,62,,,,,,,,,,,,,,,,,,,,,moral_self_bias,12,19,59.9959376225,f,001,2018_Apr_02_1435,
,,,,,,,,,,,,,,,,,,,,,9-2= ?,,,,,,,,,,,,,,,,,,,,0,54,54,14,,,,,,,,,,,,,,,,,,,,,moral_self_bias,12,19,59.9959376225,f,001,2018_Apr_02_1435,
,,,,,,,,,,,,,,,,,,,,,6+3= ?,,,,,,,,,,,,,,,,,,,,0,55,55,45,,,,,,,,,,,,,,,,,,,,,moral_self_bias,12,19,59.9959376225,f,001,2018_Apr_02_1435,
,,,,,,,,,,,,,,,,,,,,,2+6= ?,,,,,,,,,,,,,,,,,,,,0,56,56,12,,,,,,,,,,,,,,,,,,,,,moral_self_bias,12,19,59.9959376225,f,001,2018_Apr_02_1435,
,,,,,,,,,,,,,,,,,,,,,15-10=？,,,,,,,,,,,,,,,,,,,,0,57,57,61,,,,,,,,,,,,,,,,,,,,,moral_self_bias,12,19,59.9959376225,f,001,2018_Apr_02_1435,
,,,,,,,,,,,,,,,,,,,,,1+9= ?,,,,,,,,,,,,,,,,,,,,0,58,58,3,,,,,,,,,,,,,,,,,,,,,moral_self_bias,12,19,59.9959376225,f,001,2018_Apr_02_1435,
,,,,,,,,,,,,,,,,,,,,,29-27= ?,,,,,,,,,,,,,,,,,,,,0,59,59,72,,,,,,,,,,,,,,,,,,,,,moral_self_bias,12,19,59.9959376225,f,001,2018_Apr_02_1435,
,,,,,,,,,,,,,,,,,,,,,1*8= ?,,,,,,,,,,,,,,,,,,,,0,60,60,110,,,,,,,,,,,,,,,,,,,,,moral_self_bias,12,19,59.9959376225,f,001,2018_Apr_02_1435,
,,,,,,,,,,,,,,,,,,,,,1+2= ?,,,,,,,,,,,,,,,,,,,,0,61,61,1,,,,,,,,,,,,,,,,,,,,,moral_self_bias,12,19,59.9959376225,f,001,2018_Apr_02_1435,
,,,,,,,,,,,,,,,,,,,,,2*4= ?,,,,,,,,,,,,,,,,,,,,0,62,62,84,,,,,,,,,,,,,,,,,,,,,moral_self_bias,12,19,59.9959376225,f,001,2018_Apr_02_1435,
,,,,,,,,,,,,,,,,,,,,,30-29= ?,,,,,,,,,,,,,,,,,,,,0,63,63,73,,,,,,,,,,,,,,,,,,,,,moral_self_bias,12,19,59.9959376225,f,001,2018_Apr_02_1435,
,,,,,,,,,,,,,,,,,,,,,6/2= ?,,,,,,,,,,,,,,,,,,,,0,64,64,58,,,,,,,,,,,,,,,,,,,,,moral_self_bias,12,19,59.9959376225,f,001,2018_Apr_02_1435,
,,,,,,,,,,,,,,,,,,,,,7*1= ?,,,,,,,,,,,,,,,,,,,,0,65,65,113,,,,,,,,,,,,,,,,,,,,,moral_self_bias,12,19,59.9959376225,f,001,2018_Apr_02_1435,
,,,,,,,,,,,,,,,,,,,,,1^2= ?,,,,,,,,,,,,,,,,,,,,0,66,66,51,,,,,,,,,,,,,,,,,,,,,moral_self_bias,12,19,59.9959376225,f,001,2018_Apr_02_1435,
,,,,,,,,,,,,,,,,,,,,,4/4= ?,,,,,,,,,,,,,,,,,,,,0,67,67,55,,,,,,,,,,,,,,,,,,,,,moral_self_bias,12,19,59.9959376225,f,001,2018_Apr_02_1435,
,,,,,,,,,,,,,,,,,,,,,5+3= ?,,,,,,,,,,,,,,,,,,,,0,68,68,36,,,,,,,,,,,,,,,,,,,,,moral_self_bias,12,19,59.9959376225,f,001,2018_Apr_02_1435,
,,,,,,,,,,,,,,,,,,,,,32-23=？,,,,,,,,,,,,,,,,,,,,0,69,69,60,,,,,,,,,,,,,,,,,,,,,moral_self_bias,12,19,59.9959376225,f,001,2018_Apr_02_1435,
,,,,,,,,,,,,,,,,,,,,,12/4= ?,,,,,,,,,,,,,,,,,,,,0,70,70,89,,,,,,,,,,,,,,,,,,,,,moral_self_bias,12,19,59.9959376225,f,001,2018_Apr_02_1435,
,,,,,,,,,,,,,,,,,,,,,6^0= ?,,,,,,,,,,,,,,,,,,,,0,71,71,114,,,,,,,,,,,,,,,,,,,,,moral_self_bias,12,19,59.9959376225,f,001,2018_Apr_02_1435,
,,,,,,,,,,,,,,,,,,,,,9-6= ?,,,,,,,,,,,,,,,,,,,,0,72,72,24,,,,,,,,,,,,,,,,,,,,,moral_self_bias,12,19,59.9959376225,f,001,2018_Apr_02_1435,
,,,,,,,,,,,,,,,,,,,,,6+2= ?,,,,,,,,,,,,,,,,,,,,0,73,73,44,,,,,,,,,,,,,,,,,,,,,moral_self_bias,12,19,59.9959376225,f,001,2018_Apr_02_1435,
,,,,,,,,,,,,,,,,,,,,,8-6= ?,,,,,,,,,,,,,,,,,,,,0,74,74,42,,,,,,,,,,,,,,,,,,,,,moral_self_bias,12,19,59.9959376225,f,001,2018_Apr_02_1435,
,,,,,,,,,,,,,,,,,,,,,81/9= ?,,,,,,,,,,,,,,,,,,,,0,75,75,75,,,,,,,,,,,,,,,,,,,,,moral_self_bias,12,19,59.9959376225,f,001,2018_Apr_02_1435,
,,,,,,,,,,,,,,,,,,,,,12-5=？,,,,,,,,,,,,,,,,,,,,0,76,76,65,,,,,,,,,,,,,,,,,,,,,moral_self_bias,12,19,59.9959376225,f,001,2018_Apr_02_1435,
,,,,,,,,,,,,,,,,,,,,,11-3=？,,,,,,,,,,,,,,,,,,,,0,77,77,68,,,,,,,,,,,,,,,,,,,,,moral_self_bias,12,19,59.9959376225,f,001,2018_Apr_02_1435,
,,,,,,,,,,,,,,,,,,,,,3+1= ?,,,,,,,,,,,,,,,,,,,,0,78,78,16,,,,,,,,,,,,,,,,,,,,,moral_self_bias,12,19,59.9959376225,f,001,2018_Apr_02_1435,
,,,,,,,,,,,,,,,,,,,,,32-32= ?,,,,,,,,,,,,,,,,,,,,0,79,79,80,,,,,,,,,,,,,,,,,,,,,moral_self_bias,12,19,59.9959376225,f,001,2018_Apr_02_1435,
,,,,,,,,,,,,,,,,,,,,,12/6= ?,,,,,,,,,,,,,,,,,,,,0,80,80,90,,,,,,,,,,,,,,,,,,,,,moral_self_bias,12,19,59.9959376225,f,001,2018_Apr_02_1435,
,,,,,,,,,,,,,,,,,,,,,9/3= ?,,,,,,,,,,,,,,,,,,,,0,81,81,56,,,,,,,,,,,,,,,,,,,,,moral_self_bias,12,19,59.9959376225,f,001,2018_Apr_02_1435,
,,,,,,,,,,,,,,,,,,,,,90/45= ?,,,,,,,,,,,,,,,,,,,,0,82,82,74,,,,,,,,,,,,,,,,,,,,,moral_self_bias,12,19,59.9959376225,f,001,2018_Apr_02_1435,
,,,,,,,,,,,,,,,,,,,,,5*0= ?,,,,,,,,,,,,,,,,,,,,0,83,83,86,,,,,,,,,,,,,,,,,,,,,moral_self_bias,12,19,59.9959376225,f,001,2018_Apr_02_1435,
,,,,,,,,,,,,,,,,,,,,,18/2= ?,,,,,,,,,,,,,,,,,,,,0,84,84,97,,,,,,,,,,,,,,,,,,,,,moral_self_bias,12,19,59.9959376225,f,001,2018_Apr_02_1435,
,,,,,,,,,,,,,,,,,,,,,2+3= ?,,,,,,,,,,,,,,,,,,,,0,85,85,9,,,,,,,,,,,,,,,,,,,,,moral_self_bias,12,19,59.9959376225,f,001,2018_Apr_02_1435,
,,,,,,,,,,,,,,,,,,,,,21/3= ? ,,,,,,,,,,,,,,,,,,,,0,86,86,95,,,,,,,,,,,,,,,,,,,,,moral_self_bias,12,19,59.9959376225,f,001,2018_Apr_02_1435,
,,,,,,,,,,,,,,,,,,,,,4+4= ?,,,,,,,,,,,,,,,,,,,,0,87,87,28,,,,,,,,,,,,,,,,,,,,,moral_self_bias,12,19,59.9959376225,f,001,2018_Apr_02_1435,
,,,,,,,,,,,,,,,,,,,,,3+5= ?,,,,,,,,,,,,,,,,,,,,0,88,88,20,,,,,,,,,,,,,,,,,,,,,moral_self_bias,12,19,59.9959376225,f,001,2018_Apr_02_1435,
,,,,,,,,,,,,,,,,,,,,,21/7= ?,,,,,,,,,,,,,,,,,,,,0,89,89,70,,,,,,,,,,,,,,,,,,,,,moral_self_bias,12,19,59.9959376225,f,001,2018_Apr_02_1435,
,,,,,,,,,,,,,,,,,,,,,2+2= ?,,,,,,,,,,,,,,,,,,,,0,90,90,8,,,,,,,,,,,,,,,,,,,,,moral_self_bias,12,19,59.9959376225,f,001,2018_Apr_02_1435,
,,,,,,,,,,,,,,,,,,,,,10-9= ?,,,,,,,,,,,,,,,,,,,,0,91,91,112,,,,,,,,,,,,,,,,,,,,,moral_self_bias,12,19,59.9959376225,f,001,2018_Apr_02_1435,
,,,,,,,,,,,,,,,,,,,,,9-9= ?,,,,,,,,,,,,,,,,,,,,0,92,92,32,,,,,,,,,,,,,,,,,,,,,moral_self_bias,12,19,59.9959376225,f,001,2018_Apr_02_1435,
,,,,,,,,,,,,,,,,,,,,,14-9=？,,,,,,,,,,,,,,,,,,,,0,93,93,63,,,,,,,,,,,,,,,,,,,,,moral_self_bias,12,19,59.9959376225,f,001,2018_Apr_02_1435,
,,,,,,,,,,,,,,,,,,,,,6^0= ?,,,,,,,,,,,,,,,,,,,,0,94,94,103,,,,,,,,,,,,,,,,,,,,,moral_self_bias,12,19,59.9959376225,f,001,2018_Apr_02_1435,
,,,,,,,,,,,,,,,,,,,,,1+1= ?,,,,,,,,,,,,,,,,,,,,0,95,95,0,,,,,,,,,,,,,,,,,,,,,moral_self_bias,12,19,59.9959376225,f,001,2018_Apr_02_1435,
,,,,,,,,,,,,,,,,,,,,,8-3= ?,,,,,,,,,,,,,,,,,,,,0,96,96,39,,,,,,,,,,,,,,,,,,,,,moral_self_bias,12,19,59.9959376225,f,001,2018_Apr_02_1435,
,,,,,,,,,,,,,,,,,,,,,1*9= ?,,,,,,,,,,,,,,,,,,,,0,97,97,109,,,,,,,,,,,,,,,,,,,,,moral_self_bias,12,19,59.9959376225,f,001,2018_Apr_02_1435,
,,,,,,,,,,,,,,,,,,,,,22/11= ?,,,,,,,,,,,,,,,,,,,,0,98,98,71,,,,,,,,,,,,,,,,,,,,,moral_self_bias,12,19,59.9959376225,f,001,2018_Apr_02_1435,
,,,,,,,,,,,,,,,,,,,,,3*3= ?,,,,,,,,,,,,,,,,,,,,0,99,99,54,,,,,,,,,,,,,,,,,,,,,moral_self_bias,12,19,59.9959376225,f,001,2018_Apr_02_1435,
,,,,,,,,,,,,,,,,,,,,,3^1= ?,,,,,,,,,,,,,,,,,,,,0,100,100,101,,,,,,,,,,,,,,,,,,,,,moral_self_bias,12,19,59.9959376225,f,001,2018_Apr_02_1435,
,,,,,,,,,,,,,,,,,,,,,9-5= ?,,,,,,,,,,,,,,,,,,,,0,101,101,23,,,,,,,,,,,,,,,,,,,,,moral_self_bias,12,19,59.9959376225,f,001,2018_Apr_02_1435,
,,,,,,,,,,,,,,,,,,,,,9-1=?,,,,,,,,,,,,,,,,,,,,0,102,102,2,,,,,,,,,,,,,,,,,,,,,moral_self_bias,12,19,59.9959376225,f,001,2018_Apr_02_1435,
,,,,,,,,,,,,,,,,,,,,,43-34= ?,,,,,,,,,,,,,,,,,,,,0,103,103,79,,,,,,,,,,,,,,,,,,,,,moral_self_bias,12,19,59.9959376225,f,001,2018_Apr_02_1435,
,,,,,,,,,,,,,,,,,,,,,13-5= ?,,,,,,,,,,,,,,,,,,,,0,104,104,98,,,,,,,,,,,,,,,,,,,,,moral_self_bias,12,19,59.9959376225,f,001,2018_Apr_02_1435,
,,,,,,,,,,,,,,,,,,,,,8*1= ?,,,,,,,,,,,,,,,,,,,,0,105,105,111,,,,,,,,,,,,,,,,,,,,,moral_self_bias,12,19,59.9959376225,f,001,2018_Apr_02_1435,
,,,,,,,,,,,,,,,,,,,,,4+5= ?,,,,,,,,,,,,,,,,,,,,0,106,106,29,,,,,,,,,,,,,,,,,,,,,moral_self_bias,12,19,59.9959376225,f,001,2018_Apr_02_1435,
,,,,,,,,,,,,,,,,,,,,,49/7 = ?,,,,,,,,,,,,,,,,,,,,0,107,107,78,,,,,,,,,,,,,,,,,,,,,moral_self_bias,12,19,59.9959376225,f,001,2018_Apr_02_1435,
,,,,,,,,,,,,,,,,,,,,,4^1= ?,,,,,,,,,,,,,,,,,,,,0,108,108,102,,,,,,,,,,,,,,,,,,,,,moral_self_bias,12,19,59.9959376225,f,001,2018_Apr_02_1435,
,,,,,,,,,,,,,,,,,,,,,3+3= ?,,,,,,,,,,,,,,,,,,,,0,109,109,18,,,,,,,,,,,,,,,,,,,,,moral_self_bias,12,19,59.9959376225,f,001,2018_Apr_02_1435,
,,,,,,,,,,,,,,,,,,,,,3*2= ?,,,,,,,,,,,,,,,,,,,,0,110,110,53,,,,,,,,,,,,,,,,,,,,,moral_self_bias,12,19,59.9959376225,f,001,2018_Apr_02_1435,
,,,,,,,,,,,,,,,,,,,,,50-42= ?,,,,,,,,,,,,,,,,,,,,0,111,111,81,,,,,,,,,,,,,,,,,,,,,moral_self_bias,12,19,59.9959376225,f,001,2018_Apr_02_1435,
,,,,,,,,,,,,,,,,,,,,,5-3= ?,,,,,,,,,,,,,,,,,,,,0,112,112,116,,,,,,,,,,,,,,,,,,,,,moral_self_bias,12,19,59.9959376225,f,001,2018_Apr_02_1435,
,,,,,,,,,,,,,,,,,,,,,56/7= ?,,,,,,,,,,,,,,,,,,,,0,113,113,77,,,,,,,,,,,,,,,,,,,,,moral_self_bias,12,19,59.9959376225,f,001,2018_Apr_02_1435,
,,,,,,,,,,,,,,,,,,,,,7+2= ?,,,,,,,,,,,,,,,,,,,,0,114,114,47,,,,,,,,,,,,,,,,,,,,,moral_self_bias,12,19,59.9959376225,f,001,2018_Apr_02_1435,
,,,,,,,,,,,,,,,,,,,,,4+3= ?,,,,,,,,,,,,,,,,,,,,0,115,115,27,,,,,,,,,,,,,,,,,,,,,moral_self_bias,12,19,59.9959376225,f,001,2018_Apr_02_1435,
,,,,,,,,,,,,,,,,,,,,,9-7= ?,,,,,,,,,,,,,,,,,,,,0,116,116,30,,,,,,,,,,,,,,,,,,,,,moral_self_bias,12,19,59.9959376225,f,001,2018_Apr_02_1435,
,,,,,,,,,,,,,,,,,,,,,1+8= ?,,,,,,,,,,,,,,,,,,,,0,117,117,6,,,,,,,,,,,,,,,,,,,,,moral_self_bias,12,19,59.9959376225,f,001,2018_Apr_02_1435,
,,,,,,,,,,,,,,,,,,,,,2*3= ?,,,,,,,,,,,,,,,,,,,,0,118,118,108,,,,,,,,,,,,,,,,,,,,,moral_self_bias,12,19,59.9959376225,f,001,2018_Apr_02_1435,
,,,,,,,,,,,,,,,,,,,,,11-11= ?,,,,,,,,,,,,,,,,,,,,0,119,119,119,,,,,,,,,,,,,,,,,,,,,moral_self_bias,12,19,59.9959376225,f,001,2018_Apr_02_1435,
,,,,,,,,,,,,,,,,,,,,,,,,,,,,,,,,,,,,,,,,,,,,,,,,,,,,,,,,,1,2.66027593613,,,,,,,moral_self_bias,12,19,59.9959376225,f,001,2018_Apr_02_1435,
,,,,,,,,,,,,,,,,,,,,,,material/1.png,1,博爱,material/101.png,1,material/101.png,博爱,1,f,f,f,1,1,1,善良,,,,,,,,,0,0,0,80,0,0,0,0,,,,,,,f,1,29.6824059486,f,0,0.708200931549,moral_self_bias,12,19,59.9959376225,f,001,2018_Apr_02_1435,
,,,,,,,,,,,,,,,,,,,,,,material/1.png,1,博爱,material/101.png,1,material/101.png,博爱,1,f,f,f,1,1,1,善良,,,,,,,,,0,0,0,80,,,,,,,,,,,,,,,,,moral_self_bias,12,19,59.9959376225,f,001,2018_Apr_02_1435,
,,,,,,,,,,,,,,,,,,,,,,material/40.png,2,狠毒,material/140.png,2,material/140.png,狠毒,2,f,f,f,1,1,1,邪恶,,,,,,,,,0,1,1,119,,,,,,,,,,,j,0,0.640559911728,,,,moral_self_bias,12,19,59.9959376225,f,001,2018_Apr_02_1435,
,,,,,,,,,,,,,,,,,,,,,,material/150.png,2,鲁钝,material/50.png,2,material/150.png,愚笨,2,j,j,j,2,2,2,鲁钝,,,,,,,,,0,2,2,49,,,,,,,,,,,j,1,0.0907928943634,,,,moral_self_bias,12,19,59.9959376225,f,001,2018_Apr_02_1435,
,,,,,,,,,,,,,,,,,,,,,,material/161.png,1,奉献,material/164.png,1,material/64.png,孝顺,1,f,f,f,1,1,1,勇敢,,,,,,,,,0,3,3,143,,,,,,,,,,,j,0,0.108068943024,,,,moral_self_bias,12,19,59.9959376225,f,001,2018_Apr_02_1435,
,,,,,,,,,,,,,,,,,,,,,,material/25.png,1,果断,material/125.png,1,material/25.png,果敢,1,f,f,f,2,2,2,果断,,,,,,,,,0,4,4,104,,,,,,,,,,,j,0,0.0910739898682,,,,moral_self_bias,12,19,59.9959376225,f,001,2018_Apr_02_1435,
,,,,,,,,,,,,,,,,,,,,,,material/9.png,1,正直,material/109.png,1,material/109.png,正直,1,f,f,f,1,1,1,秉直,,,,,,,,,0,5,5,88,,,,,,,,,,,j,0,0.091194152832,,,,moral_self_bias,12,19,59.9959376225,f,001,2018_Apr_02_1435,
,,,,,,,,,,,,,,,,,,,,,,material/75.png,2,卑劣,material/74.png,2,material/74.png,卑劣,2,j,j,j,1,1,1,害人,,,,,,,,,0,6,6,70,,,,,,,,,,,j,1,0.108428955078,,,,moral_self_bias,12,19,59.9959376225,f,001,2018_Apr_02_1435,
,,,,,,,,,,,,,,,,,,,,,,material/108.png,1,公道,material/8.png,1,material/8.png,公道,1,j,j,j,1,1,1,无私,,,,,,,,,0,7,7,7,,,,,,,,,,,j,1,0.092276096344,,,,moral_self_bias,12,19,59.9959376225,f,001,2018_Apr_02_1435,
,,,,,,,,,,,,,,,,,,,,,,material/180.png,2,无助,material/79.png,2,material/81.png,颓废,2,j,j,j,2,2,2,怠惰,,,,,,,,,0,8,8,75,,,,,,,,,,,j,1,0.108201026917,,,,moral_self_bias,12,19,59.9959376225,f,001,2018_Apr_02_1435,
,,,,,,,,,,,,,,,,,,,,,,material/59.png,2,智障,material/159.png,2,material/59.png,弱智,2,f,f,f,2,2,2,智障,,,,,,,,,0,9,9,138,,,,,,,,,,,j,0,0.108599901199,,,,moral_self_bias,12,19,59.9959376225,f,001,2018_Apr_02_1435,
,,,,,,,,,,,,,,,,,,,,,,material/123.png,1,多才,material/23.png,1,material/123.png,有才,1,j,j,j,2,2,2,多才,,,,,,,,,0,10,10,22,,,,,,,,,,,j,1,0.0998041629791,,,,moral_self_bias,12,19,59.9959376225,f,001,2018_Apr_02_1435,
,,,,,,,,,,,,,,,,,,,,,,material/113.png,1,廉洁,material/13.png,1,material/13.png,廉洁,1,j,j,j,1,1,1,廉明,,,,,,,,,0,11,11,12,,,,,,,,,,,j,1,0.24165892601,,,,moral_self_bias,12,19,59.9959376225,f,001,2018_Apr_02_1435,
,,,,,,,,,,,,,,,,,,,,,,material/121.png,1,精干,material/21.png,1,material/121.png,干练,1,j,j,j,2,2,2,精干,,,,,,,,,0,12,12,20,,,,,,,,,,,j,1,0.10881114006,,,,moral_self_bias,12,19,59.9959376225,f,001,2018_Apr_02_1435,
,,,,,,,,,,,,,,,,,,,,,,material/116.png,1,机智,material/16.png,1,material/116.png,睿智,1,j,j,j,2,2,2,机智,,,,,,,,,0,13,13,15,,,,,,,,,,,j,1,0.108873128891,,,,moral_self_bias,12,19,59.9959376225,f,001,2018_Apr_02_1435,
,,,,,,,,,,,,,,,,,,,,,,material/39.png,2,恶毒,material/139.png,2,material/139.png,恶毒,2,f,f,f,1,1,1,凶残,,,,,,,,,0,14,14,118,,,,,,,,,,,j,0,0.10845208168,,,,moral_self_bias,12,19,59.9959376225,f,001,2018_Apr_02_1435,
,,,,,,,,,,,,,,,,,,,,,,material/23.png,1,有才,material/123.png,1,material/23.png,多才,1,f,f,f,2,2,2,有才,,,,,,,,,0,15,15,102,,,,,,,,,,,j,0,0.106771945953,,,,moral_self_bias,12,19,59.9959376225,f,001,2018_Apr_02_1435,
,,,,,,,,,,,,,,,,,,,,,,material/54.png,2,依赖,material/154.png,2,material/54.png,依靠,2,f,f,f,2,2,2,依赖,,,,,,,,,0,16,16,133,,,,,,,,,,,j,0,0.107711076736,,,,moral_self_bias,12,19,59.9959376225,f,001,2018_Apr_02_1435,
,,,,,,,,,,,,,,,,,,,,,,material/27.png,1,卓越,material/127.png,1,material/27.png,超群,1,f,f,f,2,2,2,卓越,,,,,,,,,0,17,17,106,,,,,,,,,,,j,0,0.107692956924,,,,moral_self_bias,12,19,59.9959376225,f,001,2018_Apr_02_1435,
,,,,,,,,,,,,,,,,,,,,,,material/8.png,1,无私,material/108.png,1,material/108.png,无私,1,f,f,f,1,1,1,公道,,,,,,,,,0,18,18,87,,,,,,,,,,,j,0,0.125427961349,,,,moral_self_bias,12,19,59.9959376225,f,001,2018_Apr_02_1435,
,,,,,,,,,,,,,,,,,,,,,,material/181.png,2,怠惰,material/180.png,2,material/180.png,怠惰,2,f,f,f,2,2,2,犹豫,,,,,,,,,0,19,19,159,,,,,,,,,,,j,0,0.107737064362,,,,moral_self_bias,12,19,59.9959376225,f,001,2018_Apr_02_1435,
,,,,,,,,,,,,,,,,,,,,,,material/145.png,2,下流,material/45.png,2,material/45.png,下流,2,j,j,j,1,1,1,小人,,,,,,,,,0,20,20,44,,,,,,,,,,,j,1,0.13378405571,,,,moral_self_bias,12,19,59.9959376225,f,001,2018_Apr_02_1435,
,,,,,,,,,,,,,,,,,,,,,,material/154.png,2,依靠,material/54.png,2,material/154.png,依赖,2,j,j,j,2,2,2,依靠,,,,,,,,,0,21,21,53,,,,,,,,,,,j,1,0.123790025711,,,,moral_self_bias,12,19,59.9959376225,f,001,2018_Apr_02_1435,
,,,,,,,,,,,,,,,,,,,,,,material/126.png,1,勤快,material/26.png,1,material/126.png,刻苦,1,j,j,j,2,2,2,勤快,,,,,,,,,0,22,22,25,,,,,,,,,,,j,1,0.125211000443,,,,moral_self_bias,12,19,59.9959376225,f,001,2018_Apr_02_1435,
,,,,,,,,,,,,,,,,,,,,,,material/105.png,1,守信,material/5.png,1,material/5.png,守信,1,j,j,j,1,1,1,诚信,,,,,,,,,0,23,23,4,,,,,,,,,,,j,1,0.108008861542,,,,moral_self_bias,12,19,59.9959376225,f,001,2018_Apr_02_1435,
,,,,,,,,,,,,,,,,,,,,,,material/31.png,1,笃学,material/131.png,1,material/31.png,笃行,1,f,f,f,2,2,2,笃学,,,,,,,,,0,24,24,110,,,,,,,,,,,j,0,0.107729911804,,,,moral_self_bias,12,19,59.9959376225,f,001,2018_Apr_02_1435,
,,,,,,,,,,,,,,,,,,,,,,material/83.png,2,差生,material/78.png,2,material/179.png,草率,2,j,j,j,2,2,2,呆笨,,,,,,,,,0,25,25,74,,,,,,,,,,,j,1,0.12553191185,,,,moral_self_bias,12,19,59.9959376225,f,001,2018_Apr_02_1435,
,,,,,,,,,,,,,,,,,,,,,,material/149.png,2,白痴,material/49.png,2,material/149.png,痴呆,2,j,j,j,2,2,2,白痴,,,,,,,,,0,26,26,48,,,,,,,,,,,j,1,0.125792980194,,,,moral_self_bias,12,19,59.9959376225,f,001,2018_Apr_02_1435,
,,,,,,,,,,,,,,,,,,,,,,material/138.png,2,无德,material/38.png,2,material/38.png,无德,2,j,j,j,1,1,1,缺德,,,,,,,,,0,27,27,37,,,,,,,,,,,j,1,0.126644134521,,,,moral_self_bias,12,19,59.9959376225,f,001,2018_Apr_02_1435,
,,,,,,,,,,,,,,,,,,,,,,material/162.png,1,敬业,material/62.png,1,material/162.png,坚韧,1,j,j,j,1,1,1,敬业,,,,,,,,,0,28,28,61,,,,,,,,,,,j,1,0.0764920711517,,,,moral_self_bias,12,19,59.9959376225,f,001,2018_Apr_02_1435,
,,,,,,,,,,,,,,,,,,,,,,material/119.png,1,机灵,material/19.png,1,material/119.png,灵活,1,j,j,j,2,2,2,机灵,,,,,,,,,0,29,29,18,,,,,,,,,,,j,1,0.158366918564,,,,moral_self_bias,12,19,59.9959376225,f,001,2018_Apr_02_1435,
,,,,,,,,,,,,,,,,,,,,,,material/43.png,2,虚荣,material/143.png,2,material/143.png,虚荣,2,f,f,f,1,1,1,拜金,,,,,,,,,0,30,30,122,,,,,,,,,,,j,0,0.12490606308,,,,moral_self_bias,12,19,59.9959376225,f,001,2018_Apr_02_1435,
,,,,,,,,,,,,,,,,,,,,,,material/34.png,2,可恶,material/134.png,2,material/134.png,可恶,2,f,f,f,1,1,1,可恨,,,,,,,,,0,31,31,113,,,,,,,,,,,j,0,0.124375104904,,,,moral_self_bias,12,19,59.9959376225,f,001,2018_Apr_02_1435,
,,,,,,,,,,,,,,,,,,,,,,material/130.png,1,进取,material/30.png,1,material/130.png,上进,1,j,j,j,2,2,2,进取,,,,,,,,,0,32,32,29,,,,,,,,,,,j,1,0.124736070633,,,,moral_self_bias,12,19,59.9959376225,f,001,2018_Apr_02_1435,
,,,,,,,,,,,,,,,,,,,,,,material/13.png,1,廉明,material/113.png,1,material/113.png,廉明,1,f,f,f,1,1,1,廉洁,,,,,,,,,0,33,33,92,,,,,,,,,,,j,0,0.124961853027,,,,moral_self_bias,12,19,59.9959376225,f,001,2018_Apr_02_1435,
,,,,,,,,,,,,,,,,,,,,,,material/74.png,2,黑心,material/173.png,2,material/173.png,黑心,2,f,f,f,1,1,1,卑劣,,,,,,,,,0,34,34,152,,,,,,,,,,,j,0,0.12459897995,,,,moral_self_bias,12,19,59.9959376225,f,001,2018_Apr_02_1435,
,,,,,,,,,,,,,,,,,,,,,,material/120.png,1,能干,material/20.png,1,material/120.png,厉害,1,j,j,j,2,2,2,能干,,,,,,,,,0,35,35,19,,,,,,,,,,,j,1,0.133738040924,,,,moral_self_bias,12,19,59.9959376225,f,001,2018_Apr_02_1435,
,,,,,,,,,,,,,,,,,,,,,,material/141.png,2,歹毒,material/41.png,2,material/41.png,歹毒,2,j,j,j,1,1,1,残忍,,,,,,,,,0,36,36,40,,,,,,,,,,,j,1,0.140759944916,,,,moral_self_bias,12,19,59.9959376225,f,001,2018_Apr_02_1435,
,,,,,,,,,,,,,,,,,,,,,,material/167.png,1,高手,material/169.png,1,material/167.png,颖悟,1,f,f,f,2,2,2,高手,,,,,,,,,0,37,37,148,,,,,,,,,,,j,0,0.124330043793,,,,moral_self_bias,12,19,59.9959376225,f,001,2018_Apr_02_1435,
,,,,,,,,,,,,,,,,,,,,,,material/50.png,2,愚笨,material/150.png,2,material/50.png,鲁钝,2,f,f,f,2,2,2,愚笨,,,,,,,,,0,38,38,129,,,,,,,,,,,j,0,0.141456842422,,,,moral_self_bias,12,19,59.9959376225,f,001,2018_Apr_02_1435,
,,,,,,,,,,,,,,,,,,,,,,material/82.png,2,毛糙,material/183.png,2,material/178.png,薄弱,2,f,f,f,2,2,2,窝囊,,,,,,,,,0,39,39,162,,,,,,,,,,,j,0,0.124511957169,,,,moral_self_bias,12,19,59.9959376225,f,001,2018_Apr_02_1435,
,,,,,,,,,,,,,,,,,,,,,,material/53.png,2,迟缓,material/153.png,2,material/53.png,迟钝,2,f,f,f,2,2,2,迟缓,,,,,,,,,0,40,40,132,,,,,,,,,,,j,0,0.141025066376,,,,moral_self_bias,12,19,59.9959376225,f,001,2018_Apr_02_1435,
,,,,,,,,,,,,,,,,,,,,,,material/69.png,1,高明,material/69.png,1,material/69.png,高明,1,f,f,f,2,2,2,高明,,,,,,,,,0,41,41,166,,,,,,,,,,,j,0,0.133420944214,,,,moral_self_bias,12,19,59.9959376225,f,001,2018_Apr_02_1435,
,,,,,,,,,,,,,,,,,,,,,,material/139.png,2,凶残,material/39.png,2,material/39.png,凶残,2,j,j,j,1,1,1,恶毒,,,,,,,,,0,42,42,38,,,,,,,,,,,j,1,0.124400854111,,,,moral_self_bias,12,19,59.9959376225,f,001,2018_Apr_02_1435,
,,,,,,,,,,,,,,,,,,,,,,material/47.png,2,死板,material/147.png,2,material/47.png,刻板,2,f,f,f,2,2,2,死板,,,,,,,,,0,43,43,126,,,,,,,,,,,j,0,0.140419006348,,,,moral_self_bias,12,19,59.9959376225,f,001,2018_Apr_02_1435,
,,,,,,,,,,,,,,,,,,,,,,material/60.png,2,粗拙,material/160.png,2,material/60.png,笨拙,2,f,f,f,2,2,2,粗拙,,,,,,,,,0,44,44,139,,,,,,,,,,,j,0,0.157212972641,,,,moral_self_bias,12,19,59.9959376225,f,001,2018_Apr_02_1435,
,,,,,,,,,,,,,,,,,,,,,,material/147.png,2,刻板,material/47.png,2,material/147.png,死板,2,j,j,j,2,2,2,刻板,,,,,,,,,0,45,45,46,,,,,,,,,,,j,1,0.141268014908,,,,moral_self_bias,12,19,59.9959376225,f,001,2018_Apr_02_1435,
,,,,,,,,,,,,,,,,,,,,,,material/38.png,2,缺德,material/138.png,2,material/138.png,缺德,2,f,f,f,1,1,1,无德,,,,,,,,,0,46,46,117,,,,,,,,,,,j,0,0.108155965805,,,,moral_self_bias,12,19,59.9959376225,f,001,2018_Apr_02_1435,
,,,,,,,,,,,,,,,,,,,,,,material/84.png,2,犹豫,material/84.png,2,material/181.png,顽愚,2,f,f,f,2,2,2,顽愚,,,,,,,,,0,47,47,167,,,,,,,,,,,j,0,0.125113964081,,,,moral_self_bias,12,19,59.9959376225,f,001,2018_Apr_02_1435,
,,,,,,,,,,,,,,,,,,,,,,material/29.png,1,好学,material/129.png,1,material/29.png,好问,1,f,f,f,2,2,2,好学,,,,,,,,,0,48,48,108,,,,,,,,,,,j,0,0.307879924774,,,,moral_self_bias,12,19,59.9959376225,f,001,2018_Apr_02_1435,
,,,,,,,,,,,,,,,,,,,,,,material/44.png,2,爽约,material/144.png,2,material/144.png,爽约,2,f,f,f,1,1,1,失信,,,,,,,,,0,49,49,123,,,,,,,,,,,j,0,0.141595125198,,,,moral_self_bias,12,19,59.9959376225,f,001,2018_Apr_02_1435,
,,,,,,,,,,,,,,,,,,,,,,material/51.png,2,糊涂,material/151.png,2,material/51.png,迷糊,2,f,f,f,2,2,2,糊涂,,,,,,,,,0,50,50,130,,,,,,,,,,,j,0,0.125349998474,,,,moral_self_bias,12,19,59.9959376225,f,001,2018_Apr_02_1435,
,,,,,,,,,,,,,,,,,,,,,,material/112.png,1,忠诚,material/12.png,1,material/12.png,忠诚,1,j,j,j,1,1,1,忠心,,,,,,,,,0,51,51,11,,,,,,,,,,,j,1,0.117725849152,,,,moral_self_bias,12,19,59.9959376225,f,001,2018_Apr_02_1435,
,,,,,,,,,,,,,,,,,,,,,,material/169.png,1,颖悟,material/171.png,1,material/169.png,高效,1,f,f,f,2,2,2,颖悟,,,,,,,,,0,52,52,150,,,,,,,,,,,j,0,0.141319036484,,,,moral_self_bias,12,19,59.9959376225,f,001,2018_Apr_02_1435,
,,,,,,,,,,,,,,,,,,,,,,material/7.png,1,公平,material/107.png,1,material/107.png,公平,1,f,f,f,1,1,1,公正,,,,,,,,,0,53,53,86,,,,,,,,,,,j,0,0.139720916748,,,,moral_self_bias,12,19,59.9959376225,f,001,2018_Apr_02_1435,
,,,,,,,,,,,,,,,,,,,,,,material/155.png,2,盲目,material/55.png,2,material/155.png,盲从,2,j,j,j,2,2,2,盲目,,,,,,,,,0,54,54,54,,,,,,,,,,,j,1,0.141046047211,,,,moral_self_bias,12,19,59.9959376225,f,001,2018_Apr_02_1435,
,,,,,,,,,,,,,,,,,,,,,,material/136.png,2,说谎,material/36.png,2,material/36.png,说谎,2,j,j,j,1,1,1,撒谎,,,,,,,,,0,55,55,35,,,,,,,,,,,j,1,0.141819000244,,,,moral_self_bias,12,19,59.9959376225,f,001,2018_Apr_02_1435,
,,,,,,,,,,,,,,,,,,,,,,material/153.png,2,迟钝,material/53.png,2,material/153.png,迟缓,2,j,j,j,2,2,2,迟钝,,,,,,,,,0,56,56,52,,,,,,,,,,,j,1,0.116146802902,,,,moral_self_bias,12,19,59.9959376225,f,001,2018_Apr_02_1435,
,,,,,,,,,,,,,,,,,,,,,,material/35.png,2,冷血,material/135.png,2,material/135.png,冷血,2,f,f,f,1,1,1,冷漠,,,,,,,,,0,57,57,114,,,,,,,,,,,j,0,0.141120195389,,,,moral_self_bias,12,19,59.9959376225,f,001,2018_Apr_02_1435,
,,,,,,,,,,,,,,,,,,,,,,material/61.png,1,仗义,material/65.png,1,material/166.png,谦虚,1,j,j,j,1,1,1,平等,,,,,,,,,0,58,58,64,,,,,,,,,,,j,1,0.124161958694,,,,moral_self_bias,12,19,59.9959376225,f,001,2018_Apr_02_1435,
,,,,,,,,,,,,,,,,,,,,,,material/152.png,2,缓慢,material/52.png,2,material/152.png,拖延,2,j,j,j,2,2,2,缓慢,,,,,,,,,0,59,59,51,,,,,,,,,,,j,1,0.157810926437,,,,moral_self_bias,12,19,59.9959376225,f,001,2018_Apr_02_1435,
,,,,,,,,,,,,,,,,,,,,,,material/63.png,1,正义,material/166.png,1,material/66.png,仗义,1,f,f,f,1,1,1,文明,,,,,,,,,0,60,60,145,,,,,,,,,,,j,0,0.117216110229,,,,moral_self_bias,12,19,59.9959376225,f,001,2018_Apr_02_1435,
,,,,,,,,,,,,,,,,,,,,,,material/6.png,1,厚道,material/106.png,1,material/106.png,厚道,1,f,f,f,1,1,1,诚实,,,,,,,,,0,61,61,85,,,,,,,,,,,j,0,0.141075134277,,,,moral_self_bias,12,19,59.9959376225,f,001,2018_Apr_02_1435,
,,,,,,,,,,,,,,,,,,,,,,material/118.png,1,机敏,material/18.png,1,material/118.png,敏锐,1,j,j,j,2,2,2,机敏,,,,,,,,,0,62,62,17,,,,,,,,,,,j,1,0.123446941376,,,,moral_self_bias,12,19,59.9959376225,f,001,2018_Apr_02_1435,
,,,,,,,,,,,,,,,,,,,,,,material/104.png,1,友爱,material/4.png,1,material/4.png,友爱,1,j,j,j,1,1,1,友善,,,,,,,,,0,63,63,3,,,,,,,,,,,j,1,0.157582998276,,,,moral_self_bias,12,19,59.9959376225,f,001,2018_Apr_02_1435,
,,,,,,,,,,,,,,,,,,,,,,material/52.png,2,拖延,material/152.png,2,material/52.png,缓慢,2,f,f,f,2,2,2,拖延,,,,,,,,,0,64,64,131,,,,,,,,,,,j,0,0.124548196793,,,,moral_self_bias,12,19,59.9959376225,f,001,2018_Apr_02_1435,
,,,,,,,,,,,,,,,,,,,,,,material/66.png,1,独立,material/66.png,1,material/165.png,正义,1,f,f,f,1,1,1,正义,,,,,,,,,0,65,65,164,,,,,,,,,,,j,0,0.1252617836,,,,moral_self_bias,12,19,59.9959376225,f,001,2018_Apr_02_1435,
,,,,,,,,,,,,,,,,,,,,,,material/159.png,2,弱智,material/59.png,2,material/159.png,智障,2,j,j,j,2,2,2,弱智,,,,,,,,,0,66,66,58,,,,,,,,,,,j,1,0.141861915588,,,,moral_self_bias,12,19,59.9959376225,f,001,2018_Apr_02_1435,
,,,,,,,,,,,,,,,,,,,,,,material/81.png,2,呆笨,material/179.png,2,material/83.png,差生,2,f,f,f,2,2,2,无助,,,,,,,,,0,67,67,158,,,,,,,,,,,j,0,0.12481379509,,,,moral_self_bias,12,19,59.9959376225,f,001,2018_Apr_02_1435,
,,,,,,,,,,,,,,,,,,,,,,material/65.png,1,勇敢,material/61.png,1,material/161.png,平等,1,j,j,j,1,1,1,谦虚,,,,,,,,,0,68,68,60,,,,,,,,,,,j,1,0.123514175415,,,,moral_self_bias,12,19,59.9959376225,f,001,2018_Apr_02_1435,
,,,,,,,,,,,,,,,,,,,,,,material/4.png,1,友善,material/104.png,1,material/104.png,友善,1,f,f,f,1,1,1,友爱,,,,,,,,,0,69,69,83,,,,,,,,,,,j,0,0.123815059662,,,,moral_self_bias,12,19,59.9959376225,f,001,2018_Apr_02_1435,
,,,,,,,,,,,,,,,,,,,,,,material/14.png,1,忠贞,material/114.png,1,material/114.png,忠贞,1,f,f,f,1,1,1,爱国,,,,,,,,,0,70,70,93,,,,,,,,,,,j,0,0.123456954956,,,,moral_self_bias,12,19,59.9959376225,f,001,2018_Apr_02_1435,
,,,,,,,,,,,,,,,,,,,,,,material/183.png,2,颓废,material/182.png,2,material/79.png,才尽,2,f,f,f,2,2,2,薄弱,,,,,,,,,0,71,71,161,,,,,,,,,,,j,0,0.141476154327,,,,moral_self_bias,12,19,59.9959376225,f,001,2018_Apr_02_1435,
,,,,,,,,,,,,,,,,,,,,,,material/107.png,1,公正,material/7.png,1,material/7.png,公正,1,j,j,j,1,1,1,公平,,,,,,,,,0,72,72,6,,,,,,,,,,,j,1,0.140556097031,,,,moral_self_bias,12,19,59.9959376225,f,001,2018_Apr_02_1435,
,,,,,,,,,,,,,,,,,,,,,,material/64.png,1,谦虚,material/165.png,1,material/65.png,独立,1,f,f,f,1,1,1,奉献,,,,,,,,,0,73,73,144,,,,,,,,,,,j,0,0.12394285202,,,,moral_self_bias,12,19,59.9959376225,f,001,2018_Apr_02_1435,
,,,,,,,,,,,,,,,,,,,,,,material/67.png,1,骁勇,material/70.png,1,material/67.png,全面,1,j,j,j,2,2,2,骁勇,,,,,,,,,0,74,74,67,,,,,,,,,,,j,1,0.141424894333,,,,moral_self_bias,12,19,59.9959376225,f,001,2018_Apr_02_1435,
,,,,,,,,,,,,,,,,,,,,,,material/115.png,1,清白,material/15.png,1,material/15.png,清白,1,j,j,j,1,1,1,纯洁,,,,,,,,,0,75,75,14,,,,,,,,,,,j,1,0.107192993164,,,,moral_self_bias,12,19,59.9959376225,f,001,2018_Apr_02_1435,
,,,,,,,,,,,,,,,,,,,,,,material/73.png,2,恶心,material/177.png,2,material/177.png,恶心,2,f,f,f,1,1,1,残虐,,,,,,,,,0,76,76,156,,,,,,,,,,,j,0,0.132899999619,,,,moral_self_bias,12,19,59.9959376225,f,001,2018_Apr_02_1435,
,,,,,,,,,,,,,,,,,,,,,,material/165.png,1,平等,material/161.png,1,material/61.png,勇敢,1,f,f,f,1,1,1,独立,,,,,,,,,0,77,77,140,,,,,,,,,,,j,0,0.107746124268,,,,moral_self_bias,12,19,59.9959376225,f,001,2018_Apr_02_1435,
,,,,,,,,,,,,,,,,,,,,,,material/102.png,1,善心,material/2.png,1,material/2.png,善心,1,j,j,j,1,1,1,爱心,,,,,,,,,0,78,78,1,,,,,,,,,,,j,1,0.124309062958,,,,moral_self_bias,12,19,59.9959376225,f,001,2018_Apr_02_1435,
,,,,,,,,,,,,,,,,,,,,,,material/58.png,2,肤浅,material/158.png,2,material/58.png,浅薄,2,f,f,f,2,2,2,肤浅,,,,,,,,,0,79,79,137,,,,,,,,,,,j,0,0.125298976898,,,,moral_self_bias,12,19,59.9959376225,f,001,2018_Apr_02_1435,
,,,,,,,,,,,,,,,,,,,,,,material/164.png,1,宽容,material/63.png,1,material/163.png,文明,1,j,j,j,1,1,1,孝顺,,,,,,,,,0,80,80,62,,,,,,,,,,,j,1,0.124138832092,,,,moral_self_bias,12,19,59.9959376225,f,001,2018_Apr_02_1435,
,,,,,,,,,,,,,,,,,,,,,,material/142.png,2,阴险,material/42.png,2,material/42.png,阴险,2,j,j,j,1,1,1,奸诈,,,,,,,,,0,81,81,41,,,,,,,,,,,j,1,0.107481956482,,,,moral_self_bias,12,19,59.9959376225,f,001,2018_Apr_02_1435,
,,,,,,,,,,,,,,,,,,,,,,material/19.png,1,灵活,material/119.png,1,material/19.png,机灵,1,f,f,f,2,2,2,灵活,,,,,,,,,0,82,82,98,,,,,,,,,,,j,0,0.140915870667,,,,moral_self_bias,12,19,59.9959376225,f,001,2018_Apr_02_1435,
,,,,,,,,,,,,,,,,,,,,,,material/49.png,2,痴呆,material/149.png,2,material/49.png,白痴,2,f,f,f,2,2,2,痴呆,,,,,,,,,0,83,83,128,,,,,,,,,,,j,0,0.124883890152,,,,moral_self_bias,12,19,59.9959376225,f,001,2018_Apr_02_1435,
,,,,,,,,,,,,,,,,,,,,,,material/2.png,1,爱心,material/102.png,1,material/102.png,爱心,1,f,f,f,1,1,1,善心,,,,,,,,,0,84,84,81,,,,,,,,,,,j,0,0.123368024826,,,,moral_self_bias,12,19,59.9959376225,f,001,2018_Apr_02_1435,
,,,,,,,,,,,,,,,,,,,,,,material/72.png,2,软弱,material/77.png,2,material/77.png,软弱,2,j,j,j,1,1,1,谄媚,,,,,,,,,0,85,85,73,,,,,,,,,,,j,1,0.141247034073,,,,moral_self_bias,12,19,59.9959376225,f,001,2018_Apr_02_1435,
,,,,,,,,,,,,,,,,,,,,,,material/70.png,1,全面,material/168.png,1,material/70.png,机变,1,f,f,f,2,2,2,全面,,,,,,,,,0,86,86,147,,,,,,,,,,,j,0,0.124083042145,,,,moral_self_bias,12,19,59.9959376225,f,001,2018_Apr_02_1435,
,,,,,,,,,,,,,,,,,,,,,,material/124.png,1,冷静,material/24.png,1,material/124.png,理智,1,j,j,j,2,2,2,冷静,,,,,,,,,0,87,87,23,,,,,,,,,,,j,1,0.124428987503,,,,moral_self_bias,12,19,59.9959376225,f,001,2018_Apr_02_1435,
,,,,,,,,,,,,,,,,,,,,,,material/3.png,1,仁厚,material/103.png,1,material/103.png,仁厚,1,f,f,f,1,1,1,仁慈,,,,,,,,,0,88,88,82,,,,,,,,,,,j,0,0.124483108521,,,,moral_self_bias,12,19,59.9959376225,f,001,2018_Apr_02_1435,
,,,,,,,,,,,,,,,,,,,,,,material/117.png,1,聪颖,material/17.png,1,material/117.png,聪明,1,j,j,j,2,2,2,聪颖,,,,,,,,,0,89,89,16,,,,,,,,,,,j,1,0.10777592659,,,,moral_self_bias,12,19,59.9959376225,f,001,2018_Apr_02_1435,
,,,,,,,,,,,,,,,,,,,,,,material/125.png,1,果敢,material/25.png,1,material/125.png,果断,1,j,j,j,2,2,2,果敢,,,,,,,,,0,90,90,24,,,,,,,,,,,j,1,0.140647888184,,,,moral_self_bias,12,19,59.9959376225,f,001,2018_Apr_02_1435,
,,,,,,,,,,,,,,,,,,,,,,material/101.png,1,善良,material/1.png,1,material/1.png,善良,1,j,j,j,1,1,1,博爱,,,,,,,,,0,91,91,0,,,,,,,,,,,j,1,0.124264001846,,,,moral_self_bias,12,19,59.9959376225,f,001,2018_Apr_02_1435,
,,,,,,,,,,,,,,,,,,,,,,material/166.png,1,孝顺,material/64.png,1,material/164.png,奉献,1,j,j,j,1,1,1,仗义,,,,,,,,,0,92,92,63,,,,,,,,,,,j,1,0.123721837997,,,,moral_self_bias,12,19,59.9959376225,f,001,2018_Apr_02_1435,
,,,,,,,,,,,,,,,,,,,,,,material/32.png,2,背叛,material/132.png,2,material/132.png,背叛,2,f,f,f,1,1,1,不忠,,,,,,,,,0,93,93,111,,,,,,,,,,,j,0,0.141507863998,,,,moral_self_bias,12,19,59.9959376225,f,001,2018_Apr_02_1435,
,,,,,,,,,,,,,,,,,,,,,,material/135.png,2,冷漠,material/35.png,2,material/35.png,冷漠,2,j,j,j,1,1,1,冷血,,,,,,,,,0,94,94,34,,,,,,,,,,,j,1,0.107930183411,,,,moral_self_bias,12,19,59.9959376225,f,001,2018_Apr_02_1435,
,,,,,,,,,,,,,,,,,,,,,,material/103.png,1,仁慈,material/3.png,1,material/3.png,仁慈,1,j,j,j,1,1,1,仁厚,,,,,,,,,0,95,95,2,,,,,,,,,,,j,1,0.141106128693,,,,moral_self_bias,12,19,59.9959376225,f,001,2018_Apr_02_1435,
,,,,,,,,,,,,,,,,,,,,,,material/160.png,2,笨拙,material/60.png,2,material/160.png,粗拙,2,j,j,j,2,2,2,笨拙,,,,,,,,,0,96,96,59,,,,,,,,,,,j,1,0.107385873795,,,,moral_self_bias,12,19,59.9959376225,f,001,2018_Apr_02_1435,
,,,,,,,,,,,,,,,,,,,,,,material/79.png,2,薄弱,material/81.png,2,material/183.png,无助,2,j,j,j,2,2,2,颓废,,,,,,,,,0,97,97,77,,,,,,,,,,,j,1,0.14066696167,,,,moral_self_bias,12,19,59.9959376225,f,001,2018_Apr_02_1435,
,,,,,,,,,,,,,,,,,,,,,,material/131.png,1,笃行,material/31.png,1,material/131.png,笃学,1,j,j,j,2,2,2,笃行,,,,,,,,,0,98,98,30,,,,,,,,,,,j,1,0.100164175034,,,,moral_self_bias,12,19,59.9959376225,f,001,2018_Apr_02_1435,
,,,,,,,,,,,,,,,,,,,,,,material/148.png,2,笨蛋,material/48.png,2,material/148.png,愚蠢,2,j,j,j,2,2,2,笨蛋,,,,,,,,,0,99,99,47,,,,,,,,,,,j,1,0.140953063965,,,,moral_self_bias,12,19,59.9959376225,f,001,2018_Apr_02_1435,
,,,,,,,,,,,,,,,,,,,,,,material/55.png,2,盲从,material/155.png,2,material/55.png,盲目,2,f,f,f,2,2,2,盲从,,,,,,,,,0,100,100,134,,,,,,,,,,,j,0,0.125018835068,,,,moral_self_bias,12,19,59.9959376225,f,001,2018_Apr_02_1435,
,,,,,,,,,,,,,,,,,,,,,,material/5.png,1,诚信,material/105.png,1,material/105.png,诚信,1,f,f,f,1,1,1,守信,,,,,,,,,0,101,101,84,,,,,,,,,,,j,0,0.124205112457,,,,moral_self_bias,12,19,59.9959376225,f,001,2018_Apr_02_1435,
,,,,,,,,,,,,,,,,,,,,,,material/21.png,1,干练,material/121.png,1,material/21.png,精干,1,f,f,f,2,2,2,干练,,,,,,,,,0,102,102,100,,,,,,,,,,,j,0,0.121367931366,,,,moral_self_bias,12,19,59.9959376225,f,001,2018_Apr_02_1435,
,,,,,,,,,,,,,,,,,,,,,,material/46.png,2,自私,material/146.png,2,material/146.png,自私,2,f,f,f,1,1,1,小气,,,,,,,,,0,103,103,125,,,,,,,,,,,j,0,0.157956123352,,,,moral_self_bias,12,19,59.9959376225,f,001,2018_Apr_02_1435,
,,,,,,,,,,,,,,,,,,,,,,material/184.png,2,草率,material/80.png,2,material/78.png,健忘,2,j,j,j,2,2,2,厌学,,,,,,,,,0,104,104,76,,,,,,,,,,,j,1,0.123521089554,,,,moral_self_bias,12,19,59.9959376225,f,001,2018_Apr_02_1435,
,,,,,,,,,,,,,,,,,,,,,,material/128.png,1,自律,material/28.png,1,material/128.png,克己,1,j,j,j,2,2,2,自律,,,,,,,,,0,105,105,27,,,,,,,,,,,j,1,0.157884120941,,,,moral_self_bias,12,19,59.9959376225,f,001,2018_Apr_02_1435,
,,,,,,,,,,,,,,,,,,,,,,material/127.png,1,超群,material/27.png,1,material/127.png,卓越,1,j,j,j,2,2,2,超群,,,,,,,,,0,106,106,26,,,,,,,,,,,j,1,0.12429189682,,,,moral_self_bias,12,19,59.9959376225,f,001,2018_Apr_02_1435,
,,,,,,,,,,,,,,,,,,,,,,material/45.png,2,小人,material/145.png,2,material/145.png,小人,2,f,f,f,1,1,1,下流,,,,,,,,,0,107,107,124,,,,,,,,,,,j,0,0.124198913574,,,,moral_self_bias,12,19,59.9959376225,f,001,2018_Apr_02_1435,
,,,,,,,,,,,,,,,,,,,,,,material/172.png,2,无情,material/175.png,2,material/175.png,无情,2,f,f,f,1,1,1,浮夸,,,,,,,,,0,108,108,154,,,,,,,,,,,j,0,0.124579906464,,,,moral_self_bias,12,19,59.9959376225,f,001,2018_Apr_02_1435,
,,,,,,,,,,,,,,,,,,,,,,material/42.png,2,奸诈,material/142.png,2,material/142.png,奸诈,2,f,f,f,1,1,1,阴险,,,,,,,,,0,109,109,121,,,,,,,,,,,j,0,0.124400854111,,,,moral_self_bias,12,19,59.9959376225,f,001,2018_Apr_02_1435,
,,,,,,,,,,,,,,,,,,,,,,material/157.png,2,无能,material/57.png,2,material/157.png,无知,2,j,j,j,2,2,2,无能,,,,,,,,,0,110,110,56,,,,,,,,,,,j,1,0.124726057053,,,,moral_self_bias,12,19,59.9959376225,f,001,2018_Apr_02_1435,
,,,,,,,,,,,,,,,,,,,,,,material/146.png,2,小气,material/46.png,2,material/46.png,小气,2,j,j,j,1,1,1,自私,,,,,,,,,0,111,111,45,,,,,,,,,,,j,1,0.124387979507,,,,moral_self_bias,12,19,59.9959376225,f,001,2018_Apr_02_1435,
,,,,,,,,,,,,,,,,,,,,,,material/80.png,2,才尽,material/83.png,2,material/182.png,呆笨,2,j,j,j,2,2,2,健忘,,,,,,,,,0,112,112,79,,,,,,,,,,,j,1,0.141466140747,,,,moral_self_bias,12,19,59.9959376225,f,001,2018_Apr_02_1435,
,,,,,,,,,,,,,,,,,,,,,,material/158.png,2,浅薄,material/58.png,2,material/158.png,肤浅,2,j,j,j,2,2,2,浅薄,,,,,,,,,0,113,113,57,,,,,,,,,,,j,1,0.124934911728,,,,moral_self_bias,12,19,59.9959376225,f,001,2018_Apr_02_1435,
,,,,,,,,,,,,,,,,,,,,,,material/151.png,2,迷糊,material/51.png,2,material/151.png,糊涂,2,j,j,j,2,2,2,迷糊,,,,,,,,,0,114,114,50,,,,,,,,,,,j,1,0.132838010788,,,,moral_self_bias,12,19,59.9959376225,f,001,2018_Apr_02_1435,
,,,,,,,,,,,,,,,,,,,,,,material/71.png,1,严谨,material/68.png,1,material/71.png,广博,1,j,j,j,2,2,2,严谨,,,,,,,,,0,115,115,66,,,,,,,,,,,j,1,0.123588085175,,,,moral_self_bias,12,19,59.9959376225,f,001,2018_Apr_02_1435,
,,,,,,,,,,,,,,,,,,,,,,material/76.png,2,放纵,material/176.png,2,material/176.png,放纵,2,f,f,f,1,1,1,虚伪,,,,,,,,,0,116,116,155,,,,,,,,,,,j,0,0.125159025192,,,,moral_self_bias,12,19,59.9959376225,f,001,2018_Apr_02_1435,
,,,,,,,,,,,,,,,,,,,,,,material/37.png,2,卑鄙,material/137.png,2,material/137.png,卑鄙,2,f,f,f,1,1,1,无耻,,,,,,,,,0,117,117,116,,,,,,,,,,,j,0,0.141402006149,,,,moral_self_bias,12,19,59.9959376225,f,001,2018_Apr_02_1435,
,,,,,,,,,,,,,,,,,,,,,,material/156.png,2,愚钝,material/56.png,2,material/156.png,愚昧,2,j,j,j,2,2,2,愚钝,,,,,,,,,0,118,118,55,,,,,,,,,,,j,1,0.124922990799,,,,moral_self_bias,12,19,59.9959376225,f,001,2018_Apr_02_1435,
,,,,,,,,,,,,,,,,,,,,,,material/18.png,1,敏锐,material/118.png,1,material/18.png,机敏,1,f,f,f,2,2,2,敏锐,,,,,,,,,0,119,119,97,,,,,,,,,,,j,0,0.123917818069,,,,moral_self_bias,12,19,59.9959376225,f,001,2018_Apr_02_1435,
,,,,,,,,,,,,,,,,,,,,,,material/168.png,1,机变,material/170.png,1,material/168.png,坚忍,1,f,f,f,2,2,2,机变,,,,,,,,,0,120,120,149,,,,,,,,,,,j,0,0.140928983688,,,,moral_self_bias,12,19,59.9959376225,f,001,2018_Apr_02_1435,
,,,,,,,,,,,,,,,,,,,,,,material/178.png,2,窝囊,material/82.png,2,material/82.png,窝囊,2,j,j,j,2,2,2,毛糙,,,,,,,,,0,121,121,78,,,,,,,,,,,j,1,0.1245470047,,,,moral_self_bias,12,19,59.9959376225,f,001,2018_Apr_02_1435,
,,,,,,,,,,,,,,,,,,,,,,material/78.png,2,厌学,material/181.png,2,material/184.png,犹豫,2,f,f,f,2,2,2,草率,,,,,,,,,0,122,122,160,,,,,,,,,,,j,0,0.141413927078,,,,moral_self_bias,12,19,59.9959376225,f,001,2018_Apr_02_1435,
,,,,,,,,,,,,,,,,,,,,,,material/140.png,2,邪恶,material/40.png,2,material/40.png,邪恶,2,j,j,j,1,1,1,狠毒,,,,,,,,,0,123,123,39,,,,,,,,,,,j,1,0.133147954941,,,,moral_self_bias,12,19,59.9959376225,f,001,2018_Apr_02_1435,
,,,,,,,,,,,,,,,,,,,,,,material/77.png,2,浮夸,material/172.png,2,material/172.png,浮夸,2,f,f,f,1,1,1,软弱,,,,,,,,,0,124,124,151,,,,,,,,,,,j,0,0.141080141068,,,,moral_self_bias,12,19,59.9959376225,f,001,2018_Apr_02_1435,
,,,,,,,,,,,,,,,,,,,,,,material/16.png,1,睿智,material/116.png,1,material/16.png,机智,1,f,f,f,2,2,2,睿智,,,,,,,,,0,125,125,95,,,,,,,,,,,j,0,0.124448060989,,,,moral_self_bias,12,19,59.9959376225,f,001,2018_Apr_02_1435,
,,,,,,,,,,,,,,,,,,,,,,material/173.png,2,不义,material/174.png,2,material/174.png,不义,2,f,f,f,1,1,1,黑心,,,,,,,,,0,126,126,153,,,,,,,,,,,j,0,0.140959024429,,,,moral_self_bias,12,19,59.9959376225,f,001,2018_Apr_02_1435,
,,,,,,,,,,,,,,,,,,,,,,material/36.png,2,撒谎,material/136.png,2,material/136.png,撒谎,2,f,f,f,1,1,1,说谎,,,,,,,,,0,127,127,115,,,,,,,,,,,j,0,0.123672008514,,,,moral_self_bias,12,19,59.9959376225,f,001,2018_Apr_02_1435,
,,,,,,,,,,,,,,,,,,,,,,material/33.png,2,贪污,material/133.png,2,material/133.png,贪污,2,f,f,f,1,1,1,腐败,,,,,,,,,0,128,128,112,,,,,,,,,,,j,0,0.140475988388,,,,moral_self_bias,12,19,59.9959376225,f,001,2018_Apr_02_1435,
,,,,,,,,,,,,,,,,,,,,,,material/17.png,1,聪明,material/117.png,1,material/17.png,聪颖,1,f,f,f,2,2,2,聪明,,,,,,,,,0,129,129,96,,,,,,,,,,,j,0,0.149974822998,,,,moral_self_bias,12,19,59.9959376225,f,001,2018_Apr_02_1435,
,,,,,,,,,,,,,,,,,,,,,,material/137.png,2,无耻,material/37.png,2,material/37.png,无耻,2,j,j,j,1,1,1,卑鄙,,,,,,,,,0,130,130,36,,,,,,,,,,,j,1,0.141283988953,,,,moral_self_bias,12,19,59.9959376225,f,001,2018_Apr_02_1435,
,,,,,,,,,,,,,,,,,,,,,,material/110.png,1,顽强,material/10.png,1,material/10.png,顽强,1,j,j,j,1,1,1,坚毅,,,,,,,,,0,131,131,9,,,,,,,,,,,j,1,0.124634027481,,,,moral_self_bias,12,19,59.9959376225,f,001,2018_Apr_02_1435,
,,,,,,,,,,,,,,,,,,,,,,material/174.png,2,虚伪,material/76.png,2,material/76.png,虚伪,2,j,j,j,1,1,1,不义,,,,,,,,,0,132,132,72,,,,,,,,,,,j,1,0.141287088394,,,,moral_self_bias,12,19,59.9959376225,f,001,2018_Apr_02_1435,
,,,,,,,,,,,,,,,,,,,,,,material/177.png,2,谄媚,material/72.png,2,material/72.png,谄媚,2,j,j,j,1,1,1,恶心,,,,,,,,,0,133,133,69,,,,,,,,,,,j,1,0.14154791832,,,,moral_self_bias,12,19,59.9959376225,f,001,2018_Apr_02_1435,
,,,,,,,,,,,,,,,,,,,,,,material/143.png,2,拜金,material/43.png,2,material/43.png,拜金,2,j,j,j,1,1,1,虚荣,,,,,,,,,0,134,134,42,,,,,,,,,,,j,1,0.124423980713,,,,moral_self_bias,12,19,59.9959376225,f,001,2018_Apr_02_1435,
,,,,,,,,,,,,,,,,,,,,,,material/144.png,2,失信,material/44.png,2,material/44.png,失信,2,j,j,j,1,1,1,爽约,,,,,,,,,0,135,135,43,,,,,,,,,,,j,1,0.123788833618,,,,moral_self_bias,12,19,59.9959376225,f,001,2018_Apr_02_1435,
,,,,,,,,,,,,,,,,,,,,,,material/15.png,1,纯洁,material/115.png,1,material/115.png,纯洁,1,f,f,f,1,1,1,清白,,,,,,,,,0,136,136,94,,,,,,,,,,,j,0,0.123370170593,,,,moral_self_bias,12,19,59.9959376225,f,001,2018_Apr_02_1435,
,,,,,,,,,,,,,,,,,,,,,,material/179.png,2,顽愚,material/178.png,2,material/84.png,毛糙,2,f,f,f,2,2,2,差生,,,,,,,,,0,137,137,157,,,,,,,,,,,j,0,0.158165216446,,,,moral_self_bias,12,19,59.9959376225,f,001,2018_Apr_02_1435,
,,,,,,,,,,,,,,,,,,,,,,material/10.png,1,坚毅,material/110.png,1,material/110.png,坚毅,1,f,f,f,1,1,1,顽强,,,,,,,,,0,138,138,89,,,,,,,,,,,j,0,0.133859872818,,,,moral_self_bias,12,19,59.9959376225,f,001,2018_Apr_02_1435,
,,,,,,,,,,,,,,,,,,,,,,material/12.png,1,忠心,material/112.png,1,material/112.png,忠心,1,f,f,f,1,1,1,忠诚,,,,,,,,,0,139,139,91,,,,,,,,,,,j,0,0.140043973923,,,,moral_self_bias,12,19,59.9959376225,f,001,2018_Apr_02_1435,
,,,,,,,,,,,,,,,,,,,,,,material/30.png,1,上进,material/130.png,1,material/30.png,进取,1,f,f,f,2,2,2,上进,,,,,,,,,0,140,140,109,,,,,,,,,,,j,0,0.142348051071,,,,moral_self_bias,12,19,59.9959376225,f,001,2018_Apr_02_1435,
,,,,,,,,,,,,,,,,,,,,,,material/114.png,1,爱国,material/14.png,1,material/14.png,爱国,1,j,j,j,1,1,1,忠贞,,,,,,,,,0,141,141,13,,,,,,,,,,,j,1,0.124179124832,,,,moral_self_bias,12,19,59.9959376225,f,001,2018_Apr_02_1435,
,,,,,,,,,,,,,,,,,,,,,,material/62.png,1,坚韧,material/162.png,1,material/62.png,敬业,1,f,f,f,1,1,1,坚韧,,,,,,,,,0,142,142,141,,,,,,,,,,,j,0,0.106884002686,,,,moral_self_bias,12,19,59.9959376225,f,001,2018_Apr_02_1435,
,,,,,,,,,,,,,,,,,,,,,,material/134.png,2,可恨,material/34.png,2,material/34.png,可恨,2,j,j,j,1,1,1,可恶,,,,,,,,,0,143,143,33,,,,,,,,,,,j,1,0.124886989594,,,,moral_self_bias,12,19,59.9959376225,f,001,2018_Apr_02_1435,
,,,,,,,,,,,,,,,,,,,,,,material/26.png,1,刻苦,material/126.png,1,material/26.png,勤快,1,f,f,f,2,2,2,刻苦,,,,,,,,,0,144,144,105,,,,,,,,,,,j,0,0.158505916595,,,,moral_self_bias,12,19,59.9959376225,f,001,2018_Apr_02_1435,
,,,,,,,,,,,,,,,,,,,,,,material/57.png,2,无知,material/157.png,2,material/57.png,无能,2,f,f,f,2,2,2,无知,,,,,,,,,0,145,145,136,,,,,,,,,,,j,0,0.124486207962,,,,moral_self_bias,12,19,59.9959376225,f,001,2018_Apr_02_1435,
,,,,,,,,,,,,,,,,,,,,,,material/163.png,1,文明,material/163.png,1,material/63.png,宽容,1,f,f,f,1,1,1,宽容,,,,,,,,,0,146,146,142,,,,,,,,,,,j,0,0.157866954803,,,,moral_self_bias,12,19,59.9959376225,f,001,2018_Apr_02_1435,
,,,,,,,,,,,,,,,,,,,,,,material/133.png,2,腐败,material/33.png,2,material/33.png,腐败,2,j,j,j,1,1,1,贪污,,,,,,,,,0,147,147,32,,,,,,,,,,,j,1,0.133498191833,,,,moral_self_bias,12,19,59.9959376225,f,001,2018_Apr_02_1435,
,,,,,,,,,,,,,,,,,,,,,,material/28.png,1,克己,material/128.png,1,material/28.png,自律,1,f,f,f,2,2,2,克己,,,,,,,,,0,148,148,107,,,,,,,,,,,j,0,0.140908002853,,,,moral_self_bias,12,19,59.9959376225,f,001,2018_Apr_02_1435,
,,,,,,,,,,,,,,,,,,,,,,material/24.png,1,理智,material/124.png,1,material/24.png,冷静,1,f,f,f,2,2,2,理智,,,,,,,,,0,149,149,103,,,,,,,,,,,j,0,0.133567094803,,,,moral_self_bias,12,19,59.9959376225,f,001,2018_Apr_02_1435,
,,,,,,,,,,,,,,,,,,,,,,material/170.png,1,坚忍,material/71.png,1,material/170.png,严谨,1,j,j,j,2,2,2,坚忍,,,,,,,,,0,150,150,68,,,,,,,,,,,j,1,0.140769958496,,,,moral_self_bias,12,19,59.9959376225,f,001,2018_Apr_02_1435,
,,,,,,,,,,,,,,,,,,,,,,material/176.png,2,害人,material/75.png,2,material/75.png,害人,2,j,j,j,1,1,1,放纵,,,,,,,,,0,151,151,71,,,,,,,,,,,j,1,0.140693902969,,,,moral_self_bias,12,19,59.9959376225,f,001,2018_Apr_02_1435,
,,,,,,,,,,,,,,,,,,,,,,material/175.png,2,残虐,material/73.png,2,material/73.png,残虐,2,f,f,f,1,1,1,无情,,,,,,,,,0,152,152,165,,,,,,,,,,,j,0,0.124106168747,,,,moral_self_bias,12,19,59.9959376225,f,001,2018_Apr_02_1435,
,,,,,,,,,,,,,,,,,,,,,,material/68.png,1,广博,material/167.png,1,material/68.png,高手,1,f,f,f,2,2,2,广博,,,,,,,,,0,153,153,146,,,,,,,,,,,j,0,0.124585866928,,,,moral_self_bias,12,19,59.9959376225,f,001,2018_Apr_02_1435,
,,,,,,,,,,,,,,,,,,,,,,material/129.png,1,好问,material/29.png,1,material/129.png,好学,1,j,j,j,2,2,2,好问,,,,,,,,,0,154,154,28,,,,,,,,,,,j,1,0.141467094421,,,,moral_self_bias,12,19,59.9959376225,f,001,2018_Apr_02_1435,
,,,,,,,,,,,,,,,,,,,,,,material/41.png,2,残忍,material/141.png,2,material/141.png,残忍,2,f,f,f,1,1,1,歹毒,,,,,,,,,0,155,155,120,,,,,,,,,,,j,0,0.124925851822,,,,moral_self_bias,12,19,59.9959376225,f,001,2018_Apr_02_1435,
,,,,,,,,,,,,,,,,,,,,,,material/22.png,1,才学,material/122.png,1,material/22.png,博学,1,f,f,f,2,2,2,才学,,,,,,,,,0,156,156,101,,,,,,,,,,,j,0,0.124963998795,,,,moral_self_bias,12,19,59.9959376225,f,001,2018_Apr_02_1435,
,,,,,,,,,,,,,,,,,,,,,,material/20.png,1,厉害,material/120.png,1,material/20.png,能干,1,f,f,f,2,2,2,厉害,,,,,,,,,0,157,157,99,,,,,,,,,,,j,0,0.141814947128,,,,moral_self_bias,12,19,59.9959376225,f,001,2018_Apr_02_1435,
,,,,,,,,,,,,,,,,,,,,,,material/182.png,2,健忘,material/184.png,2,material/80.png,厌学,2,f,f,f,2,2,2,才尽,,,,,,,,,0,158,158,163,,,,,,,,,,,j,0,0.141229152679,,,,moral_self_bias,12,19,59.9959376225,f,001,2018_Apr_02_1435,
,,,,,,,,,,,,,,,,,,,,,,material/48.png,2,愚蠢,material/148.png,2,material/48.png,笨蛋,2,f,f,f,2,2,2,愚蠢,,,,,,,,,0,159,159,127,,,,,,,,,,,j,0,0.123888969421,,,,moral_self_bias,12,19,59.9959376225,f,001,2018_Apr_02_1435,
,,,,,,,,,,,,,,,,,,,,,,material/111.png,1,高雅,material/11.png,1,material/11.png,高雅,1,j,j,j,1,1,1,高尚,,,,,,,,,0,160,160,10,,,,,,,,,,,j,1,0.156718015671,,,,moral_self_bias,12,19,59.9959376225,f,001,2018_Apr_02_1435,
,,,,,,,,,,,,,,,,,,,,,,material/109.png,1,秉直,material/9.png,1,material/9.png,秉直,1,j,j,j,1,1,1,正直,,,,,,,,,0,161,161,8,,,,,,,,,,,j,1,0.14055109024,,,,moral_self_bias,12,19,59.9959376225,f,001,2018_Apr_02_1435,
,,,,,,,,,,,,,,,,,,,,,,material/122.png,1,博学,material/22.png,1,material/122.png,才学,1,j,j,j,2,2,2,博学,,,,,,,,,0,162,162,21,,,,,,,,,,,j,1,0.141379833221,,,,moral_self_bias,12,19,59.9959376225,f,001,2018_Apr_02_1435,
,,,,,,,,,,,,,,,,,,,,,,material/56.png,2,愚昧,material/156.png,2,material/56.png,愚钝,2,f,f,f,2,2,2,愚昧,,,,,,,,,0,163,163,135,,,,,,,,,,,j,0,0.12366104126,,,,moral_self_bias,12,19,59.9959376225,f,001,2018_Apr_02_1435,
,,,,,,,,,,,,,,,,,,,,,,material/11.png,1,高尚,material/111.png,1,material/111.png,高尚,1,f,f,f,1,1,1,高雅,,,,,,,,,0,164,164,90,,,,,,,,,,,j,0,0.141136169434,,,,moral_self_bias,12,19,59.9959376225,f,001,2018_Apr_02_1435,
,,,,,,,,,,,,,,,,,,,,,,material/171.png,1,高效,material/67.png,1,material/171.png,骁勇,1,j,j,j,2,2,2,高效,,,,,,,,,0,165,165,65,,,,,,,,,,,j,1,0.141578912735,,,,moral_self_bias,12,19,59.9959376225,f,001,2018_Apr_02_1435,
,,,,,,,,,,,,,,,,,,,,,,material/106.png,1,诚实,material/6.png,1,material/6.png,诚实,1,j,j,j,1,1,1,厚道,,,,,,,,,0,166,166,5,,,,,,,,,,,j,1,0.124210119247,,,,moral_self_bias,12,19,59.9959376225,f,001,2018_Apr_02_1435,
,,,,,,,,,,,,,,,,,,,,,,material/132.png,2,不忠,material/32.png,2,material/32.png,不忠,2,j,j,j,1,1,1,背叛,,,,,,,,,0,167,167,31,,,,,,,,,,,j,1,0.106827974319,,,,moral_self_bias,12,19,59.9959376225,f,001,2018_Apr_02_1435,
