Block1_Old,Num_Source3,Num_Source2,Num_Source1,valence1,valence2,valence3,Num_Old2,Corr_S1,Num_Old1,Corr_S3,Corr_S2,Block3_Old,Block2_Old,Source_2,Source_3,Source_1,domain3,domain2,domain1,Num_Old3,math,Num_All2,valence_all1,All_Words3,Num_All1,valence_all2,Num_All3,All_Words1,valence_all3,Corr_Rec2,Corr_Rec3,Corr_Rec1,domian_all3,domian_all2,domian_all1,All_Words2,trials.thisRepN,trials.thisTrialN,trials.thisN,trials.thisIndex,trials_2.thisRepN,trials_2.thisTrialN,trials_2.thisN,trials_2.thisIndex,trials_4.thisRepN,trials_4.thisTrialN,trials_4.thisN,trials_4.thisIndex,trials_3.thisRepN,trials_3.thisTrialN,trials_3.thisN,trials_3.thisIndex,block_resp_1.keys,block_resp_1.rt,words_rating.keys,words_rating.rt,block_resp_2.keys,block_resp_2.rt,Rec_resp.keys,Rec_resp.corr,Rec_resp.rt,Source_resp.keys,Source_resp.corr,Source_resp.rt,expName,participant,Age,frameRate,Sex,session,date,
,,,,,,,,,,,,,,,,,,,,,,,,,,,,,,,,,,,,,,,,,,,,,,,,,,,,,1,9.97636008263,,,,,,,,,,,moral_self_bias,16,19,60.0174859447,f,001,2018_Apr_02_1544,
差生,material/instr2_2.png,material/instr2_2.png,material/instr2_2.png,2,2,2,material/81.png,j,material/179.png,j,j,呆笨,无助,friend,friend,friend,2,2,2,material/83.png,,,,,,,,,,,,,,,,,0,0,0,78,,,,,,,,,,,,,,,None,,,,,,,,,,moral_self_bias,16,19,60.0174859447,f,001,2018_Apr_02_1544,
勤快,material/instr2_2.png,material/instr2_2.png,material/instr2_2.png,1,1,1,material/26.png,j,material/126.png,j,j,刻苦,刻苦,friend,friend,friend,2,2,2,material/26.png,,,,,,,,,,,,,,,,,0,1,1,25,,,,,,,,,,,,,,,1,1.34233307838,,,,,,,,,moral_self_bias,16,19,60.0174859447,f,001,2018_Apr_02_1544,
正义,material/instr2_1.png,material/instr2_1.png,material/instr2_1.png,1,1,1,material/66.png,f,material/66.png,f,f,独立,正义,self,self,self,1,1,1,material/165.png,,,,,,,,,,,,,,,,,0,2,2,84,,,,,,,,,,,,,,,5,1.65915989876,,,,,,,,,moral_self_bias,16,19,60.0174859447,f,001,2018_Apr_02_1544,
笨蛋,material/instr2_2.png,material/instr2_2.png,material/instr2_2.png,2,2,2,material/48.png,j,material/148.png,j,j,愚蠢,愚蠢,friend,friend,friend,2,2,2,material/48.png,,,,,,,,,,,,,,,,,0,3,3,47,,,,,,,,,,,,,,,5,1.77552008629,,,,,,,,,moral_self_bias,16,19,60.0174859447,f,001,2018_Apr_02_1544,
白痴,material/instr2_2.png,material/instr2_2.png,material/instr2_2.png,2,2,2,material/49.png,j,material/149.png,j,j,痴呆,痴呆,friend,friend,friend,2,2,2,material/49.png,,,,,,,,,,,,,,,,,0,4,4,48,,,,,,,,,,,,,,,1,1.10880017281,,,,,,,,,moral_self_bias,16,19,60.0174859447,f,001,2018_Apr_02_1544,
冷血,material/instr2_1.png,material/instr2_1.png,material/instr2_1.png,2,2,2,material/35.png,f,material/135.png,f,f,冷血,冷漠,self,self,self,1,1,1,material/135.png,,,,,,,,,,,,,,,,,0,5,5,34,,,,,,,,,,,,,,,1,1.2932639122,,,,,,,,,moral_self_bias,16,19,60.0174859447,f,001,2018_Apr_02_1544,
虚荣,material/instr2_1.png,material/instr2_1.png,material/instr2_1.png,2,2,2,material/43.png,f,material/143.png,f,f,虚荣,拜金,self,self,self,1,1,1,material/143.png,,,,,,,,,,,,,,,,,0,6,6,42,,,,,,,,,,,,,,,2,1.25956702232,,,,,,,,,moral_self_bias,16,19,60.0174859447,f,001,2018_Apr_02_1544,
诚信,material/instr2_1.png,material/instr2_1.png,material/instr2_1.png,1,1,1,material/5.png,f,material/105.png,f,f,诚信,守信,self,self,self,1,1,1,material/105.png,,,,,,,,,,,,,,,,,0,7,7,4,,,,,,,,,,,,,,,5,1.25812602043,,,,,,,,,moral_self_bias,16,19,60.0174859447,f,001,2018_Apr_02_1544,
高尚,material/instr2_1.png,material/instr2_1.png,material/instr2_1.png,1,1,1,material/11.png,f,material/111.png,f,f,高尚,高雅,self,self,self,1,1,1,material/111.png,,,,,,,,,,,,,,,,,0,8,8,10,,,,,,,,,,,,,,,3,1.54236602783,,,,,,,,,moral_self_bias,16,19,60.0174859447,f,001,2018_Apr_02_1544,
爽约,material/instr2_2.png,material/instr2_2.png,material/instr2_2.png,2,2,2,material/44.png,j,material/144.png,j,j,爽约,失信,friend,friend,friend,1,1,1,material/144.png,,,,,,,,,,,,,,,,,0,9,9,43,,,,,,,,,,,,,,,2,1.77575302124,,,,,,,,,moral_self_bias,16,19,60.0174859447,f,001,2018_Apr_02_1544,
正直,material/instr2_2.png,material/instr2_2.png,material/instr2_2.png,1,1,1,material/9.png,j,material/109.png,j,j,正直,秉直,friend,friend,friend,1,1,1,material/109.png,,,,,,,,,,,,,,,,,0,10,10,8,,,,,,,,,,,,,,,5,1.30915808678,,,,,,,,,moral_self_bias,16,19,60.0174859447,f,001,2018_Apr_02_1544,
迟钝,material/instr2_1.png,material/instr2_1.png,material/instr2_1.png,2,2,2,material/53.png,f,material/153.png,f,f,迟缓,迟缓,self,self,self,2,2,2,material/53.png,,,,,,,,,,,,,,,,,0,11,11,52,,,,,,,,,,,,,,,3,1.69165492058,,,,,,,,,moral_self_bias,16,19,60.0174859447,f,001,2018_Apr_02_1544,
放纵,material/instr2_1.png,material/instr2_1.png,material/instr2_1.png,2,2,2,material/76.png,f,material/176.png,f,f,放纵,虚伪,self,self,self,1,1,1,material/176.png,,,,,,,,,,,,,,,,,0,12,12,75,,,,,,,,,,,,,,,5,1.75828289986,,,,,,,,,moral_self_bias,16,19,60.0174859447,f,001,2018_Apr_02_1544,
鲁钝,material/instr2_2.png,material/instr2_2.png,material/instr2_2.png,2,2,2,material/50.png,j,material/150.png,j,j,愚笨,愚笨,friend,friend,friend,2,2,2,material/50.png,,,,,,,,,,,,,,,,,0,13,13,49,,,,,,,,,,,,,,,2,1.50873708725,,,,,,,,,moral_self_bias,16,19,60.0174859447,f,001,2018_Apr_02_1544,
贪污,material/instr2_1.png,material/instr2_1.png,material/instr2_1.png,2,2,2,material/33.png,f,material/133.png,f,f,贪污,腐败,self,self,self,1,1,1,material/133.png,,,,,,,,,,,,,,,,,0,14,14,32,,,,,,,,,,,,,,,1,2.141685009,,,,,,,,,moral_self_bias,16,19,60.0174859447,f,001,2018_Apr_02_1544,
薄弱,material/instr2_1.png,material/instr2_1.png,material/instr2_1.png,2,2,2,material/82.png,f,material/183.png,f,f,毛糙,窝囊,self,self,self,2,2,2,material/178.png,,,,,,,,,,,,,,,,,0,15,15,82,,,,,,,,,,,,,,,3,1.7584130764,,,,,,,,,moral_self_bias,16,19,60.0174859447,f,001,2018_Apr_02_1544,
果敢,material/instr2_1.png,material/instr2_1.png,material/instr2_1.png,1,1,1,material/25.png,f,material/125.png,f,f,果断,果断,self,self,self,2,2,2,material/25.png,,,,,,,,,,,,,,,,,0,16,16,24,,,,,,,,,,,,,,,4,1.95899796486,,,,,,,,,moral_self_bias,16,19,60.0174859447,f,001,2018_Apr_02_1544,
狠毒,material/instr2_2.png,material/instr2_2.png,material/instr2_2.png,2,2,2,material/40.png,j,material/140.png,j,j,狠毒,邪恶,friend,friend,friend,1,1,1,material/140.png,,,,,,,,,,,,,,,,,0,17,17,39,,,,,,,,,,,,,,,1,1.60881185532,,,,,,,,,moral_self_bias,16,19,60.0174859447,f,001,2018_Apr_02_1544,
公平,material/instr2_2.png,material/instr2_2.png,material/instr2_2.png,1,1,1,material/7.png,j,material/107.png,j,j,公平,公正,friend,friend,friend,1,1,1,material/107.png,,,,,,,,,,,,,,,,,0,18,18,6,,,,,,,,,,,,,,,1,1.40847492218,,,,,,,,,moral_self_bias,16,19,60.0174859447,f,001,2018_Apr_02_1544,
能干,material/instr2_2.png,material/instr2_2.png,material/instr2_2.png,1,1,1,material/20.png,j,material/120.png,j,j,厉害,厉害,friend,friend,friend,2,2,2,material/20.png,,,,,,,,,,,,,,,,,0,19,19,19,,,,,,,,,,,,,,,3,1.34122300148,,,,,,,,,moral_self_bias,16,19,60.0174859447,f,001,2018_Apr_02_1544,
奸诈,material/instr2_1.png,material/instr2_1.png,material/instr2_1.png,2,2,2,material/42.png,f,material/142.png,f,f,奸诈,阴险,self,self,self,1,1,1,material/142.png,,,,,,,,,,,,,,,,,0,20,20,41,,,,,,,,,,,,,,,1,1.22622895241,,,,,,,,,moral_self_bias,16,19,60.0174859447,f,001,2018_Apr_02_1544,
背叛,material/instr2_1.png,material/instr2_1.png,material/instr2_1.png,2,2,2,material/32.png,f,material/132.png,f,f,背叛,不忠,self,self,self,1,1,1,material/132.png,,,,,,,,,,,,,,,,,0,21,21,31,,,,,,,,,,,,,,,1,2.2588019371,,,,,,,,,moral_self_bias,16,19,60.0174859447,f,001,2018_Apr_02_1544,
敬业,material/instr2_2.png,material/instr2_2.png,material/instr2_2.png,1,1,1,material/62.png,j,material/162.png,j,j,坚韧,坚韧,friend,friend,friend,1,1,1,material/62.png,,,,,,,,,,,,,,,,,0,22,22,61,,,,,,,,,,,,,,,4,1.80999898911,,,,,,,,,moral_self_bias,16,19,60.0174859447,f,001,2018_Apr_02_1544,
仗义,material/instr2_1.png,material/instr2_1.png,material/instr2_1.png,1,1,1,material/63.png,f,material/166.png,f,f,正义,文明,self,self,self,1,1,1,material/66.png,,,,,,,,,,,,,,,,,0,23,23,65,,,,,,,,,,,,,,,4,1.89236712456,,,,,,,,,moral_self_bias,16,19,60.0174859447,f,001,2018_Apr_02_1544,
小人,material/instr2_2.png,material/instr2_2.png,material/instr2_2.png,2,2,2,material/45.png,j,material/145.png,j,j,小人,下流,friend,friend,friend,1,1,1,material/145.png,,,,,,,,,,,,,,,,,0,24,24,44,,,,,,,,,,,,,,,1,1.27535104752,,,,,,,,,moral_self_bias,16,19,60.0174859447,f,001,2018_Apr_02_1544,
多才,material/instr2_1.png,material/instr2_1.png,material/instr2_1.png,1,1,1,material/23.png,f,material/123.png,f,f,有才,有才,self,self,self,2,2,2,material/23.png,,,,,,,,,,,,,,,,,0,25,25,22,,,,,,,,,,,,,,,3,2.04201483727,,,,,,,,,moral_self_bias,16,19,60.0174859447,f,001,2018_Apr_02_1544,
忠贞,material/instr2_2.png,material/instr2_2.png,material/instr2_2.png,1,1,1,material/14.png,j,material/114.png,j,j,忠贞,爱国,friend,friend,friend,1,1,1,material/114.png,,,,,,,,,,,,,,,,,0,26,26,13,,,,,,,,,,,,,,,4,1.82560992241,,,,,,,,,moral_self_bias,16,19,60.0174859447,f,001,2018_Apr_02_1544,
好问,material/instr2_1.png,material/instr2_1.png,material/instr2_1.png,1,1,1,material/29.png,f,material/129.png,f,f,好学,好学,self,self,self,2,2,2,material/29.png,,,,,,,,,,,,,,,,,0,27,27,28,,,,,,,,,,,,,,,4,1.34164190292,,,,,,,,,moral_self_bias,16,19,60.0174859447,f,001,2018_Apr_02_1544,
坚毅,material/instr2_2.png,material/instr2_2.png,material/instr2_2.png,1,1,1,material/10.png,j,material/110.png,j,j,坚毅,顽强,friend,friend,friend,1,1,1,material/110.png,,,,,,,,,,,,,,,,,0,28,28,9,,,,,,,,,,,,,,,4,2.53353595734,,,,,,,,,moral_self_bias,16,19,60.0174859447,f,001,2018_Apr_02_1544,
盲目,material/instr2_1.png,material/instr2_1.png,material/instr2_1.png,2,2,2,material/55.png,f,material/155.png,f,f,盲从,盲从,self,self,self,2,2,2,material/55.png,,,,,,,,,,,,,,,,,0,29,29,54,,,,,,,,,,,,,,,2,1.69167995453,,,,,,,,,moral_self_bias,16,19,60.0174859447,f,001,2018_Apr_02_1544,
迷糊,material/instr2_2.png,material/instr2_2.png,material/instr2_2.png,2,2,2,material/51.png,j,material/151.png,j,j,糊涂,糊涂,friend,friend,friend,2,2,2,material/51.png,,,,,,,,,,,,,,,,,0,30,30,50,,,,,,,,,,,,,,,2,2.04070901871,,,,,,,,,moral_self_bias,16,19,60.0174859447,f,001,2018_Apr_02_1544,
黑心,material/instr2_2.png,material/instr2_2.png,material/instr2_2.png,2,2,2,material/74.png,j,material/173.png,j,j,黑心,卑劣,friend,friend,friend,1,1,1,material/173.png,,,,,,,,,,,,,,,,,0,31,31,72,,,,,,,,,,,,,,,2,1.27527594566,,,,,,,,,moral_self_bias,16,19,60.0174859447,f,001,2018_Apr_02_1544,
浅薄,material/instr2_2.png,material/instr2_2.png,material/instr2_2.png,2,2,2,material/58.png,j,material/158.png,j,j,肤浅,肤浅,friend,friend,friend,2,2,2,material/58.png,,,,,,,,,,,,,,,,,0,32,32,57,,,,,,,,,,,,,,,2,1.60906100273,,,,,,,,,moral_self_bias,16,19,60.0174859447,f,001,2018_Apr_02_1544,
聪颖,material/instr2_2.png,material/instr2_2.png,material/instr2_2.png,1,1,1,material/17.png,j,material/117.png,j,j,聪明,聪明,friend,friend,friend,2,2,2,material/17.png,,,,,,,,,,,,,,,,,0,33,33,16,,,,,,,,,,,,,,,4,1.52527093887,,,,,,,,,moral_self_bias,16,19,60.0174859447,f,001,2018_Apr_02_1544,
机变,material/instr2_2.png,material/instr2_2.png,material/instr2_2.png,1,1,1,material/70.png,j,material/168.png,j,j,全面,全面,friend,friend,friend,2,2,2,material/70.png,,,,,,,,,,,,,,,,,0,34,34,67,,,,,,,,,,,,,,,3,1.15803289413,,,,,,,,,moral_self_bias,16,19,60.0174859447,f,001,2018_Apr_02_1544,
愚钝,material/instr2_1.png,material/instr2_1.png,material/instr2_1.png,2,2,2,material/56.png,f,material/156.png,f,f,愚昧,愚昧,self,self,self,2,2,2,material/56.png,,,,,,,,,,,,,,,,,0,35,35,55,,,,,,,,,,,,,,,3,2.00842690468,,,,,,,,,moral_self_bias,16,19,60.0174859447,f,001,2018_Apr_02_1544,
精干,material/instr2_1.png,material/instr2_1.png,material/instr2_1.png,1,1,1,material/21.png,f,material/121.png,f,f,干练,干练,self,self,self,2,2,2,material/21.png,,,,,,,,,,,,,,,,,0,36,36,20,,,,,,,,,,,,,,,4,2.55833697319,,,,,,,,,moral_self_bias,16,19,60.0174859447,f,001,2018_Apr_02_1544,
犹豫,material/instr2_1.png,material/instr2_1.png,material/instr2_1.png,2,2,2,material/78.png,f,material/181.png,f,f,厌学,草率,self,self,self,2,2,2,material/184.png,,,,,,,,,,,,,,,,,0,37,37,80,,,,,,,,,,,,,,,4,1.89250898361,,,,,,,,,moral_self_bias,16,19,60.0174859447,f,001,2018_Apr_02_1544,
仁厚,material/instr2_1.png,material/instr2_1.png,material/instr2_1.png,1,1,1,material/3.png,f,material/103.png,f,f,仁厚,仁慈,self,self,self,1,1,1,material/103.png,,,,,,,,,,,,,,,,,0,38,38,2,,,,,,,,,,,,,,,3,1.25960707664,,,,,,,,,moral_self_bias,16,19,60.0174859447,f,001,2018_Apr_02_1544,
机灵,material/instr2_2.png,material/instr2_2.png,material/instr2_2.png,1,1,1,material/19.png,j,material/119.png,j,j,灵活,灵活,friend,friend,friend,2,2,2,material/19.png,,,,,,,,,,,,,,,,,0,39,39,18,,,,,,,,,,,,,,,4,1.81636404991,,,,,,,,,moral_self_bias,16,19,60.0174859447,f,001,2018_Apr_02_1544,
厚道,material/instr2_2.png,material/instr2_2.png,material/instr2_2.png,1,1,1,material/6.png,j,material/106.png,j,j,厚道,诚实,friend,friend,friend,1,1,1,material/106.png,,,,,,,,,,,,,,,,,0,40,40,5,,,,,,,,,,,,,,,4,1.17544794083,,,,,,,,,moral_self_bias,16,19,60.0174859447,f,001,2018_Apr_02_1544,
残忍,material/instr2_2.png,material/instr2_2.png,material/instr2_2.png,2,2,2,material/41.png,j,material/141.png,j,j,残忍,歹毒,friend,friend,friend,1,1,1,material/141.png,,,,,,,,,,,,,,,,,0,41,41,40,,,,,,,,,,,,,,,1,1.07540416718,,,,,,,,,moral_self_bias,16,19,60.0174859447,f,001,2018_Apr_02_1544,
笨拙,material/instr2_1.png,material/instr2_1.png,material/instr2_1.png,2,2,2,material/60.png,f,material/160.png,f,f,粗拙,粗拙,self,self,self,2,2,2,material/60.png,,,,,,,,,,,,,,,,,0,42,42,59,,,,,,,,,,,,,,,1,2.55887007713,,,,,,,,,moral_self_bias,16,19,60.0174859447,f,001,2018_Apr_02_1544,
高效,material/instr2_1.png,material/instr2_1.png,material/instr2_1.png,1,1,1,material/169.png,f,material/171.png,f,f,颖悟,颖悟,self,self,self,2,2,2,material/169.png,,,,,,,,,,,,,,,,,0,43,43,70,,,,,,,,,,,,,,,2,1.94974303246,,,,,,,,,moral_self_bias,16,19,60.0174859447,f,001,2018_Apr_02_1544,
撒谎,material/instr2_1.png,material/instr2_1.png,material/instr2_1.png,2,2,2,material/36.png,f,material/136.png,f,f,撒谎,说谎,self,self,self,1,1,1,material/136.png,,,,,,,,,,,,,,,,,0,44,44,35,,,,,,,,,,,,,,,2,1.19373393059,,,,,,,,,moral_self_bias,16,19,60.0174859447,f,001,2018_Apr_02_1544,
缺德,material/instr2_2.png,material/instr2_2.png,material/instr2_2.png,2,2,2,material/38.png,j,material/138.png,j,j,缺德,无德,friend,friend,friend,1,1,1,material/138.png,,,,,,,,,,,,,,,,,0,45,45,37,,,,,,,,,,,,,,,1,2.67518091202,,,,,,,,,moral_self_bias,16,19,60.0174859447,f,001,2018_Apr_02_1544,
刻板,material/instr2_2.png,material/instr2_2.png,material/instr2_2.png,2,2,2,material/47.png,j,material/147.png,j,j,死板,死板,friend,friend,friend,2,2,2,material/47.png,,,,,,,,,,,,,,,,,0,46,46,46,,,,,,,,,,,,,,,3,1.63855791092,,,,,,,,,moral_self_bias,16,19,60.0174859447,f,001,2018_Apr_02_1544,
毛糙,material/instr2_2.png,material/instr2_2.png,material/instr2_2.png,2,2,2,material/179.png,j,material/178.png,j,j,顽愚,差生,friend,friend,friend,2,2,2,material/84.png,,,,,,,,,,,,,,,,,0,47,47,77,,,,,,,,,,,,,,,4,1.94229793549,,,,,,,,,moral_self_bias,16,19,60.0174859447,f,001,2018_Apr_02_1544,
博学,material/instr2_1.png,material/instr2_1.png,material/instr2_1.png,1,1,1,material/22.png,f,material/122.png,f,f,才学,才学,self,self,self,2,2,2,material/22.png,,,,,,,,,,,,,,,,,0,48,48,21,,,,,,,,,,,,,,,3,1.29244279861,,,,,,,,,moral_self_bias,16,19,60.0174859447,f,001,2018_Apr_02_1544,
孝顺,material/instr2_1.png,material/instr2_1.png,material/instr2_1.png,1,1,1,material/161.png,f,material/164.png,f,f,奉献,勇敢,self,self,self,1,1,1,material/64.png,,,,,,,,,,,,,,,,,0,49,49,63,,,,,,,,,,,,,,,3,1.27568793297,,,,,,,,,moral_self_bias,16,19,60.0174859447,f,001,2018_Apr_02_1544,
浮夸,material/instr2_2.png,material/instr2_2.png,material/instr2_2.png,2,2,2,material/77.png,j,material/172.png,j,j,浮夸,软弱,friend,friend,friend,1,1,1,material/172.png,,,,,,,,,,,,,,,,,0,50,50,71,,,,,,,,,,,,,,,1,1.0929069519,,,,,,,,,moral_self_bias,16,19,60.0174859447,f,001,2018_Apr_02_1544,
自律,material/instr2_2.png,material/instr2_2.png,material/instr2_2.png,1,1,1,material/28.png,j,material/128.png,j,j,克己,克己,friend,friend,friend,2,2,2,material/28.png,,,,,,,,,,,,,,,,,0,51,51,27,,,,,,,,,,,,,,,2,2.89213109016,,,,,,,,,moral_self_bias,16,19,60.0174859447,f,001,2018_Apr_02_1544,
依靠,material/instr2_1.png,material/instr2_1.png,material/instr2_1.png,2,2,2,material/54.png,f,material/154.png,f,f,依赖,依赖,self,self,self,2,2,2,material/54.png,,,,,,,,,,,,,,,,,0,52,52,53,,,,,,,,,,,,,,,2,1.82552599907,,,,,,,,,moral_self_bias,16,19,60.0174859447,f,001,2018_Apr_02_1544,
无私,material/instr2_2.png,material/instr2_2.png,material/instr2_2.png,1,1,1,material/8.png,j,material/108.png,j,j,无私,公道,friend,friend,friend,1,1,1,material/108.png,,,,,,,,,,,,,,,,,0,53,53,7,,,,,,,,,,,,,,,4,1.57518291473,,,,,,,,,moral_self_bias,16,19,60.0174859447,f,001,2018_Apr_02_1544,
恶毒,material/instr2_2.png,material/instr2_2.png,material/instr2_2.png,2,2,2,material/39.png,j,material/139.png,j,j,恶毒,凶残,friend,friend,friend,1,1,1,material/139.png,,,,,,,,,,,,,,,,,0,54,54,38,,,,,,,,,,,,,,,1,1.19182896614,,,,,,,,,moral_self_bias,16,19,60.0174859447,f,001,2018_Apr_02_1544,
友善,material/instr2_1.png,material/instr2_1.png,material/instr2_1.png,1,1,1,material/4.png,f,material/104.png,f,f,友善,友爱,self,self,self,1,1,1,material/104.png,,,,,,,,,,,,,,,,,0,55,55,3,,,,,,,,,,,,,,,4,2.1920208931,,,,,,,,,moral_self_bias,16,19,60.0174859447,f,001,2018_Apr_02_1544,
顽愚,material/instr2_1.png,material/instr2_1.png,material/instr2_1.png,2,2,2,material/84.png,f,material/84.png,f,f,犹豫,顽愚,self,self,self,2,2,2,material/181.png,,,,,,,,,,,,,,,,,0,56,56,87,,,,,,,,,,,,,,,1,1.26650810242,,,,,,,,,moral_self_bias,16,19,60.0174859447,f,001,2018_Apr_02_1544,
超群,material/instr2_2.png,material/instr2_2.png,material/instr2_2.png,1,1,1,material/27.png,j,material/127.png,j,j,卓越,卓越,friend,friend,friend,2,2,2,material/27.png,,,,,,,,,,,,,,,,,0,57,57,26,,,,,,,,,,,,,,,5,1.30841898918,,,,,,,,,moral_self_bias,16,19,60.0174859447,f,001,2018_Apr_02_1544,
坚忍,material/instr2_1.png,material/instr2_1.png,material/instr2_1.png,1,1,1,material/168.png,f,material/170.png,f,f,机变,机变,self,self,self,2,2,2,material/168.png,,,,,,,,,,,,,,,,,0,58,58,69,,,,,,,,,,,,,,,4,1.39203977585,,,,,,,,,moral_self_bias,16,19,60.0174859447,f,001,2018_Apr_02_1544,
恶心,material/instr2_1.png,material/instr2_1.png,material/instr2_1.png,2,2,2,material/73.png,f,material/177.png,f,f,恶心,残虐,self,self,self,1,1,1,material/177.png,,,,,,,,,,,,,,,,,0,59,59,76,,,,,,,,,,,,,,,1,1.57520794868,,,,,,,,,moral_self_bias,16,19,60.0174859447,f,001,2018_Apr_02_1544,
自私,material/instr2_2.png,material/instr2_2.png,material/instr2_2.png,2,2,2,material/46.png,j,material/146.png,j,j,自私,小气,friend,friend,friend,1,1,1,material/146.png,,,,,,,,,,,,,,,,,0,60,60,45,,,,,,,,,,,,,,,1,1.92512893677,,,,,,,,,moral_self_bias,16,19,60.0174859447,f,001,2018_Apr_02_1544,
笃行,material/instr2_1.png,material/instr2_1.png,material/instr2_1.png,1,1,1,material/31.png,f,material/131.png,f,f,笃学,笃学,self,self,self,2,2,2,material/31.png,,,,,,,,,,,,,,,,,0,61,61,30,,,,,,,,,,,,,,,1,1.70008683205,,,,,,,,,moral_self_bias,16,19,60.0174859447,f,001,2018_Apr_02_1544,
爱心,material/instr2_1.png,material/instr2_1.png,material/instr2_1.png,1,1,1,material/2.png,f,material/102.png,f,f,爱心,善心,self,self,self,1,1,1,material/102.png,,,,,,,,,,,,,,,,,0,62,62,1,,,,,,,,,,,,,,,3,1.25880289078,,,,,,,,,moral_self_bias,16,19,60.0174859447,f,001,2018_Apr_02_1544,
纯洁,material/instr2_2.png,material/instr2_2.png,material/instr2_2.png,1,1,1,material/15.png,j,material/115.png,j,j,纯洁,清白,friend,friend,friend,1,1,1,material/115.png,,,,,,,,,,,,,,,,,0,63,63,14,,,,,,,,,,,,,,,4,2.34212112427,,,,,,,,,moral_self_bias,16,19,60.0174859447,f,001,2018_Apr_02_1544,
残虐,material/instr2_1.png,material/instr2_1.png,material/instr2_1.png,2,2,2,material/175.png,f,material/73.png,f,f,残虐,无情,self,self,self,1,1,1,material/73.png,,,,,,,,,,,,,,,,,0,64,64,85,,,,,,,,,,,,,,,1,1.05918002129,,,,,,,,,moral_self_bias,16,19,60.0174859447,f,001,2018_Apr_02_1544,
高手,material/instr2_2.png,material/instr2_2.png,material/instr2_2.png,1,1,1,material/68.png,j,material/167.png,j,j,广博,广博,friend,friend,friend,2,2,2,material/68.png,,,,,,,,,,,,,,,,,0,65,65,66,,,,,,,,,,,,,,,5,1.00846719742,,,,,,,,,moral_self_bias,16,19,60.0174859447,f,001,2018_Apr_02_1544,
廉明,material/instr2_2.png,material/instr2_2.png,material/instr2_2.png,1,1,1,material/13.png,j,material/113.png,j,j,廉明,廉洁,friend,friend,friend,1,1,1,material/113.png,,,,,,,,,,,,,,,,,0,66,66,12,,,,,,,,,,,,,,,3,1.60951805115,,,,,,,,,moral_self_bias,16,19,60.0174859447,f,001,2018_Apr_02_1544,
弱智,material/instr2_1.png,material/instr2_1.png,material/instr2_1.png,2,2,2,material/59.png,f,material/159.png,f,f,智障,智障,self,self,self,2,2,2,material/59.png,,,,,,,,,,,,,,,,,0,67,67,58,,,,,,,,,,,,,,,1,1.2589969635,,,,,,,,,moral_self_bias,16,19,60.0174859447,f,001,2018_Apr_02_1544,
冷静,material/instr2_1.png,material/instr2_1.png,material/instr2_1.png,1,1,1,material/24.png,f,material/124.png,f,f,理智,理智,self,self,self,2,2,2,material/24.png,,,,,,,,,,,,,,,,,0,68,68,23,,,,,,,,,,,,,,,3,1.27528500557,,,,,,,,,moral_self_bias,16,19,60.0174859447,f,001,2018_Apr_02_1544,
机智,material/instr2_2.png,material/instr2_2.png,material/instr2_2.png,1,1,1,material/16.png,j,material/116.png,j,j,睿智,睿智,friend,friend,friend,2,2,2,material/16.png,,,,,,,,,,,,,,,,,0,69,69,15,,,,,,,,,,,,,,,4,1.37556004524,,,,,,,,,moral_self_bias,16,19,60.0174859447,f,001,2018_Apr_02_1544,
缓慢,material/instr2_1.png,material/instr2_1.png,material/instr2_1.png,2,2,2,material/52.png,f,material/152.png,f,f,拖延,拖延,self,self,self,2,2,2,material/52.png,,,,,,,,,,,,,,,,,0,70,70,51,,,,,,,,,,,,,,,3,2.45978999138,,,,,,,,,moral_self_bias,16,19,60.0174859447,f,001,2018_Apr_02_1544,
高明,material/instr2_1.png,material/instr2_1.png,material/instr2_1.png,1,1,1,material/69.png,f,material/69.png,f,f,高明,高明,self,self,self,2,2,2,material/69.png,,,,,,,,,,,,,,,,,0,71,71,86,,,,,,,,,,,,,,,3,2.1754450798,,,,,,,,,moral_self_bias,16,19,60.0174859447,f,001,2018_Apr_02_1544,
独立,material/instr2_1.png,material/instr2_1.png,material/instr2_1.png,1,1,1,material/64.png,f,material/165.png,f,f,谦虚,奉献,self,self,self,1,1,1,material/65.png,,,,,,,,,,,,,,,,,0,72,72,64,,,,,,,,,,,,,,,3,1.19183111191,,,,,,,,,moral_self_bias,16,19,60.0174859447,f,001,2018_Apr_02_1544,
厌学,material/instr2_2.png,material/instr2_2.png,material/instr2_2.png,2,2,2,material/182.png,j,material/184.png,j,j,健忘,才尽,friend,friend,friend,2,2,2,material/80.png,,,,,,,,,,,,,,,,,0,73,73,83,,,,,,,,,,,,,,,4,2.45904302597,,,,,,,,,moral_self_bias,16,19,60.0174859447,f,001,2018_Apr_02_1544,
无能,material/instr2_2.png,material/instr2_2.png,material/instr2_2.png,2,2,2,material/57.png,j,material/157.png,j,j,无知,无知,friend,friend,friend,2,2,2,material/57.png,,,,,,,,,,,,,,,,,0,74,74,56,,,,,,,,,,,,,,,1,1.14200687408,,,,,,,,,moral_self_bias,16,19,60.0174859447,f,001,2018_Apr_02_1544,
可恶,material/instr2_1.png,material/instr2_1.png,material/instr2_1.png,2,2,2,material/34.png,f,material/134.png,f,f,可恶,可恨,self,self,self,1,1,1,material/134.png,,,,,,,,,,,,,,,,,0,75,75,33,,,,,,,,,,,,,,,2,1.27598905563,,,,,,,,,moral_self_bias,16,19,60.0174859447,f,001,2018_Apr_02_1544,
颖悟,material/instr2_2.png,material/instr2_2.png,material/instr2_2.png,1,1,1,material/167.png,j,material/169.png,j,j,高手,高手,friend,friend,friend,2,2,2,material/167.png,,,,,,,,,,,,,,,,,0,76,76,68,,,,,,,,,,,,,,,3,1.31618094444,,,,,,,,,moral_self_bias,16,19,60.0174859447,f,001,2018_Apr_02_1544,
怠惰,material/instr2_2.png,material/instr2_2.png,material/instr2_2.png,2,2,2,material/181.png,j,material/180.png,j,j,怠惰,犹豫,friend,friend,friend,2,2,2,material/180.png,,,,,,,,,,,,,,,,,0,77,77,79,,,,,,,,,,,,,,,3,1.82530999184,,,,,,,,,moral_self_bias,16,19,60.0174859447,f,001,2018_Apr_02_1544,
博爱,material/instr2_1.png,material/instr2_1.png,material/instr2_1.png,1,1,1,material/1.png,f,material/101.png,f,f,博爱,善良,self,self,self,1,1,1,material/101.png,,,,,,,,,,,,,,,,,0,78,78,0,,,,,,,,,,,,,,,3,2.17335295677,,,,,,,,,moral_self_bias,16,19,60.0174859447,f,001,2018_Apr_02_1544,
不义,material/instr2_2.png,material/instr2_2.png,material/instr2_2.png,2,2,2,material/173.png,j,material/174.png,j,j,不义,黑心,friend,friend,friend,1,1,1,material/174.png,,,,,,,,,,,,,,,,,0,79,79,73,,,,,,,,,,,,,,,1,1.52567315102,,,,,,,,,moral_self_bias,16,19,60.0174859447,f,001,2018_Apr_02_1544,
宽容,material/instr2_2.png,material/instr2_2.png,material/instr2_2.png,1,1,1,material/163.png,j,material/163.png,j,j,文明,宽容,friend,friend,friend,1,1,1,material/63.png,,,,,,,,,,,,,,,,,0,80,80,62,,,,,,,,,,,,,,,4,1.47589206696,,,,,,,,,moral_self_bias,16,19,60.0174859447,f,001,2018_Apr_02_1544,
忠心,material/instr2_1.png,material/instr2_1.png,material/instr2_1.png,1,1,1,material/12.png,f,material/112.png,f,f,忠心,忠诚,self,self,self,1,1,1,material/112.png,,,,,,,,,,,,,,,,,0,81,81,11,,,,,,,,,,,,,,,4,1.42574596405,,,,,,,,,moral_self_bias,16,19,60.0174859447,f,001,2018_Apr_02_1544,
卑鄙,material/instr2_2.png,material/instr2_2.png,material/instr2_2.png,2,2,2,material/37.png,j,material/137.png,j,j,卑鄙,无耻,friend,friend,friend,1,1,1,material/137.png,,,,,,,,,,,,,,,,,0,82,82,36,,,,,,,,,,,,,,,1,0.842390060425,,,,,,,,,moral_self_bias,16,19,60.0174859447,f,001,2018_Apr_02_1544,
进取,material/instr2_1.png,material/instr2_1.png,material/instr2_1.png,1,1,1,material/30.png,f,material/130.png,f,f,上进,上进,self,self,self,2,2,2,material/30.png,,,,,,,,,,,,,,,,,0,83,83,29,,,,,,,,,,,,,,,5,1.65774393082,,,,,,,,,moral_self_bias,16,19,60.0174859447,f,001,2018_Apr_02_1544,
勇敢,material/instr2_2.png,material/instr2_2.png,material/instr2_2.png,1,1,1,material/165.png,j,material/161.png,j,j,平等,独立,friend,friend,friend,1,1,1,material/61.png,,,,,,,,,,,,,,,,,0,84,84,60,,,,,,,,,,,,,,,5,1.59199094772,,,,,,,,,moral_self_bias,16,19,60.0174859447,f,001,2018_Apr_02_1544,
机敏,material/instr2_2.png,material/instr2_2.png,material/instr2_2.png,1,1,1,material/18.png,j,material/118.png,j,j,敏锐,敏锐,friend,friend,friend,2,2,2,material/18.png,,,,,,,,,,,,,,,,,0,85,85,17,,,,,,,,,,,,,,,4,1.259100914,,,,,,,,,moral_self_bias,16,19,60.0174859447,f,001,2018_Apr_02_1544,
无情,material/instr2_1.png,material/instr2_1.png,material/instr2_1.png,2,2,2,material/172.png,f,material/175.png,f,f,无情,浮夸,self,self,self,1,1,1,material/175.png,,,,,,,,,,,,,,,,,0,86,86,74,,,,,,,,,,,,,,,1,1.17602086067,,,,,,,,,moral_self_bias,16,19,60.0174859447,f,001,2018_Apr_02_1544,
才尽,material/instr2_1.png,material/instr2_1.png,material/instr2_1.png,2,2,2,material/183.png,f,material/182.png,f,f,颓废,薄弱,self,self,self,2,2,2,material/79.png,,,,,,,,,,,,,,,,,0,87,87,81,,,,,,,,,,,,,,,3,2.54241013527,,,,,,,,,moral_self_bias,16,19,60.0174859447,f,001,2018_Apr_02_1544,
,,,,,,,,,,,,,,,,,,,,,90/45= ?,,,,,,,,,,,,,,,,,,,,0,0,0,74,,,,,,,,,,,,,,,,,,,,,moral_self_bias,16,19,60.0174859447,f,001,2018_Apr_02_1544,
,,,,,,,,,,,,,,,,,,,,,6^0= ?,,,,,,,,,,,,,,,,,,,,0,1,1,103,,,,,,,,,,,,,,,,,,,,,moral_self_bias,16,19,60.0174859447,f,001,2018_Apr_02_1544,
,,,,,,,,,,,,,,,,,,,,,8-4= ?,,,,,,,,,,,,,,,,,,,,0,2,2,40,,,,,,,,,,,,,,,,,,,,,moral_self_bias,16,19,60.0174859447,f,001,2018_Apr_02_1544,
,,,,,,,,,,,,,,,,,,,,,8-3= ?,,,,,,,,,,,,,,,,,,,,0,3,3,39,,,,,,,,,,,,,,,,,,,,,moral_self_bias,16,19,60.0174859447,f,001,2018_Apr_02_1544,
,,,,,,,,,,,,,,,,,,,,,23^0= ?,,,,,,,,,,,,,,,,,,,,0,4,4,94,,,,,,,,,,,,,,,,,,,,,moral_self_bias,16,19,60.0174859447,f,001,2018_Apr_02_1544,
,,,,,,,,,,,,,,,,,,,,,9-1=?,,,,,,,,,,,,,,,,,,,,0,5,5,2,,,,,,,,,,,,,,,,,,,,,moral_self_bias,16,19,60.0174859447,f,001,2018_Apr_02_1544,
,,,,,,,,,,,,,,,,,,,,,13-6=？,,,,,,,,,,,,,,,,,,,,0,6,6,64,,,,,,,,,,,,,,,,,,,,,moral_self_bias,16,19,60.0174859447,f,001,2018_Apr_02_1544,
,,,,,,,,,,,,,,,,,,,,,1+8= ?,,,,,,,,,,,,,,,,,,,,0,7,7,6,,,,,,,,,,,,,,,,,,,,,moral_self_bias,16,19,60.0174859447,f,001,2018_Apr_02_1544,
,,,,,,,,,,,,,,,,,,,,,9-5= ?,,,,,,,,,,,,,,,,,,,,0,8,8,23,,,,,,,,,,,,,,,,,,,,,moral_self_bias,16,19,60.0174859447,f,001,2018_Apr_02_1544,
,,,,,,,,,,,,,,,,,,,,,2*4= ?,,,,,,,,,,,,,,,,,,,,0,9,9,84,,,,,,,,,,,,,,,,,,,,,moral_self_bias,16,19,60.0174859447,f,001,2018_Apr_02_1544,
,,,,,,,,,,,,,,,,,,,,,7+2= ?,,,,,,,,,,,,,,,,,,,,0,10,10,47,,,,,,,,,,,,,,,,,,,,,moral_self_bias,16,19,60.0174859447,f,001,2018_Apr_02_1544,
,,,,,,,,,,,,,,,,,,,,,6/2= ?,,,,,,,,,,,,,,,,,,,,0,11,11,58,,,,,,,,,,,,,,,,,,,,,moral_self_bias,16,19,60.0174859447,f,001,2018_Apr_02_1544,
,,,,,,,,,,,,,,,,,,,,,2+7= ?,,,,,,,,,,,,,,,,,,,,0,12,12,13,,,,,,,,,,,,,,,,,,,,,moral_self_bias,16,19,60.0174859447,f,001,2018_Apr_02_1544,
,,,,,,,,,,,,,,,,,,,,,11-5= ?,,,,,,,,,,,,,,,,,,,,0,13,13,107,,,,,,,,,,,,,,,,,,,,,moral_self_bias,16,19,60.0174859447,f,001,2018_Apr_02_1544,
,,,,,,,,,,,,,,,,,,,,,11-3=？,,,,,,,,,,,,,,,,,,,,0,14,14,68,,,,,,,,,,,,,,,,,,,,,moral_self_bias,16,19,60.0174859447,f,001,2018_Apr_02_1544,
,,,,,,,,,,,,,,,,,,,,,3*2= ?,,,,,,,,,,,,,,,,,,,,0,15,15,53,,,,,,,,,,,,,,,,,,,,,moral_self_bias,16,19,60.0174859447,f,001,2018_Apr_02_1544,
,,,,,,,,,,,,,,,,,,,,,4+5= ?,,,,,,,,,,,,,,,,,,,,0,16,16,29,,,,,,,,,,,,,,,,,,,,,moral_self_bias,16,19,60.0174859447,f,001,2018_Apr_02_1544,
,,,,,,,,,,,,,,,,,,,,,12-12= ?,,,,,,,,,,,,,,,,,,,,0,17,17,99,,,,,,,,,,,,,,,,,,,,,moral_self_bias,16,19,60.0174859447,f,001,2018_Apr_02_1544,
,,,,,,,,,,,,,,,,,,,,,1^2= ?,,,,,,,,,,,,,,,,,,,,0,18,18,51,,,,,,,,,,,,,,,,,,,,,moral_self_bias,16,19,60.0174859447,f,001,2018_Apr_02_1544,
,,,,,,,,,,,,,,,,,,,,,8-1= ?,,,,,,,,,,,,,,,,,,,,0,19,19,33,,,,,,,,,,,,,,,,,,,,,moral_self_bias,16,19,60.0174859447,f,001,2018_Apr_02_1544,
,,,,,,,,,,,,,,,,,,,,,12/12= ?,,,,,,,,,,,,,,,,,,,,0,20,20,91,,,,,,,,,,,,,,,,,,,,,moral_self_bias,16,19,60.0174859447,f,001,2018_Apr_02_1544,
,,,,,,,,,,,,,,,,,,,,,3*3= ?,,,,,,,,,,,,,,,,,,,,0,21,21,54,,,,,,,,,,,,,,,,,,,,,moral_self_bias,16,19,60.0174859447,f,001,2018_Apr_02_1544,
,,,,,,,,,,,,,,,,,,,,,3+5= ?,,,,,,,,,,,,,,,,,,,,0,22,22,20,,,,,,,,,,,,,,,,,,,,,moral_self_bias,16,19,60.0174859447,f,001,2018_Apr_02_1544,
,,,,,,,,,,,,,,,,,,,,,2^2= ?,,,,,,,,,,,,,,,,,,,,0,23,23,49,,,,,,,,,,,,,,,,,,,,,moral_self_bias,16,19,60.0174859447,f,001,2018_Apr_02_1544,
,,,,,,,,,,,,,,,,,,,,,9-9= ?,,,,,,,,,,,,,,,,,,,,0,24,24,32,,,,,,,,,,,,,,,,,,,,,moral_self_bias,16,19,60.0174859447,f,001,2018_Apr_02_1544,
,,,,,,,,,,,,,,,,,,,,,9+0= ?,,,,,,,,,,,,,,,,,,,,0,25,25,118,,,,,,,,,,,,,,,,,,,,,moral_self_bias,16,19,60.0174859447,f,001,2018_Apr_02_1544,
,,,,,,,,,,,,,,,,,,,,,11-4=？,,,,,,,,,,,,,,,,,,,,0,26,26,66,,,,,,,,,,,,,,,,,,,,,moral_self_bias,16,19,60.0174859447,f,001,2018_Apr_02_1544,
,,,,,,,,,,,,,,,,,,,,,2+6= ?,,,,,,,,,,,,,,,,,,,,0,27,27,12,,,,,,,,,,,,,,,,,,,,,moral_self_bias,16,19,60.0174859447,f,001,2018_Apr_02_1544,
,,,,,,,,,,,,,,,,,,,,,1-1= ?,,,,,,,,,,,,,,,,,,,,0,28,28,52,,,,,,,,,,,,,,,,,,,,,moral_self_bias,16,19,60.0174859447,f,001,2018_Apr_02_1544,
,,,,,,,,,,,,,,,,,,,,,49/7 = ?,,,,,,,,,,,,,,,,,,,,0,29,29,78,,,,,,,,,,,,,,,,,,,,,moral_self_bias,16,19,60.0174859447,f,001,2018_Apr_02_1544,
,,,,,,,,,,,,,,,,,,,,,2+1= ?,,,,,,,,,,,,,,,,,,,,0,30,30,7,,,,,,,,,,,,,,,,,,,,,moral_self_bias,16,19,60.0174859447,f,001,2018_Apr_02_1544,
,,,,,,,,,,,,,,,,,,,,,3+3= ?,,,,,,,,,,,,,,,,,,,,0,31,31,18,,,,,,,,,,,,,,,,,,,,,moral_self_bias,16,19,60.0174859447,f,001,2018_Apr_02_1544,
,,,,,,,,,,,,,,,,,,,,,32-23=？,,,,,,,,,,,,,,,,,,,,0,32,32,60,,,,,,,,,,,,,,,,,,,,,moral_self_bias,16,19,60.0174859447,f,001,2018_Apr_02_1544,
,,,,,,,,,,,,,,,,,,,,,1+7= ?,,,,,,,,,,,,,,,,,,,,0,33,33,4,,,,,,,,,,,,,,,,,,,,,moral_self_bias,16,19,60.0174859447,f,001,2018_Apr_02_1544,
,,,,,,,,,,,,,,,,,,,,,18/9= ?,,,,,,,,,,,,,,,,,,,,0,34,34,96,,,,,,,,,,,,,,,,,,,,,moral_self_bias,16,19,60.0174859447,f,001,2018_Apr_02_1544,
,,,,,,,,,,,,,,,,,,,,,21/3= ? ,,,,,,,,,,,,,,,,,,,,0,35,35,95,,,,,,,,,,,,,,,,,,,,,moral_self_bias,16,19,60.0174859447,f,001,2018_Apr_02_1544,
,,,,,,,,,,,,,,,,,,,,,3+6= ?,,,,,,,,,,,,,,,,,,,,0,36,36,21,,,,,,,,,,,,,,,,,,,,,moral_self_bias,16,19,60.0174859447,f,001,2018_Apr_02_1544,
,,,,,,,,,,,,,,,,,,,,,3^2= ?,,,,,,,,,,,,,,,,,,,,0,37,37,50,,,,,,,,,,,,,,,,,,,,,moral_self_bias,16,19,60.0174859447,f,001,2018_Apr_02_1544,
,,,,,,,,,,,,,,,,,,,,,8-6= ?,,,,,,,,,,,,,,,,,,,,0,38,38,42,,,,,,,,,,,,,,,,,,,,,moral_self_bias,16,19,60.0174859447,f,001,2018_Apr_02_1544,
,,,,,,,,,,,,,,,,,,,,,4*2= ?,,,,,,,,,,,,,,,,,,,,0,39,39,82,,,,,,,,,,,,,,,,,,,,,moral_self_bias,16,19,60.0174859447,f,001,2018_Apr_02_1544,
,,,,,,,,,,,,,,,,,,,,,2+3= ?,,,,,,,,,,,,,,,,,,,,0,40,40,9,,,,,,,,,,,,,,,,,,,,,moral_self_bias,16,19,60.0174859447,f,001,2018_Apr_02_1544,
,,,,,,,,,,,,,,,,,,,,,3*1= ?,,,,,,,,,,,,,,,,,,,,0,41,41,83,,,,,,,,,,,,,,,,,,,,,moral_self_bias,16,19,60.0174859447,f,001,2018_Apr_02_1544,
,,,,,,,,,,,,,,,,,,,,,1+1= ?,,,,,,,,,,,,,,,,,,,,0,42,42,0,,,,,,,,,,,,,,,,,,,,,moral_self_bias,16,19,60.0174859447,f,001,2018_Apr_02_1544,
,,,,,,,,,,,,,,,,,,,,,20/5=？,,,,,,,,,,,,,,,,,,,,0,43,43,69,,,,,,,,,,,,,,,,,,,,,moral_self_bias,16,19,60.0174859447,f,001,2018_Apr_02_1544,
,,,,,,,,,,,,,,,,,,,,,19-17= ?,,,,,,,,,,,,,,,,,,,,0,44,44,100,,,,,,,,,,,,,,,,,,,,,moral_self_bias,16,19,60.0174859447,f,001,2018_Apr_02_1544,
,,,,,,,,,,,,,,,,,,,,,4/4= ?,,,,,,,,,,,,,,,,,,,,0,45,45,55,,,,,,,,,,,,,,,,,,,,,moral_self_bias,16,19,60.0174859447,f,001,2018_Apr_02_1544,
,,,,,,,,,,,,,,,,,,,,,3^1= ?,,,,,,,,,,,,,,,,,,,,0,46,46,101,,,,,,,,,,,,,,,,,,,,,moral_self_bias,16,19,60.0174859447,f,001,2018_Apr_02_1544,
,,,,,,,,,,,,,,,,,,,,,5-3= ?,,,,,,,,,,,,,,,,,,,,0,47,47,116,,,,,,,,,,,,,,,,,,,,,moral_self_bias,16,19,60.0174859447,f,001,2018_Apr_02_1544,
,,,,,,,,,,,,,,,,,,,,,13-9= ?,,,,,,,,,,,,,,,,,,,,0,48,48,92,,,,,,,,,,,,,,,,,,,,,moral_self_bias,16,19,60.0174859447,f,001,2018_Apr_02_1544,
,,,,,,,,,,,,,,,,,,,,,18/2= ?,,,,,,,,,,,,,,,,,,,,0,49,49,97,,,,,,,,,,,,,,,,,,,,,moral_self_bias,16,19,60.0174859447,f,001,2018_Apr_02_1544,
,,,,,,,,,,,,,,,,,,,,,9-4= ?,,,,,,,,,,,,,,,,,,,,0,50,50,22,,,,,,,,,,,,,,,,,,,,,moral_self_bias,16,19,60.0174859447,f,001,2018_Apr_02_1544,
,,,,,,,,,,,,,,,,,,,,,6+1= ?,,,,,,,,,,,,,,,,,,,,0,51,51,43,,,,,,,,,,,,,,,,,,,,,moral_self_bias,16,19,60.0174859447,f,001,2018_Apr_02_1544,
,,,,,,,,,,,,,,,,,,,,,1*8= ?,,,,,,,,,,,,,,,,,,,,0,52,52,110,,,,,,,,,,,,,,,,,,,,,moral_self_bias,16,19,60.0174859447,f,001,2018_Apr_02_1544,
,,,,,,,,,,,,,,,,,,,,,4+3= ?,,,,,,,,,,,,,,,,,,,,0,53,53,27,,,,,,,,,,,,,,,,,,,,,moral_self_bias,16,19,60.0174859447,f,001,2018_Apr_02_1544,
,,,,,,,,,,,,,,,,,,,,,6*0= ?,,,,,,,,,,,,,,,,,,,,0,54,54,87,,,,,,,,,,,,,,,,,,,,,moral_self_bias,16,19,60.0174859447,f,001,2018_Apr_02_1544,
,,,,,,,,,,,,,,,,,,,,,10-9= ?,,,,,,,,,,,,,,,,,,,,0,55,55,112,,,,,,,,,,,,,,,,,,,,,moral_self_bias,16,19,60.0174859447,f,001,2018_Apr_02_1544,
,,,,,,,,,,,,,,,,,,,,,17-12= ? ,,,,,,,,,,,,,,,,,,,,0,56,56,104,,,,,,,,,,,,,,,,,,,,,moral_self_bias,16,19,60.0174859447,f,001,2018_Apr_02_1544,
,,,,,,,,,,,,,,,,,,,,,7*0= ?,,,,,,,,,,,,,,,,,,,,0,57,57,88,,,,,,,,,,,,,,,,,,,,,moral_self_bias,16,19,60.0174859447,f,001,2018_Apr_02_1544,
,,,,,,,,,,,,,,,,,,,,,50-42= ?,,,,,,,,,,,,,,,,,,,,0,58,58,81,,,,,,,,,,,,,,,,,,,,,moral_self_bias,16,19,60.0174859447,f,001,2018_Apr_02_1544,
,,,,,,,,,,,,,,,,,,,,,32-32= ?,,,,,,,,,,,,,,,,,,,,0,59,59,80,,,,,,,,,,,,,,,,,,,,,moral_self_bias,16,19,60.0174859447,f,001,2018_Apr_02_1544,
,,,,,,,,,,,,,,,,,,,,,12/6= ?,,,,,,,,,,,,,,,,,,,,0,60,60,90,,,,,,,,,,,,,,,,,,,,,moral_self_bias,16,19,60.0174859447,f,001,2018_Apr_02_1544,
,,,,,,,,,,,,,,,,,,,,,5+3= ?,,,,,,,,,,,,,,,,,,,,0,61,61,36,,,,,,,,,,,,,,,,,,,,,moral_self_bias,16,19,60.0174859447,f,001,2018_Apr_02_1544,
,,,,,,,,,,,,,,,,,,,,,21/7= ?,,,,,,,,,,,,,,,,,,,,0,62,62,70,,,,,,,,,,,,,,,,,,,,,moral_self_bias,16,19,60.0174859447,f,001,2018_Apr_02_1544,
,,,,,,,,,,,,,,,,,,,,,56/7= ?,,,,,,,,,,,,,,,,,,,,0,63,63,77,,,,,,,,,,,,,,,,,,,,,moral_self_bias,16,19,60.0174859447,f,001,2018_Apr_02_1544,
,,,,,,,,,,,,,,,,,,,,,43-34= ?,,,,,,,,,,,,,,,,,,,,0,64,64,79,,,,,,,,,,,,,,,,,,,,,moral_self_bias,16,19,60.0174859447,f,001,2018_Apr_02_1544,
,,,,,,,,,,,,,,,,,,,,,7+1= ?,,,,,,,,,,,,,,,,,,,,0,65,65,46,,,,,,,,,,,,,,,,,,,,,moral_self_bias,16,19,60.0174859447,f,001,2018_Apr_02_1544,
,,,,,,,,,,,,,,,,,,,,,3+0= ?,,,,,,,,,,,,,,,,,,,,0,66,66,105,,,,,,,,,,,,,,,,,,,,,moral_self_bias,16,19,60.0174859447,f,001,2018_Apr_02_1544,
,,,,,,,,,,,,,,,,,,,,,8*1= ?,,,,,,,,,,,,,,,,,,,,0,67,67,111,,,,,,,,,,,,,,,,,,,,,moral_self_bias,16,19,60.0174859447,f,001,2018_Apr_02_1544,
,,,,,,,,,,,,,,,,,,,,,22-22= ?,,,,,,,,,,,,,,,,,,,,0,68,68,93,,,,,,,,,,,,,,,,,,,,,moral_self_bias,16,19,60.0174859447,f,001,2018_Apr_02_1544,
,,,,,,,,,,,,,,,,,,,,,9-3= ?,,,,,,,,,,,,,,,,,,,,0,69,69,15,,,,,,,,,,,,,,,,,,,,,moral_self_bias,16,19,60.0174859447,f,001,2018_Apr_02_1544,
,,,,,,,,,,,,,,,,,,,,,5+2= ?,,,,,,,,,,,,,,,,,,,,0,70,70,35,,,,,,,,,,,,,,,,,,,,,moral_self_bias,16,19,60.0174859447,f,001,2018_Apr_02_1544,
,,,,,,,,,,,,,,,,,,,,,4+4= ?,,,,,,,,,,,,,,,,,,,,0,71,71,28,,,,,,,,,,,,,,,,,,,,,moral_self_bias,16,19,60.0174859447,f,001,2018_Apr_02_1544,
,,,,,,,,,,,,,,,,,,,,,4^1= ?,,,,,,,,,,,,,,,,,,,,0,72,72,102,,,,,,,,,,,,,,,,,,,,,moral_self_bias,16,19,60.0174859447,f,001,2018_Apr_02_1544,
,,,,,,,,,,,,,,,,,,,,,14-9=？,,,,,,,,,,,,,,,,,,,,0,73,73,63,,,,,,,,,,,,,,,,,,,,,moral_self_bias,16,19,60.0174859447,f,001,2018_Apr_02_1544,
,,,,,,,,,,,,,,,,,,,,,10-5=？,,,,,,,,,,,,,,,,,,,,0,74,74,67,,,,,,,,,,,,,,,,,,,,,moral_self_bias,16,19,60.0174859447,f,001,2018_Apr_02_1544,
,,,,,,,,,,,,,,,,,,,,,8/4= ?,,,,,,,,,,,,,,,,,,,,0,75,75,57,,,,,,,,,,,,,,,,,,,,,moral_self_bias,16,19,60.0174859447,f,001,2018_Apr_02_1544,
,,,,,,,,,,,,,,,,,,,,,2*3= ?,,,,,,,,,,,,,,,,,,,,0,76,76,108,,,,,,,,,,,,,,,,,,,,,moral_self_bias,16,19,60.0174859447,f,001,2018_Apr_02_1544,
,,,,,,,,,,,,,,,,,,,,,81/9= ?,,,,,,,,,,,,,,,,,,,,0,77,77,75,,,,,,,,,,,,,,,,,,,,,moral_self_bias,16,19,60.0174859447,f,001,2018_Apr_02_1544,
,,,,,,,,,,,,,,,,,,,,,9-8= ?,,,,,,,,,,,,,,,,,,,,0,78,78,31,,,,,,,,,,,,,,,,,,,,,moral_self_bias,16,19,60.0174859447,f,001,2018_Apr_02_1544,
,,,,,,,,,,,,,,,,,,,,,7*1= ?,,,,,,,,,,,,,,,,,,,,0,79,79,113,,,,,,,,,,,,,,,,,,,,,moral_self_bias,16,19,60.0174859447,f,001,2018_Apr_02_1544,
,,,,,,,,,,,,,,,,,,,,,4+1= ?,,,,,,,,,,,,,,,,,,,,0,80,80,25,,,,,,,,,,,,,,,,,,,,,moral_self_bias,16,19,60.0174859447,f,001,2018_Apr_02_1544,
,,,,,,,,,,,,,,,,,,,,,6+2= ?,,,,,,,,,,,,,,,,,,,,0,81,81,44,,,,,,,,,,,,,,,,,,,,,moral_self_bias,16,19,60.0174859447,f,001,2018_Apr_02_1544,
,,,,,,,,,,,,,,,,,,,,,3+2= ?,,,,,,,,,,,,,,,,,,,,0,82,82,17,,,,,,,,,,,,,,,,,,,,,moral_self_bias,16,19,60.0174859447,f,001,2018_Apr_02_1544,
,,,,,,,,,,,,,,,,,,,,,2+5= ?,,,,,,,,,,,,,,,,,,,,0,83,83,11,,,,,,,,,,,,,,,,,,,,,moral_self_bias,16,19,60.0174859447,f,001,2018_Apr_02_1544,
,,,,,,,,,,,,,,,,,,,,,5+4= ?,,,,,,,,,,,,,,,,,,,,0,84,84,37,,,,,,,,,,,,,,,,,,,,,moral_self_bias,16,19,60.0174859447,f,001,2018_Apr_02_1544,
,,,,,,,,,,,,,,,,,,,,,4*1= ?,,,,,,,,,,,,,,,,,,,,0,85,85,85,,,,,,,,,,,,,,,,,,,,,moral_self_bias,16,19,60.0174859447,f,001,2018_Apr_02_1544,
,,,,,,,,,,,,,,,,,,,,,11-11= ?,,,,,,,,,,,,,,,,,,,,0,86,86,119,,,,,,,,,,,,,,,,,,,,,moral_self_bias,16,19,60.0174859447,f,001,2018_Apr_02_1544,
,,,,,,,,,,,,,,,,,,,,,30-29= ?,,,,,,,,,,,,,,,,,,,,0,87,87,73,,,,,,,,,,,,,,,,,,,,,moral_self_bias,16,19,60.0174859447,f,001,2018_Apr_02_1544,
,,,,,,,,,,,,,,,,,,,,,7-0= ?,,,,,,,,,,,,,,,,,,,,0,88,88,117,,,,,,,,,,,,,,,,,,,,,moral_self_bias,16,19,60.0174859447,f,001,2018_Apr_02_1544,
,,,,,,,,,,,,,,,,,,,,,5/1= ?,,,,,,,,,,,,,,,,,,,,0,89,89,59,,,,,,,,,,,,,,,,,,,,,moral_self_bias,16,19,60.0174859447,f,001,2018_Apr_02_1544,
,,,,,,,,,,,,,,,,,,,,,6+3= ?,,,,,,,,,,,,,,,,,,,,0,90,90,45,,,,,,,,,,,,,,,,,,,,,moral_self_bias,16,19,60.0174859447,f,001,2018_Apr_02_1544,
,,,,,,,,,,,,,,,,,,,,,12-7= ?,,,,,,,,,,,,,,,,,,,,0,91,91,115,,,,,,,,,,,,,,,,,,,,,moral_self_bias,16,19,60.0174859447,f,001,2018_Apr_02_1544,
,,,,,,,,,,,,,,,,,,,,,29-27= ?,,,,,,,,,,,,,,,,,,,,0,92,92,72,,,,,,,,,,,,,,,,,,,,,moral_self_bias,16,19,60.0174859447,f,001,2018_Apr_02_1544,
,,,,,,,,,,,,,,,,,,,,,2+2= ?,,,,,,,,,,,,,,,,,,,,0,93,93,8,,,,,,,,,,,,,,,,,,,,,moral_self_bias,16,19,60.0174859447,f,001,2018_Apr_02_1544,
,,,,,,,,,,,,,,,,,,,,,1+6= ?,,,,,,,,,,,,,,,,,,,,0,94,94,5,,,,,,,,,,,,,,,,,,,,,moral_self_bias,16,19,60.0174859447,f,001,2018_Apr_02_1544,
,,,,,,,,,,,,,,,,,,,,,5*0= ?,,,,,,,,,,,,,,,,,,,,0,95,95,86,,,,,,,,,,,,,,,,,,,,,moral_self_bias,16,19,60.0174859447,f,001,2018_Apr_02_1544,
,,,,,,,,,,,,,,,,,,,,,1+9= ?,,,,,,,,,,,,,,,,,,,,0,96,96,3,,,,,,,,,,,,,,,,,,,,,moral_self_bias,16,19,60.0174859447,f,001,2018_Apr_02_1544,
,,,,,,,,,,,,,,,,,,,,,1+2= ?,,,,,,,,,,,,,,,,,,,,0,97,97,1,,,,,,,,,,,,,,,,,,,,,moral_self_bias,16,19,60.0174859447,f,001,2018_Apr_02_1544,
,,,,,,,,,,,,,,,,,,,,,11-8= ?,,,,,,,,,,,,,,,,,,,,0,98,98,106,,,,,,,,,,,,,,,,,,,,,moral_self_bias,16,19,60.0174859447,f,001,2018_Apr_02_1544,
,,,,,,,,,,,,,,,,,,,,,9-6= ?,,,,,,,,,,,,,,,,,,,,0,99,99,24,,,,,,,,,,,,,,,,,,,,,moral_self_bias,16,19,60.0174859447,f,001,2018_Apr_02_1544,
,,,,,,,,,,,,,,,,,,,,,3+1= ?,,,,,,,,,,,,,,,,,,,,0,100,100,16,,,,,,,,,,,,,,,,,,,,,moral_self_bias,16,19,60.0174859447,f,001,2018_Apr_02_1544,
,,,,,,,,,,,,,,,,,,,,,12-5=？,,,,,,,,,,,,,,,,,,,,0,101,101,65,,,,,,,,,,,,,,,,,,,,,moral_self_bias,16,19,60.0174859447,f,001,2018_Apr_02_1544,
,,,,,,,,,,,,,,,,,,,,,9-2= ?,,,,,,,,,,,,,,,,,,,,0,102,102,14,,,,,,,,,,,,,,,,,,,,,moral_self_bias,16,19,60.0174859447,f,001,2018_Apr_02_1544,
,,,,,,,,,,,,,,,,,,,,,16-11=？,,,,,,,,,,,,,,,,,,,,0,103,103,62,,,,,,,,,,,,,,,,,,,,,moral_self_bias,16,19,60.0174859447,f,001,2018_Apr_02_1544,
,,,,,,,,,,,,,,,,,,,,,72/9= ?,,,,,,,,,,,,,,,,,,,,0,104,104,76,,,,,,,,,,,,,,,,,,,,,moral_self_bias,16,19,60.0174859447,f,001,2018_Apr_02_1544,
,,,,,,,,,,,,,,,,,,,,,9/3= ?,,,,,,,,,,,,,,,,,,,,0,105,105,56,,,,,,,,,,,,,,,,,,,,,moral_self_bias,16,19,60.0174859447,f,001,2018_Apr_02_1544,
,,,,,,,,,,,,,,,,,,,,,22/11= ?,,,,,,,,,,,,,,,,,,,,0,106,106,71,,,,,,,,,,,,,,,,,,,,,moral_self_bias,16,19,60.0174859447,f,001,2018_Apr_02_1544,
,,,,,,,,,,,,,,,,,,,,,13-5= ?,,,,,,,,,,,,,,,,,,,,0,107,107,98,,,,,,,,,,,,,,,,,,,,,moral_self_bias,16,19,60.0174859447,f,001,2018_Apr_02_1544,
,,,,,,,,,,,,,,,,,,,,,6^0= ?,,,,,,,,,,,,,,,,,,,,0,108,108,114,,,,,,,,,,,,,,,,,,,,,moral_self_bias,16,19,60.0174859447,f,001,2018_Apr_02_1544,
,,,,,,,,,,,,,,,,,,,,,5+1= ?,,,,,,,,,,,,,,,,,,,,0,109,109,34,,,,,,,,,,,,,,,,,,,,,moral_self_bias,16,19,60.0174859447,f,001,2018_Apr_02_1544,
,,,,,,,,,,,,,,,,,,,,,8-2= ?,,,,,,,,,,,,,,,,,,,,0,110,110,38,,,,,,,,,,,,,,,,,,,,,moral_self_bias,16,19,60.0174859447,f,001,2018_Apr_02_1544,
,,,,,,,,,,,,,,,,,,,,,2+4= ?,,,,,,,,,,,,,,,,,,,,0,111,111,10,,,,,,,,,,,,,,,,,,,,,moral_self_bias,16,19,60.0174859447,f,001,2018_Apr_02_1544,
,,,,,,,,,,,,,,,,,,,,,15-10=？,,,,,,,,,,,,,,,,,,,,0,112,112,61,,,,,,,,,,,,,,,,,,,,,moral_self_bias,16,19,60.0174859447,f,001,2018_Apr_02_1544,
,,,,,,,,,,,,,,,,,,,,,9-7= ?,,,,,,,,,,,,,,,,,,,,0,113,113,30,,,,,,,,,,,,,,,,,,,,,moral_self_bias,16,19,60.0174859447,f,001,2018_Apr_02_1544,
,,,,,,,,,,,,,,,,,,,,,12/4= ?,,,,,,,,,,,,,,,,,,,,0,114,114,89,,,,,,,,,,,,,,,,,,,,,moral_self_bias,16,19,60.0174859447,f,001,2018_Apr_02_1544,
,,,,,,,,,,,,,,,,,,,,,3+4= ?,,,,,,,,,,,,,,,,,,,,0,115,115,19,,,,,,,,,,,,,,,,,,,,,moral_self_bias,16,19,60.0174859447,f,001,2018_Apr_02_1544,
,,,,,,,,,,,,,,,,,,,,,1*9= ?,,,,,,,,,,,,,,,,,,,,0,116,116,109,,,,,,,,,,,,,,,,,,,,,moral_self_bias,16,19,60.0174859447,f,001,2018_Apr_02_1544,
,,,,,,,,,,,,,,,,,,,,,8+1= ?,,,,,,,,,,,,,,,,,,,,0,117,117,48,,,,,,,,,,,,,,,,,,,,,moral_self_bias,16,19,60.0174859447,f,001,2018_Apr_02_1544,
,,,,,,,,,,,,,,,,,,,,,4+2= ?,,,,,,,,,,,,,,,,,,,,0,118,118,26,,,,,,,,,,,,,,,,,,,,,moral_self_bias,16,19,60.0174859447,f,001,2018_Apr_02_1544,
,,,,,,,,,,,,,,,,,,,,,8-5= ?,,,,,,,,,,,,,,,,,,,,0,119,119,41,,,,,,,,,,,,,,,,,,,,,moral_self_bias,16,19,60.0174859447,f,001,2018_Apr_02_1544,
,,,,,,,,,,,,,,,,,,,,,,,,,,,,,,,,,,,,,,,,,,,,,,,,,,,,,,,,,1,8.09323000908,,,,,,,moral_self_bias,16,19,60.0174859447,f,001,2018_Apr_02_1544,
,,,,,,,,,,,,,,,,,,,,,,material/10.png,1,坚毅,material/110.png,1,material/110.png,坚毅,1,f,f,f,1,1,1,顽强,,,,,,,,,0,0,0,89,0,0,0,0,,,,,,,f,1,3.90435504913,f,1,1.99144601822,moral_self_bias,16,19,60.0174859447,f,001,2018_Apr_02_1544,
,,,,,,,,,,,,,,,,,,,,,,material/10.png,1,坚毅,material/110.png,1,material/110.png,坚毅,1,f,f,f,1,1,1,顽强,,,,,,,,,0,0,0,89,,,,,,,,,,,,,,,,,moral_self_bias,16,19,60.0174859447,f,001,2018_Apr_02_1544,
,,,,,,,,,,,,,,,,,,,,,,material/118.png,1,机敏,material/18.png,1,material/118.png,敏锐,1,j,j,j,2,2,2,机敏,,,,,,,,,0,1,1,17,,,,,,,,,,,j,1,2.80899381638,,,,moral_self_bias,16,19,60.0174859447,f,001,2018_Apr_02_1544,
,,,,,,,,,,,,,,,,,,,,,,material/146.png,2,小气,material/46.png,2,material/46.png,小气,2,j,j,j,1,1,1,自私,,,,,,,,,0,2,2,45,,,,,,,,,,,j,1,1.13995599747,,,,moral_self_bias,16,19,60.0174859447,f,001,2018_Apr_02_1544,
,,,,,,,,,,,,,,,,,,,,,,material/20.png,1,厉害,material/120.png,1,material/20.png,能干,1,f,f,f,2,2,2,厉害,,,,,,,,,0,3,3,99,0,0,0,0,,,,,,,f,1,1.40789413452,f,1,0.692271947861,moral_self_bias,16,19,60.0174859447,f,001,2018_Apr_02_1544,
,,,,,,,,,,,,,,,,,,,,,,material/20.png,1,厉害,material/120.png,1,material/20.png,能干,1,f,f,f,2,2,2,厉害,,,,,,,,,0,3,3,99,,,,,,,,,,,,,,,,,moral_self_bias,16,19,60.0174859447,f,001,2018_Apr_02_1544,
,,,,,,,,,,,,,,,,,,,,,,material/126.png,1,勤快,material/26.png,1,material/126.png,刻苦,1,j,j,j,2,2,2,勤快,,,,,,,,,0,4,4,25,,,,,,,,,,,j,1,1.55784296989,,,,moral_self_bias,16,19,60.0174859447,f,001,2018_Apr_02_1544,
,,,,,,,,,,,,,,,,,,,,,,material/151.png,2,迷糊,material/51.png,2,material/151.png,糊涂,2,j,j,j,2,2,2,迷糊,,,,,,,,,0,5,5,50,,,,,,,,,,,j,1,1.67495799065,,,,moral_self_bias,16,19,60.0174859447,f,001,2018_Apr_02_1544,
,,,,,,,,,,,,,,,,,,,,,,material/169.png,1,颖悟,material/171.png,1,material/169.png,高效,1,f,f,f,2,2,2,颖悟,,,,,,,,,0,6,6,150,0,0,0,0,,,,,,,f,1,1.39063596725,f,1,0.874919176102,moral_self_bias,16,19,60.0174859447,f,001,2018_Apr_02_1544,
,,,,,,,,,,,,,,,,,,,,,,material/169.png,1,颖悟,material/171.png,1,material/169.png,高效,1,f,f,f,2,2,2,颖悟,,,,,,,,,0,6,6,150,,,,,,,,,,,,,,,,,moral_self_bias,16,19,60.0174859447,f,001,2018_Apr_02_1544,
,,,,,,,,,,,,,,,,,,,,,,material/5.png,1,诚信,material/105.png,1,material/105.png,诚信,1,f,f,f,1,1,1,守信,,,,,,,,,0,7,7,84,0,0,0,0,,,,,,,f,1,0.905868053436,f,1,0.474352836609,moral_self_bias,16,19,60.0174859447,f,001,2018_Apr_02_1544,
,,,,,,,,,,,,,,,,,,,,,,material/5.png,1,诚信,material/105.png,1,material/105.png,诚信,1,f,f,f,1,1,1,守信,,,,,,,,,0,7,7,84,,,,,,,,,,,,,,,,,moral_self_bias,16,19,60.0174859447,f,001,2018_Apr_02_1544,
,,,,,,,,,,,,,,,,,,,,,,material/149.png,2,白痴,material/49.png,2,material/149.png,痴呆,2,j,j,j,2,2,2,白痴,,,,,,,,,0,8,8,48,,,,,,,,,,,j,1,1.00679087639,,,,moral_self_bias,16,19,60.0174859447,f,001,2018_Apr_02_1544,
,,,,,,,,,,,,,,,,,,,,,,material/137.png,2,无耻,material/37.png,2,material/37.png,无耻,2,j,j,j,1,1,1,卑鄙,,,,,,,,,0,9,9,36,,,,,,,,,,,j,1,1.00828409195,,,,moral_self_bias,16,19,60.0174859447,f,001,2018_Apr_02_1544,
,,,,,,,,,,,,,,,,,,,,,,material/32.png,2,背叛,material/132.png,2,material/132.png,背叛,2,f,f,f,1,1,1,不忠,,,,,,,,,0,10,10,111,0,0,0,0,,,,,,,f,1,1.49145483971,j,0,1.05904507637,moral_self_bias,16,19,60.0174859447,f,001,2018_Apr_02_1544,
,,,,,,,,,,,,,,,,,,,,,,material/32.png,2,背叛,material/132.png,2,material/132.png,背叛,2,f,f,f,1,1,1,不忠,,,,,,,,,0,10,10,111,,,,,,,,,,,,,,,,,moral_self_bias,16,19,60.0174859447,f,001,2018_Apr_02_1544,
,,,,,,,,,,,,,,,,,,,,,,material/143.png,2,拜金,material/43.png,2,material/43.png,拜金,2,j,j,j,1,1,1,虚荣,,,,,,,,,0,11,11,42,,,,,,,,,,,j,1,0.924401044846,,,,moral_self_bias,16,19,60.0174859447,f,001,2018_Apr_02_1544,
,,,,,,,,,,,,,,,,,,,,,,material/154.png,2,依靠,material/54.png,2,material/154.png,依赖,2,j,j,j,2,2,2,依靠,,,,,,,,,0,12,12,53,0,0,0,0,,,,,,,f,0,1.00807905197,f,1,0.409011125565,moral_self_bias,16,19,60.0174859447,f,001,2018_Apr_02_1544,
,,,,,,,,,,,,,,,,,,,,,,material/154.png,2,依靠,material/54.png,2,material/154.png,依赖,2,j,j,j,2,2,2,依靠,,,,,,,,,0,12,12,53,,,,,,,,,,,,,,,,,moral_self_bias,16,19,60.0174859447,f,001,2018_Apr_02_1544,
,,,,,,,,,,,,,,,,,,,,,,material/58.png,2,肤浅,material/158.png,2,material/58.png,浅薄,2,f,f,f,2,2,2,肤浅,,,,,,,,,0,13,13,137,,,,,,,,,,,j,0,1.24166893959,,,,moral_self_bias,16,19,60.0174859447,f,001,2018_Apr_02_1544,
,,,,,,,,,,,,,,,,,,,,,,material/121.png,1,精干,material/21.png,1,material/121.png,干练,1,j,j,j,2,2,2,精干,,,,,,,,,0,14,14,20,,,,,,,,,,,j,1,0.908699989319,,,,moral_self_bias,16,19,60.0174859447,f,001,2018_Apr_02_1544,
,,,,,,,,,,,,,,,,,,,,,,material/26.png,1,刻苦,material/126.png,1,material/26.png,勤快,1,f,f,f,2,2,2,刻苦,,,,,,,,,0,15,15,105,,,,,,,,,,,j,0,3.74247813225,,,,moral_self_bias,16,19,60.0174859447,f,001,2018_Apr_02_1544,
,,,,,,,,,,,,,,,,,,,,,,material/83.png,2,差生,material/78.png,2,material/179.png,草率,2,j,j,j,2,2,2,呆笨,,,,,,,,,0,16,16,74,,,,,,,,,,,j,1,0.674196958542,,,,moral_self_bias,16,19,60.0174859447,f,001,2018_Apr_02_1544,
,,,,,,,,,,,,,,,,,,,,,,material/175.png,2,残虐,material/73.png,2,material/73.png,残虐,2,f,f,f,1,1,1,无情,,,,,,,,,0,17,17,165,0,0,0,0,,,,,,,f,1,0.841319084167,f,1,0.440524101257,moral_self_bias,16,19,60.0174859447,f,001,2018_Apr_02_1544,
,,,,,,,,,,,,,,,,,,,,,,material/175.png,2,残虐,material/73.png,2,material/73.png,残虐,2,f,f,f,1,1,1,无情,,,,,,,,,0,17,17,165,,,,,,,,,,,,,,,,,moral_self_bias,16,19,60.0174859447,f,001,2018_Apr_02_1544,
,,,,,,,,,,,,,,,,,,,,,,material/43.png,2,虚荣,material/143.png,2,material/143.png,虚荣,2,f,f,f,1,1,1,拜金,,,,,,,,,0,18,18,122,0,0,0,0,,,,,,,f,1,0.791165828705,f,1,1.02462792397,moral_self_bias,16,19,60.0174859447,f,001,2018_Apr_02_1544,
,,,,,,,,,,,,,,,,,,,,,,material/43.png,2,虚荣,material/143.png,2,material/143.png,虚荣,2,f,f,f,1,1,1,拜金,,,,,,,,,0,18,18,122,,,,,,,,,,,,,,,,,moral_self_bias,16,19,60.0174859447,f,001,2018_Apr_02_1544,
,,,,,,,,,,,,,,,,,,,,,,material/62.png,1,坚韧,material/162.png,1,material/62.png,敬业,1,f,f,f,1,1,1,坚韧,,,,,,,,,0,19,19,141,,,,,,,,,,,j,0,1.44229602814,,,,moral_self_bias,16,19,60.0174859447,f,001,2018_Apr_02_1544,
,,,,,,,,,,,,,,,,,,,,,,material/37.png,2,卑鄙,material/137.png,2,material/137.png,卑鄙,2,f,f,f,1,1,1,无耻,,,,,,,,,0,20,20,116,,,,,,,,,,,j,0,0.824514865875,,,,moral_self_bias,16,19,60.0174859447,f,001,2018_Apr_02_1544,
,,,,,,,,,,,,,,,,,,,,,,material/81.png,2,呆笨,material/179.png,2,material/83.png,差生,2,f,f,f,2,2,2,无助,,,,,,,,,0,21,21,158,0,0,0,0,,,,,,,f,1,1.24124097824,j,0,0.491435050964,moral_self_bias,16,19,60.0174859447,f,001,2018_Apr_02_1544,
,,,,,,,,,,,,,,,,,,,,,,material/81.png,2,呆笨,material/179.png,2,material/83.png,差生,2,f,f,f,2,2,2,无助,,,,,,,,,0,21,21,158,,,,,,,,,,,,,,,,,moral_self_bias,16,19,60.0174859447,f,001,2018_Apr_02_1544,
,,,,,,,,,,,,,,,,,,,,,,material/101.png,1,善良,material/1.png,1,material/1.png,善良,1,j,j,j,1,1,1,博爱,,,,,,,,,0,22,22,0,,,,,,,,,,,j,1,2.12452602386,,,,moral_self_bias,16,19,60.0174859447,f,001,2018_Apr_02_1544,
,,,,,,,,,,,,,,,,,,,,,,material/134.png,2,可恨,material/34.png,2,material/34.png,可恨,2,j,j,j,1,1,1,可恶,,,,,,,,,0,23,23,33,,,,,,,,,,,j,1,0.733773946762,,,,moral_self_bias,16,19,60.0174859447,f,001,2018_Apr_02_1544,
,,,,,,,,,,,,,,,,,,,,,,material/142.png,2,阴险,material/42.png,2,material/42.png,阴险,2,j,j,j,1,1,1,奸诈,,,,,,,,,0,24,24,41,,,,,,,,,,,j,1,0.725009202957,,,,moral_self_bias,16,19,60.0174859447,f,001,2018_Apr_02_1544,
,,,,,,,,,,,,,,,,,,,,,,material/46.png,2,自私,material/146.png,2,material/146.png,自私,2,f,f,f,1,1,1,小气,,,,,,,,,0,25,25,125,,,,,,,,,,,j,0,2.34138512611,,,,moral_self_bias,16,19,60.0174859447,f,001,2018_Apr_02_1544,
,,,,,,,,,,,,,,,,,,,,,,material/55.png,2,盲从,material/155.png,2,material/55.png,盲目,2,f,f,f,2,2,2,盲从,,,,,,,,,0,26,26,134,,,,,,,,,,,j,0,0.706964969635,,,,moral_self_bias,16,19,60.0174859447,f,001,2018_Apr_02_1544,
,,,,,,,,,,,,,,,,,,,,,,material/138.png,2,无德,material/38.png,2,material/38.png,无德,2,j,j,j,1,1,1,缺德,,,,,,,,,0,27,27,37,0,0,0,0,,,,,,,f,0,2.15852618217,j,0,0.575508117676,moral_self_bias,16,19,60.0174859447,f,001,2018_Apr_02_1544,
,,,,,,,,,,,,,,,,,,,,,,material/138.png,2,无德,material/38.png,2,material/38.png,无德,2,j,j,j,1,1,1,缺德,,,,,,,,,0,27,27,37,,,,,,,,,,,,,,,,,moral_self_bias,16,19,60.0174859447,f,001,2018_Apr_02_1544,
,,,,,,,,,,,,,,,,,,,,,,material/171.png,1,高效,material/67.png,1,material/171.png,骁勇,1,j,j,j,2,2,2,高效,,,,,,,,,0,28,28,65,,,,,,,,,,,j,1,1.05840492249,,,,moral_self_bias,16,19,60.0174859447,f,001,2018_Apr_02_1544,
,,,,,,,,,,,,,,,,,,,,,,material/130.png,1,进取,material/30.png,1,material/130.png,上进,1,j,j,j,2,2,2,进取,,,,,,,,,0,29,29,29,0,0,0,0,,,,,,,f,0,1.05825304985,f,1,0.474768161774,moral_self_bias,16,19,60.0174859447,f,001,2018_Apr_02_1544,
,,,,,,,,,,,,,,,,,,,,,,material/130.png,1,进取,material/30.png,1,material/130.png,上进,1,j,j,j,2,2,2,进取,,,,,,,,,0,29,29,29,,,,,,,,,,,,,,,,,moral_self_bias,16,19,60.0174859447,f,001,2018_Apr_02_1544,
,,,,,,,,,,,,,,,,,,,,,,material/131.png,1,笃行,material/31.png,1,material/131.png,笃学,1,j,j,j,2,2,2,笃行,,,,,,,,,0,30,30,30,,,,,,,,,,,j,1,0.808109045029,,,,moral_self_bias,16,19,60.0174859447,f,001,2018_Apr_02_1544,
,,,,,,,,,,,,,,,,,,,,,,material/49.png,2,痴呆,material/149.png,2,material/49.png,白痴,2,f,f,f,2,2,2,痴呆,,,,,,,,,0,31,31,128,,,,,,,,,,,j,0,1.35694408417,,,,moral_self_bias,16,19,60.0174859447,f,001,2018_Apr_02_1544,
,,,,,,,,,,,,,,,,,,,,,,material/170.png,1,坚忍,material/71.png,1,material/170.png,严谨,1,j,j,j,2,2,2,坚忍,,,,,,,,,0,32,32,68,,,,,,,,,,,j,1,0.957637786865,,,,moral_self_bias,16,19,60.0174859447,f,001,2018_Apr_02_1544,
,,,,,,,,,,,,,,,,,,,,,,material/164.png,1,宽容,material/63.png,1,material/163.png,文明,1,j,j,j,1,1,1,孝顺,,,,,,,,,0,33,33,62,,,,,,,,,,,j,1,0.674618005753,,,,moral_self_bias,16,19,60.0174859447,f,001,2018_Apr_02_1544,
,,,,,,,,,,,,,,,,,,,,,,material/183.png,2,颓废,material/182.png,2,material/79.png,才尽,2,f,f,f,2,2,2,薄弱,,,,,,,,,0,34,34,161,0,0,0,0,,,,,,,f,1,0.859091043472,f,1,0.609026908875,moral_self_bias,16,19,60.0174859447,f,001,2018_Apr_02_1544,
,,,,,,,,,,,,,,,,,,,,,,material/183.png,2,颓废,material/182.png,2,material/79.png,才尽,2,f,f,f,2,2,2,薄弱,,,,,,,,,0,34,34,161,,,,,,,,,,,,,,,,,moral_self_bias,16,19,60.0174859447,f,001,2018_Apr_02_1544,
,,,,,,,,,,,,,,,,,,,,,,material/72.png,2,软弱,material/77.png,2,material/77.png,软弱,2,j,j,j,1,1,1,谄媚,,,,,,,,,0,35,35,73,,,,,,,,,,,j,1,0.958227872849,,,,moral_self_bias,16,19,60.0174859447,f,001,2018_Apr_02_1544,
,,,,,,,,,,,,,,,,,,,,,,material/69.png,1,高明,material/69.png,1,material/69.png,高明,1,f,f,f,2,2,2,高明,,,,,,,,,0,36,36,166,,,,,,,,,,,j,0,1.04042196274,,,,moral_self_bias,16,19,60.0174859447,f,001,2018_Apr_02_1544,
,,,,,,,,,,,,,,,,,,,,,,material/178.png,2,窝囊,material/82.png,2,material/82.png,窝囊,2,j,j,j,2,2,2,毛糙,,,,,,,,,0,37,37,78,,,,,,,,,,,j,1,1.1244571209,,,,moral_self_bias,16,19,60.0174859447,f,001,2018_Apr_02_1544,
,,,,,,,,,,,,,,,,,,,,,,material/179.png,2,顽愚,material/178.png,2,material/84.png,毛糙,2,f,f,f,2,2,2,差生,,,,,,,,,0,38,38,157,0,0,0,0,,,,,,,f,1,1.03385591507,j,0,0.525061845779,moral_self_bias,16,19,60.0174859447,f,001,2018_Apr_02_1544,
,,,,,,,,,,,,,,,,,,,,,,material/179.png,2,顽愚,material/178.png,2,material/84.png,毛糙,2,f,f,f,2,2,2,差生,,,,,,,,,0,38,38,157,,,,,,,,,,,,,,,,,moral_self_bias,16,19,60.0174859447,f,001,2018_Apr_02_1544,
,,,,,,,,,,,,,,,,,,,,,,material/128.png,1,自律,material/28.png,1,material/128.png,克己,1,j,j,j,2,2,2,自律,,,,,,,,,0,39,39,27,,,,,,,,,,,j,1,1.12577295303,,,,moral_self_bias,16,19,60.0174859447,f,001,2018_Apr_02_1544,
,,,,,,,,,,,,,,,,,,,,,,material/147.png,2,刻板,material/47.png,2,material/147.png,死板,2,j,j,j,2,2,2,刻板,,,,,,,,,0,40,40,46,0,0,0,0,,,,,,,f,0,1.40725803375,j,0,0.891777992249,moral_self_bias,16,19,60.0174859447,f,001,2018_Apr_02_1544,
,,,,,,,,,,,,,,,,,,,,,,material/147.png,2,刻板,material/47.png,2,material/147.png,死板,2,j,j,j,2,2,2,刻板,,,,,,,,,0,40,40,46,,,,,,,,,,,,,,,,,moral_self_bias,16,19,60.0174859447,f,001,2018_Apr_02_1544,
,,,,,,,,,,,,,,,,,,,,,,material/24.png,1,理智,material/124.png,1,material/24.png,冷静,1,f,f,f,2,2,2,理智,,,,,,,,,0,41,41,103,,,,,,,,,,,j,0,0.925498008728,,,,moral_self_bias,16,19,60.0174859447,f,001,2018_Apr_02_1544,
,,,,,,,,,,,,,,,,,,,,,,material/167.png,1,高手,material/169.png,1,material/167.png,颖悟,1,f,f,f,2,2,2,高手,,,,,,,,,0,42,42,148,,,,,,,,,,,j,0,1.05755877495,,,,moral_self_bias,16,19,60.0174859447,f,001,2018_Apr_02_1544,
,,,,,,,,,,,,,,,,,,,,,,material/50.png,2,愚笨,material/150.png,2,material/50.png,鲁钝,2,f,f,f,2,2,2,愚笨,,,,,,,,,0,43,43,129,,,,,,,,,,,j,0,1.77520799637,,,,moral_self_bias,16,19,60.0174859447,f,001,2018_Apr_02_1544,
,,,,,,,,,,,,,,,,,,,,,,material/74.png,2,黑心,material/173.png,2,material/173.png,黑心,2,f,f,f,1,1,1,卑劣,,,,,,,,,0,44,44,152,0,0,0,0,,,,,,,f,1,0.991667985916,f,1,0.592781066895,moral_self_bias,16,19,60.0174859447,f,001,2018_Apr_02_1544,
,,,,,,,,,,,,,,,,,,,,,,material/74.png,2,黑心,material/173.png,2,material/173.png,黑心,2,f,f,f,1,1,1,卑劣,,,,,,,,,0,44,44,152,,,,,,,,,,,,,,,,,moral_self_bias,16,19,60.0174859447,f,001,2018_Apr_02_1544,
,,,,,,,,,,,,,,,,,,,,,,material/54.png,2,依赖,material/154.png,2,material/54.png,依靠,2,f,f,f,2,2,2,依赖,,,,,,,,,0,45,45,133,0,0,0,0,,,,,,,f,1,1.12502098083,f,1,0.441802024841,moral_self_bias,16,19,60.0174859447,f,001,2018_Apr_02_1544,
,,,,,,,,,,,,,,,,,,,,,,material/54.png,2,依赖,material/154.png,2,material/54.png,依靠,2,f,f,f,2,2,2,依赖,,,,,,,,,0,45,45,133,,,,,,,,,,,,,,,,,moral_self_bias,16,19,60.0174859447,f,001,2018_Apr_02_1544,
,,,,,,,,,,,,,,,,,,,,,,material/103.png,1,仁慈,material/3.png,1,material/3.png,仁慈,1,j,j,j,1,1,1,仁厚,,,,,,,,,0,46,46,2,0,0,0,0,,,,,,,f,0,1.75802707672,f,1,0.307927131653,moral_self_bias,16,19,60.0174859447,f,001,2018_Apr_02_1544,
,,,,,,,,,,,,,,,,,,,,,,material/103.png,1,仁慈,material/3.png,1,material/3.png,仁慈,1,j,j,j,1,1,1,仁厚,,,,,,,,,0,46,46,2,,,,,,,,,,,,,,,,,moral_self_bias,16,19,60.0174859447,f,001,2018_Apr_02_1544,
,,,,,,,,,,,,,,,,,,,,,,material/29.png,1,好学,material/129.png,1,material/29.png,好问,1,f,f,f,2,2,2,好学,,,,,,,,,0,47,47,108,0,0,0,0,,,,,,,f,1,1.00841712952,f,1,0.175430059433,moral_self_bias,16,19,60.0174859447,f,001,2018_Apr_02_1544,
,,,,,,,,,,,,,,,,,,,,,,material/29.png,1,好学,material/129.png,1,material/29.png,好问,1,f,f,f,2,2,2,好学,,,,,,,,,0,47,47,108,,,,,,,,,,,,,,,,,moral_self_bias,16,19,60.0174859447,f,001,2018_Apr_02_1544,
,,,,,,,,,,,,,,,,,,,,,,material/166.png,1,孝顺,material/64.png,1,material/164.png,奉献,1,j,j,j,1,1,1,仗义,,,,,,,,,0,48,48,63,,,,,,,,,,,j,1,1.57452297211,,,,moral_self_bias,16,19,60.0174859447,f,001,2018_Apr_02_1544,
,,,,,,,,,,,,,,,,,,,,,,material/14.png,1,忠贞,material/114.png,1,material/114.png,忠贞,1,f,f,f,1,1,1,爱国,,,,,,,,,0,49,49,93,0,0,0,0,,,,,,,f,1,1.02526211739,j,0,0.176167964935,moral_self_bias,16,19,60.0174859447,f,001,2018_Apr_02_1544,
,,,,,,,,,,,,,,,,,,,,,,material/14.png,1,忠贞,material/114.png,1,material/114.png,忠贞,1,f,f,f,1,1,1,爱国,,,,,,,,,0,49,49,93,,,,,,,,,,,,,,,,,moral_self_bias,16,19,60.0174859447,f,001,2018_Apr_02_1544,
,,,,,,,,,,,,,,,,,,,,,,material/47.png,2,死板,material/147.png,2,material/47.png,刻板,2,f,f,f,2,2,2,死板,,,,,,,,,0,50,50,126,0,0,0,0,,,,,,,f,1,2.17487502098,j,0,0.509177923203,moral_self_bias,16,19,60.0174859447,f,001,2018_Apr_02_1544,
,,,,,,,,,,,,,,,,,,,,,,material/47.png,2,死板,material/147.png,2,material/47.png,刻板,2,f,f,f,2,2,2,死板,,,,,,,,,0,50,50,126,,,,,,,,,,,,,,,,,moral_self_bias,16,19,60.0174859447,f,001,2018_Apr_02_1544,
,,,,,,,,,,,,,,,,,,,,,,material/7.png,1,公平,material/107.png,1,material/107.png,公平,1,f,f,f,1,1,1,公正,,,,,,,,,0,51,51,86,0,0,0,0,,,,,,,f,1,2.91603589058,j,0,0.257746934891,moral_self_bias,16,19,60.0174859447,f,001,2018_Apr_02_1544,
,,,,,,,,,,,,,,,,,,,,,,material/7.png,1,公平,material/107.png,1,material/107.png,公平,1,f,f,f,1,1,1,公正,,,,,,,,,0,51,51,86,,,,,,,,,,,,,,,,,moral_self_bias,16,19,60.0174859447,f,001,2018_Apr_02_1544,
,,,,,,,,,,,,,,,,,,,,,,material/17.png,1,聪明,material/117.png,1,material/17.png,聪颖,1,f,f,f,2,2,2,聪明,,,,,,,,,0,52,52,96,0,0,0,0,,,,,,,f,1,1.12371993065,f,1,0.774283885956,moral_self_bias,16,19,60.0174859447,f,001,2018_Apr_02_1544,
,,,,,,,,,,,,,,,,,,,,,,material/17.png,1,聪明,material/117.png,1,material/17.png,聪颖,1,f,f,f,2,2,2,聪明,,,,,,,,,0,52,52,96,,,,,,,,,,,,,,,,,moral_self_bias,16,19,60.0174859447,f,001,2018_Apr_02_1544,
,,,,,,,,,,,,,,,,,,,,,,material/120.png,1,能干,material/20.png,1,material/120.png,厉害,1,j,j,j,2,2,2,能干,,,,,,,,,0,53,53,19,,,,,,,,,,,j,1,1.02461504936,,,,moral_self_bias,16,19,60.0174859447,f,001,2018_Apr_02_1544,
,,,,,,,,,,,,,,,,,,,,,,material/61.png,1,仗义,material/65.png,1,material/166.png,谦虚,1,j,j,j,1,1,1,平等,,,,,,,,,0,54,54,64,,,,,,,,,,,j,1,1.11695814133,,,,moral_self_bias,16,19,60.0174859447,f,001,2018_Apr_02_1544,
,,,,,,,,,,,,,,,,,,,,,,material/181.png,2,怠惰,material/180.png,2,material/180.png,怠惰,2,f,f,f,2,2,2,犹豫,,,,,,,,,0,55,55,159,0,0,0,0,,,,,,,f,1,0.907773971558,j,0,1.40775990486,moral_self_bias,16,19,60.0174859447,f,001,2018_Apr_02_1544,
,,,,,,,,,,,,,,,,,,,,,,material/181.png,2,怠惰,material/180.png,2,material/180.png,怠惰,2,f,f,f,2,2,2,犹豫,,,,,,,,,0,55,55,159,,,,,,,,,,,,,,,,,moral_self_bias,16,19,60.0174859447,f,001,2018_Apr_02_1544,
,,,,,,,,,,,,,,,,,,,,,,material/144.png,2,失信,material/44.png,2,material/44.png,失信,2,j,j,j,1,1,1,爽约,,,,,,,,,0,56,56,43,,,,,,,,,,,j,1,1.52542591095,,,,moral_self_bias,16,19,60.0174859447,f,001,2018_Apr_02_1544,
,,,,,,,,,,,,,,,,,,,,,,material/16.png,1,睿智,material/116.png,1,material/16.png,机智,1,f,f,f,2,2,2,睿智,,,,,,,,,0,57,57,95,0,0,0,0,,,,,,,f,1,1.0745871067,j,0,0.307778120041,moral_self_bias,16,19,60.0174859447,f,001,2018_Apr_02_1544,
,,,,,,,,,,,,,,,,,,,,,,material/16.png,1,睿智,material/116.png,1,material/16.png,机智,1,f,f,f,2,2,2,睿智,,,,,,,,,0,57,57,95,,,,,,,,,,,,,,,,,moral_self_bias,16,19,60.0174859447,f,001,2018_Apr_02_1544,
,,,,,,,,,,,,,,,,,,,,,,material/173.png,2,不义,material/174.png,2,material/174.png,不义,2,f,f,f,1,1,1,黑心,,,,,,,,,0,58,58,153,,,,,,,,,,,j,0,1.39137291908,,,,moral_self_bias,16,19,60.0174859447,f,001,2018_Apr_02_1544,
,,,,,,,,,,,,,,,,,,,,,,material/129.png,1,好问,material/29.png,1,material/129.png,好学,1,j,j,j,2,2,2,好问,,,,,,,,,0,59,59,28,,,,,,,,,,,j,1,1.59085488319,,,,moral_self_bias,16,19,60.0174859447,f,001,2018_Apr_02_1544,
,,,,,,,,,,,,,,,,,,,,,,material/139.png,2,凶残,material/39.png,2,material/39.png,凶残,2,j,j,j,1,1,1,恶毒,,,,,,,,,0,60,60,38,,,,,,,,,,,j,1,1.05832600594,,,,moral_self_bias,16,19,60.0174859447,f,001,2018_Apr_02_1544,
,,,,,,,,,,,,,,,,,,,,,,material/180.png,2,无助,material/79.png,2,material/81.png,颓废,2,j,j,j,2,2,2,怠惰,,,,,,,,,0,61,61,75,,,,,,,,,,,j,1,1.19221901894,,,,moral_self_bias,16,19,60.0174859447,f,001,2018_Apr_02_1544,
,,,,,,,,,,,,,,,,,,,,,,material/78.png,2,厌学,material/181.png,2,material/184.png,犹豫,2,f,f,f,2,2,2,草率,,,,,,,,,0,62,62,160,,,,,,,,,,,j,0,1.09157681465,,,,moral_self_bias,16,19,60.0174859447,f,001,2018_Apr_02_1544,
,,,,,,,,,,,,,,,,,,,,,,material/56.png,2,愚昧,material/156.png,2,material/56.png,愚钝,2,f,f,f,2,2,2,愚昧,,,,,,,,,0,63,63,135,,,,,,,,,,,j,0,1.27555799484,,,,moral_self_bias,16,19,60.0174859447,f,001,2018_Apr_02_1544,
,,,,,,,,,,,,,,,,,,,,,,material/38.png,2,缺德,material/138.png,2,material/138.png,缺德,2,f,f,f,1,1,1,无德,,,,,,,,,0,64,64,117,0,0,0,0,,,,,,,f,1,1.34177589417,j,0,0.275439023972,moral_self_bias,16,19,60.0174859447,f,001,2018_Apr_02_1544,
,,,,,,,,,,,,,,,,,,,,,,material/38.png,2,缺德,material/138.png,2,material/138.png,缺德,2,f,f,f,1,1,1,无德,,,,,,,,,0,64,64,117,,,,,,,,,,,,,,,,,moral_self_bias,16,19,60.0174859447,f,001,2018_Apr_02_1544,
,,,,,,,,,,,,,,,,,,,,,,material/162.png,1,敬业,material/62.png,1,material/162.png,坚韧,1,j,j,j,1,1,1,敬业,,,,,,,,,0,65,65,61,,,,,,,,,,,j,1,2.14189195633,,,,moral_self_bias,16,19,60.0174859447,f,001,2018_Apr_02_1544,
,,,,,,,,,,,,,,,,,,,,,,material/66.png,1,独立,material/66.png,1,material/165.png,正义,1,f,f,f,1,1,1,正义,,,,,,,,,0,66,66,164,0,0,0,0,,,,,,,f,1,0.923691987991,j,0,0.225136995316,moral_self_bias,16,19,60.0174859447,f,001,2018_Apr_02_1544,
,,,,,,,,,,,,,,,,,,,,,,material/66.png,1,独立,material/66.png,1,material/165.png,正义,1,f,f,f,1,1,1,正义,,,,,,,,,0,66,66,164,,,,,,,,,,,,,,,,,moral_self_bias,16,19,60.0174859447,f,001,2018_Apr_02_1544,
,,,,,,,,,,,,,,,,,,,,,,material/110.png,1,顽强,material/10.png,1,material/10.png,顽强,1,j,j,j,1,1,1,坚毅,,,,,,,,,0,67,67,9,0,0,0,0,,,,,,,f,0,1.39162898064,f,1,0.241438865662,moral_self_bias,16,19,60.0174859447,f,001,2018_Apr_02_1544,
,,,,,,,,,,,,,,,,,,,,,,material/110.png,1,顽强,material/10.png,1,material/10.png,顽强,1,j,j,j,1,1,1,坚毅,,,,,,,,,0,67,67,9,,,,,,,,,,,,,,,,,moral_self_bias,16,19,60.0174859447,f,001,2018_Apr_02_1544,
,,,,,,,,,,,,,,,,,,,,,,material/104.png,1,友爱,material/4.png,1,material/4.png,友爱,1,j,j,j,1,1,1,友善,,,,,,,,,0,68,68,3,,,,,,,,,,,j,1,1.30027294159,,,,moral_self_bias,16,19,60.0174859447,f,001,2018_Apr_02_1544,
,,,,,,,,,,,,,,,,,,,,,,material/48.png,2,愚蠢,material/148.png,2,material/48.png,笨蛋,2,f,f,f,2,2,2,愚蠢,,,,,,,,,0,69,69,127,,,,,,,,,,,j,0,0.907565832138,,,,moral_self_bias,16,19,60.0174859447,f,001,2018_Apr_02_1544,
,,,,,,,,,,,,,,,,,,,,,,material/127.png,1,超群,material/27.png,1,material/127.png,卓越,1,j,j,j,2,2,2,超群,,,,,,,,,0,70,70,26,,,,,,,,,,,j,1,0.758050918579,,,,moral_self_bias,16,19,60.0174859447,f,001,2018_Apr_02_1544,
,,,,,,,,,,,,,,,,,,,,,,material/57.png,2,无知,material/157.png,2,material/57.png,无能,2,f,f,f,2,2,2,无知,,,,,,,,,0,71,71,136,0,0,0,0,,,,,,,f,1,0.909845113754,j,0,0.574581861496,moral_self_bias,16,19,60.0174859447,f,001,2018_Apr_02_1544,
,,,,,,,,,,,,,,,,,,,,,,material/57.png,2,无知,material/157.png,2,material/57.png,无能,2,f,f,f,2,2,2,无知,,,,,,,,,0,71,71,136,,,,,,,,,,,,,,,,,moral_self_bias,16,19,60.0174859447,f,001,2018_Apr_02_1544,
,,,,,,,,,,,,,,,,,,,,,,material/35.png,2,冷血,material/135.png,2,material/135.png,冷血,2,f,f,f,1,1,1,冷漠,,,,,,,,,0,72,72,114,,,,,,,,,,,j,0,0.999490976334,,,,moral_self_bias,16,19,60.0174859447,f,001,2018_Apr_02_1544,
,,,,,,,,,,,,,,,,,,,,,,material/108.png,1,公道,material/8.png,1,material/8.png,公道,1,j,j,j,1,1,1,无私,,,,,,,,,0,73,73,7,,,,,,,,,,,j,1,1.87034988403,,,,moral_self_bias,16,19,60.0174859447,f,001,2018_Apr_02_1544,
,,,,,,,,,,,,,,,,,,,,,,material/82.png,2,毛糙,material/183.png,2,material/178.png,薄弱,2,f,f,f,2,2,2,窝囊,,,,,,,,,0,74,74,162,,,,,,,,,,,j,0,1.28882002831,,,,moral_self_bias,16,19,60.0174859447,f,001,2018_Apr_02_1544,
,,,,,,,,,,,,,,,,,,,,,,material/115.png,1,清白,material/15.png,1,material/15.png,清白,1,j,j,j,1,1,1,纯洁,,,,,,,,,0,75,75,14,,,,,,,,,,,j,1,1.03304219246,,,,moral_self_bias,16,19,60.0174859447,f,001,2018_Apr_02_1544,
,,,,,,,,,,,,,,,,,,,,,,material/136.png,2,说谎,material/36.png,2,material/36.png,说谎,2,j,j,j,1,1,1,撒谎,,,,,,,,,0,76,76,35,0,0,0,0,,,,,,,f,0,0.791146039963,f,1,0.191961050034,moral_self_bias,16,19,60.0174859447,f,001,2018_Apr_02_1544,
,,,,,,,,,,,,,,,,,,,,,,material/136.png,2,说谎,material/36.png,2,material/36.png,说谎,2,j,j,j,1,1,1,撒谎,,,,,,,,,0,76,76,35,,,,,,,,,,,,,,,,,moral_self_bias,16,19,60.0174859447,f,001,2018_Apr_02_1544,
,,,,,,,,,,,,,,,,,,,,,,material/172.png,2,无情,material/175.png,2,material/175.png,无情,2,f,f,f,1,1,1,浮夸,,,,,,,,,0,77,77,154,,,,,,,,,,,j,0,0.890597105026,,,,moral_self_bias,16,19,60.0174859447,f,001,2018_Apr_02_1544,
,,,,,,,,,,,,,,,,,,,,,,material/33.png,2,贪污,material/133.png,2,material/133.png,贪污,2,f,f,f,1,1,1,腐败,,,,,,,,,0,78,78,112,,,,,,,,,,,j,0,0.758206129074,,,,moral_self_bias,16,19,60.0174859447,f,001,2018_Apr_02_1544,
,,,,,,,,,,,,,,,,,,,,,,material/79.png,2,薄弱,material/81.png,2,material/183.png,无助,2,j,j,j,2,2,2,颓废,,,,,,,,,0,79,79,77,,,,,,,,,,,j,1,0.70840883255,,,,moral_self_bias,16,19,60.0174859447,f,001,2018_Apr_02_1544,
,,,,,,,,,,,,,,,,,,,,,,material/165.png,1,平等,material/161.png,1,material/61.png,勇敢,1,f,f,f,1,1,1,独立,,,,,,,,,0,80,80,140,0,0,0,0,,,,,,,f,1,1.45796298981,j,0,0.109565019608,moral_self_bias,16,19,60.0174859447,f,001,2018_Apr_02_1544,
,,,,,,,,,,,,,,,,,,,,,,material/165.png,1,平等,material/161.png,1,material/61.png,勇敢,1,f,f,f,1,1,1,独立,,,,,,,,,0,80,80,140,,,,,,,,,,,,,,,,,moral_self_bias,16,19,60.0174859447,f,001,2018_Apr_02_1544,
,,,,,,,,,,,,,,,,,,,,,,material/177.png,2,谄媚,material/72.png,2,material/72.png,谄媚,2,j,j,j,1,1,1,恶心,,,,,,,,,0,81,81,69,,,,,,,,,,,j,1,0.623700141907,,,,moral_self_bias,16,19,60.0174859447,f,001,2018_Apr_02_1544,
,,,,,,,,,,,,,,,,,,,,,,material/9.png,1,正直,material/109.png,1,material/109.png,正直,1,f,f,f,1,1,1,秉直,,,,,,,,,0,82,82,88,,,,,,,,,,,j,0,0.857949018478,,,,moral_self_bias,16,19,60.0174859447,f,001,2018_Apr_02_1544,
,,,,,,,,,,,,,,,,,,,,,,material/30.png,1,上进,material/130.png,1,material/30.png,进取,1,f,f,f,2,2,2,上进,,,,,,,,,0,83,83,109,0,0,0,0,,,,,,,f,1,0.891220092773,f,1,0.325253009796,moral_self_bias,16,19,60.0174859447,f,001,2018_Apr_02_1544,
,,,,,,,,,,,,,,,,,,,,,,material/30.png,1,上进,material/130.png,1,material/30.png,进取,1,f,f,f,2,2,2,上进,,,,,,,,,0,83,83,109,,,,,,,,,,,,,,,,,moral_self_bias,16,19,60.0174859447,f,001,2018_Apr_02_1544,
,,,,,,,,,,,,,,,,,,,,,,material/77.png,2,浮夸,material/172.png,2,material/172.png,浮夸,2,f,f,f,1,1,1,软弱,,,,,,,,,0,84,84,151,0,0,0,0,,,,,,,f,1,1.09182810783,j,0,0.624442815781,moral_self_bias,16,19,60.0174859447,f,001,2018_Apr_02_1544,
,,,,,,,,,,,,,,,,,,,,,,material/77.png,2,浮夸,material/172.png,2,material/172.png,浮夸,2,f,f,f,1,1,1,软弱,,,,,,,,,0,84,84,151,,,,,,,,,,,,,,,,,moral_self_bias,16,19,60.0174859447,f,001,2018_Apr_02_1544,
,,,,,,,,,,,,,,,,,,,,,,material/64.png,1,谦虚,material/165.png,1,material/65.png,独立,1,f,f,f,1,1,1,奉献,,,,,,,,,0,85,85,144,0,0,0,0,,,,,,,f,1,1.00813698769,f,1,0.208466053009,moral_self_bias,16,19,60.0174859447,f,001,2018_Apr_02_1544,
,,,,,,,,,,,,,,,,,,,,,,material/64.png,1,谦虚,material/165.png,1,material/65.png,独立,1,f,f,f,1,1,1,奉献,,,,,,,,,0,85,85,144,,,,,,,,,,,,,,,,,moral_self_bias,16,19,60.0174859447,f,001,2018_Apr_02_1544,
,,,,,,,,,,,,,,,,,,,,,,material/21.png,1,干练,material/121.png,1,material/21.png,精干,1,f,f,f,2,2,2,干练,,,,,,,,,0,86,86,100,,,,,,,,,,,j,0,0.824390172958,,,,moral_self_bias,16,19,60.0174859447,f,001,2018_Apr_02_1544,
,,,,,,,,,,,,,,,,,,,,,,material/75.png,2,卑劣,material/74.png,2,material/74.png,卑劣,2,j,j,j,1,1,1,害人,,,,,,,,,0,87,87,70,,,,,,,,,,,j,1,0.651221036911,,,,moral_self_bias,16,19,60.0174859447,f,001,2018_Apr_02_1544,
,,,,,,,,,,,,,,,,,,,,,,material/60.png,2,粗拙,material/160.png,2,material/60.png,笨拙,2,f,f,f,2,2,2,粗拙,,,,,,,,,0,88,88,139,,,,,,,,,,,j,0,0.741080999374,,,,moral_self_bias,16,19,60.0174859447,f,001,2018_Apr_02_1544,
,,,,,,,,,,,,,,,,,,,,,,material/11.png,1,高尚,material/111.png,1,material/111.png,高尚,1,f,f,f,1,1,1,高雅,,,,,,,,,0,89,89,90,,,,,,,,,,,j,0,0.840690851212,,,,moral_self_bias,16,19,60.0174859447,f,001,2018_Apr_02_1544,
,,,,,,,,,,,,,,,,,,,,,,material/105.png,1,守信,material/5.png,1,material/5.png,守信,1,j,j,j,1,1,1,诚信,,,,,,,,,0,90,90,4,,,,,,,,,,,j,1,0.784177064896,,,,moral_self_bias,16,19,60.0174859447,f,001,2018_Apr_02_1544,
,,,,,,,,,,,,,,,,,,,,,,material/140.png,2,邪恶,material/40.png,2,material/40.png,邪恶,2,j,j,j,1,1,1,狠毒,,,,,,,,,0,91,91,39,,,,,,,,,,,j,1,1.2412610054,,,,moral_self_bias,16,19,60.0174859447,f,001,2018_Apr_02_1544,
,,,,,,,,,,,,,,,,,,,,,,material/176.png,2,害人,material/75.png,2,material/75.png,害人,2,j,j,j,1,1,1,放纵,,,,,,,,,0,92,92,71,,,,,,,,,,,j,1,0.708297967911,,,,moral_self_bias,16,19,60.0174859447,f,001,2018_Apr_02_1544,
,,,,,,,,,,,,,,,,,,,,,,material/161.png,1,奉献,material/164.png,1,material/64.png,孝顺,1,f,f,f,1,1,1,勇敢,,,,,,,,,0,93,93,143,0,0,0,0,,,,,,,f,1,0.907663106918,f,1,0.224926948547,moral_self_bias,16,19,60.0174859447,f,001,2018_Apr_02_1544,
,,,,,,,,,,,,,,,,,,,,,,material/161.png,1,奉献,material/164.png,1,material/64.png,孝顺,1,f,f,f,1,1,1,勇敢,,,,,,,,,0,93,93,143,,,,,,,,,,,,,,,,,moral_self_bias,16,19,60.0174859447,f,001,2018_Apr_02_1544,
,,,,,,,,,,,,,,,,,,,,,,material/40.png,2,狠毒,material/140.png,2,material/140.png,狠毒,2,f,f,f,1,1,1,邪恶,,,,,,,,,0,94,94,119,,,,,,,,,,,j,0,1.0578019619,,,,moral_self_bias,16,19,60.0174859447,f,001,2018_Apr_02_1544,
,,,,,,,,,,,,,,,,,,,,,,material/59.png,2,智障,material/159.png,2,material/59.png,弱智,2,f,f,f,2,2,2,智障,,,,,,,,,0,95,95,138,0,0,0,0,,,,,,,f,1,1.49124097824,j,0,0.175205945969,moral_self_bias,16,19,60.0174859447,f,001,2018_Apr_02_1544,
,,,,,,,,,,,,,,,,,,,,,,material/59.png,2,智障,material/159.png,2,material/59.png,弱智,2,f,f,f,2,2,2,智障,,,,,,,,,0,95,95,138,,,,,,,,,,,,,,,,,moral_self_bias,16,19,60.0174859447,f,001,2018_Apr_02_1544,
,,,,,,,,,,,,,,,,,,,,,,material/159.png,2,弱智,material/59.png,2,material/159.png,智障,2,j,j,j,2,2,2,弱智,,,,,,,,,0,96,96,58,,,,,,,,,,,j,1,1.1172349453,,,,moral_self_bias,16,19,60.0174859447,f,001,2018_Apr_02_1544,
,,,,,,,,,,,,,,,,,,,,,,material/168.png,1,机变,material/170.png,1,material/168.png,坚忍,1,f,f,f,2,2,2,机变,,,,,,,,,0,97,97,149,,,,,,,,,,,j,0,0.772583961487,,,,moral_self_bias,16,19,60.0174859447,f,001,2018_Apr_02_1544,
,,,,,,,,,,,,,,,,,,,,,,material/34.png,2,可恶,material/134.png,2,material/134.png,可恶,2,f,f,f,1,1,1,可恨,,,,,,,,,0,98,98,113,,,,,,,,,,,j,0,0.975645065308,,,,moral_self_bias,16,19,60.0174859447,f,001,2018_Apr_02_1544,
,,,,,,,,,,,,,,,,,,,,,,material/71.png,1,严谨,material/68.png,1,material/71.png,广博,1,j,j,j,2,2,2,严谨,,,,,,,,,0,99,99,66,,,,,,,,,,,j,1,0.825371980667,,,,moral_self_bias,16,19,60.0174859447,f,001,2018_Apr_02_1544,
,,,,,,,,,,,,,,,,,,,,,,material/22.png,1,才学,material/122.png,1,material/22.png,博学,1,f,f,f,2,2,2,才学,,,,,,,,,0,100,100,101,,,,,,,,,,,j,0,0.892195940018,,,,moral_self_bias,16,19,60.0174859447,f,001,2018_Apr_02_1544,
,,,,,,,,,,,,,,,,,,,,,,material/122.png,1,博学,material/22.png,1,material/122.png,才学,1,j,j,j,2,2,2,博学,,,,,,,,,0,101,101,21,,,,,,,,,,,j,1,0.840983867645,,,,moral_self_bias,16,19,60.0174859447,f,001,2018_Apr_02_1544,
,,,,,,,,,,,,,,,,,,,,,,material/13.png,1,廉明,material/113.png,1,material/113.png,廉明,1,f,f,f,1,1,1,廉洁,,,,,,,,,0,102,102,92,,,,,,,,,,,j,0,0.709300994873,,,,moral_self_bias,16,19,60.0174859447,f,001,2018_Apr_02_1544,
,,,,,,,,,,,,,,,,,,,,,,material/3.png,1,仁厚,material/103.png,1,material/103.png,仁厚,1,f,f,f,1,1,1,仁慈,,,,,,,,,0,103,103,82,,,,,,,,,,,j,0,0.958683013916,,,,moral_self_bias,16,19,60.0174859447,f,001,2018_Apr_02_1544,
,,,,,,,,,,,,,,,,,,,,,,material/133.png,2,腐败,material/33.png,2,material/33.png,腐败,2,j,j,j,1,1,1,贪污,,,,,,,,,0,104,104,32,,,,,,,,,,,j,1,0.891707897186,,,,moral_self_bias,16,19,60.0174859447,f,001,2018_Apr_02_1544,
,,,,,,,,,,,,,,,,,,,,,,material/42.png,2,奸诈,material/142.png,2,material/142.png,奸诈,2,f,f,f,1,1,1,阴险,,,,,,,,,0,105,105,121,,,,,,,,,,,j,0,1.17520785332,,,,moral_self_bias,16,19,60.0174859447,f,001,2018_Apr_02_1544,
,,,,,,,,,,,,,,,,,,,,,,material/141.png,2,歹毒,material/41.png,2,material/41.png,歹毒,2,j,j,j,1,1,1,残忍,,,,,,,,,0,106,106,40,,,,,,,,,,,j,1,1.18366384506,,,,moral_self_bias,16,19,60.0174859447,f,001,2018_Apr_02_1544,
,,,,,,,,,,,,,,,,,,,,,,material/44.png,2,爽约,material/144.png,2,material/144.png,爽约,2,f,f,f,1,1,1,失信,,,,,,,,,0,107,107,123,,,,,,,,,,,j,0,1.16694188118,,,,moral_self_bias,16,19,60.0174859447,f,001,2018_Apr_02_1544,
,,,,,,,,,,,,,,,,,,,,,,material/68.png,1,广博,material/167.png,1,material/68.png,高手,1,f,f,f,2,2,2,广博,,,,,,,,,0,108,108,146,0,0,0,0,,,,,,,f,1,2.12512397766,j,0,0.541435956955,moral_self_bias,16,19,60.0174859447,f,001,2018_Apr_02_1544,
,,,,,,,,,,,,,,,,,,,,,,material/68.png,1,广博,material/167.png,1,material/68.png,高手,1,f,f,f,2,2,2,广博,,,,,,,,,0,108,108,146,,,,,,,,,,,,,,,,,moral_self_bias,16,19,60.0174859447,f,001,2018_Apr_02_1544,
,,,,,,,,,,,,,,,,,,,,,,material/80.png,2,才尽,material/83.png,2,material/182.png,呆笨,2,j,j,j,2,2,2,健忘,,,,,,,,,0,109,109,79,,,,,,,,,,,j,1,1.04153490067,,,,moral_self_bias,16,19,60.0174859447,f,001,2018_Apr_02_1544,
,,,,,,,,,,,,,,,,,,,,,,material/36.png,2,撒谎,material/136.png,2,material/136.png,撒谎,2,f,f,f,1,1,1,说谎,,,,,,,,,0,110,110,115,0,0,0,0,,,,,,,f,1,1.00815296173,f,1,0.608309984207,moral_self_bias,16,19,60.0174859447,f,001,2018_Apr_02_1544,
,,,,,,,,,,,,,,,,,,,,,,material/36.png,2,撒谎,material/136.png,2,material/136.png,撒谎,2,f,f,f,1,1,1,说谎,,,,,,,,,0,110,110,115,,,,,,,,,,,,,,,,,moral_self_bias,16,19,60.0174859447,f,001,2018_Apr_02_1544,
,,,,,,,,,,,,,,,,,,,,,,material/102.png,1,善心,material/2.png,1,material/2.png,善心,1,j,j,j,1,1,1,爱心,,,,,,,,,0,111,111,1,,,,,,,,,,,j,1,0.75030207634,,,,moral_self_bias,16,19,60.0174859447,f,001,2018_Apr_02_1544,
,,,,,,,,,,,,,,,,,,,,,,material/119.png,1,机灵,material/19.png,1,material/119.png,灵活,1,j,j,j,2,2,2,机灵,,,,,,,,,0,112,112,18,0,0,0,0,,,,,,,f,0,1.65851092339,f,1,0.225926876068,moral_self_bias,16,19,60.0174859447,f,001,2018_Apr_02_1544,
,,,,,,,,,,,,,,,,,,,,,,material/119.png,1,机灵,material/19.png,1,material/119.png,灵活,1,j,j,j,2,2,2,机灵,,,,,,,,,0,112,112,18,,,,,,,,,,,,,,,,,moral_self_bias,16,19,60.0174859447,f,001,2018_Apr_02_1544,
,,,,,,,,,,,,,,,,,,,,,,material/84.png,2,犹豫,material/84.png,2,material/181.png,顽愚,2,f,f,f,2,2,2,顽愚,,,,,,,,,0,113,113,167,0,0,0,0,,,,,,,f,1,1.59210205078,j,0,0.183351039886,moral_self_bias,16,19,60.0174859447,f,001,2018_Apr_02_1544,
,,,,,,,,,,,,,,,,,,,,,,material/84.png,2,犹豫,material/84.png,2,material/181.png,顽愚,2,f,f,f,2,2,2,顽愚,,,,,,,,,0,113,113,167,,,,,,,,,,,,,,,,,moral_self_bias,16,19,60.0174859447,f,001,2018_Apr_02_1544,
,,,,,,,,,,,,,,,,,,,,,,material/1.png,1,博爱,material/101.png,1,material/101.png,博爱,1,f,f,f,1,1,1,善良,,,,,,,,,0,114,114,80,,,,,,,,,,,j,0,0.90874505043,,,,moral_self_bias,16,19,60.0174859447,f,001,2018_Apr_02_1544,
,,,,,,,,,,,,,,,,,,,,,,material/27.png,1,卓越,material/127.png,1,material/27.png,超群,1,f,f,f,2,2,2,卓越,,,,,,,,,0,115,115,106,,,,,,,,,,,j,0,0.82460308075,,,,moral_self_bias,16,19,60.0174859447,f,001,2018_Apr_02_1544,
,,,,,,,,,,,,,,,,,,,,,,material/174.png,2,虚伪,material/76.png,2,material/76.png,虚伪,2,j,j,j,1,1,1,不义,,,,,,,,,0,116,116,72,,,,,,,,,,,j,1,0.774940013885,,,,moral_self_bias,16,19,60.0174859447,f,001,2018_Apr_02_1544,
,,,,,,,,,,,,,,,,,,,,,,material/132.png,2,不忠,material/32.png,2,material/32.png,不忠,2,j,j,j,1,1,1,背叛,,,,,,,,,0,117,117,31,0,0,0,0,,,,,,,f,0,0.991841077805,j,0,0.223582029343,moral_self_bias,16,19,60.0174859447,f,001,2018_Apr_02_1544,
,,,,,,,,,,,,,,,,,,,,,,material/132.png,2,不忠,material/32.png,2,material/32.png,不忠,2,j,j,j,1,1,1,背叛,,,,,,,,,0,117,117,31,,,,,,,,,,,,,,,,,moral_self_bias,16,19,60.0174859447,f,001,2018_Apr_02_1544,
,,,,,,,,,,,,,,,,,,,,,,material/63.png,1,正义,material/166.png,1,material/66.png,仗义,1,f,f,f,1,1,1,文明,,,,,,,,,0,118,118,145,0,0,0,0,,,,,,,f,1,1.05817389488,f,1,0.184265136719,moral_self_bias,16,19,60.0174859447,f,001,2018_Apr_02_1544,
,,,,,,,,,,,,,,,,,,,,,,material/63.png,1,正义,material/166.png,1,material/66.png,仗义,1,f,f,f,1,1,1,文明,,,,,,,,,0,118,118,145,,,,,,,,,,,,,,,,,moral_self_bias,16,19,60.0174859447,f,001,2018_Apr_02_1544,
,,,,,,,,,,,,,,,,,,,,,,material/76.png,2,放纵,material/176.png,2,material/176.png,放纵,2,f,f,f,1,1,1,虚伪,,,,,,,,,0,119,119,155,,,,,,,,,,,j,0,1.55774998665,,,,moral_self_bias,16,19,60.0174859447,f,001,2018_Apr_02_1544,
,,,,,,,,,,,,,,,,,,,,,,material/153.png,2,迟钝,material/53.png,2,material/153.png,迟缓,2,j,j,j,2,2,2,迟钝,,,,,,,,,0,120,120,52,,,,,,,,,,,j,1,1.15900301933,,,,moral_self_bias,16,19,60.0174859447,f,001,2018_Apr_02_1544,
,,,,,,,,,,,,,,,,,,,,,,material/25.png,1,果断,material/125.png,1,material/25.png,果敢,1,f,f,f,2,2,2,果断,,,,,,,,,0,121,121,104,,,,,,,,,,,j,0,1.35844683647,,,,moral_self_bias,16,19,60.0174859447,f,001,2018_Apr_02_1544,
,,,,,,,,,,,,,,,,,,,,,,material/39.png,2,恶毒,material/139.png,2,material/139.png,恶毒,2,f,f,f,1,1,1,凶残,,,,,,,,,0,122,122,118,0,0,0,0,,,,,,,f,1,1.1583969593,f,1,0.258692979813,moral_self_bias,16,19,60.0174859447,f,001,2018_Apr_02_1544,
,,,,,,,,,,,,,,,,,,,,,,material/39.png,2,恶毒,material/139.png,2,material/139.png,恶毒,2,f,f,f,1,1,1,凶残,,,,,,,,,0,122,122,118,,,,,,,,,,,,,,,,,moral_self_bias,16,19,60.0174859447,f,001,2018_Apr_02_1544,
,,,,,,,,,,,,,,,,,,,,,,material/28.png,1,克己,material/128.png,1,material/28.png,自律,1,f,f,f,2,2,2,克己,,,,,,,,,0,123,123,107,0,0,0,0,,,,,,,f,1,1.2587928772,f,1,0.192235946655,moral_self_bias,16,19,60.0174859447,f,001,2018_Apr_02_1544,
,,,,,,,,,,,,,,,,,,,,,,material/28.png,1,克己,material/128.png,1,material/28.png,自律,1,f,f,f,2,2,2,克己,,,,,,,,,0,123,123,107,,,,,,,,,,,,,,,,,moral_self_bias,16,19,60.0174859447,f,001,2018_Apr_02_1544,
,,,,,,,,,,,,,,,,,,,,,,material/152.png,2,缓慢,material/52.png,2,material/152.png,拖延,2,j,j,j,2,2,2,缓慢,,,,,,,,,0,124,124,51,,,,,,,,,,,j,1,0.958330154419,,,,moral_self_bias,16,19,60.0174859447,f,001,2018_Apr_02_1544,
,,,,,,,,,,,,,,,,,,,,,,material/18.png,1,敏锐,material/118.png,1,material/18.png,机敏,1,f,f,f,2,2,2,敏锐,,,,,,,,,0,125,125,97,0,0,0,0,,,,,,,f,1,0.891416072845,j,0,0.20862197876,moral_self_bias,16,19,60.0174859447,f,001,2018_Apr_02_1544,
,,,,,,,,,,,,,,,,,,,,,,material/18.png,1,敏锐,material/118.png,1,material/18.png,机敏,1,f,f,f,2,2,2,敏锐,,,,,,,,,0,125,125,97,,,,,,,,,,,,,,,,,moral_self_bias,16,19,60.0174859447,f,001,2018_Apr_02_1544,
,,,,,,,,,,,,,,,,,,,,,,material/163.png,1,文明,material/163.png,1,material/63.png,宽容,1,f,f,f,1,1,1,宽容,,,,,,,,,0,126,126,142,0,0,0,0,,,,,,,f,1,1.6584880352,j,0,0.192076921463,moral_self_bias,16,19,60.0174859447,f,001,2018_Apr_02_1544,
,,,,,,,,,,,,,,,,,,,,,,material/163.png,1,文明,material/163.png,1,material/63.png,宽容,1,f,f,f,1,1,1,宽容,,,,,,,,,0,126,126,142,,,,,,,,,,,,,,,,,moral_self_bias,16,19,60.0174859447,f,001,2018_Apr_02_1544,
,,,,,,,,,,,,,,,,,,,,,,material/184.png,2,草率,material/80.png,2,material/78.png,健忘,2,j,j,j,2,2,2,厌学,,,,,,,,,0,127,127,76,,,,,,,,,,,j,1,1.47527503967,,,,moral_self_bias,16,19,60.0174859447,f,001,2018_Apr_02_1544,
,,,,,,,,,,,,,,,,,,,,,,material/125.png,1,果敢,material/25.png,1,material/125.png,果断,1,j,j,j,2,2,2,果敢,,,,,,,,,0,128,128,24,,,,,,,,,,,j,1,0.792537927628,,,,moral_self_bias,16,19,60.0174859447,f,001,2018_Apr_02_1544,
,,,,,,,,,,,,,,,,,,,,,,material/157.png,2,无能,material/57.png,2,material/157.png,无知,2,j,j,j,2,2,2,无能,,,,,,,,,0,129,129,56,,,,,,,,,,,j,1,0.891987085342,,,,moral_self_bias,16,19,60.0174859447,f,001,2018_Apr_02_1544,
,,,,,,,,,,,,,,,,,,,,,,material/53.png,2,迟缓,material/153.png,2,material/53.png,迟钝,2,f,f,f,2,2,2,迟缓,,,,,,,,,0,130,130,132,,,,,,,,,,,j,0,0.758026123047,,,,moral_self_bias,16,19,60.0174859447,f,001,2018_Apr_02_1544,
,,,,,,,,,,,,,,,,,,,,,,material/15.png,1,纯洁,material/115.png,1,material/115.png,纯洁,1,f,f,f,1,1,1,清白,,,,,,,,,0,131,131,94,0,0,0,0,,,,,,,f,1,0.891523122787,f,1,0.958192110062,moral_self_bias,16,19,60.0174859447,f,001,2018_Apr_02_1544,
,,,,,,,,,,,,,,,,,,,,,,material/15.png,1,纯洁,material/115.png,1,material/115.png,纯洁,1,f,f,f,1,1,1,清白,,,,,,,,,0,131,131,94,,,,,,,,,,,,,,,,,moral_self_bias,16,19,60.0174859447,f,001,2018_Apr_02_1544,
,,,,,,,,,,,,,,,,,,,,,,material/109.png,1,秉直,material/9.png,1,material/9.png,秉直,1,j,j,j,1,1,1,正直,,,,,,,,,0,132,132,8,,,,,,,,,,,j,1,0.541723966599,,,,moral_self_bias,16,19,60.0174859447,f,001,2018_Apr_02_1544,
,,,,,,,,,,,,,,,,,,,,,,material/111.png,1,高雅,material/11.png,1,material/11.png,高雅,1,j,j,j,1,1,1,高尚,,,,,,,,,0,133,133,10,,,,,,,,,,,j,1,0.624910116196,,,,moral_self_bias,16,19,60.0174859447,f,001,2018_Apr_02_1544,
,,,,,,,,,,,,,,,,,,,,,,material/182.png,2,健忘,material/184.png,2,material/80.png,厌学,2,f,f,f,2,2,2,才尽,,,,,,,,,0,134,134,163,0,0,0,0,,,,,,,f,1,1.14200901985,j,0,0.134229898453,moral_self_bias,16,19,60.0174859447,f,001,2018_Apr_02_1544,
,,,,,,,,,,,,,,,,,,,,,,material/182.png,2,健忘,material/184.png,2,material/80.png,厌学,2,f,f,f,2,2,2,才尽,,,,,,,,,0,134,134,163,,,,,,,,,,,,,,,,,moral_self_bias,16,19,60.0174859447,f,001,2018_Apr_02_1544,
,,,,,,,,,,,,,,,,,,,,,,material/19.png,1,灵活,material/119.png,1,material/19.png,机灵,1,f,f,f,2,2,2,灵活,,,,,,,,,0,135,135,98,0,0,0,0,,,,,,,f,1,1.1581261158,j,0,0.183688879013,moral_self_bias,16,19,60.0174859447,f,001,2018_Apr_02_1544,
,,,,,,,,,,,,,,,,,,,,,,material/19.png,1,灵活,material/119.png,1,material/19.png,机灵,1,f,f,f,2,2,2,灵活,,,,,,,,,0,135,135,98,,,,,,,,,,,,,,,,,moral_self_bias,16,19,60.0174859447,f,001,2018_Apr_02_1544,
,,,,,,,,,,,,,,,,,,,,,,material/8.png,1,无私,material/108.png,1,material/108.png,无私,1,f,f,f,1,1,1,公道,,,,,,,,,0,136,136,87,0,0,0,0,,,,,,,f,1,0.907967090607,j,0,0.208729982376,moral_self_bias,16,19,60.0174859447,f,001,2018_Apr_02_1544,
,,,,,,,,,,,,,,,,,,,,,,material/8.png,1,无私,material/108.png,1,material/108.png,无私,1,f,f,f,1,1,1,公道,,,,,,,,,0,136,136,87,,,,,,,,,,,,,,,,,moral_self_bias,16,19,60.0174859447,f,001,2018_Apr_02_1544,
,,,,,,,,,,,,,,,,,,,,,,material/45.png,2,小人,material/145.png,2,material/145.png,小人,2,f,f,f,1,1,1,下流,,,,,,,,,0,137,137,124,,,,,,,,,,,j,0,0.807662010193,,,,moral_self_bias,16,19,60.0174859447,f,001,2018_Apr_02_1544,
,,,,,,,,,,,,,,,,,,,,,,material/113.png,1,廉洁,material/13.png,1,material/13.png,廉洁,1,j,j,j,1,1,1,廉明,,,,,,,,,0,138,138,12,,,,,,,,,,,j,1,0.675322055817,,,,moral_self_bias,16,19,60.0174859447,f,001,2018_Apr_02_1544,
,,,,,,,,,,,,,,,,,,,,,,material/52.png,2,拖延,material/152.png,2,material/52.png,缓慢,2,f,f,f,2,2,2,拖延,,,,,,,,,0,139,139,131,0,0,0,0,,,,,,,f,1,1.36694383621,f,1,0.158050060272,moral_self_bias,16,19,60.0174859447,f,001,2018_Apr_02_1544,
,,,,,,,,,,,,,,,,,,,,,,material/52.png,2,拖延,material/152.png,2,material/52.png,缓慢,2,f,f,f,2,2,2,拖延,,,,,,,,,0,139,139,131,,,,,,,,,,,,,,,,,moral_self_bias,16,19,60.0174859447,f,001,2018_Apr_02_1544,
,,,,,,,,,,,,,,,,,,,,,,material/124.png,1,冷静,material/24.png,1,material/124.png,理智,1,j,j,j,2,2,2,冷静,,,,,,,,,0,140,140,23,,,,,,,,,,,j,1,1.37528800964,,,,moral_self_bias,16,19,60.0174859447,f,001,2018_Apr_02_1544,
,,,,,,,,,,,,,,,,,,,,,,material/116.png,1,机智,material/16.png,1,material/116.png,睿智,1,j,j,j,2,2,2,机智,,,,,,,,,0,141,141,15,,,,,,,,,,,j,1,0.64101099968,,,,moral_self_bias,16,19,60.0174859447,f,001,2018_Apr_02_1544,
,,,,,,,,,,,,,,,,,,,,,,material/4.png,1,友善,material/104.png,1,material/104.png,友善,1,f,f,f,1,1,1,友爱,,,,,,,,,0,142,142,83,,,,,,,,,,,j,0,0.657796859741,,,,moral_self_bias,16,19,60.0174859447,f,001,2018_Apr_02_1544,
,,,,,,,,,,,,,,,,,,,,,,material/73.png,2,恶心,material/177.png,2,material/177.png,恶心,2,f,f,f,1,1,1,残虐,,,,,,,,,0,143,143,156,,,,,,,,,,,j,0,1.0412671566,,,,moral_self_bias,16,19,60.0174859447,f,001,2018_Apr_02_1544,
,,,,,,,,,,,,,,,,,,,,,,material/67.png,1,骁勇,material/70.png,1,material/67.png,全面,1,j,j,j,2,2,2,骁勇,,,,,,,,,0,144,144,67,,,,,,,,,,,j,1,0.558538913727,,,,moral_self_bias,16,19,60.0174859447,f,001,2018_Apr_02_1544,
,,,,,,,,,,,,,,,,,,,,,,material/23.png,1,有才,material/123.png,1,material/23.png,多才,1,f,f,f,2,2,2,有才,,,,,,,,,0,145,145,102,,,,,,,,,,,j,0,0.841284036636,,,,moral_self_bias,16,19,60.0174859447,f,001,2018_Apr_02_1544,
,,,,,,,,,,,,,,,,,,,,,,material/107.png,1,公正,material/7.png,1,material/7.png,公正,1,j,j,j,1,1,1,公平,,,,,,,,,0,146,146,6,,,,,,,,,,,j,1,0.642047166824,,,,moral_self_bias,16,19,60.0174859447,f,001,2018_Apr_02_1544,
,,,,,,,,,,,,,,,,,,,,,,material/160.png,2,笨拙,material/60.png,2,material/160.png,粗拙,2,j,j,j,2,2,2,笨拙,,,,,,,,,0,147,147,59,0,0,0,0,,,,,,,f,0,1.22302913666,j,0,0.191488981247,moral_self_bias,16,19,60.0174859447,f,001,2018_Apr_02_1544,
,,,,,,,,,,,,,,,,,,,,,,material/160.png,2,笨拙,material/60.png,2,material/160.png,粗拙,2,j,j,j,2,2,2,笨拙,,,,,,,,,0,147,147,59,,,,,,,,,,,,,,,,,moral_self_bias,16,19,60.0174859447,f,001,2018_Apr_02_1544,
,,,,,,,,,,,,,,,,,,,,,,material/6.png,1,厚道,material/106.png,1,material/106.png,厚道,1,f,f,f,1,1,1,诚实,,,,,,,,,0,148,148,85,,,,,,,,,,,j,0,0.675171136856,,,,moral_self_bias,16,19,60.0174859447,f,001,2018_Apr_02_1544,
,,,,,,,,,,,,,,,,,,,,,,material/2.png,1,爱心,material/102.png,1,material/102.png,爱心,1,f,f,f,1,1,1,善心,,,,,,,,,0,149,149,81,,,,,,,,,,,j,0,0.606036901474,,,,moral_self_bias,16,19,60.0174859447,f,001,2018_Apr_02_1544,
,,,,,,,,,,,,,,,,,,,,,,material/114.png,1,爱国,material/14.png,1,material/14.png,爱国,1,j,j,j,1,1,1,忠贞,,,,,,,,,0,150,150,13,,,,,,,,,,,j,1,0.858433961868,,,,moral_self_bias,16,19,60.0174859447,f,001,2018_Apr_02_1544,
,,,,,,,,,,,,,,,,,,,,,,material/150.png,2,鲁钝,material/50.png,2,material/150.png,愚笨,2,j,j,j,2,2,2,鲁钝,,,,,,,,,0,151,151,49,,,,,,,,,,,j,1,0.675474882126,,,,moral_self_bias,16,19,60.0174859447,f,001,2018_Apr_02_1544,
,,,,,,,,,,,,,,,,,,,,,,material/123.png,1,多才,material/23.png,1,material/123.png,有才,1,j,j,j,2,2,2,多才,,,,,,,,,0,152,152,22,,,,,,,,,,,j,1,0.77529501915,,,,moral_self_bias,16,19,60.0174859447,f,001,2018_Apr_02_1544,
,,,,,,,,,,,,,,,,,,,,,,material/135.png,2,冷漠,material/35.png,2,material/35.png,冷漠,2,j,j,j,1,1,1,冷血,,,,,,,,,0,153,153,34,,,,,,,,,,,j,1,1.57559609413,,,,moral_self_bias,16,19,60.0174859447,f,001,2018_Apr_02_1544,
,,,,,,,,,,,,,,,,,,,,,,material/51.png,2,糊涂,material/151.png,2,material/51.png,迷糊,2,f,f,f,2,2,2,糊涂,,,,,,,,,0,154,154,130,,,,,,,,,,,j,0,1.00016188622,,,,moral_self_bias,16,19,60.0174859447,f,001,2018_Apr_02_1544,
,,,,,,,,,,,,,,,,,,,,,,material/106.png,1,诚实,material/6.png,1,material/6.png,诚实,1,j,j,j,1,1,1,厚道,,,,,,,,,0,155,155,5,,,,,,,,,,,j,1,1.30809593201,,,,moral_self_bias,16,19,60.0174859447,f,001,2018_Apr_02_1544,
,,,,,,,,,,,,,,,,,,,,,,material/148.png,2,笨蛋,material/48.png,2,material/148.png,愚蠢,2,j,j,j,2,2,2,笨蛋,,,,,,,,,0,156,156,47,,,,,,,,,,,j,1,0.941155910492,,,,moral_self_bias,16,19,60.0174859447,f,001,2018_Apr_02_1544,
,,,,,,,,,,,,,,,,,,,,,,material/155.png,2,盲目,material/55.png,2,material/155.png,盲从,2,j,j,j,2,2,2,盲目,,,,,,,,,0,157,157,54,,,,,,,,,,,j,1,0.772815942764,,,,moral_self_bias,16,19,60.0174859447,f,001,2018_Apr_02_1544,
,,,,,,,,,,,,,,,,,,,,,,material/41.png,2,残忍,material/141.png,2,material/141.png,残忍,2,f,f,f,1,1,1,歹毒,,,,,,,,,0,158,158,120,,,,,,,,,,,j,0,1.52473807335,,,,moral_self_bias,16,19,60.0174859447,f,001,2018_Apr_02_1544,
,,,,,,,,,,,,,,,,,,,,,,material/70.png,1,全面,material/168.png,1,material/70.png,机变,1,f,f,f,2,2,2,全面,,,,,,,,,0,159,159,147,,,,,,,,,,,j,0,0.808736085892,,,,moral_self_bias,16,19,60.0174859447,f,001,2018_Apr_02_1544,
,,,,,,,,,,,,,,,,,,,,,,material/31.png,1,笃学,material/131.png,1,material/31.png,笃行,1,f,f,f,2,2,2,笃学,,,,,,,,,0,160,160,110,,,,,,,,,,,j,0,0.791598081589,,,,moral_self_bias,16,19,60.0174859447,f,001,2018_Apr_02_1544,
,,,,,,,,,,,,,,,,,,,,,,material/145.png,2,下流,material/45.png,2,material/45.png,下流,2,j,j,j,1,1,1,小人,,,,,,,,,0,161,161,44,,,,,,,,,,,j,1,0.70845079422,,,,moral_self_bias,16,19,60.0174859447,f,001,2018_Apr_02_1544,
,,,,,,,,,,,,,,,,,,,,,,material/12.png,1,忠心,material/112.png,1,material/112.png,忠心,1,f,f,f,1,1,1,忠诚,,,,,,,,,0,162,162,91,0,0,0,0,,,,,,,f,1,1.1086909771,f,1,0.625149011612,moral_self_bias,16,19,60.0174859447,f,001,2018_Apr_02_1544,
,,,,,,,,,,,,,,,,,,,,,,material/12.png,1,忠心,material/112.png,1,material/112.png,忠心,1,f,f,f,1,1,1,忠诚,,,,,,,,,0,162,162,91,,,,,,,,,,,,,,,,,moral_self_bias,16,19,60.0174859447,f,001,2018_Apr_02_1544,
,,,,,,,,,,,,,,,,,,,,,,material/65.png,1,勇敢,material/61.png,1,material/161.png,平等,1,j,j,j,1,1,1,谦虚,,,,,,,,,0,163,163,60,,,,,,,,,,,j,1,1.25807404518,,,,moral_self_bias,16,19,60.0174859447,f,001,2018_Apr_02_1544,
,,,,,,,,,,,,,,,,,,,,,,material/156.png,2,愚钝,material/56.png,2,material/156.png,愚昧,2,j,j,j,2,2,2,愚钝,,,,,,,,,0,164,164,55,,,,,,,,,,,j,1,1.17449998856,,,,moral_self_bias,16,19,60.0174859447,f,001,2018_Apr_02_1544,
,,,,,,,,,,,,,,,,,,,,,,material/117.png,1,聪颖,material/17.png,1,material/117.png,聪明,1,j,j,j,2,2,2,聪颖,,,,,,,,,0,165,165,16,,,,,,,,,,,j,1,1.39047503471,,,,moral_self_bias,16,19,60.0174859447,f,001,2018_Apr_02_1544,
,,,,,,,,,,,,,,,,,,,,,,material/112.png,1,忠诚,material/12.png,1,material/12.png,忠诚,1,j,j,j,1,1,1,忠心,,,,,,,,,0,166,166,11,0,0,0,0,,,,,,,f,0,1.2494559288,f,1,0.283956050873,moral_self_bias,16,19,60.0174859447,f,001,2018_Apr_02_1544,
,,,,,,,,,,,,,,,,,,,,,,material/112.png,1,忠诚,material/12.png,1,material/12.png,忠诚,1,j,j,j,1,1,1,忠心,,,,,,,,,0,166,166,11,,,,,,,,,,,,,,,,,moral_self_bias,16,19,60.0174859447,f,001,2018_Apr_02_1544,
,,,,,,,,,,,,,,,,,,,,,,material/158.png,2,浅薄,material/58.png,2,material/158.png,肤浅,2,j,j,j,2,2,2,浅薄,,,,,,,,,0,167,167,57,,,,,,,,,,,j,1,0.524547100067,,,,moral_self_bias,16,19,60.0174859447,f,001,2018_Apr_02_1544,
