Block1_Old,Num_Source3,Num_Source2,Num_Source1,valence1,valence2,valence3,Num_Old2,Corr_S1,Num_Old1,Corr_S3,Corr_S2,Block3_Old,Block2_Old,Source_2,Source_3,Source_1,domain3,domain2,domain1,Num_Old3,math,Num_All2,valence_all1,All_Words3,Num_All1,valence_all2,Num_All3,All_Words1,valence_all3,Corr_Rec2,Corr_Rec3,Corr_Rec1,domian_all3,domian_all2,domian_all1,All_Words2,trials.thisRepN,trials.thisTrialN,trials.thisN,trials.thisIndex,trials_2.thisRepN,trials_2.thisTrialN,trials_2.thisN,trials_2.thisIndex,trials_4.thisRepN,trials_4.thisTrialN,trials_4.thisN,trials_4.thisIndex,trials_3.thisRepN,trials_3.thisTrialN,trials_3.thisN,trials_3.thisIndex,block_resp_1.keys,block_resp_1.rt,words_rating.keys,words_rating.rt,block_resp_2.keys,block_resp_2.rt,Rec_resp.keys,Rec_resp.corr,Rec_resp.rt,Source_resp.keys,Source_resp.corr,Source_resp.rt,expName,participant,Age,frameRate,Sex,session,date,
,,,,,,,,,,,,,,,,,,,,,,,,,,,,,,,,,,,,,,,,,,,,,,,,,,,,,1,10.4425170422,,,,,,,,,,,moral_self_bias,19,20,59.9825528349,f,001,2018_Apr_02_1643,
宽容,material/instr2_2.png,material/instr2_2.png,material/instr2_2.png,1,1,1,material/163.png,j,material/163.png,j,j,文明,宽容,friend,friend,friend,1,1,1,material/63.png,,,,,,,,,,,,,,,,,0,0,0,62,,,,,,,,,,,,,,,None,,,,,,,,,,moral_self_bias,19,20,59.9825528349,f,001,2018_Apr_02_1643,
狠毒,material/instr2_2.png,material/instr2_2.png,material/instr2_2.png,2,2,2,material/40.png,j,material/140.png,j,j,狠毒,邪恶,friend,friend,friend,1,1,1,material/140.png,,,,,,,,,,,,,,,,,0,1,1,39,,,,,,,,,,,,,,,1,1.62572002411,,,,,,,,,moral_self_bias,19,20,59.9825528349,f,001,2018_Apr_02_1643,
机变,material/instr2_2.png,material/instr2_2.png,material/instr2_2.png,1,1,1,material/70.png,j,material/168.png,j,j,全面,全面,friend,friend,friend,2,2,2,material/70.png,,,,,,,,,,,,,,,,,0,2,2,67,,,,,,,,,,,,,,,None,,,,,,,,,,moral_self_bias,19,20,59.9825528349,f,001,2018_Apr_02_1643,
博学,material/instr2_1.png,material/instr2_1.png,material/instr2_1.png,1,1,1,material/22.png,f,material/122.png,f,f,才学,才学,self,self,self,2,2,2,material/22.png,,,,,,,,,,,,,,,,,0,3,3,21,,,,,,,,,,,,,,,4,2.4759581089,,,,,,,,,moral_self_bias,19,20,59.9825528349,f,001,2018_Apr_02_1643,
能干,material/instr2_2.png,material/instr2_2.png,material/instr2_2.png,1,1,1,material/20.png,j,material/120.png,j,j,厉害,厉害,friend,friend,friend,2,2,2,material/20.png,,,,,,,,,,,,,,,,,0,4,4,19,,,,,,,,,,,,,,,4,1.29184913635,,,,,,,,,moral_self_bias,19,20,59.9825528349,f,001,2018_Apr_02_1643,
背叛,material/instr2_1.png,material/instr2_1.png,material/instr2_1.png,2,2,2,material/32.png,f,material/132.png,f,f,背叛,不忠,self,self,self,1,1,1,material/132.png,,,,,,,,,,,,,,,,,0,5,5,31,,,,,,,,,,,,,,,1,1.34192085266,,,,,,,,,moral_self_bias,19,20,59.9825528349,f,001,2018_Apr_02_1643,
顽愚,material/instr2_1.png,material/instr2_1.png,material/instr2_1.png,2,2,2,material/84.png,f,material/84.png,f,f,犹豫,顽愚,self,self,self,2,2,2,material/181.png,,,,,,,,,,,,,,,,,0,6,6,87,,,,,,,,,,,,,,,1,1.52560997009,,,,,,,,,moral_self_bias,19,20,59.9825528349,f,001,2018_Apr_02_1643,
高尚,material/instr2_1.png,material/instr2_1.png,material/instr2_1.png,1,1,1,material/11.png,f,material/111.png,f,f,高尚,高雅,self,self,self,1,1,1,material/111.png,,,,,,,,,,,,,,,,,0,7,7,10,,,,,,,,,,,,,,,4,1.51676893234,,,,,,,,,moral_self_bias,19,20,59.9825528349,f,001,2018_Apr_02_1643,
仗义,material/instr2_1.png,material/instr2_1.png,material/instr2_1.png,1,1,1,material/63.png,f,material/166.png,f,f,正义,文明,self,self,self,1,1,1,material/66.png,,,,,,,,,,,,,,,,,0,8,8,65,,,,,,,,,,,,,,,5,1.35818386078,,,,,,,,,moral_self_bias,19,20,59.9825528349,f,001,2018_Apr_02_1643,
无私,material/instr2_2.png,material/instr2_2.png,material/instr2_2.png,1,1,1,material/8.png,j,material/108.png,j,j,无私,公道,friend,friend,friend,1,1,1,material/108.png,,,,,,,,,,,,,,,,,0,9,9,7,,,,,,,,,,,,,,,4,1.20880794525,,,,,,,,,moral_self_bias,19,20,59.9825528349,f,001,2018_Apr_02_1643,
愚钝,material/instr2_1.png,material/instr2_1.png,material/instr2_1.png,2,2,2,material/56.png,f,material/156.png,f,f,愚昧,愚昧,self,self,self,2,2,2,material/56.png,,,,,,,,,,,,,,,,,0,10,10,55,,,,,,,,,,,,,,,1,1.25845885277,,,,,,,,,moral_self_bias,19,20,59.9825528349,f,001,2018_Apr_02_1643,
迟钝,material/instr2_1.png,material/instr2_1.png,material/instr2_1.png,2,2,2,material/53.png,f,material/153.png,f,f,迟缓,迟缓,self,self,self,2,2,2,material/53.png,,,,,,,,,,,,,,,,,0,11,11,52,,,,,,,,,,,,,,,1,0.775319814682,,,,,,,,,moral_self_bias,19,20,59.9825528349,f,001,2018_Apr_02_1643,
勤快,material/instr2_2.png,material/instr2_2.png,material/instr2_2.png,1,1,1,material/26.png,j,material/126.png,j,j,刻苦,刻苦,friend,friend,friend,2,2,2,material/26.png,,,,,,,,,,,,,,,,,0,12,12,25,,,,,,,,,,,,,,,5,2.79191613197,,,,,,,,,moral_self_bias,19,20,59.9825528349,f,001,2018_Apr_02_1643,
不义,material/instr2_2.png,material/instr2_2.png,material/instr2_2.png,2,2,2,material/173.png,j,material/174.png,j,j,不义,黑心,friend,friend,friend,1,1,1,material/174.png,,,,,,,,,,,,,,,,,0,13,13,73,,,,,,,,,,,,,,,1,1.15592312813,,,,,,,,,moral_self_bias,19,20,59.9825528349,f,001,2018_Apr_02_1643,
犹豫,material/instr2_1.png,material/instr2_1.png,material/instr2_1.png,2,2,2,material/78.png,f,material/181.png,f,f,厌学,草率,self,self,self,2,2,2,material/184.png,,,,,,,,,,,,,,,,,0,14,14,80,,,,,,,,,,,,,,,None,,,,,,,,,,moral_self_bias,19,20,59.9825528349,f,001,2018_Apr_02_1643,
冷血,material/instr2_1.png,material/instr2_1.png,material/instr2_1.png,2,2,2,material/35.png,f,material/135.png,f,f,冷血,冷漠,self,self,self,1,1,1,material/135.png,,,,,,,,,,,,,,,,,0,15,15,34,,,,,,,,,,,,,,,2,2.2545440197,,,,,,,,,moral_self_bias,19,20,59.9825528349,f,001,2018_Apr_02_1643,
精干,material/instr2_1.png,material/instr2_1.png,material/instr2_1.png,1,1,1,material/21.png,f,material/121.png,f,f,干练,干练,self,self,self,2,2,2,material/21.png,,,,,,,,,,,,,,,,,0,16,16,20,,,,,,,,,,,,,,,4,1.5087480545,,,,,,,,,moral_self_bias,19,20,59.9825528349,f,001,2018_Apr_02_1643,
才尽,material/instr2_1.png,material/instr2_1.png,material/instr2_1.png,2,2,2,material/183.png,f,material/182.png,f,f,颓废,薄弱,self,self,self,2,2,2,material/79.png,,,,,,,,,,,,,,,,,0,17,17,81,,,,,,,,,,,,,,,1,1.84214115143,,,,,,,,,moral_self_bias,19,20,59.9825528349,f,001,2018_Apr_02_1643,
正义,material/instr2_1.png,material/instr2_1.png,material/instr2_1.png,1,1,1,material/66.png,f,material/66.png,f,f,独立,正义,self,self,self,1,1,1,material/165.png,,,,,,,,,,,,,,,,,0,18,18,84,,,,,,,,,,,,,,,5,1.50921201706,,,,,,,,,moral_self_bias,19,20,59.9825528349,f,001,2018_Apr_02_1643,
爽约,material/instr2_2.png,material/instr2_2.png,material/instr2_2.png,2,2,2,material/44.png,j,material/144.png,j,j,爽约,失信,friend,friend,friend,1,1,1,material/144.png,,,,,,,,,,,,,,,,,0,19,19,43,,,,,,,,,,,,,,,1,1.22441291809,,,,,,,,,moral_self_bias,19,20,59.9825528349,f,001,2018_Apr_02_1643,
忠心,material/instr2_1.png,material/instr2_1.png,material/instr2_1.png,1,1,1,material/12.png,f,material/112.png,f,f,忠心,忠诚,self,self,self,1,1,1,material/112.png,,,,,,,,,,,,,,,,,0,20,20,11,,,,,,,,,,,,,,,4,1.27521204948,,,,,,,,,moral_self_bias,19,20,59.9825528349,f,001,2018_Apr_02_1643,
卑鄙,material/instr2_2.png,material/instr2_2.png,material/instr2_2.png,2,2,2,material/37.png,j,material/137.png,j,j,卑鄙,无耻,friend,friend,friend,1,1,1,material/137.png,,,,,,,,,,,,,,,,,0,21,21,36,,,,,,,,,,,,,,,1,0.842277765274,,,,,,,,,moral_self_bias,19,20,59.9825528349,f,001,2018_Apr_02_1643,
冷静,material/instr2_1.png,material/instr2_1.png,material/instr2_1.png,1,1,1,material/24.png,f,material/124.png,f,f,理智,理智,self,self,self,2,2,2,material/24.png,,,,,,,,,,,,,,,,,0,22,22,23,,,,,,,,,,,,,,,4,1.72537612915,,,,,,,,,moral_self_bias,19,20,59.9825528349,f,001,2018_Apr_02_1643,
盲目,material/instr2_1.png,material/instr2_1.png,material/instr2_1.png,2,2,2,material/55.png,f,material/155.png,f,f,盲从,盲从,self,self,self,2,2,2,material/55.png,,,,,,,,,,,,,,,,,0,23,23,54,,,,,,,,,,,,,,,1,0.875362873077,,,,,,,,,moral_self_bias,19,20,59.9825528349,f,001,2018_Apr_02_1643,
无情,material/instr2_1.png,material/instr2_1.png,material/instr2_1.png,2,2,2,material/172.png,f,material/175.png,f,f,无情,浮夸,self,self,self,1,1,1,material/175.png,,,,,,,,,,,,,,,,,0,24,24,74,,,,,,,,,,,,,,,1,1.39283919334,,,,,,,,,moral_self_bias,19,20,59.9825528349,f,001,2018_Apr_02_1643,
诚信,material/instr2_1.png,material/instr2_1.png,material/instr2_1.png,1,1,1,material/5.png,f,material/105.png,f,f,诚信,守信,self,self,self,1,1,1,material/105.png,,,,,,,,,,,,,,,,,0,25,25,4,,,,,,,,,,,,,,,4,1.85755705833,,,,,,,,,moral_self_bias,19,20,59.9825528349,f,001,2018_Apr_02_1643,
差生,material/instr2_2.png,material/instr2_2.png,material/instr2_2.png,2,2,2,material/81.png,j,material/179.png,j,j,呆笨,无助,friend,friend,friend,2,2,2,material/83.png,,,,,,,,,,,,,,,,,0,26,26,78,,,,,,,,,,,,,,,1,1.32546210289,,,,,,,,,moral_self_bias,19,20,59.9825528349,f,001,2018_Apr_02_1643,
笨拙,material/instr2_1.png,material/instr2_1.png,material/instr2_1.png,2,2,2,material/60.png,f,material/160.png,f,f,粗拙,粗拙,self,self,self,2,2,2,material/60.png,,,,,,,,,,,,,,,,,0,27,27,59,,,,,,,,,,,,,,,1,1.32557797432,,,,,,,,,moral_self_bias,19,20,59.9825528349,f,001,2018_Apr_02_1643,
高明,material/instr2_1.png,material/instr2_1.png,material/instr2_1.png,1,1,1,material/69.png,f,material/69.png,f,f,高明,高明,self,self,self,2,2,2,material/69.png,,,,,,,,,,,,,,,,,0,28,28,86,,,,,,,,,,,,,,,4,2.87182497978,,,,,,,,,moral_self_bias,19,20,59.9825528349,f,001,2018_Apr_02_1643,
恶心,material/instr2_1.png,material/instr2_1.png,material/instr2_1.png,2,2,2,material/73.png,f,material/177.png,f,f,恶心,残虐,self,self,self,1,1,1,material/177.png,,,,,,,,,,,,,,,,,0,29,29,76,,,,,,,,,,,,,,,1,1.00883698463,,,,,,,,,moral_self_bias,19,20,59.9825528349,f,001,2018_Apr_02_1643,
好问,material/instr2_1.png,material/instr2_1.png,material/instr2_1.png,1,1,1,material/29.png,f,material/129.png,f,f,好学,好学,self,self,self,2,2,2,material/29.png,,,,,,,,,,,,,,,,,0,30,30,28,,,,,,,,,,,,,,,5,1.60862898827,,,,,,,,,moral_self_bias,19,20,59.9825528349,f,001,2018_Apr_02_1643,
坚忍,material/instr2_1.png,material/instr2_1.png,material/instr2_1.png,1,1,1,material/168.png,f,material/170.png,f,f,机变,机变,self,self,self,2,2,2,material/168.png,,,,,,,,,,,,,,,,,0,31,31,69,,,,,,,,,,,,,,,4,1.27525496483,,,,,,,,,moral_self_bias,19,20,59.9825528349,f,001,2018_Apr_02_1643,
独立,material/instr2_1.png,material/instr2_1.png,material/instr2_1.png,1,1,1,material/64.png,f,material/165.png,f,f,谦虚,奉献,self,self,self,1,1,1,material/65.png,,,,,,,,,,,,,,,,,0,32,32,64,,,,,,,,,,,,,,,4,1.458589077,,,,,,,,,moral_self_bias,19,20,59.9825528349,f,001,2018_Apr_02_1643,
白痴,material/instr2_2.png,material/instr2_2.png,material/instr2_2.png,2,2,2,material/49.png,j,material/149.png,j,j,痴呆,痴呆,friend,friend,friend,2,2,2,material/49.png,,,,,,,,,,,,,,,,,0,33,33,48,,,,,,,,,,,,,,,1,1.30929303169,,,,,,,,,moral_self_bias,19,20,59.9825528349,f,001,2018_Apr_02_1643,
正直,material/instr2_2.png,material/instr2_2.png,material/instr2_2.png,1,1,1,material/9.png,j,material/109.png,j,j,正直,秉直,friend,friend,friend,1,1,1,material/109.png,,,,,,,,,,,,,,,,,0,34,34,8,,,,,,,,,,,,,,,5,2.02296519279,,,,,,,,,moral_self_bias,19,20,59.9825528349,f,001,2018_Apr_02_1643,
奸诈,material/instr2_1.png,material/instr2_1.png,material/instr2_1.png,2,2,2,material/42.png,f,material/142.png,f,f,奸诈,阴险,self,self,self,1,1,1,material/142.png,,,,,,,,,,,,,,,,,0,35,35,41,,,,,,,,,,,,,,,1,1.15874004364,,,,,,,,,moral_self_bias,19,20,59.9825528349,f,001,2018_Apr_02_1643,
放纵,material/instr2_1.png,material/instr2_1.png,material/instr2_1.png,2,2,2,material/76.png,f,material/176.png,f,f,放纵,虚伪,self,self,self,1,1,1,material/176.png,,,,,,,,,,,,,,,,,0,36,36,75,,,,,,,,,,,,,,,4,2.48297405243,,,,,,,,,moral_self_bias,19,20,59.9825528349,f,001,2018_Apr_02_1643,
缓慢,material/instr2_1.png,material/instr2_1.png,material/instr2_1.png,2,2,2,material/52.png,f,material/152.png,f,f,拖延,拖延,self,self,self,2,2,2,material/52.png,,,,,,,,,,,,,,,,,0,37,37,51,,,,,,,,,,,,,,,1,1.50888419151,,,,,,,,,moral_self_bias,19,20,59.9825528349,f,001,2018_Apr_02_1643,
残虐,material/instr2_1.png,material/instr2_1.png,material/instr2_1.png,2,2,2,material/175.png,f,material/73.png,f,f,残虐,无情,self,self,self,1,1,1,material/73.png,,,,,,,,,,,,,,,,,0,38,38,85,,,,,,,,,,,,,,,1,0.857831954956,,,,,,,,,moral_self_bias,19,20,59.9825528349,f,001,2018_Apr_02_1643,
笃行,material/instr2_1.png,material/instr2_1.png,material/instr2_1.png,1,1,1,material/31.png,f,material/131.png,f,f,笃学,笃学,self,self,self,2,2,2,material/31.png,,,,,,,,,,,,,,,,,0,39,39,30,,,,,,,,,,,,,,,4,1.15867686272,,,,,,,,,moral_self_bias,19,20,59.9825528349,f,001,2018_Apr_02_1643,
机敏,material/instr2_2.png,material/instr2_2.png,material/instr2_2.png,1,1,1,material/18.png,j,material/118.png,j,j,敏锐,敏锐,friend,friend,friend,2,2,2,material/18.png,,,,,,,,,,,,,,,,,0,40,40,17,,,,,,,,,,,,,,,5,1.49236893654,,,,,,,,,moral_self_bias,19,20,59.9825528349,f,001,2018_Apr_02_1643,
无能,material/instr2_2.png,material/instr2_2.png,material/instr2_2.png,2,2,2,material/57.png,j,material/157.png,j,j,无知,无知,friend,friend,friend,2,2,2,material/57.png,,,,,,,,,,,,,,,,,0,41,41,56,,,,,,,,,,,,,,,1,0.725256919861,,,,,,,,,moral_self_bias,19,20,59.9825528349,f,001,2018_Apr_02_1643,
薄弱,material/instr2_1.png,material/instr2_1.png,material/instr2_1.png,2,2,2,material/82.png,f,material/183.png,f,f,毛糙,窝囊,self,self,self,2,2,2,material/178.png,,,,,,,,,,,,,,,,,0,42,42,82,,,,,,,,,,,,,,,None,,,,,,,,,,moral_self_bias,19,20,59.9825528349,f,001,2018_Apr_02_1643,
厚道,material/instr2_2.png,material/instr2_2.png,material/instr2_2.png,1,1,1,material/6.png,j,material/106.png,j,j,厚道,诚实,friend,friend,friend,1,1,1,material/106.png,,,,,,,,,,,,,,,,,0,43,43,5,,,,,,,,,,,,,,,4,1.4258620739,,,,,,,,,moral_self_bias,19,20,59.9825528349,f,001,2018_Apr_02_1643,
进取,material/instr2_1.png,material/instr2_1.png,material/instr2_1.png,1,1,1,material/30.png,f,material/130.png,f,f,上进,上进,self,self,self,2,2,2,material/30.png,,,,,,,,,,,,,,,,,0,44,44,29,,,,,,,,,,,,,,,4,1.25909900665,,,,,,,,,moral_self_bias,19,20,59.9825528349,f,001,2018_Apr_02_1643,
小人,material/instr2_2.png,material/instr2_2.png,material/instr2_2.png,2,2,2,material/45.png,j,material/145.png,j,j,小人,下流,friend,friend,friend,1,1,1,material/145.png,,,,,,,,,,,,,,,,,0,45,45,44,,,,,,,,,,,,,,,1,0.708858966827,,,,,,,,,moral_self_bias,19,20,59.9825528349,f,001,2018_Apr_02_1643,
笨蛋,material/instr2_2.png,material/instr2_2.png,material/instr2_2.png,2,2,2,material/48.png,j,material/148.png,j,j,愚蠢,愚蠢,friend,friend,friend,2,2,2,material/48.png,,,,,,,,,,,,,,,,,0,46,46,47,,,,,,,,,,,,,,,1,0.725101947784,,,,,,,,,moral_self_bias,19,20,59.9825528349,f,001,2018_Apr_02_1643,
聪颖,material/instr2_2.png,material/instr2_2.png,material/instr2_2.png,1,1,1,material/17.png,j,material/117.png,j,j,聪明,聪明,friend,friend,friend,2,2,2,material/17.png,,,,,,,,,,,,,,,,,0,47,47,16,,,,,,,,,,,,,,,4,1.57484793663,,,,,,,,,moral_self_bias,19,20,59.9825528349,f,001,2018_Apr_02_1643,
黑心,material/instr2_2.png,material/instr2_2.png,material/instr2_2.png,2,2,2,material/74.png,j,material/173.png,j,j,黑心,卑劣,friend,friend,friend,1,1,1,material/173.png,,,,,,,,,,,,,,,,,0,48,48,72,,,,,,,,,,,,,,,1,0.675101041794,,,,,,,,,moral_self_bias,19,20,59.9825528349,f,001,2018_Apr_02_1643,
果敢,material/instr2_1.png,material/instr2_1.png,material/instr2_1.png,1,1,1,material/25.png,f,material/125.png,f,f,果断,果断,self,self,self,2,2,2,material/25.png,,,,,,,,,,,,,,,,,0,49,49,24,,,,,,,,,,,,,,,4,1.12776398659,,,,,,,,,moral_self_bias,19,20,59.9825528349,f,001,2018_Apr_02_1643,
厌学,material/instr2_2.png,material/instr2_2.png,material/instr2_2.png,2,2,2,material/182.png,j,material/184.png,j,j,健忘,才尽,friend,friend,friend,2,2,2,material/80.png,,,,,,,,,,,,,,,,,0,50,50,83,,,,,,,,,,,,,,,1,0.658936977386,,,,,,,,,moral_self_bias,19,20,59.9825528349,f,001,2018_Apr_02_1643,
机智,material/instr2_2.png,material/instr2_2.png,material/instr2_2.png,1,1,1,material/16.png,j,material/116.png,j,j,睿智,睿智,friend,friend,friend,2,2,2,material/16.png,,,,,,,,,,,,,,,,,0,51,51,15,,,,,,,,,,,,,,,4,1.05848503113,,,,,,,,,moral_self_bias,19,20,59.9825528349,f,001,2018_Apr_02_1643,
恶毒,material/instr2_2.png,material/instr2_2.png,material/instr2_2.png,2,2,2,material/39.png,j,material/139.png,j,j,恶毒,凶残,friend,friend,friend,1,1,1,material/139.png,,,,,,,,,,,,,,,,,0,52,52,38,,,,,,,,,,,,,,,1,0.725678920746,,,,,,,,,moral_self_bias,19,20,59.9825528349,f,001,2018_Apr_02_1643,
纯洁,material/instr2_2.png,material/instr2_2.png,material/instr2_2.png,1,1,1,material/15.png,j,material/115.png,j,j,纯洁,清白,friend,friend,friend,1,1,1,material/115.png,,,,,,,,,,,,,,,,,0,53,53,14,,,,,,,,,,,,,,,5,1.99148583412,,,,,,,,,moral_self_bias,19,20,59.9825528349,f,001,2018_Apr_02_1643,
孝顺,material/instr2_1.png,material/instr2_1.png,material/instr2_1.png,1,1,1,material/161.png,f,material/164.png,f,f,奉献,勇敢,self,self,self,1,1,1,material/64.png,,,,,,,,,,,,,,,,,0,54,54,63,,,,,,,,,,,,,,,5,1.00933098793,,,,,,,,,moral_self_bias,19,20,59.9825528349,f,001,2018_Apr_02_1643,
毛糙,material/instr2_2.png,material/instr2_2.png,material/instr2_2.png,2,2,2,material/179.png,j,material/178.png,j,j,顽愚,差生,friend,friend,friend,2,2,2,material/84.png,,,,,,,,,,,,,,,,,0,55,55,77,,,,,,,,,,,,,,,3,2.12522697449,,,,,,,,,moral_self_bias,19,20,59.9825528349,f,001,2018_Apr_02_1643,
公平,material/instr2_2.png,material/instr2_2.png,material/instr2_2.png,1,1,1,material/7.png,j,material/107.png,j,j,公平,公正,friend,friend,friend,1,1,1,material/107.png,,,,,,,,,,,,,,,,,0,56,56,6,,,,,,,,,,,,,,,4,1.07550382614,,,,,,,,,moral_self_bias,19,20,59.9825528349,f,001,2018_Apr_02_1643,
鲁钝,material/instr2_2.png,material/instr2_2.png,material/instr2_2.png,2,2,2,material/50.png,j,material/150.png,j,j,愚笨,愚笨,friend,friend,friend,2,2,2,material/50.png,,,,,,,,,,,,,,,,,0,57,57,49,,,,,,,,,,,,,,,1,0.892283916473,,,,,,,,,moral_self_bias,19,20,59.9825528349,f,001,2018_Apr_02_1643,
勇敢,material/instr2_2.png,material/instr2_2.png,material/instr2_2.png,1,1,1,material/165.png,j,material/161.png,j,j,平等,独立,friend,friend,friend,1,1,1,material/61.png,,,,,,,,,,,,,,,,,0,58,58,60,,,,,,,,,,,,,,,4,1.54229092598,,,,,,,,,moral_self_bias,19,20,59.9825528349,f,001,2018_Apr_02_1643,
高手,material/instr2_2.png,material/instr2_2.png,material/instr2_2.png,1,1,1,material/68.png,j,material/167.png,j,j,广博,广博,friend,friend,friend,2,2,2,material/68.png,,,,,,,,,,,,,,,,,0,59,59,66,,,,,,,,,,,,,,,4,1.1760571003,,,,,,,,,moral_self_bias,19,20,59.9825528349,f,001,2018_Apr_02_1643,
高效,material/instr2_1.png,material/instr2_1.png,material/instr2_1.png,1,1,1,material/169.png,f,material/171.png,f,f,颖悟,颖悟,self,self,self,2,2,2,material/169.png,,,,,,,,,,,,,,,,,0,60,60,70,,,,,,,,,,,,,,,4,0.67556810379,,,,,,,,,moral_self_bias,19,20,59.9825528349,f,001,2018_Apr_02_1643,
浅薄,material/instr2_2.png,material/instr2_2.png,material/instr2_2.png,2,2,2,material/58.png,j,material/158.png,j,j,肤浅,肤浅,friend,friend,friend,2,2,2,material/58.png,,,,,,,,,,,,,,,,,0,61,61,57,,,,,,,,,,,,,,,1,0.908796787262,,,,,,,,,moral_self_bias,19,20,59.9825528349,f,001,2018_Apr_02_1643,
刻板,material/instr2_2.png,material/instr2_2.png,material/instr2_2.png,2,2,2,material/47.png,j,material/147.png,j,j,死板,死板,friend,friend,friend,2,2,2,material/47.png,,,,,,,,,,,,,,,,,0,62,62,46,,,,,,,,,,,,,,,1,0.725354194641,,,,,,,,,moral_self_bias,19,20,59.9825528349,f,001,2018_Apr_02_1643,
自私,material/instr2_2.png,material/instr2_2.png,material/instr2_2.png,2,2,2,material/46.png,j,material/146.png,j,j,自私,小气,friend,friend,friend,1,1,1,material/146.png,,,,,,,,,,,,,,,,,0,63,63,45,,,,,,,,,,,,,,,1,0.709448814392,,,,,,,,,moral_self_bias,19,20,59.9825528349,f,001,2018_Apr_02_1643,
虚荣,material/instr2_1.png,material/instr2_1.png,material/instr2_1.png,2,2,2,material/43.png,f,material/143.png,f,f,虚荣,拜金,self,self,self,1,1,1,material/143.png,,,,,,,,,,,,,,,,,0,64,64,42,,,,,,,,,,,,,,,3,1.72514295578,,,,,,,,,moral_self_bias,19,20,59.9825528349,f,001,2018_Apr_02_1643,
超群,material/instr2_2.png,material/instr2_2.png,material/instr2_2.png,1,1,1,material/27.png,j,material/127.png,j,j,卓越,卓越,friend,friend,friend,2,2,2,material/27.png,,,,,,,,,,,,,,,,,0,65,65,26,,,,,,,,,,,,,,,4,1.45710897446,,,,,,,,,moral_self_bias,19,20,59.9825528349,f,001,2018_Apr_02_1643,
博爱,material/instr2_1.png,material/instr2_1.png,material/instr2_1.png,1,1,1,material/1.png,f,material/101.png,f,f,博爱,善良,self,self,self,1,1,1,material/101.png,,,,,,,,,,,,,,,,,0,66,66,0,,,,,,,,,,,,,,,4,0.841423988342,,,,,,,,,moral_self_bias,19,20,59.9825528349,f,001,2018_Apr_02_1643,
迷糊,material/instr2_2.png,material/instr2_2.png,material/instr2_2.png,2,2,2,material/51.png,j,material/151.png,j,j,糊涂,糊涂,friend,friend,friend,2,2,2,material/51.png,,,,,,,,,,,,,,,,,0,67,67,50,,,,,,,,,,,,,,,1,2.3041009903,,,,,,,,,moral_self_bias,19,20,59.9825528349,f,001,2018_Apr_02_1643,
忠贞,material/instr2_2.png,material/instr2_2.png,material/instr2_2.png,1,1,1,material/14.png,j,material/114.png,j,j,忠贞,爱国,friend,friend,friend,1,1,1,material/114.png,,,,,,,,,,,,,,,,,0,68,68,13,,,,,,,,,,,,,,,4,1.49218201637,,,,,,,,,moral_self_bias,19,20,59.9825528349,f,001,2018_Apr_02_1643,
坚毅,material/instr2_2.png,material/instr2_2.png,material/instr2_2.png,1,1,1,material/10.png,j,material/110.png,j,j,坚毅,顽强,friend,friend,friend,1,1,1,material/110.png,,,,,,,,,,,,,,,,,0,69,69,9,,,,,,,,,,,,,,,5,0.942140102386,,,,,,,,,moral_self_bias,19,20,59.9825528349,f,001,2018_Apr_02_1643,
撒谎,material/instr2_1.png,material/instr2_1.png,material/instr2_1.png,2,2,2,material/36.png,f,material/136.png,f,f,撒谎,说谎,self,self,self,1,1,1,material/136.png,,,,,,,,,,,,,,,,,0,70,70,35,,,,,,,,,,,,,,,1,1.1089720726,,,,,,,,,moral_self_bias,19,20,59.9825528349,f,001,2018_Apr_02_1643,
颖悟,material/instr2_2.png,material/instr2_2.png,material/instr2_2.png,1,1,1,material/167.png,j,material/169.png,j,j,高手,高手,friend,friend,friend,2,2,2,material/167.png,,,,,,,,,,,,,,,,,0,71,71,68,,,,,,,,,,,,,,,4,1.10843801498,,,,,,,,,moral_self_bias,19,20,59.9825528349,f,001,2018_Apr_02_1643,
爱心,material/instr2_1.png,material/instr2_1.png,material/instr2_1.png,1,1,1,material/2.png,f,material/102.png,f,f,爱心,善心,self,self,self,1,1,1,material/102.png,,,,,,,,,,,,,,,,,0,72,72,1,,,,,,,,,,,,,,,4,1.09201812744,,,,,,,,,moral_self_bias,19,20,59.9825528349,f,001,2018_Apr_02_1643,
敬业,material/instr2_2.png,material/instr2_2.png,material/instr2_2.png,1,1,1,material/62.png,j,material/162.png,j,j,坚韧,坚韧,friend,friend,friend,1,1,1,material/62.png,,,,,,,,,,,,,,,,,0,73,73,61,,,,,,,,,,,,,,,5,1.75887084007,,,,,,,,,moral_self_bias,19,20,59.9825528349,f,001,2018_Apr_02_1643,
友善,material/instr2_1.png,material/instr2_1.png,material/instr2_1.png,1,1,1,material/4.png,f,material/104.png,f,f,友善,友爱,self,self,self,1,1,1,material/104.png,,,,,,,,,,,,,,,,,0,74,74,3,,,,,,,,,,,,,,,5,1.82138395309,,,,,,,,,moral_self_bias,19,20,59.9825528349,f,001,2018_Apr_02_1643,
自律,material/instr2_2.png,material/instr2_2.png,material/instr2_2.png,1,1,1,material/28.png,j,material/128.png,j,j,克己,克己,friend,friend,friend,2,2,2,material/28.png,,,,,,,,,,,,,,,,,0,75,75,27,,,,,,,,,,,,,,,5,1.76660895348,,,,,,,,,moral_self_bias,19,20,59.9825528349,f,001,2018_Apr_02_1643,
贪污,material/instr2_1.png,material/instr2_1.png,material/instr2_1.png,2,2,2,material/33.png,f,material/133.png,f,f,贪污,腐败,self,self,self,1,1,1,material/133.png,,,,,,,,,,,,,,,,,0,76,76,32,,,,,,,,,,,,,,,1,1.49209904671,,,,,,,,,moral_self_bias,19,20,59.9825528349,f,001,2018_Apr_02_1643,
仁厚,material/instr2_1.png,material/instr2_1.png,material/instr2_1.png,1,1,1,material/3.png,f,material/103.png,f,f,仁厚,仁慈,self,self,self,1,1,1,material/103.png,,,,,,,,,,,,,,,,,0,77,77,2,,,,,,,,,,,,,,,4,1.32531905174,,,,,,,,,moral_self_bias,19,20,59.9825528349,f,001,2018_Apr_02_1643,
怠惰,material/instr2_2.png,material/instr2_2.png,material/instr2_2.png,2,2,2,material/181.png,j,material/180.png,j,j,怠惰,犹豫,friend,friend,friend,2,2,2,material/180.png,,,,,,,,,,,,,,,,,0,78,78,79,,,,,,,,,,,,,,,1,2.47469592094,,,,,,,,,moral_self_bias,19,20,59.9825528349,f,001,2018_Apr_02_1643,
机灵,material/instr2_2.png,material/instr2_2.png,material/instr2_2.png,1,1,1,material/19.png,j,material/119.png,j,j,灵活,灵活,friend,friend,friend,2,2,2,material/19.png,,,,,,,,,,,,,,,,,0,79,79,18,,,,,,,,,,,,,,,5,1.74262714386,,,,,,,,,moral_self_bias,19,20,59.9825528349,f,001,2018_Apr_02_1643,
可恶,material/instr2_1.png,material/instr2_1.png,material/instr2_1.png,2,2,2,material/34.png,f,material/134.png,f,f,可恶,可恨,self,self,self,1,1,1,material/134.png,,,,,,,,,,,,,,,,,0,80,80,33,,,,,,,,,,,,,,,1,0.842449188232,,,,,,,,,moral_self_bias,19,20,59.9825528349,f,001,2018_Apr_02_1643,
残忍,material/instr2_2.png,material/instr2_2.png,material/instr2_2.png,2,2,2,material/41.png,j,material/141.png,j,j,残忍,歹毒,friend,friend,friend,1,1,1,material/141.png,,,,,,,,,,,,,,,,,0,81,81,40,,,,,,,,,,,,,,,1,1.05840492249,,,,,,,,,moral_self_bias,19,20,59.9825528349,f,001,2018_Apr_02_1643,
浮夸,material/instr2_2.png,material/instr2_2.png,material/instr2_2.png,2,2,2,material/77.png,j,material/172.png,j,j,浮夸,软弱,friend,friend,friend,1,1,1,material/172.png,,,,,,,,,,,,,,,,,0,82,82,71,,,,,,,,,,,,,,,1,0.758188009262,,,,,,,,,moral_self_bias,19,20,59.9825528349,f,001,2018_Apr_02_1643,
多才,material/instr2_1.png,material/instr2_1.png,material/instr2_1.png,1,1,1,material/23.png,f,material/123.png,f,f,有才,有才,self,self,self,2,2,2,material/23.png,,,,,,,,,,,,,,,,,0,83,83,22,,,,,,,,,,,,,,,4,1.15605187416,,,,,,,,,moral_self_bias,19,20,59.9825528349,f,001,2018_Apr_02_1643,
弱智,material/instr2_1.png,material/instr2_1.png,material/instr2_1.png,2,2,2,material/59.png,f,material/159.png,f,f,智障,智障,self,self,self,2,2,2,material/59.png,,,,,,,,,,,,,,,,,0,84,84,58,,,,,,,,,,,,,,,2,1.79278182983,,,,,,,,,moral_self_bias,19,20,59.9825528349,f,001,2018_Apr_02_1643,
廉明,material/instr2_2.png,material/instr2_2.png,material/instr2_2.png,1,1,1,material/13.png,j,material/113.png,j,j,廉明,廉洁,friend,friend,friend,1,1,1,material/113.png,,,,,,,,,,,,,,,,,0,85,85,12,,,,,,,,,,,,,,,4,1.82629013062,,,,,,,,,moral_self_bias,19,20,59.9825528349,f,001,2018_Apr_02_1643,
依靠,material/instr2_1.png,material/instr2_1.png,material/instr2_1.png,2,2,2,material/54.png,f,material/154.png,f,f,依赖,依赖,self,self,self,2,2,2,material/54.png,,,,,,,,,,,,,,,,,0,86,86,53,,,,,,,,,,,,,,,4,0.958363771439,,,,,,,,,moral_self_bias,19,20,59.9825528349,f,001,2018_Apr_02_1643,
缺德,material/instr2_2.png,material/instr2_2.png,material/instr2_2.png,2,2,2,material/38.png,j,material/138.png,j,j,缺德,无德,friend,friend,friend,1,1,1,material/138.png,,,,,,,,,,,,,,,,,0,87,87,37,,,,,,,,,,,,,,,1,0.826012849808,,,,,,,,,moral_self_bias,19,20,59.9825528349,f,001,2018_Apr_02_1643,
,,,,,,,,,,,,,,,,,,,,,1+8= ?,,,,,,,,,,,,,,,,,,,,0,0,0,6,,,,,,,,,,,,,,,,,,,,,moral_self_bias,19,20,59.9825528349,f,001,2018_Apr_02_1643,
,,,,,,,,,,,,,,,,,,,,,6/2= ?,,,,,,,,,,,,,,,,,,,,0,1,1,58,,,,,,,,,,,,,,,,,,,,,moral_self_bias,19,20,59.9825528349,f,001,2018_Apr_02_1643,
,,,,,,,,,,,,,,,,,,,,,8-5= ?,,,,,,,,,,,,,,,,,,,,0,2,2,41,,,,,,,,,,,,,,,,,,,,,moral_self_bias,19,20,59.9825528349,f,001,2018_Apr_02_1643,
,,,,,,,,,,,,,,,,,,,,,6^0= ?,,,,,,,,,,,,,,,,,,,,0,3,3,114,,,,,,,,,,,,,,,,,,,,,moral_self_bias,19,20,59.9825528349,f,001,2018_Apr_02_1643,
,,,,,,,,,,,,,,,,,,,,,49/7 = ?,,,,,,,,,,,,,,,,,,,,0,4,4,78,,,,,,,,,,,,,,,,,,,,,moral_self_bias,19,20,59.9825528349,f,001,2018_Apr_02_1643,
,,,,,,,,,,,,,,,,,,,,,9-8= ?,,,,,,,,,,,,,,,,,,,,0,5,5,31,,,,,,,,,,,,,,,,,,,,,moral_self_bias,19,20,59.9825528349,f,001,2018_Apr_02_1643,
,,,,,,,,,,,,,,,,,,,,,32-23=？,,,,,,,,,,,,,,,,,,,,0,6,6,60,,,,,,,,,,,,,,,,,,,,,moral_self_bias,19,20,59.9825528349,f,001,2018_Apr_02_1643,
,,,,,,,,,,,,,,,,,,,,,7+1= ?,,,,,,,,,,,,,,,,,,,,0,7,7,46,,,,,,,,,,,,,,,,,,,,,moral_self_bias,19,20,59.9825528349,f,001,2018_Apr_02_1643,
,,,,,,,,,,,,,,,,,,,,,50-42= ?,,,,,,,,,,,,,,,,,,,,0,8,8,81,,,,,,,,,,,,,,,,,,,,,moral_self_bias,19,20,59.9825528349,f,001,2018_Apr_02_1643,
,,,,,,,,,,,,,,,,,,,,,22-22= ?,,,,,,,,,,,,,,,,,,,,0,9,9,93,,,,,,,,,,,,,,,,,,,,,moral_self_bias,19,20,59.9825528349,f,001,2018_Apr_02_1643,
,,,,,,,,,,,,,,,,,,,,,11-8= ?,,,,,,,,,,,,,,,,,,,,0,10,10,106,,,,,,,,,,,,,,,,,,,,,moral_self_bias,19,20,59.9825528349,f,001,2018_Apr_02_1643,
,,,,,,,,,,,,,,,,,,,,,2+3= ?,,,,,,,,,,,,,,,,,,,,0,11,11,9,,,,,,,,,,,,,,,,,,,,,moral_self_bias,19,20,59.9825528349,f,001,2018_Apr_02_1643,
,,,,,,,,,,,,,,,,,,,,,11-5= ?,,,,,,,,,,,,,,,,,,,,0,12,12,107,,,,,,,,,,,,,,,,,,,,,moral_self_bias,19,20,59.9825528349,f,001,2018_Apr_02_1643,
,,,,,,,,,,,,,,,,,,,,,19-17= ?,,,,,,,,,,,,,,,,,,,,0,13,13,100,,,,,,,,,,,,,,,,,,,,,moral_self_bias,19,20,59.9825528349,f,001,2018_Apr_02_1643,
,,,,,,,,,,,,,,,,,,,,,7*1= ?,,,,,,,,,,,,,,,,,,,,0,14,14,113,,,,,,,,,,,,,,,,,,,,,moral_self_bias,19,20,59.9825528349,f,001,2018_Apr_02_1643,
,,,,,,,,,,,,,,,,,,,,,3*3= ?,,,,,,,,,,,,,,,,,,,,0,15,15,54,,,,,,,,,,,,,,,,,,,,,moral_self_bias,19,20,59.9825528349,f,001,2018_Apr_02_1643,
,,,,,,,,,,,,,,,,,,,,,4*2= ?,,,,,,,,,,,,,,,,,,,,0,16,16,82,,,,,,,,,,,,,,,,,,,,,moral_self_bias,19,20,59.9825528349,f,001,2018_Apr_02_1643,
,,,,,,,,,,,,,,,,,,,,,5+2= ?,,,,,,,,,,,,,,,,,,,,0,17,17,35,,,,,,,,,,,,,,,,,,,,,moral_self_bias,19,20,59.9825528349,f,001,2018_Apr_02_1643,
,,,,,,,,,,,,,,,,,,,,,9-7= ?,,,,,,,,,,,,,,,,,,,,0,18,18,30,,,,,,,,,,,,,,,,,,,,,moral_self_bias,19,20,59.9825528349,f,001,2018_Apr_02_1643,
,,,,,,,,,,,,,,,,,,,,,9-6= ?,,,,,,,,,,,,,,,,,,,,0,19,19,24,,,,,,,,,,,,,,,,,,,,,moral_self_bias,19,20,59.9825528349,f,001,2018_Apr_02_1643,
,,,,,,,,,,,,,,,,,,,,,11-11= ?,,,,,,,,,,,,,,,,,,,,0,20,20,119,,,,,,,,,,,,,,,,,,,,,moral_self_bias,19,20,59.9825528349,f,001,2018_Apr_02_1643,
,,,,,,,,,,,,,,,,,,,,,14-9=？,,,,,,,,,,,,,,,,,,,,0,21,21,63,,,,,,,,,,,,,,,,,,,,,moral_self_bias,19,20,59.9825528349,f,001,2018_Apr_02_1643,
,,,,,,,,,,,,,,,,,,,,,5-3= ?,,,,,,,,,,,,,,,,,,,,0,22,22,116,,,,,,,,,,,,,,,,,,,,,moral_self_bias,19,20,59.9825528349,f,001,2018_Apr_02_1643,
,,,,,,,,,,,,,,,,,,,,,9-1=?,,,,,,,,,,,,,,,,,,,,0,23,23,2,,,,,,,,,,,,,,,,,,,,,moral_self_bias,19,20,59.9825528349,f,001,2018_Apr_02_1643,
,,,,,,,,,,,,,,,,,,,,,3+5= ?,,,,,,,,,,,,,,,,,,,,0,24,24,20,,,,,,,,,,,,,,,,,,,,,moral_self_bias,19,20,59.9825528349,f,001,2018_Apr_02_1643,
,,,,,,,,,,,,,,,,,,,,,5/1= ?,,,,,,,,,,,,,,,,,,,,0,25,25,59,,,,,,,,,,,,,,,,,,,,,moral_self_bias,19,20,59.9825528349,f,001,2018_Apr_02_1643,
,,,,,,,,,,,,,,,,,,,,,9+0= ?,,,,,,,,,,,,,,,,,,,,0,26,26,118,,,,,,,,,,,,,,,,,,,,,moral_self_bias,19,20,59.9825528349,f,001,2018_Apr_02_1643,
,,,,,,,,,,,,,,,,,,,,,4+4= ?,,,,,,,,,,,,,,,,,,,,0,27,27,28,,,,,,,,,,,,,,,,,,,,,moral_self_bias,19,20,59.9825528349,f,001,2018_Apr_02_1643,
,,,,,,,,,,,,,,,,,,,,,9-9= ?,,,,,,,,,,,,,,,,,,,,0,28,28,32,,,,,,,,,,,,,,,,,,,,,moral_self_bias,19,20,59.9825528349,f,001,2018_Apr_02_1643,
,,,,,,,,,,,,,,,,,,,,,6+3= ?,,,,,,,,,,,,,,,,,,,,0,29,29,45,,,,,,,,,,,,,,,,,,,,,moral_self_bias,19,20,59.9825528349,f,001,2018_Apr_02_1643,
,,,,,,,,,,,,,,,,,,,,,9-3= ?,,,,,,,,,,,,,,,,,,,,0,30,30,15,,,,,,,,,,,,,,,,,,,,,moral_self_bias,19,20,59.9825528349,f,001,2018_Apr_02_1643,
,,,,,,,,,,,,,,,,,,,,,6*0= ?,,,,,,,,,,,,,,,,,,,,0,31,31,87,,,,,,,,,,,,,,,,,,,,,moral_self_bias,19,20,59.9825528349,f,001,2018_Apr_02_1643,
,,,,,,,,,,,,,,,,,,,,,1+6= ?,,,,,,,,,,,,,,,,,,,,0,32,32,5,,,,,,,,,,,,,,,,,,,,,moral_self_bias,19,20,59.9825528349,f,001,2018_Apr_02_1643,
,,,,,,,,,,,,,,,,,,,,,7-0= ?,,,,,,,,,,,,,,,,,,,,0,33,33,117,,,,,,,,,,,,,,,,,,,,,moral_self_bias,19,20,59.9825528349,f,001,2018_Apr_02_1643,
,,,,,,,,,,,,,,,,,,,,,5*0= ?,,,,,,,,,,,,,,,,,,,,0,34,34,86,,,,,,,,,,,,,,,,,,,,,moral_self_bias,19,20,59.9825528349,f,001,2018_Apr_02_1643,
,,,,,,,,,,,,,,,,,,,,,13-6=？,,,,,,,,,,,,,,,,,,,,0,35,35,64,,,,,,,,,,,,,,,,,,,,,moral_self_bias,19,20,59.9825528349,f,001,2018_Apr_02_1643,
,,,,,,,,,,,,,,,,,,,,,10-9= ?,,,,,,,,,,,,,,,,,,,,0,36,36,112,,,,,,,,,,,,,,,,,,,,,moral_self_bias,19,20,59.9825528349,f,001,2018_Apr_02_1643,
,,,,,,,,,,,,,,,,,,,,,3+6= ?,,,,,,,,,,,,,,,,,,,,0,37,37,21,,,,,,,,,,,,,,,,,,,,,moral_self_bias,19,20,59.9825528349,f,001,2018_Apr_02_1643,
,,,,,,,,,,,,,,,,,,,,,1-1= ?,,,,,,,,,,,,,,,,,,,,0,38,38,52,,,,,,,,,,,,,,,,,,,,,moral_self_bias,19,20,59.9825528349,f,001,2018_Apr_02_1643,
,,,,,,,,,,,,,,,,,,,,,4+1= ?,,,,,,,,,,,,,,,,,,,,0,39,39,25,,,,,,,,,,,,,,,,,,,,,moral_self_bias,19,20,59.9825528349,f,001,2018_Apr_02_1643,
,,,,,,,,,,,,,,,,,,,,,3^2= ?,,,,,,,,,,,,,,,,,,,,0,40,40,50,,,,,,,,,,,,,,,,,,,,,moral_self_bias,19,20,59.9825528349,f,001,2018_Apr_02_1643,
,,,,,,,,,,,,,,,,,,,,,3*1= ?,,,,,,,,,,,,,,,,,,,,0,41,41,83,,,,,,,,,,,,,,,,,,,,,moral_self_bias,19,20,59.9825528349,f,001,2018_Apr_02_1643,
,,,,,,,,,,,,,,,,,,,,,21/7= ?,,,,,,,,,,,,,,,,,,,,0,42,42,70,,,,,,,,,,,,,,,,,,,,,moral_self_bias,19,20,59.9825528349,f,001,2018_Apr_02_1643,
,,,,,,,,,,,,,,,,,,,,,12/12= ?,,,,,,,,,,,,,,,,,,,,0,43,43,91,,,,,,,,,,,,,,,,,,,,,moral_self_bias,19,20,59.9825528349,f,001,2018_Apr_02_1643,
,,,,,,,,,,,,,,,,,,,,,22/11= ?,,,,,,,,,,,,,,,,,,,,0,44,44,71,,,,,,,,,,,,,,,,,,,,,moral_self_bias,19,20,59.9825528349,f,001,2018_Apr_02_1643,
,,,,,,,,,,,,,,,,,,,,,2+5= ?,,,,,,,,,,,,,,,,,,,,0,45,45,11,,,,,,,,,,,,,,,,,,,,,moral_self_bias,19,20,59.9825528349,f,001,2018_Apr_02_1643,
,,,,,,,,,,,,,,,,,,,,,12/4= ?,,,,,,,,,,,,,,,,,,,,0,46,46,89,,,,,,,,,,,,,,,,,,,,,moral_self_bias,19,20,59.9825528349,f,001,2018_Apr_02_1643,
,,,,,,,,,,,,,,,,,,,,,9-2= ?,,,,,,,,,,,,,,,,,,,,0,47,47,14,,,,,,,,,,,,,,,,,,,,,moral_self_bias,19,20,59.9825528349,f,001,2018_Apr_02_1643,
,,,,,,,,,,,,,,,,,,,,,12-5=？,,,,,,,,,,,,,,,,,,,,0,48,48,65,,,,,,,,,,,,,,,,,,,,,moral_self_bias,19,20,59.9825528349,f,001,2018_Apr_02_1643,
,,,,,,,,,,,,,,,,,,,,,4^1= ?,,,,,,,,,,,,,,,,,,,,0,49,49,102,,,,,,,,,,,,,,,,,,,,,moral_self_bias,19,20,59.9825528349,f,001,2018_Apr_02_1643,
,,,,,,,,,,,,,,,,,,,,,10-5=？,,,,,,,,,,,,,,,,,,,,0,50,50,67,,,,,,,,,,,,,,,,,,,,,moral_self_bias,19,20,59.9825528349,f,001,2018_Apr_02_1643,
,,,,,,,,,,,,,,,,,,,,,3+1= ?,,,,,,,,,,,,,,,,,,,,0,51,51,16,,,,,,,,,,,,,,,,,,,,,moral_self_bias,19,20,59.9825528349,f,001,2018_Apr_02_1643,
,,,,,,,,,,,,,,,,,,,,,13-5= ?,,,,,,,,,,,,,,,,,,,,0,52,52,98,,,,,,,,,,,,,,,,,,,,,moral_self_bias,19,20,59.9825528349,f,001,2018_Apr_02_1643,
,,,,,,,,,,,,,,,,,,,,,6+1= ?,,,,,,,,,,,,,,,,,,,,0,53,53,43,,,,,,,,,,,,,,,,,,,,,moral_self_bias,19,20,59.9825528349,f,001,2018_Apr_02_1643,
,,,,,,,,,,,,,,,,,,,,,2+7= ?,,,,,,,,,,,,,,,,,,,,0,54,54,13,,,,,,,,,,,,,,,,,,,,,moral_self_bias,19,20,59.9825528349,f,001,2018_Apr_02_1643,
,,,,,,,,,,,,,,,,,,,,,72/9= ?,,,,,,,,,,,,,,,,,,,,0,55,55,76,,,,,,,,,,,,,,,,,,,,,moral_self_bias,19,20,59.9825528349,f,001,2018_Apr_02_1643,
,,,,,,,,,,,,,,,,,,,,,30-29= ?,,,,,,,,,,,,,,,,,,,,0,56,56,73,,,,,,,,,,,,,,,,,,,,,moral_self_bias,19,20,59.9825528349,f,001,2018_Apr_02_1643,
,,,,,,,,,,,,,,,,,,,,,3+4= ?,,,,,,,,,,,,,,,,,,,,0,57,57,19,,,,,,,,,,,,,,,,,,,,,moral_self_bias,19,20,59.9825528349,f,001,2018_Apr_02_1643,
,,,,,,,,,,,,,,,,,,,,,2+6= ?,,,,,,,,,,,,,,,,,,,,0,58,58,12,,,,,,,,,,,,,,,,,,,,,moral_self_bias,19,20,59.9825528349,f,001,2018_Apr_02_1643,
,,,,,,,,,,,,,,,,,,,,,11-3=？,,,,,,,,,,,,,,,,,,,,0,59,59,68,,,,,,,,,,,,,,,,,,,,,moral_self_bias,19,20,59.9825528349,f,001,2018_Apr_02_1643,
,,,,,,,,,,,,,,,,,,,,,3+0= ?,,,,,,,,,,,,,,,,,,,,0,60,60,105,,,,,,,,,,,,,,,,,,,,,moral_self_bias,19,20,59.9825528349,f,001,2018_Apr_02_1643,
,,,,,,,,,,,,,,,,,,,,,13-9= ?,,,,,,,,,,,,,,,,,,,,0,61,61,92,,,,,,,,,,,,,,,,,,,,,moral_self_bias,19,20,59.9825528349,f,001,2018_Apr_02_1643,
,,,,,,,,,,,,,,,,,,,,,11-4=？,,,,,,,,,,,,,,,,,,,,0,62,62,66,,,,,,,,,,,,,,,,,,,,,moral_self_bias,19,20,59.9825528349,f,001,2018_Apr_02_1643,
,,,,,,,,,,,,,,,,,,,,,20/5=？,,,,,,,,,,,,,,,,,,,,0,63,63,69,,,,,,,,,,,,,,,,,,,,,moral_self_bias,19,20,59.9825528349,f,001,2018_Apr_02_1643,
,,,,,,,,,,,,,,,,,,,,,6^0= ?,,,,,,,,,,,,,,,,,,,,0,64,64,103,,,,,,,,,,,,,,,,,,,,,moral_self_bias,19,20,59.9825528349,f,001,2018_Apr_02_1643,
,,,,,,,,,,,,,,,,,,,,,12-7= ?,,,,,,,,,,,,,,,,,,,,0,65,65,115,,,,,,,,,,,,,,,,,,,,,moral_self_bias,19,20,59.9825528349,f,001,2018_Apr_02_1643,
,,,,,,,,,,,,,,,,,,,,,8-2= ?,,,,,,,,,,,,,,,,,,,,0,66,66,38,,,,,,,,,,,,,,,,,,,,,moral_self_bias,19,20,59.9825528349,f,001,2018_Apr_02_1643,
,,,,,,,,,,,,,,,,,,,,,17-12= ? ,,,,,,,,,,,,,,,,,,,,0,67,67,104,,,,,,,,,,,,,,,,,,,,,moral_self_bias,19,20,59.9825528349,f,001,2018_Apr_02_1643,
,,,,,,,,,,,,,,,,,,,,,16-11=？,,,,,,,,,,,,,,,,,,,,0,68,68,62,,,,,,,,,,,,,,,,,,,,,moral_self_bias,19,20,59.9825528349,f,001,2018_Apr_02_1643,
,,,,,,,,,,,,,,,,,,,,,5+1= ?,,,,,,,,,,,,,,,,,,,,0,69,69,34,,,,,,,,,,,,,,,,,,,,,moral_self_bias,19,20,59.9825528349,f,001,2018_Apr_02_1643,
,,,,,,,,,,,,,,,,,,,,,7+2= ?,,,,,,,,,,,,,,,,,,,,0,70,70,47,,,,,,,,,,,,,,,,,,,,,moral_self_bias,19,20,59.9825528349,f,001,2018_Apr_02_1643,
,,,,,,,,,,,,,,,,,,,,,9-5= ?,,,,,,,,,,,,,,,,,,,,0,71,71,23,,,,,,,,,,,,,,,,,,,,,moral_self_bias,19,20,59.9825528349,f,001,2018_Apr_02_1643,
,,,,,,,,,,,,,,,,,,,,,2*4= ?,,,,,,,,,,,,,,,,,,,,0,72,72,84,,,,,,,,,,,,,,,,,,,,,moral_self_bias,19,20,59.9825528349,f,001,2018_Apr_02_1643,
,,,,,,,,,,,,,,,,,,,,,8*1= ?,,,,,,,,,,,,,,,,,,,,0,73,73,111,,,,,,,,,,,,,,,,,,,,,moral_self_bias,19,20,59.9825528349,f,001,2018_Apr_02_1643,
,,,,,,,,,,,,,,,,,,,,,18/2= ?,,,,,,,,,,,,,,,,,,,,0,74,74,97,,,,,,,,,,,,,,,,,,,,,moral_self_bias,19,20,59.9825528349,f,001,2018_Apr_02_1643,
,,,,,,,,,,,,,,,,,,,,,90/45= ?,,,,,,,,,,,,,,,,,,,,0,75,75,74,,,,,,,,,,,,,,,,,,,,,moral_self_bias,19,20,59.9825528349,f,001,2018_Apr_02_1643,
,,,,,,,,,,,,,,,,,,,,,1*9= ?,,,,,,,,,,,,,,,,,,,,0,76,76,109,,,,,,,,,,,,,,,,,,,,,moral_self_bias,19,20,59.9825528349,f,001,2018_Apr_02_1643,
,,,,,,,,,,,,,,,,,,,,,9/3= ?,,,,,,,,,,,,,,,,,,,,0,77,77,56,,,,,,,,,,,,,,,,,,,,,moral_self_bias,19,20,59.9825528349,f,001,2018_Apr_02_1643,
,,,,,,,,,,,,,,,,,,,,,2*3= ?,,,,,,,,,,,,,,,,,,,,0,78,78,108,,,,,,,,,,,,,,,,,,,,,moral_self_bias,19,20,59.9825528349,f,001,2018_Apr_02_1643,
,,,,,,,,,,,,,,,,,,,,,1+7= ?,,,,,,,,,,,,,,,,,,,,0,79,79,4,,,,,,,,,,,,,,,,,,,,,moral_self_bias,19,20,59.9825528349,f,001,2018_Apr_02_1643,
,,,,,,,,,,,,,,,,,,,,,8-1= ?,,,,,,,,,,,,,,,,,,,,0,80,80,33,,,,,,,,,,,,,,,,,,,,,moral_self_bias,19,20,59.9825528349,f,001,2018_Apr_02_1643,
,,,,,,,,,,,,,,,,,,,,,1+2= ?,,,,,,,,,,,,,,,,,,,,0,81,81,1,,,,,,,,,,,,,,,,,,,,,moral_self_bias,19,20,59.9825528349,f,001,2018_Apr_02_1643,
,,,,,,,,,,,,,,,,,,,,,1^2= ?,,,,,,,,,,,,,,,,,,,,0,82,82,51,,,,,,,,,,,,,,,,,,,,,moral_self_bias,19,20,59.9825528349,f,001,2018_Apr_02_1643,
,,,,,,,,,,,,,,,,,,,,,9-4= ?,,,,,,,,,,,,,,,,,,,,0,83,83,22,,,,,,,,,,,,,,,,,,,,,moral_self_bias,19,20,59.9825528349,f,001,2018_Apr_02_1643,
,,,,,,,,,,,,,,,,,,,,,12-12= ?,,,,,,,,,,,,,,,,,,,,0,84,84,99,,,,,,,,,,,,,,,,,,,,,moral_self_bias,19,20,59.9825528349,f,001,2018_Apr_02_1643,
,,,,,,,,,,,,,,,,,,,,,2+1= ?,,,,,,,,,,,,,,,,,,,,0,85,85,7,,,,,,,,,,,,,,,,,,,,,moral_self_bias,19,20,59.9825528349,f,001,2018_Apr_02_1643,
,,,,,,,,,,,,,,,,,,,,,1+9= ?,,,,,,,,,,,,,,,,,,,,0,86,86,3,,,,,,,,,,,,,,,,,,,,,moral_self_bias,19,20,59.9825528349,f,001,2018_Apr_02_1643,
,,,,,,,,,,,,,,,,,,,,,4+5= ?,,,,,,,,,,,,,,,,,,,,0,87,87,29,,,,,,,,,,,,,,,,,,,,,moral_self_bias,19,20,59.9825528349,f,001,2018_Apr_02_1643,
,,,,,,,,,,,,,,,,,,,,,8-3= ?,,,,,,,,,,,,,,,,,,,,0,88,88,39,,,,,,,,,,,,,,,,,,,,,moral_self_bias,19,20,59.9825528349,f,001,2018_Apr_02_1643,
,,,,,,,,,,,,,,,,,,,,,8-4= ?,,,,,,,,,,,,,,,,,,,,0,89,89,40,,,,,,,,,,,,,,,,,,,,,moral_self_bias,19,20,59.9825528349,f,001,2018_Apr_02_1643,
,,,,,,,,,,,,,,,,,,,,,1*8= ?,,,,,,,,,,,,,,,,,,,,0,90,90,110,,,,,,,,,,,,,,,,,,,,,moral_self_bias,19,20,59.9825528349,f,001,2018_Apr_02_1643,
,,,,,,,,,,,,,,,,,,,,,2+2= ?,,,,,,,,,,,,,,,,,,,,0,91,91,8,,,,,,,,,,,,,,,,,,,,,moral_self_bias,19,20,59.9825528349,f,001,2018_Apr_02_1643,
,,,,,,,,,,,,,,,,,,,,,4+2= ?,,,,,,,,,,,,,,,,,,,,0,92,92,26,,,,,,,,,,,,,,,,,,,,,moral_self_bias,19,20,59.9825528349,f,001,2018_Apr_02_1643,
,,,,,,,,,,,,,,,,,,,,,56/7= ?,,,,,,,,,,,,,,,,,,,,0,93,93,77,,,,,,,,,,,,,,,,,,,,,moral_self_bias,19,20,59.9825528349,f,001,2018_Apr_02_1643,
,,,,,,,,,,,,,,,,,,,,,8/4= ?,,,,,,,,,,,,,,,,,,,,0,94,94,57,,,,,,,,,,,,,,,,,,,,,moral_self_bias,19,20,59.9825528349,f,001,2018_Apr_02_1643,
,,,,,,,,,,,,,,,,,,,,,4*1= ?,,,,,,,,,,,,,,,,,,,,0,95,95,85,,,,,,,,,,,,,,,,,,,,,moral_self_bias,19,20,59.9825528349,f,001,2018_Apr_02_1643,
,,,,,,,,,,,,,,,,,,,,,4/4= ?,,,,,,,,,,,,,,,,,,,,0,96,96,55,,,,,,,,,,,,,,,,,,,,,moral_self_bias,19,20,59.9825528349,f,001,2018_Apr_02_1643,
,,,,,,,,,,,,,,,,,,,,,23^0= ?,,,,,,,,,,,,,,,,,,,,0,97,97,94,,,,,,,,,,,,,,,,,,,,,moral_self_bias,19,20,59.9825528349,f,001,2018_Apr_02_1643,
,,,,,,,,,,,,,,,,,,,,,8-6= ?,,,,,,,,,,,,,,,,,,,,0,98,98,42,,,,,,,,,,,,,,,,,,,,,moral_self_bias,19,20,59.9825528349,f,001,2018_Apr_02_1643,
,,,,,,,,,,,,,,,,,,,,,5+4= ?,,,,,,,,,,,,,,,,,,,,0,99,99,37,,,,,,,,,,,,,,,,,,,,,moral_self_bias,19,20,59.9825528349,f,001,2018_Apr_02_1643,
,,,,,,,,,,,,,,,,,,,,,3^1= ?,,,,,,,,,,,,,,,,,,,,0,100,100,101,,,,,,,,,,,,,,,,,,,,,moral_self_bias,19,20,59.9825528349,f,001,2018_Apr_02_1643,
,,,,,,,,,,,,,,,,,,,,,43-34= ?,,,,,,,,,,,,,,,,,,,,0,101,101,79,,,,,,,,,,,,,,,,,,,,,moral_self_bias,19,20,59.9825528349,f,001,2018_Apr_02_1643,
,,,,,,,,,,,,,,,,,,,,,29-27= ?,,,,,,,,,,,,,,,,,,,,0,102,102,72,,,,,,,,,,,,,,,,,,,,,moral_self_bias,19,20,59.9825528349,f,001,2018_Apr_02_1643,
,,,,,,,,,,,,,,,,,,,,,8+1= ?,,,,,,,,,,,,,,,,,,,,0,103,103,48,,,,,,,,,,,,,,,,,,,,,moral_self_bias,19,20,59.9825528349,f,001,2018_Apr_02_1643,
,,,,,,,,,,,,,,,,,,,,,21/3= ? ,,,,,,,,,,,,,,,,,,,,0,104,104,95,,,,,,,,,,,,,,,,,,,,,moral_self_bias,19,20,59.9825528349,f,001,2018_Apr_02_1643,
,,,,,,,,,,,,,,,,,,,,,1+1= ?,,,,,,,,,,,,,,,,,,,,0,105,105,0,,,,,,,,,,,,,,,,,,,,,moral_self_bias,19,20,59.9825528349,f,001,2018_Apr_02_1643,
,,,,,,,,,,,,,,,,,,,,,2^2= ?,,,,,,,,,,,,,,,,,,,,0,106,106,49,,,,,,,,,,,,,,,,,,,,,moral_self_bias,19,20,59.9825528349,f,001,2018_Apr_02_1643,
,,,,,,,,,,,,,,,,,,,,,7*0= ?,,,,,,,,,,,,,,,,,,,,0,107,107,88,,,,,,,,,,,,,,,,,,,,,moral_self_bias,19,20,59.9825528349,f,001,2018_Apr_02_1643,
,,,,,,,,,,,,,,,,,,,,,2+4= ?,,,,,,,,,,,,,,,,,,,,0,108,108,10,,,,,,,,,,,,,,,,,,,,,moral_self_bias,19,20,59.9825528349,f,001,2018_Apr_02_1643,
,,,,,,,,,,,,,,,,,,,,,3+2= ?,,,,,,,,,,,,,,,,,,,,0,109,109,17,,,,,,,,,,,,,,,,,,,,,moral_self_bias,19,20,59.9825528349,f,001,2018_Apr_02_1643,
,,,,,,,,,,,,,,,,,,,,,32-32= ?,,,,,,,,,,,,,,,,,,,,0,110,110,80,,,,,,,,,,,,,,,,,,,,,moral_self_bias,19,20,59.9825528349,f,001,2018_Apr_02_1643,
,,,,,,,,,,,,,,,,,,,,,81/9= ?,,,,,,,,,,,,,,,,,,,,0,111,111,75,,,,,,,,,,,,,,,,,,,,,moral_self_bias,19,20,59.9825528349,f,001,2018_Apr_02_1643,
,,,,,,,,,,,,,,,,,,,,,5+3= ?,,,,,,,,,,,,,,,,,,,,0,112,112,36,,,,,,,,,,,,,,,,,,,,,moral_self_bias,19,20,59.9825528349,f,001,2018_Apr_02_1643,
,,,,,,,,,,,,,,,,,,,,,12/6= ?,,,,,,,,,,,,,,,,,,,,0,113,113,90,,,,,,,,,,,,,,,,,,,,,moral_self_bias,19,20,59.9825528349,f,001,2018_Apr_02_1643,
,,,,,,,,,,,,,,,,,,,,,6+2= ?,,,,,,,,,,,,,,,,,,,,0,114,114,44,,,,,,,,,,,,,,,,,,,,,moral_self_bias,19,20,59.9825528349,f,001,2018_Apr_02_1643,
,,,,,,,,,,,,,,,,,,,,,3*2= ?,,,,,,,,,,,,,,,,,,,,0,115,115,53,,,,,,,,,,,,,,,,,,,,,moral_self_bias,19,20,59.9825528349,f,001,2018_Apr_02_1643,
,,,,,,,,,,,,,,,,,,,,,15-10=？,,,,,,,,,,,,,,,,,,,,0,116,116,61,,,,,,,,,,,,,,,,,,,,,moral_self_bias,19,20,59.9825528349,f,001,2018_Apr_02_1643,
,,,,,,,,,,,,,,,,,,,,,18/9= ?,,,,,,,,,,,,,,,,,,,,0,117,117,96,,,,,,,,,,,,,,,,,,,,,moral_self_bias,19,20,59.9825528349,f,001,2018_Apr_02_1643,
,,,,,,,,,,,,,,,,,,,,,3+3= ?,,,,,,,,,,,,,,,,,,,,0,118,118,18,,,,,,,,,,,,,,,,,,,,,moral_self_bias,19,20,59.9825528349,f,001,2018_Apr_02_1643,
,,,,,,,,,,,,,,,,,,,,,4+3= ?,,,,,,,,,,,,,,,,,,,,0,119,119,27,,,,,,,,,,,,,,,,,,,,,moral_self_bias,19,20,59.9825528349,f,001,2018_Apr_02_1643,
,,,,,,,,,,,,,,,,,,,,,,,,,,,,,,,,,,,,,,,,,,,,,,,,,,,,,,,,,1,4.16036891937,,,,,,,moral_self_bias,19,20,59.9825528349,f,001,2018_Apr_02_1643,
,,,,,,,,,,,,,,,,,,,,,,material/4.png,1,友善,material/104.png,1,material/104.png,友善,1,f,f,f,1,1,1,友爱,,,,,,,,,0,0,0,83,0,0,0,0,,,,,,,f,1,5.03353595734,f,0,5.17433094978,moral_self_bias,19,20,59.9825528349,f,001,2018_Apr_02_1643,
,,,,,,,,,,,,,,,,,,,,,,material/4.png,1,友善,material/104.png,1,material/104.png,友善,1,f,f,f,1,1,1,友爱,,,,,,,,,0,0,0,83,,,,,,,,,,,,,,,,,moral_self_bias,19,20,59.9825528349,f,001,2018_Apr_02_1643,
,,,,,,,,,,,,,,,,,,,,,,material/56.png,2,愚昧,material/156.png,2,material/56.png,愚钝,2,f,f,f,2,2,2,愚昧,,,,,,,,,0,1,1,135,0,0,0,0,,,,,,,f,1,1.52420186996,j,1,1.6917719841,moral_self_bias,19,20,59.9825528349,f,001,2018_Apr_02_1643,
,,,,,,,,,,,,,,,,,,,,,,material/56.png,2,愚昧,material/156.png,2,material/56.png,愚钝,2,f,f,f,2,2,2,愚昧,,,,,,,,,0,1,1,135,,,,,,,,,,,,,,,,,moral_self_bias,19,20,59.9825528349,f,001,2018_Apr_02_1643,
,,,,,,,,,,,,,,,,,,,,,,material/68.png,1,广博,material/167.png,1,material/68.png,高手,1,f,f,f,2,2,2,广博,,,,,,,,,0,2,2,146,0,0,0,0,,,,,,,f,1,2.52494096756,j,1,1.49079108238,moral_self_bias,19,20,59.9825528349,f,001,2018_Apr_02_1643,
,,,,,,,,,,,,,,,,,,,,,,material/68.png,1,广博,material/167.png,1,material/68.png,高手,1,f,f,f,2,2,2,广博,,,,,,,,,0,2,2,146,,,,,,,,,,,,,,,,,moral_self_bias,19,20,59.9825528349,f,001,2018_Apr_02_1643,
,,,,,,,,,,,,,,,,,,,,,,material/182.png,2,健忘,material/184.png,2,material/80.png,厌学,2,f,f,f,2,2,2,才尽,,,,,,,,,0,3,3,163,0,0,0,0,,,,,,,f,1,3.0245308876,f,0,2.20787119865,moral_self_bias,19,20,59.9825528349,f,001,2018_Apr_02_1643,
,,,,,,,,,,,,,,,,,,,,,,material/182.png,2,健忘,material/184.png,2,material/80.png,厌学,2,f,f,f,2,2,2,才尽,,,,,,,,,0,3,3,163,,,,,,,,,,,,,,,,,moral_self_bias,19,20,59.9825528349,f,001,2018_Apr_02_1643,
,,,,,,,,,,,,,,,,,,,,,,material/43.png,2,虚荣,material/143.png,2,material/143.png,虚荣,2,f,f,f,1,1,1,拜金,,,,,,,,,0,4,4,122,0,0,0,0,,,,,,,f,1,2.10041093826,f,0,0.841330051422,moral_self_bias,19,20,59.9825528349,f,001,2018_Apr_02_1643,
,,,,,,,,,,,,,,,,,,,,,,material/43.png,2,虚荣,material/143.png,2,material/143.png,虚荣,2,f,f,f,1,1,1,拜金,,,,,,,,,0,4,4,122,,,,,,,,,,,,,,,,,moral_self_bias,19,20,59.9825528349,f,001,2018_Apr_02_1643,
,,,,,,,,,,,,,,,,,,,,,,material/15.png,1,纯洁,material/115.png,1,material/115.png,纯洁,1,f,f,f,1,1,1,清白,,,,,,,,,0,5,5,94,0,0,0,0,,,,,,,f,1,2.60776805878,j,1,0.758361101151,moral_self_bias,19,20,59.9825528349,f,001,2018_Apr_02_1643,
,,,,,,,,,,,,,,,,,,,,,,material/15.png,1,纯洁,material/115.png,1,material/115.png,纯洁,1,f,f,f,1,1,1,清白,,,,,,,,,0,5,5,94,,,,,,,,,,,,,,,,,moral_self_bias,19,20,59.9825528349,f,001,2018_Apr_02_1643,
,,,,,,,,,,,,,,,,,,,,,,material/12.png,1,忠心,material/112.png,1,material/112.png,忠心,1,f,f,f,1,1,1,忠诚,,,,,,,,,0,6,6,91,0,0,0,0,,,,,,,f,1,3.43754196167,j,1,1.99101901054,moral_self_bias,19,20,59.9825528349,f,001,2018_Apr_02_1643,
,,,,,,,,,,,,,,,,,,,,,,material/12.png,1,忠心,material/112.png,1,material/112.png,忠心,1,f,f,f,1,1,1,忠诚,,,,,,,,,0,6,6,91,,,,,,,,,,,,,,,,,moral_self_bias,19,20,59.9825528349,f,001,2018_Apr_02_1643,
,,,,,,,,,,,,,,,,,,,,,,material/109.png,1,秉直,material/9.png,1,material/9.png,秉直,1,j,j,j,1,1,1,正直,,,,,,,,,0,7,7,8,0,0,0,0,,,,,,,f,0,1.74121403694,j,1,1.42295908928,moral_self_bias,19,20,59.9825528349,f,001,2018_Apr_02_1643,
,,,,,,,,,,,,,,,,,,,,,,material/109.png,1,秉直,material/9.png,1,material/9.png,秉直,1,j,j,j,1,1,1,正直,,,,,,,,,0,7,7,8,,,,,,,,,,,,,,,,,moral_self_bias,19,20,59.9825528349,f,001,2018_Apr_02_1643,
,,,,,,,,,,,,,,,,,,,,,,material/31.png,1,笃学,material/131.png,1,material/31.png,笃行,1,f,f,f,2,2,2,笃学,,,,,,,,,0,8,8,110,0,0,0,0,,,,,,,f,1,2.49119496346,f,0,1.84148812294,moral_self_bias,19,20,59.9825528349,f,001,2018_Apr_02_1643,
,,,,,,,,,,,,,,,,,,,,,,material/31.png,1,笃学,material/131.png,1,material/31.png,笃行,1,f,f,f,2,2,2,笃学,,,,,,,,,0,8,8,110,,,,,,,,,,,,,,,,,moral_self_bias,19,20,59.9825528349,f,001,2018_Apr_02_1643,
,,,,,,,,,,,,,,,,,,,,,,material/108.png,1,公道,material/8.png,1,material/8.png,公道,1,j,j,j,1,1,1,无私,,,,,,,,,0,9,9,7,0,0,0,0,,,,,,,f,0,1.89117884636,j,1,0.759083032608,moral_self_bias,19,20,59.9825528349,f,001,2018_Apr_02_1643,
,,,,,,,,,,,,,,,,,,,,,,material/108.png,1,公道,material/8.png,1,material/8.png,公道,1,j,j,j,1,1,1,无私,,,,,,,,,0,9,9,7,,,,,,,,,,,,,,,,,moral_self_bias,19,20,59.9825528349,f,001,2018_Apr_02_1643,
,,,,,,,,,,,,,,,,,,,,,,material/47.png,2,死板,material/147.png,2,material/47.png,刻板,2,f,f,f,2,2,2,死板,,,,,,,,,0,10,10,126,0,0,0,0,,,,,,,f,1,2.82489681244,j,1,0.41677904129,moral_self_bias,19,20,59.9825528349,f,001,2018_Apr_02_1643,
,,,,,,,,,,,,,,,,,,,,,,material/47.png,2,死板,material/147.png,2,material/47.png,刻板,2,f,f,f,2,2,2,死板,,,,,,,,,0,10,10,126,,,,,,,,,,,,,,,,,moral_self_bias,19,20,59.9825528349,f,001,2018_Apr_02_1643,
,,,,,,,,,,,,,,,,,,,,,,material/62.png,1,坚韧,material/162.png,1,material/62.png,敬业,1,f,f,f,1,1,1,坚韧,,,,,,,,,0,11,11,141,0,0,0,0,,,,,,,f,1,2.10805392265,j,1,0.358928918839,moral_self_bias,19,20,59.9825528349,f,001,2018_Apr_02_1643,
,,,,,,,,,,,,,,,,,,,,,,material/62.png,1,坚韧,material/162.png,1,material/62.png,敬业,1,f,f,f,1,1,1,坚韧,,,,,,,,,0,11,11,141,,,,,,,,,,,,,,,,,moral_self_bias,19,20,59.9825528349,f,001,2018_Apr_02_1643,
,,,,,,,,,,,,,,,,,,,,,,material/102.png,1,善心,material/2.png,1,material/2.png,善心,1,j,j,j,1,1,1,爱心,,,,,,,,,0,12,12,1,0,0,0,0,,,,,,,f,0,2.70766186714,f,0,0.256747961044,moral_self_bias,19,20,59.9825528349,f,001,2018_Apr_02_1643,
,,,,,,,,,,,,,,,,,,,,,,material/102.png,1,善心,material/2.png,1,material/2.png,善心,1,j,j,j,1,1,1,爱心,,,,,,,,,0,12,12,1,,,,,,,,,,,,,,,,,moral_self_bias,19,20,59.9825528349,f,001,2018_Apr_02_1643,
,,,,,,,,,,,,,,,,,,,,,,material/111.png,1,高雅,material/11.png,1,material/11.png,高雅,1,j,j,j,1,1,1,高尚,,,,,,,,,0,13,13,10,,,,,,,,,,,j,1,3.14072299004,,,,moral_self_bias,19,20,59.9825528349,f,001,2018_Apr_02_1643,
,,,,,,,,,,,,,,,,,,,,,,material/28.png,1,克己,material/128.png,1,material/28.png,自律,1,f,f,f,2,2,2,克己,,,,,,,,,0,14,14,107,0,0,0,0,,,,,,,f,1,1.67450284958,j,1,1.49056887627,moral_self_bias,19,20,59.9825528349,f,001,2018_Apr_02_1643,
,,,,,,,,,,,,,,,,,,,,,,material/28.png,1,克己,material/128.png,1,material/28.png,自律,1,f,f,f,2,2,2,克己,,,,,,,,,0,14,14,107,,,,,,,,,,,,,,,,,moral_self_bias,19,20,59.9825528349,f,001,2018_Apr_02_1643,
,,,,,,,,,,,,,,,,,,,,,,material/139.png,2,凶残,material/39.png,2,material/39.png,凶残,2,j,j,j,1,1,1,恶毒,,,,,,,,,0,15,15,38,,,,,,,,,,,j,1,5.61713409424,,,,moral_self_bias,19,20,59.9825528349,f,001,2018_Apr_02_1643,
,,,,,,,,,,,,,,,,,,,,,,material/144.png,2,失信,material/44.png,2,material/44.png,失信,2,j,j,j,1,1,1,爽约,,,,,,,,,0,16,16,43,0,0,0,0,,,,,,,f,0,6.74230408669,j,1,0.507030010223,moral_self_bias,19,20,59.9825528349,f,001,2018_Apr_02_1643,
,,,,,,,,,,,,,,,,,,,,,,material/144.png,2,失信,material/44.png,2,material/44.png,失信,2,j,j,j,1,1,1,爽约,,,,,,,,,0,16,16,43,,,,,,,,,,,,,,,,,moral_self_bias,19,20,59.9825528349,f,001,2018_Apr_02_1643,
,,,,,,,,,,,,,,,,,,,,,,material/107.png,1,公正,material/7.png,1,material/7.png,公正,1,j,j,j,1,1,1,公平,,,,,,,,,0,17,17,6,0,0,0,0,,,,,,,f,0,3.37494587898,j,1,0.717035055161,moral_self_bias,19,20,59.9825528349,f,001,2018_Apr_02_1643,
,,,,,,,,,,,,,,,,,,,,,,material/107.png,1,公正,material/7.png,1,material/7.png,公正,1,j,j,j,1,1,1,公平,,,,,,,,,0,17,17,6,,,,,,,,,,,,,,,,,moral_self_bias,19,20,59.9825528349,f,001,2018_Apr_02_1643,
,,,,,,,,,,,,,,,,,,,,,,material/30.png,1,上进,material/130.png,1,material/30.png,进取,1,f,f,f,2,2,2,上进,,,,,,,,,0,18,18,109,0,0,0,0,,,,,,,f,1,1.37509799004,j,1,0.738908052444,moral_self_bias,19,20,59.9825528349,f,001,2018_Apr_02_1643,
,,,,,,,,,,,,,,,,,,,,,,material/30.png,1,上进,material/130.png,1,material/30.png,进取,1,f,f,f,2,2,2,上进,,,,,,,,,0,18,18,109,,,,,,,,,,,,,,,,,moral_self_bias,19,20,59.9825528349,f,001,2018_Apr_02_1643,
,,,,,,,,,,,,,,,,,,,,,,material/147.png,2,刻板,material/47.png,2,material/147.png,死板,2,j,j,j,2,2,2,刻板,,,,,,,,,0,19,19,46,0,0,0,0,,,,,,,f,0,1.26674413681,j,1,0.357778787613,moral_self_bias,19,20,59.9825528349,f,001,2018_Apr_02_1643,
,,,,,,,,,,,,,,,,,,,,,,material/147.png,2,刻板,material/47.png,2,material/147.png,死板,2,j,j,j,2,2,2,刻板,,,,,,,,,0,19,19,46,,,,,,,,,,,,,,,,,moral_self_bias,19,20,59.9825528349,f,001,2018_Apr_02_1643,
,,,,,,,,,,,,,,,,,,,,,,material/154.png,2,依靠,material/54.png,2,material/154.png,依赖,2,j,j,j,2,2,2,依靠,,,,,,,,,0,20,20,53,0,0,0,0,,,,,,,f,0,2.32451605797,f,0,0.374295949936,moral_self_bias,19,20,59.9825528349,f,001,2018_Apr_02_1643,
,,,,,,,,,,,,,,,,,,,,,,material/154.png,2,依靠,material/54.png,2,material/154.png,依赖,2,j,j,j,2,2,2,依靠,,,,,,,,,0,20,20,53,,,,,,,,,,,,,,,,,moral_self_bias,19,20,59.9825528349,f,001,2018_Apr_02_1643,
,,,,,,,,,,,,,,,,,,,,,,material/175.png,2,残虐,material/73.png,2,material/73.png,残虐,2,f,f,f,1,1,1,无情,,,,,,,,,0,21,21,165,,,,,,,,,,,j,0,1.85911798477,,,,moral_self_bias,19,20,59.9825528349,f,001,2018_Apr_02_1643,
,,,,,,,,,,,,,,,,,,,,,,material/164.png,1,宽容,material/63.png,1,material/163.png,文明,1,j,j,j,1,1,1,孝顺,,,,,,,,,0,22,22,62,,,,,,,,,,,j,1,1.30824398994,,,,moral_self_bias,19,20,59.9825528349,f,001,2018_Apr_02_1643,
,,,,,,,,,,,,,,,,,,,,,,material/142.png,2,阴险,material/42.png,2,material/42.png,阴险,2,j,j,j,1,1,1,奸诈,,,,,,,,,0,23,23,41,,,,,,,,,,,j,1,2.84945416451,,,,moral_self_bias,19,20,59.9825528349,f,001,2018_Apr_02_1643,
,,,,,,,,,,,,,,,,,,,,,,material/75.png,2,卑劣,material/74.png,2,material/74.png,卑劣,2,j,j,j,1,1,1,害人,,,,,,,,,0,24,24,70,,,,,,,,,,,j,1,1.55878400803,,,,moral_self_bias,19,20,59.9825528349,f,001,2018_Apr_02_1643,
,,,,,,,,,,,,,,,,,,,,,,material/184.png,2,草率,material/80.png,2,material/78.png,健忘,2,j,j,j,2,2,2,厌学,,,,,,,,,0,25,25,76,,,,,,,,,,,j,1,1.47357583046,,,,moral_self_bias,19,20,59.9825528349,f,001,2018_Apr_02_1643,
,,,,,,,,,,,,,,,,,,,,,,material/174.png,2,虚伪,material/76.png,2,material/76.png,虚伪,2,j,j,j,1,1,1,不义,,,,,,,,,0,26,26,72,,,,,,,,,,,j,1,1.70791006088,,,,moral_self_bias,19,20,59.9825528349,f,001,2018_Apr_02_1643,
,,,,,,,,,,,,,,,,,,,,,,material/17.png,1,聪明,material/117.png,1,material/17.png,聪颖,1,f,f,f,2,2,2,聪明,,,,,,,,,0,27,27,96,0,0,0,0,,,,,,,f,1,1.46616697311,j,1,3.20738506317,moral_self_bias,19,20,59.9825528349,f,001,2018_Apr_02_1643,
,,,,,,,,,,,,,,,,,,,,,,material/17.png,1,聪明,material/117.png,1,material/17.png,聪颖,1,f,f,f,2,2,2,聪明,,,,,,,,,0,27,27,96,,,,,,,,,,,,,,,,,moral_self_bias,19,20,59.9825528349,f,001,2018_Apr_02_1643,
,,,,,,,,,,,,,,,,,,,,,,material/113.png,1,廉洁,material/13.png,1,material/13.png,廉洁,1,j,j,j,1,1,1,廉明,,,,,,,,,0,28,28,12,,,,,,,,,,,j,1,2.69142603874,,,,moral_self_bias,19,20,59.9825528349,f,001,2018_Apr_02_1643,
,,,,,,,,,,,,,,,,,,,,,,material/183.png,2,颓废,material/182.png,2,material/79.png,才尽,2,f,f,f,2,2,2,薄弱,,,,,,,,,0,29,29,161,0,0,0,0,,,,,,,f,1,4.37563204765,f,0,1.07501196861,moral_self_bias,19,20,59.9825528349,f,001,2018_Apr_02_1643,
,,,,,,,,,,,,,,,,,,,,,,material/183.png,2,颓废,material/182.png,2,material/79.png,才尽,2,f,f,f,2,2,2,薄弱,,,,,,,,,0,29,29,161,,,,,,,,,,,,,,,,,moral_self_bias,19,20,59.9825528349,f,001,2018_Apr_02_1643,
,,,,,,,,,,,,,,,,,,,,,,material/130.png,1,进取,material/30.png,1,material/130.png,上进,1,j,j,j,2,2,2,进取,,,,,,,,,0,30,30,29,0,0,0,0,,,,,,,f,0,2.92372608185,j,1,1.12521004677,moral_self_bias,19,20,59.9825528349,f,001,2018_Apr_02_1643,
,,,,,,,,,,,,,,,,,,,,,,material/130.png,1,进取,material/30.png,1,material/130.png,上进,1,j,j,j,2,2,2,进取,,,,,,,,,0,30,30,29,,,,,,,,,,,,,,,,,moral_self_bias,19,20,59.9825528349,f,001,2018_Apr_02_1643,
,,,,,,,,,,,,,,,,,,,,,,material/34.png,2,可恶,material/134.png,2,material/134.png,可恶,2,f,f,f,1,1,1,可恨,,,,,,,,,0,31,31,113,,,,,,,,,,,j,0,3.32440209389,,,,moral_self_bias,19,20,59.9825528349,f,001,2018_Apr_02_1643,
,,,,,,,,,,,,,,,,,,,,,,material/138.png,2,无德,material/38.png,2,material/38.png,无德,2,j,j,j,1,1,1,缺德,,,,,,,,,0,32,32,37,,,,,,,,,,,j,1,1.1080930233,,,,moral_self_bias,19,20,59.9825528349,f,001,2018_Apr_02_1643,
,,,,,,,,,,,,,,,,,,,,,,material/161.png,1,奉献,material/164.png,1,material/64.png,孝顺,1,f,f,f,1,1,1,勇敢,,,,,,,,,0,33,33,143,0,0,0,0,,,,,,,f,1,1.84165000916,f,0,0.691671848297,moral_self_bias,19,20,59.9825528349,f,001,2018_Apr_02_1643,
,,,,,,,,,,,,,,,,,,,,,,material/161.png,1,奉献,material/164.png,1,material/64.png,孝顺,1,f,f,f,1,1,1,勇敢,,,,,,,,,0,33,33,143,,,,,,,,,,,,,,,,,moral_self_bias,19,20,59.9825528349,f,001,2018_Apr_02_1643,
,,,,,,,,,,,,,,,,,,,,,,material/129.png,1,好问,material/29.png,1,material/129.png,好学,1,j,j,j,2,2,2,好问,,,,,,,,,0,34,34,28,,,,,,,,,,,j,1,3.32488512993,,,,moral_self_bias,19,20,59.9825528349,f,001,2018_Apr_02_1643,
,,,,,,,,,,,,,,,,,,,,,,material/5.png,1,诚信,material/105.png,1,material/105.png,诚信,1,f,f,f,1,1,1,守信,,,,,,,,,0,35,35,84,0,0,0,0,,,,,,,f,1,2.42463684082,j,1,8.09238219261,moral_self_bias,19,20,59.9825528349,f,001,2018_Apr_02_1643,
,,,,,,,,,,,,,,,,,,,,,,material/5.png,1,诚信,material/105.png,1,material/105.png,诚信,1,f,f,f,1,1,1,守信,,,,,,,,,0,35,35,84,,,,,,,,,,,,,,,,,moral_self_bias,19,20,59.9825528349,f,001,2018_Apr_02_1643,
,,,,,,,,,,,,,,,,,,,,,,material/120.png,1,能干,material/20.png,1,material/120.png,厉害,1,j,j,j,2,2,2,能干,,,,,,,,,0,36,36,19,,,,,,,,,,,j,1,1.50880789757,,,,moral_self_bias,19,20,59.9825528349,f,001,2018_Apr_02_1643,
,,,,,,,,,,,,,,,,,,,,,,material/157.png,2,无能,material/57.png,2,material/157.png,无知,2,j,j,j,2,2,2,无能,,,,,,,,,0,37,37,56,,,,,,,,,,,j,1,1.0245552063,,,,moral_self_bias,19,20,59.9825528349,f,001,2018_Apr_02_1643,
,,,,,,,,,,,,,,,,,,,,,,material/36.png,2,撒谎,material/136.png,2,material/136.png,撒谎,2,f,f,f,1,1,1,说谎,,,,,,,,,0,38,38,115,0,0,0,0,,,,,,,f,1,2.7082490921,f,0,0.224542140961,moral_self_bias,19,20,59.9825528349,f,001,2018_Apr_02_1643,
,,,,,,,,,,,,,,,,,,,,,,material/36.png,2,撒谎,material/136.png,2,material/136.png,撒谎,2,f,f,f,1,1,1,说谎,,,,,,,,,0,38,38,115,,,,,,,,,,,,,,,,,moral_self_bias,19,20,59.9825528349,f,001,2018_Apr_02_1643,
,,,,,,,,,,,,,,,,,,,,,,material/128.png,1,自律,material/28.png,1,material/128.png,克己,1,j,j,j,2,2,2,自律,,,,,,,,,0,39,39,27,,,,,,,,,,,j,1,0.791653156281,,,,moral_self_bias,19,20,59.9825528349,f,001,2018_Apr_02_1643,
,,,,,,,,,,,,,,,,,,,,,,material/163.png,1,文明,material/163.png,1,material/63.png,宽容,1,f,f,f,1,1,1,宽容,,,,,,,,,0,40,40,142,0,0,0,0,,,,,,,f,1,1.54167103767,j,1,0.301033973694,moral_self_bias,19,20,59.9825528349,f,001,2018_Apr_02_1643,
,,,,,,,,,,,,,,,,,,,,,,material/163.png,1,文明,material/163.png,1,material/63.png,宽容,1,f,f,f,1,1,1,宽容,,,,,,,,,0,40,40,142,,,,,,,,,,,,,,,,,moral_self_bias,19,20,59.9825528349,f,001,2018_Apr_02_1643,
,,,,,,,,,,,,,,,,,,,,,,material/45.png,2,小人,material/145.png,2,material/145.png,小人,2,f,f,f,1,1,1,下流,,,,,,,,,0,41,41,124,,,,,,,,,,,j,0,1.40765094757,,,,moral_self_bias,19,20,59.9825528349,f,001,2018_Apr_02_1643,
,,,,,,,,,,,,,,,,,,,,,,material/134.png,2,可恨,material/34.png,2,material/34.png,可恨,2,j,j,j,1,1,1,可恶,,,,,,,,,0,42,42,33,,,,,,,,,,,j,1,1.30804491043,,,,moral_self_bias,19,20,59.9825528349,f,001,2018_Apr_02_1643,
,,,,,,,,,,,,,,,,,,,,,,material/58.png,2,肤浅,material/158.png,2,material/58.png,浅薄,2,f,f,f,2,2,2,肤浅,,,,,,,,,0,43,43,137,,,,,,,,,,,j,0,1.87345290184,,,,moral_self_bias,19,20,59.9825528349,f,001,2018_Apr_02_1643,
,,,,,,,,,,,,,,,,,,,,,,material/80.png,2,才尽,material/83.png,2,material/182.png,呆笨,2,j,j,j,2,2,2,健忘,,,,,,,,,0,44,44,79,,,,,,,,,,,j,1,2.02455306053,,,,moral_self_bias,19,20,59.9825528349,f,001,2018_Apr_02_1643,
,,,,,,,,,,,,,,,,,,,,,,material/10.png,1,坚毅,material/110.png,1,material/110.png,坚毅,1,f,f,f,1,1,1,顽强,,,,,,,,,0,45,45,89,0,0,0,0,,,,,,,f,1,5.04335093498,j,1,0.308671951294,moral_self_bias,19,20,59.9825528349,f,001,2018_Apr_02_1643,
,,,,,,,,,,,,,,,,,,,,,,material/10.png,1,坚毅,material/110.png,1,material/110.png,坚毅,1,f,f,f,1,1,1,顽强,,,,,,,,,0,45,45,89,,,,,,,,,,,,,,,,,moral_self_bias,19,20,59.9825528349,f,001,2018_Apr_02_1643,
,,,,,,,,,,,,,,,,,,,,,,material/77.png,2,浮夸,material/172.png,2,material/172.png,浮夸,2,f,f,f,1,1,1,软弱,,,,,,,,,0,46,46,151,0,0,0,0,,,,,,,f,1,2.50917100906,j,1,1.72468495369,moral_self_bias,19,20,59.9825528349,f,001,2018_Apr_02_1643,
,,,,,,,,,,,,,,,,,,,,,,material/77.png,2,浮夸,material/172.png,2,material/172.png,浮夸,2,f,f,f,1,1,1,软弱,,,,,,,,,0,46,46,151,,,,,,,,,,,,,,,,,moral_self_bias,19,20,59.9825528349,f,001,2018_Apr_02_1643,
,,,,,,,,,,,,,,,,,,,,,,material/78.png,2,厌学,material/181.png,2,material/184.png,犹豫,2,f,f,f,2,2,2,草率,,,,,,,,,0,47,47,160,0,0,0,0,,,,,,,f,1,1.37558412552,f,0,0.807703971863,moral_self_bias,19,20,59.9825528349,f,001,2018_Apr_02_1643,
,,,,,,,,,,,,,,,,,,,,,,material/78.png,2,厌学,material/181.png,2,material/184.png,犹豫,2,f,f,f,2,2,2,草率,,,,,,,,,0,47,47,160,,,,,,,,,,,,,,,,,moral_self_bias,19,20,59.9825528349,f,001,2018_Apr_02_1643,
,,,,,,,,,,,,,,,,,,,,,,material/173.png,2,不义,material/174.png,2,material/174.png,不义,2,f,f,f,1,1,1,黑心,,,,,,,,,0,48,48,153,,,,,,,,,,,j,0,3.47462701797,,,,moral_self_bias,19,20,59.9825528349,f,001,2018_Apr_02_1643,
,,,,,,,,,,,,,,,,,,,,,,material/73.png,2,恶心,material/177.png,2,material/177.png,恶心,2,f,f,f,1,1,1,残虐,,,,,,,,,0,49,49,156,,,,,,,,,,,j,0,0.691004991531,,,,moral_self_bias,19,20,59.9825528349,f,001,2018_Apr_02_1643,
,,,,,,,,,,,,,,,,,,,,,,material/6.png,1,厚道,material/106.png,1,material/106.png,厚道,1,f,f,f,1,1,1,诚实,,,,,,,,,0,50,50,85,,,,,,,,,,,j,0,0.941903114319,,,,moral_self_bias,19,20,59.9825528349,f,001,2018_Apr_02_1643,
,,,,,,,,,,,,,,,,,,,,,,material/123.png,1,多才,material/23.png,1,material/123.png,有才,1,j,j,j,2,2,2,多才,,,,,,,,,0,51,51,22,,,,,,,,,,,j,1,1.25954294205,,,,moral_self_bias,19,20,59.9825528349,f,001,2018_Apr_02_1643,
,,,,,,,,,,,,,,,,,,,,,,material/50.png,2,愚笨,material/150.png,2,material/50.png,鲁钝,2,f,f,f,2,2,2,愚笨,,,,,,,,,0,52,52,129,0,0,0,0,,,,,,,f,1,2.4911198616,j,1,0.342856884003,moral_self_bias,19,20,59.9825528349,f,001,2018_Apr_02_1643,
,,,,,,,,,,,,,,,,,,,,,,material/50.png,2,愚笨,material/150.png,2,material/50.png,鲁钝,2,f,f,f,2,2,2,愚笨,,,,,,,,,0,52,52,129,,,,,,,,,,,,,,,,,moral_self_bias,19,20,59.9825528349,f,001,2018_Apr_02_1643,
,,,,,,,,,,,,,,,,,,,,,,material/181.png,2,怠惰,material/180.png,2,material/180.png,怠惰,2,f,f,f,2,2,2,犹豫,,,,,,,,,0,53,53,159,0,0,0,0,,,,,,,f,1,1.8085129261,j,1,0.407890081406,moral_self_bias,19,20,59.9825528349,f,001,2018_Apr_02_1643,
,,,,,,,,,,,,,,,,,,,,,,material/181.png,2,怠惰,material/180.png,2,material/180.png,怠惰,2,f,f,f,2,2,2,犹豫,,,,,,,,,0,53,53,159,,,,,,,,,,,,,,,,,moral_self_bias,19,20,59.9825528349,f,001,2018_Apr_02_1643,
,,,,,,,,,,,,,,,,,,,,,,material/27.png,1,卓越,material/127.png,1,material/27.png,超群,1,f,f,f,2,2,2,卓越,,,,,,,,,0,54,54,106,0,0,0,0,,,,,,,f,1,2.17421507835,j,1,0.274952888489,moral_self_bias,19,20,59.9825528349,f,001,2018_Apr_02_1643,
,,,,,,,,,,,,,,,,,,,,,,material/27.png,1,卓越,material/127.png,1,material/27.png,超群,1,f,f,f,2,2,2,卓越,,,,,,,,,0,54,54,106,,,,,,,,,,,,,,,,,moral_self_bias,19,20,59.9825528349,f,001,2018_Apr_02_1643,
,,,,,,,,,,,,,,,,,,,,,,material/38.png,2,缺德,material/138.png,2,material/138.png,缺德,2,f,f,f,1,1,1,无德,,,,,,,,,0,55,55,117,,,,,,,,,,,j,0,0.892342090607,,,,moral_self_bias,19,20,59.9825528349,f,001,2018_Apr_02_1643,
,,,,,,,,,,,,,,,,,,,,,,material/149.png,2,白痴,material/49.png,2,material/149.png,痴呆,2,j,j,j,2,2,2,白痴,,,,,,,,,0,56,56,48,,,,,,,,,,,j,1,1.17491793633,,,,moral_self_bias,19,20,59.9825528349,f,001,2018_Apr_02_1643,
,,,,,,,,,,,,,,,,,,,,,,material/37.png,2,卑鄙,material/137.png,2,material/137.png,卑鄙,2,f,f,f,1,1,1,无耻,,,,,,,,,0,57,57,116,,,,,,,,,,,j,0,1.05856490135,,,,moral_self_bias,19,20,59.9825528349,f,001,2018_Apr_02_1643,
,,,,,,,,,,,,,,,,,,,,,,material/155.png,2,盲目,material/55.png,2,material/155.png,盲从,2,j,j,j,2,2,2,盲目,,,,,,,,,0,58,58,54,,,,,,,,,,,j,1,1.17638206482,,,,moral_self_bias,19,20,59.9825528349,f,001,2018_Apr_02_1643,
,,,,,,,,,,,,,,,,,,,,,,material/79.png,2,薄弱,material/81.png,2,material/183.png,无助,2,j,j,j,2,2,2,颓废,,,,,,,,,0,59,59,77,,,,,,,,,,,j,1,1.50875401497,,,,moral_self_bias,19,20,59.9825528349,f,001,2018_Apr_02_1643,
,,,,,,,,,,,,,,,,,,,,,,material/48.png,2,愚蠢,material/148.png,2,material/48.png,笨蛋,2,f,f,f,2,2,2,愚蠢,,,,,,,,,0,60,60,127,0,0,0,0,,,,,,,f,1,1.04187703133,j,1,1.27459979057,moral_self_bias,19,20,59.9825528349,f,001,2018_Apr_02_1643,
,,,,,,,,,,,,,,,,,,,,,,material/48.png,2,愚蠢,material/148.png,2,material/48.png,笨蛋,2,f,f,f,2,2,2,愚蠢,,,,,,,,,0,60,60,127,,,,,,,,,,,,,,,,,moral_self_bias,19,20,59.9825528349,f,001,2018_Apr_02_1643,
,,,,,,,,,,,,,,,,,,,,,,material/23.png,1,有才,material/123.png,1,material/23.png,多才,1,f,f,f,2,2,2,有才,,,,,,,,,0,61,61,102,0,0,0,0,,,,,,,f,1,1.42458605766,f,0,0.325358867645,moral_self_bias,19,20,59.9825528349,f,001,2018_Apr_02_1643,
,,,,,,,,,,,,,,,,,,,,,,material/23.png,1,有才,material/123.png,1,material/23.png,多才,1,f,f,f,2,2,2,有才,,,,,,,,,0,61,61,102,,,,,,,,,,,,,,,,,moral_self_bias,19,20,59.9825528349,f,001,2018_Apr_02_1643,
,,,,,,,,,,,,,,,,,,,,,,material/140.png,2,邪恶,material/40.png,2,material/40.png,邪恶,2,j,j,j,1,1,1,狠毒,,,,,,,,,0,62,62,39,,,,,,,,,,,j,1,0.99137878418,,,,moral_self_bias,19,20,59.9825528349,f,001,2018_Apr_02_1643,
,,,,,,,,,,,,,,,,,,,,,,material/172.png,2,无情,material/175.png,2,material/175.png,无情,2,f,f,f,1,1,1,浮夸,,,,,,,,,0,63,63,154,,,,,,,,,,,j,0,1.02358794212,,,,moral_self_bias,19,20,59.9825528349,f,001,2018_Apr_02_1643,
,,,,,,,,,,,,,,,,,,,,,,material/136.png,2,说谎,material/36.png,2,material/36.png,说谎,2,j,j,j,1,1,1,撒谎,,,,,,,,,0,64,64,35,,,,,,,,,,,j,1,1.07497787476,,,,moral_self_bias,19,20,59.9825528349,f,001,2018_Apr_02_1643,
,,,,,,,,,,,,,,,,,,,,,,material/66.png,1,独立,material/66.png,1,material/165.png,正义,1,f,f,f,1,1,1,正义,,,,,,,,,0,65,65,164,0,0,0,0,,,,,,,f,1,1.6248691082,j,1,0.258270025253,moral_self_bias,19,20,59.9825528349,f,001,2018_Apr_02_1643,
,,,,,,,,,,,,,,,,,,,,,,material/66.png,1,独立,material/66.png,1,material/165.png,正义,1,f,f,f,1,1,1,正义,,,,,,,,,0,65,65,164,,,,,,,,,,,,,,,,,moral_self_bias,19,20,59.9825528349,f,001,2018_Apr_02_1643,
,,,,,,,,,,,,,,,,,,,,,,material/41.png,2,残忍,material/141.png,2,material/141.png,残忍,2,f,f,f,1,1,1,歹毒,,,,,,,,,0,66,66,120,,,,,,,,,,,j,0,1.35066103935,,,,moral_self_bias,19,20,59.9825528349,f,001,2018_Apr_02_1643,
,,,,,,,,,,,,,,,,,,,,,,material/64.png,1,谦虚,material/165.png,1,material/65.png,独立,1,f,f,f,1,1,1,奉献,,,,,,,,,0,67,67,144,0,0,0,0,,,,,,,f,1,1.60023498535,f,0,0.390715122223,moral_self_bias,19,20,59.9825528349,f,001,2018_Apr_02_1643,
,,,,,,,,,,,,,,,,,,,,,,material/64.png,1,谦虚,material/165.png,1,material/65.png,独立,1,f,f,f,1,1,1,奉献,,,,,,,,,0,67,67,144,,,,,,,,,,,,,,,,,moral_self_bias,19,20,59.9825528349,f,001,2018_Apr_02_1643,
,,,,,,,,,,,,,,,,,,,,,,material/131.png,1,笃行,material/31.png,1,material/131.png,笃学,1,j,j,j,2,2,2,笃行,,,,,,,,,0,68,68,30,0,0,0,0,,,,,,,f,0,1.57489180565,f,0,0.450863838196,moral_self_bias,19,20,59.9825528349,f,001,2018_Apr_02_1643,
,,,,,,,,,,,,,,,,,,,,,,material/131.png,1,笃行,material/31.png,1,material/131.png,笃学,1,j,j,j,2,2,2,笃行,,,,,,,,,0,68,68,30,,,,,,,,,,,,,,,,,moral_self_bias,19,20,59.9825528349,f,001,2018_Apr_02_1643,
,,,,,,,,,,,,,,,,,,,,,,material/3.png,1,仁厚,material/103.png,1,material/103.png,仁厚,1,f,f,f,1,1,1,仁慈,,,,,,,,,0,69,69,82,,,,,,,,,,,j,0,1.50890803337,,,,moral_self_bias,19,20,59.9825528349,f,001,2018_Apr_02_1643,
,,,,,,,,,,,,,,,,,,,,,,material/133.png,2,腐败,material/33.png,2,material/33.png,腐败,2,j,j,j,1,1,1,贪污,,,,,,,,,0,70,70,32,,,,,,,,,,,j,1,0.65767788887,,,,moral_self_bias,19,20,59.9825528349,f,001,2018_Apr_02_1643,
,,,,,,,,,,,,,,,,,,,,,,material/84.png,2,犹豫,material/84.png,2,material/181.png,顽愚,2,f,f,f,2,2,2,顽愚,,,,,,,,,0,71,71,167,0,0,0,0,,,,,,,f,1,1.70716118813,j,1,0.258898973465,moral_self_bias,19,20,59.9825528349,f,001,2018_Apr_02_1643,
,,,,,,,,,,,,,,,,,,,,,,material/84.png,2,犹豫,material/84.png,2,material/181.png,顽愚,2,f,f,f,2,2,2,顽愚,,,,,,,,,0,71,71,167,,,,,,,,,,,,,,,,,moral_self_bias,19,20,59.9825528349,f,001,2018_Apr_02_1643,
,,,,,,,,,,,,,,,,,,,,,,material/70.png,1,全面,material/168.png,1,material/70.png,机变,1,f,f,f,2,2,2,全面,,,,,,,,,0,72,72,147,0,0,0,0,,,,,,,f,1,1.54245495796,j,1,0.19194316864,moral_self_bias,19,20,59.9825528349,f,001,2018_Apr_02_1643,
,,,,,,,,,,,,,,,,,,,,,,material/70.png,1,全面,material/168.png,1,material/70.png,机变,1,f,f,f,2,2,2,全面,,,,,,,,,0,72,72,147,,,,,,,,,,,,,,,,,moral_self_bias,19,20,59.9825528349,f,001,2018_Apr_02_1643,
,,,,,,,,,,,,,,,,,,,,,,material/24.png,1,理智,material/124.png,1,material/24.png,冷静,1,f,f,f,2,2,2,理智,,,,,,,,,0,73,73,103,,,,,,,,,,,j,0,1.67583990097,,,,moral_self_bias,19,20,59.9825528349,f,001,2018_Apr_02_1643,
,,,,,,,,,,,,,,,,,,,,,,material/76.png,2,放纵,material/176.png,2,material/176.png,放纵,2,f,f,f,1,1,1,虚伪,,,,,,,,,0,74,74,155,0,0,0,0,,,,,,,f,1,1.56761884689,f,0,0.307857036591,moral_self_bias,19,20,59.9825528349,f,001,2018_Apr_02_1643,
,,,,,,,,,,,,,,,,,,,,,,material/76.png,2,放纵,material/176.png,2,material/176.png,放纵,2,f,f,f,1,1,1,虚伪,,,,,,,,,0,74,74,155,,,,,,,,,,,,,,,,,moral_self_bias,19,20,59.9825528349,f,001,2018_Apr_02_1643,
,,,,,,,,,,,,,,,,,,,,,,material/121.png,1,精干,material/21.png,1,material/121.png,干练,1,j,j,j,2,2,2,精干,,,,,,,,,0,75,75,20,,,,,,,,,,,j,1,1.5406870842,,,,moral_self_bias,19,20,59.9825528349,f,001,2018_Apr_02_1643,
,,,,,,,,,,,,,,,,,,,,,,material/168.png,1,机变,material/170.png,1,material/168.png,坚忍,1,f,f,f,2,2,2,机变,,,,,,,,,0,76,76,149,0,0,0,0,,,,,,,f,1,1.62581300735,f,0,0.566928863525,moral_self_bias,19,20,59.9825528349,f,001,2018_Apr_02_1643,
,,,,,,,,,,,,,,,,,,,,,,material/168.png,1,机变,material/170.png,1,material/168.png,坚忍,1,f,f,f,2,2,2,机变,,,,,,,,,0,76,76,149,,,,,,,,,,,,,,,,,moral_self_bias,19,20,59.9825528349,f,001,2018_Apr_02_1643,
,,,,,,,,,,,,,,,,,,,,,,material/25.png,1,果断,material/125.png,1,material/25.png,果敢,1,f,f,f,2,2,2,果断,,,,,,,,,0,77,77,104,0,0,0,0,,,,,,,f,1,1.50818705559,f,0,0.774871110916,moral_self_bias,19,20,59.9825528349,f,001,2018_Apr_02_1643,
,,,,,,,,,,,,,,,,,,,,,,material/25.png,1,果断,material/125.png,1,material/25.png,果敢,1,f,f,f,2,2,2,果断,,,,,,,,,0,77,77,104,,,,,,,,,,,,,,,,,moral_self_bias,19,20,59.9825528349,f,001,2018_Apr_02_1643,
,,,,,,,,,,,,,,,,,,,,,,material/35.png,2,冷血,material/135.png,2,material/135.png,冷血,2,f,f,f,1,1,1,冷漠,,,,,,,,,0,78,78,114,,,,,,,,,,,j,0,0.691385030746,,,,moral_self_bias,19,20,59.9825528349,f,001,2018_Apr_02_1643,
,,,,,,,,,,,,,,,,,,,,,,material/110.png,1,顽强,material/10.png,1,material/10.png,顽强,1,j,j,j,1,1,1,坚毅,,,,,,,,,0,79,79,9,,,,,,,,,,,j,1,0.933621168137,,,,moral_self_bias,19,20,59.9825528349,f,001,2018_Apr_02_1643,
,,,,,,,,,,,,,,,,,,,,,,material/22.png,1,才学,material/122.png,1,material/22.png,博学,1,f,f,f,2,2,2,才学,,,,,,,,,0,80,80,101,0,0,0,0,,,,,,,f,1,1.50796198845,j,1,0.724320173264,moral_self_bias,19,20,59.9825528349,f,001,2018_Apr_02_1643,
,,,,,,,,,,,,,,,,,,,,,,material/22.png,1,才学,material/122.png,1,material/22.png,博学,1,f,f,f,2,2,2,才学,,,,,,,,,0,80,80,101,,,,,,,,,,,,,,,,,moral_self_bias,19,20,59.9825528349,f,001,2018_Apr_02_1643,
,,,,,,,,,,,,,,,,,,,,,,material/141.png,2,歹毒,material/41.png,2,material/41.png,歹毒,2,j,j,j,1,1,1,残忍,,,,,,,,,0,81,81,40,,,,,,,,,,,j,1,3.4412150383,,,,moral_self_bias,19,20,59.9825528349,f,001,2018_Apr_02_1643,
,,,,,,,,,,,,,,,,,,,,,,material/135.png,2,冷漠,material/35.png,2,material/35.png,冷漠,2,j,j,j,1,1,1,冷血,,,,,,,,,0,82,82,34,,,,,,,,,,,j,1,0.674840927124,,,,moral_self_bias,19,20,59.9825528349,f,001,2018_Apr_02_1643,
,,,,,,,,,,,,,,,,,,,,,,material/151.png,2,迷糊,material/51.png,2,material/151.png,糊涂,2,j,j,j,2,2,2,迷糊,,,,,,,,,0,83,83,50,,,,,,,,,,,j,1,0.890527009964,,,,moral_self_bias,19,20,59.9825528349,f,001,2018_Apr_02_1643,
,,,,,,,,,,,,,,,,,,,,,,material/83.png,2,差生,material/78.png,2,material/179.png,草率,2,j,j,j,2,2,2,呆笨,,,,,,,,,0,84,84,74,,,,,,,,,,,j,1,1.1755759716,,,,moral_self_bias,19,20,59.9825528349,f,001,2018_Apr_02_1643,
,,,,,,,,,,,,,,,,,,,,,,material/150.png,2,鲁钝,material/50.png,2,material/150.png,愚笨,2,j,j,j,2,2,2,鲁钝,,,,,,,,,0,85,85,49,0,0,0,0,,,,,,,f,0,1.19166183472,j,1,0.490401983261,moral_self_bias,19,20,59.9825528349,f,001,2018_Apr_02_1643,
,,,,,,,,,,,,,,,,,,,,,,material/150.png,2,鲁钝,material/50.png,2,material/150.png,愚笨,2,j,j,j,2,2,2,鲁钝,,,,,,,,,0,85,85,49,,,,,,,,,,,,,,,,,moral_self_bias,19,20,59.9825528349,f,001,2018_Apr_02_1643,
,,,,,,,,,,,,,,,,,,,,,,material/67.png,1,骁勇,material/70.png,1,material/67.png,全面,1,j,j,j,2,2,2,骁勇,,,,,,,,,0,86,86,67,,,,,,,,,,,j,1,0.700232028961,,,,moral_self_bias,19,20,59.9825528349,f,001,2018_Apr_02_1643,
,,,,,,,,,,,,,,,,,,,,,,material/16.png,1,睿智,material/116.png,1,material/16.png,机智,1,f,f,f,2,2,2,睿智,,,,,,,,,0,87,87,95,0,0,0,0,,,,,,,f,1,1.2246761322,j,1,0.342477083206,moral_self_bias,19,20,59.9825528349,f,001,2018_Apr_02_1643,
,,,,,,,,,,,,,,,,,,,,,,material/16.png,1,睿智,material/116.png,1,material/16.png,机智,1,f,f,f,2,2,2,睿智,,,,,,,,,0,87,87,95,,,,,,,,,,,,,,,,,moral_self_bias,19,20,59.9825528349,f,001,2018_Apr_02_1643,
,,,,,,,,,,,,,,,,,,,,,,material/44.png,2,爽约,material/144.png,2,material/144.png,爽约,2,f,f,f,1,1,1,失信,,,,,,,,,0,88,88,123,0,0,0,0,,,,,,,f,1,1.72480010986,j,1,0.308027029037,moral_self_bias,19,20,59.9825528349,f,001,2018_Apr_02_1643,
,,,,,,,,,,,,,,,,,,,,,,material/44.png,2,爽约,material/144.png,2,material/144.png,爽约,2,f,f,f,1,1,1,失信,,,,,,,,,0,88,88,123,,,,,,,,,,,,,,,,,moral_self_bias,19,20,59.9825528349,f,001,2018_Apr_02_1643,
,,,,,,,,,,,,,,,,,,,,,,material/74.png,2,黑心,material/173.png,2,material/173.png,黑心,2,f,f,f,1,1,1,卑劣,,,,,,,,,0,89,89,152,,,,,,,,,,,j,0,3.3751039505,,,,moral_self_bias,19,20,59.9825528349,f,001,2018_Apr_02_1643,
,,,,,,,,,,,,,,,,,,,,,,material/53.png,2,迟缓,material/153.png,2,material/53.png,迟钝,2,f,f,f,2,2,2,迟缓,,,,,,,,,0,90,90,132,,,,,,,,,,,j,0,1.09942007065,,,,moral_self_bias,19,20,59.9825528349,f,001,2018_Apr_02_1643,
,,,,,,,,,,,,,,,,,,,,,,material/49.png,2,痴呆,material/149.png,2,material/49.png,白痴,2,f,f,f,2,2,2,痴呆,,,,,,,,,0,91,91,128,,,,,,,,,,,j,0,2.35810804367,,,,moral_self_bias,19,20,59.9825528349,f,001,2018_Apr_02_1643,
,,,,,,,,,,,,,,,,,,,,,,material/118.png,1,机敏,material/18.png,1,material/118.png,敏锐,1,j,j,j,2,2,2,机敏,,,,,,,,,0,92,92,17,0,0,0,0,,,,,,,f,0,1.49179983139,j,1,0.357624053955,moral_self_bias,19,20,59.9825528349,f,001,2018_Apr_02_1643,
,,,,,,,,,,,,,,,,,,,,,,material/118.png,1,机敏,material/18.png,1,material/118.png,敏锐,1,j,j,j,2,2,2,机敏,,,,,,,,,0,92,92,17,,,,,,,,,,,,,,,,,moral_self_bias,19,20,59.9825528349,f,001,2018_Apr_02_1643,
,,,,,,,,,,,,,,,,,,,,,,material/39.png,2,恶毒,material/139.png,2,material/139.png,恶毒,2,f,f,f,1,1,1,凶残,,,,,,,,,0,93,93,118,,,,,,,,,,,j,0,1.25866580009,,,,moral_self_bias,19,20,59.9825528349,f,001,2018_Apr_02_1643,
,,,,,,,,,,,,,,,,,,,,,,material/57.png,2,无知,material/157.png,2,material/57.png,无能,2,f,f,f,2,2,2,无知,,,,,,,,,0,94,94,136,,,,,,,,,,,j,0,1.22460699081,,,,moral_self_bias,19,20,59.9825528349,f,001,2018_Apr_02_1643,
,,,,,,,,,,,,,,,,,,,,,,material/125.png,1,果敢,material/25.png,1,material/125.png,果断,1,j,j,j,2,2,2,果敢,,,,,,,,,0,95,95,24,0,0,0,0,,,,,,,f,0,1.29110002518,f,0,2.09064102173,moral_self_bias,19,20,59.9825528349,f,001,2018_Apr_02_1643,
,,,,,,,,,,,,,,,,,,,,,,material/125.png,1,果敢,material/25.png,1,material/125.png,果断,1,j,j,j,2,2,2,果敢,,,,,,,,,0,95,95,24,,,,,,,,,,,,,,,,,moral_self_bias,19,20,59.9825528349,f,001,2018_Apr_02_1643,
,,,,,,,,,,,,,,,,,,,,,,material/40.png,2,狠毒,material/140.png,2,material/140.png,狠毒,2,f,f,f,1,1,1,邪恶,,,,,,,,,0,96,96,119,,,,,,,,,,,j,0,0.924407958984,,,,moral_self_bias,19,20,59.9825528349,f,001,2018_Apr_02_1643,
,,,,,,,,,,,,,,,,,,,,,,material/72.png,2,软弱,material/77.png,2,material/77.png,软弱,2,j,j,j,1,1,1,谄媚,,,,,,,,,0,97,97,73,,,,,,,,,,,j,1,1.07447314262,,,,moral_self_bias,19,20,59.9825528349,f,001,2018_Apr_02_1643,
,,,,,,,,,,,,,,,,,,,,,,material/117.png,1,聪颖,material/17.png,1,material/117.png,聪明,1,j,j,j,2,2,2,聪颖,,,,,,,,,0,98,98,16,,,,,,,,,,,j,1,1.22433590889,,,,moral_self_bias,19,20,59.9825528349,f,001,2018_Apr_02_1643,
,,,,,,,,,,,,,,,,,,,,,,material/63.png,1,正义,material/166.png,1,material/66.png,仗义,1,f,f,f,1,1,1,文明,,,,,,,,,0,99,99,145,0,0,0,0,,,,,,,f,1,0.908914089203,j,1,0.442790985107,moral_self_bias,19,20,59.9825528349,f,001,2018_Apr_02_1643,
,,,,,,,,,,,,,,,,,,,,,,material/63.png,1,正义,material/166.png,1,material/66.png,仗义,1,f,f,f,1,1,1,文明,,,,,,,,,0,99,99,145,,,,,,,,,,,,,,,,,moral_self_bias,19,20,59.9825528349,f,001,2018_Apr_02_1643,
,,,,,,,,,,,,,,,,,,,,,,material/114.png,1,爱国,material/14.png,1,material/14.png,爱国,1,j,j,j,1,1,1,忠贞,,,,,,,,,0,100,100,13,,,,,,,,,,,j,1,0.80902504921,,,,moral_self_bias,19,20,59.9825528349,f,001,2018_Apr_02_1643,
,,,,,,,,,,,,,,,,,,,,,,material/46.png,2,自私,material/146.png,2,material/146.png,自私,2,f,f,f,1,1,1,小气,,,,,,,,,0,101,101,125,0,0,0,0,,,,,,,f,1,3.67382287979,j,1,0.340934991837,moral_self_bias,19,20,59.9825528349,f,001,2018_Apr_02_1643,
,,,,,,,,,,,,,,,,,,,,,,material/46.png,2,自私,material/146.png,2,material/146.png,自私,2,f,f,f,1,1,1,小气,,,,,,,,,0,101,101,125,,,,,,,,,,,,,,,,,moral_self_bias,19,20,59.9825528349,f,001,2018_Apr_02_1643,
,,,,,,,,,,,,,,,,,,,,,,material/106.png,1,诚实,material/6.png,1,material/6.png,诚实,1,j,j,j,1,1,1,厚道,,,,,,,,,0,102,102,5,0,0,0,0,,,,,,,f,0,1.3579390049,j,1,0.291859149933,moral_self_bias,19,20,59.9825528349,f,001,2018_Apr_02_1643,
,,,,,,,,,,,,,,,,,,,,,,material/106.png,1,诚实,material/6.png,1,material/6.png,诚实,1,j,j,j,1,1,1,厚道,,,,,,,,,0,102,102,5,,,,,,,,,,,,,,,,,moral_self_bias,19,20,59.9825528349,f,001,2018_Apr_02_1643,
,,,,,,,,,,,,,,,,,,,,,,material/159.png,2,弱智,material/59.png,2,material/159.png,智障,2,j,j,j,2,2,2,弱智,,,,,,,,,0,103,103,58,,,,,,,,,,,j,1,0.69081902504,,,,moral_self_bias,19,20,59.9825528349,f,001,2018_Apr_02_1643,
,,,,,,,,,,,,,,,,,,,,,,material/153.png,2,迟钝,material/53.png,2,material/153.png,迟缓,2,j,j,j,2,2,2,迟钝,,,,,,,,,0,104,104,52,,,,,,,,,,,j,1,1.27478098869,,,,moral_self_bias,19,20,59.9825528349,f,001,2018_Apr_02_1643,
,,,,,,,,,,,,,,,,,,,,,,material/146.png,2,小气,material/46.png,2,material/46.png,小气,2,j,j,j,1,1,1,自私,,,,,,,,,0,105,105,45,,,,,,,,,,,j,1,0.707793951035,,,,moral_self_bias,19,20,59.9825528349,f,001,2018_Apr_02_1643,
,,,,,,,,,,,,,,,,,,,,,,material/162.png,1,敬业,material/62.png,1,material/162.png,坚韧,1,j,j,j,1,1,1,敬业,,,,,,,,,0,106,106,61,0,0,0,0,,,,,,,f,0,1.09179997444,j,1,0.341977119446,moral_self_bias,19,20,59.9825528349,f,001,2018_Apr_02_1643,
,,,,,,,,,,,,,,,,,,,,,,material/162.png,1,敬业,material/62.png,1,material/162.png,坚韧,1,j,j,j,1,1,1,敬业,,,,,,,,,0,106,106,61,,,,,,,,,,,,,,,,,moral_self_bias,19,20,59.9825528349,f,001,2018_Apr_02_1643,
,,,,,,,,,,,,,,,,,,,,,,material/137.png,2,无耻,material/37.png,2,material/37.png,无耻,2,j,j,j,1,1,1,卑鄙,,,,,,,,,0,107,107,36,,,,,,,,,,,j,1,0.974492073059,,,,moral_self_bias,19,20,59.9825528349,f,001,2018_Apr_02_1643,
,,,,,,,,,,,,,,,,,,,,,,material/105.png,1,守信,material/5.png,1,material/5.png,守信,1,j,j,j,1,1,1,诚信,,,,,,,,,0,108,108,4,,,,,,,,,,,j,1,1.27524209023,,,,moral_self_bias,19,20,59.9825528349,f,001,2018_Apr_02_1643,
,,,,,,,,,,,,,,,,,,,,,,material/180.png,2,无助,material/79.png,2,material/81.png,颓废,2,j,j,j,2,2,2,怠惰,,,,,,,,,0,109,109,75,,,,,,,,,,,j,1,1.15925383568,,,,moral_self_bias,19,20,59.9825528349,f,001,2018_Apr_02_1643,
,,,,,,,,,,,,,,,,,,,,,,material/124.png,1,冷静,material/24.png,1,material/124.png,理智,1,j,j,j,2,2,2,冷静,,,,,,,,,0,110,110,23,,,,,,,,,,,j,1,0.724943876266,,,,moral_self_bias,19,20,59.9825528349,f,001,2018_Apr_02_1643,
,,,,,,,,,,,,,,,,,,,,,,material/179.png,2,顽愚,material/178.png,2,material/84.png,毛糙,2,f,f,f,2,2,2,差生,,,,,,,,,0,111,111,157,0,0,0,0,,,,,,,f,1,4.59219884872,j,1,0.342696905136,moral_self_bias,19,20,59.9825528349,f,001,2018_Apr_02_1643,
,,,,,,,,,,,,,,,,,,,,,,material/179.png,2,顽愚,material/178.png,2,material/84.png,毛糙,2,f,f,f,2,2,2,差生,,,,,,,,,0,111,111,157,,,,,,,,,,,,,,,,,moral_self_bias,19,20,59.9825528349,f,001,2018_Apr_02_1643,
,,,,,,,,,,,,,,,,,,,,,,material/32.png,2,背叛,material/132.png,2,material/132.png,背叛,2,f,f,f,1,1,1,不忠,,,,,,,,,0,112,112,111,0,0,0,0,,,,,,,f,1,1.30801105499,j,1,0.374774932861,moral_self_bias,19,20,59.9825528349,f,001,2018_Apr_02_1643,
,,,,,,,,,,,,,,,,,,,,,,material/32.png,2,背叛,material/132.png,2,material/132.png,背叛,2,f,f,f,1,1,1,不忠,,,,,,,,,0,112,112,111,,,,,,,,,,,,,,,,,moral_self_bias,19,20,59.9825528349,f,001,2018_Apr_02_1643,
,,,,,,,,,,,,,,,,,,,,,,material/112.png,1,忠诚,material/12.png,1,material/12.png,忠诚,1,j,j,j,1,1,1,忠心,,,,,,,,,0,113,113,11,0,0,0,0,,,,,,,f,0,2.17546200752,f,0,0.324971914291,moral_self_bias,19,20,59.9825528349,f,001,2018_Apr_02_1643,
,,,,,,,,,,,,,,,,,,,,,,material/112.png,1,忠诚,material/12.png,1,material/12.png,忠诚,1,j,j,j,1,1,1,忠心,,,,,,,,,0,113,113,11,,,,,,,,,,,,,,,,,moral_self_bias,19,20,59.9825528349,f,001,2018_Apr_02_1643,
,,,,,,,,,,,,,,,,,,,,,,material/69.png,1,高明,material/69.png,1,material/69.png,高明,1,f,f,f,2,2,2,高明,,,,,,,,,0,114,114,166,0,0,0,0,,,,,,,f,1,3.3088760376,j,1,0.341643095016,moral_self_bias,19,20,59.9825528349,f,001,2018_Apr_02_1643,
,,,,,,,,,,,,,,,,,,,,,,material/69.png,1,高明,material/69.png,1,material/69.png,高明,1,f,f,f,2,2,2,高明,,,,,,,,,0,114,114,166,,,,,,,,,,,,,,,,,moral_self_bias,19,20,59.9825528349,f,001,2018_Apr_02_1643,
,,,,,,,,,,,,,,,,,,,,,,material/116.png,1,机智,material/16.png,1,material/116.png,睿智,1,j,j,j,2,2,2,机智,,,,,,,,,0,115,115,15,,,,,,,,,,,j,1,1.88279700279,,,,moral_self_bias,19,20,59.9825528349,f,001,2018_Apr_02_1643,
,,,,,,,,,,,,,,,,,,,,,,material/169.png,1,颖悟,material/171.png,1,material/169.png,高效,1,f,f,f,2,2,2,颖悟,,,,,,,,,0,116,116,150,0,0,0,0,,,,,,,f,1,0.99142408371,f,0,0.341250181198,moral_self_bias,19,20,59.9825528349,f,001,2018_Apr_02_1643,
,,,,,,,,,,,,,,,,,,,,,,material/169.png,1,颖悟,material/171.png,1,material/169.png,高效,1,f,f,f,2,2,2,颖悟,,,,,,,,,0,116,116,150,,,,,,,,,,,,,,,,,moral_self_bias,19,20,59.9825528349,f,001,2018_Apr_02_1643,
,,,,,,,,,,,,,,,,,,,,,,material/165.png,1,平等,material/161.png,1,material/61.png,勇敢,1,f,f,f,1,1,1,独立,,,,,,,,,0,117,117,140,0,0,0,0,,,,,,,f,1,2.52481389046,f,0,0.308388948441,moral_self_bias,19,20,59.9825528349,f,001,2018_Apr_02_1643,
,,,,,,,,,,,,,,,,,,,,,,material/165.png,1,平等,material/161.png,1,material/61.png,勇敢,1,f,f,f,1,1,1,独立,,,,,,,,,0,117,117,140,,,,,,,,,,,,,,,,,moral_self_bias,19,20,59.9825528349,f,001,2018_Apr_02_1643,
,,,,,,,,,,,,,,,,,,,,,,material/9.png,1,正直,material/109.png,1,material/109.png,正直,1,f,f,f,1,1,1,秉直,,,,,,,,,0,118,118,88,0,0,0,0,,,,,,,f,1,0.992388963699,j,1,0.308496952057,moral_self_bias,19,20,59.9825528349,f,001,2018_Apr_02_1643,
,,,,,,,,,,,,,,,,,,,,,,material/9.png,1,正直,material/109.png,1,material/109.png,正直,1,f,f,f,1,1,1,秉直,,,,,,,,,0,118,118,88,,,,,,,,,,,,,,,,,moral_self_bias,19,20,59.9825528349,f,001,2018_Apr_02_1643,
,,,,,,,,,,,,,,,,,,,,,,material/2.png,1,爱心,material/102.png,1,material/102.png,爱心,1,f,f,f,1,1,1,善心,,,,,,,,,0,119,119,81,0,0,0,0,,,,,,,f,1,4.20759296417,f,0,0.274948835373,moral_self_bias,19,20,59.9825528349,f,001,2018_Apr_02_1643,
,,,,,,,,,,,,,,,,,,,,,,material/2.png,1,爱心,material/102.png,1,material/102.png,爱心,1,f,f,f,1,1,1,善心,,,,,,,,,0,119,119,81,,,,,,,,,,,,,,,,,moral_self_bias,19,20,59.9825528349,f,001,2018_Apr_02_1643,
,,,,,,,,,,,,,,,,,,,,,,material/14.png,1,忠贞,material/114.png,1,material/114.png,忠贞,1,f,f,f,1,1,1,爱国,,,,,,,,,0,120,120,93,,,,,,,,,,,j,0,0.775725126266,,,,moral_self_bias,19,20,59.9825528349,f,001,2018_Apr_02_1643,
,,,,,,,,,,,,,,,,,,,,,,material/126.png,1,勤快,material/26.png,1,material/126.png,刻苦,1,j,j,j,2,2,2,勤快,,,,,,,,,0,121,121,25,,,,,,,,,,,j,1,1.16681289673,,,,moral_self_bias,19,20,59.9825528349,f,001,2018_Apr_02_1643,
,,,,,,,,,,,,,,,,,,,,,,material/156.png,2,愚钝,material/56.png,2,material/156.png,愚昧,2,j,j,j,2,2,2,愚钝,,,,,,,,,0,122,122,55,,,,,,,,,,,j,1,3.57418513298,,,,moral_self_bias,19,20,59.9825528349,f,001,2018_Apr_02_1643,
,,,,,,,,,,,,,,,,,,,,,,material/152.png,2,缓慢,material/52.png,2,material/152.png,拖延,2,j,j,j,2,2,2,缓慢,,,,,,,,,0,123,123,51,,,,,,,,,,,j,1,0.59157204628,,,,moral_self_bias,19,20,59.9825528349,f,001,2018_Apr_02_1643,
,,,,,,,,,,,,,,,,,,,,,,material/115.png,1,清白,material/15.png,1,material/15.png,清白,1,j,j,j,1,1,1,纯洁,,,,,,,,,0,124,124,14,,,,,,,,,,,j,1,0.558959960938,,,,moral_self_bias,19,20,59.9825528349,f,001,2018_Apr_02_1643,
,,,,,,,,,,,,,,,,,,,,,,material/127.png,1,超群,material/27.png,1,material/127.png,卓越,1,j,j,j,2,2,2,超群,,,,,,,,,0,125,125,26,,,,,,,,,,,j,1,1.17407298088,,,,moral_self_bias,19,20,59.9825528349,f,001,2018_Apr_02_1643,
,,,,,,,,,,,,,,,,,,,,,,material/7.png,1,公平,material/107.png,1,material/107.png,公平,1,f,f,f,1,1,1,公正,,,,,,,,,0,126,126,86,0,0,0,0,,,,,,,f,1,1.54138493538,j,1,0.341686010361,moral_self_bias,19,20,59.9825528349,f,001,2018_Apr_02_1643,
,,,,,,,,,,,,,,,,,,,,,,material/7.png,1,公平,material/107.png,1,material/107.png,公平,1,f,f,f,1,1,1,公正,,,,,,,,,0,126,126,86,,,,,,,,,,,,,,,,,moral_self_bias,19,20,59.9825528349,f,001,2018_Apr_02_1643,
,,,,,,,,,,,,,,,,,,,,,,material/81.png,2,呆笨,material/179.png,2,material/83.png,差生,2,f,f,f,2,2,2,无助,,,,,,,,,0,127,127,158,0,0,0,0,,,,,,,f,1,1.75724601746,j,1,0.274605035782,moral_self_bias,19,20,59.9825528349,f,001,2018_Apr_02_1643,
,,,,,,,,,,,,,,,,,,,,,,material/81.png,2,呆笨,material/179.png,2,material/83.png,差生,2,f,f,f,2,2,2,无助,,,,,,,,,0,127,127,158,,,,,,,,,,,,,,,,,moral_self_bias,19,20,59.9825528349,f,001,2018_Apr_02_1643,
,,,,,,,,,,,,,,,,,,,,,,material/52.png,2,拖延,material/152.png,2,material/52.png,缓慢,2,f,f,f,2,2,2,拖延,,,,,,,,,0,128,128,131,,,,,,,,,,,j,0,1.29147195816,,,,moral_self_bias,19,20,59.9825528349,f,001,2018_Apr_02_1643,
,,,,,,,,,,,,,,,,,,,,,,material/11.png,1,高尚,material/111.png,1,material/111.png,高尚,1,f,f,f,1,1,1,高雅,,,,,,,,,0,129,129,90,0,0,0,0,,,,,,,f,1,1.92410802841,j,1,0.308700084686,moral_self_bias,19,20,59.9825528349,f,001,2018_Apr_02_1643,
,,,,,,,,,,,,,,,,,,,,,,material/11.png,1,高尚,material/111.png,1,material/111.png,高尚,1,f,f,f,1,1,1,高雅,,,,,,,,,0,129,129,90,,,,,,,,,,,,,,,,,moral_self_bias,19,20,59.9825528349,f,001,2018_Apr_02_1643,
,,,,,,,,,,,,,,,,,,,,,,material/166.png,1,孝顺,material/64.png,1,material/164.png,奉献,1,j,j,j,1,1,1,仗义,,,,,,,,,0,130,130,63,,,,,,,,,,,j,1,0.790863990784,,,,moral_self_bias,19,20,59.9825528349,f,001,2018_Apr_02_1643,
,,,,,,,,,,,,,,,,,,,,,,material/42.png,2,奸诈,material/142.png,2,material/142.png,奸诈,2,f,f,f,1,1,1,阴险,,,,,,,,,0,131,131,121,,,,,,,,,,,j,0,1.07480788231,,,,moral_self_bias,19,20,59.9825528349,f,001,2018_Apr_02_1643,
,,,,,,,,,,,,,,,,,,,,,,material/60.png,2,粗拙,material/160.png,2,material/60.png,笨拙,2,f,f,f,2,2,2,粗拙,,,,,,,,,0,132,132,139,,,,,,,,,,,j,0,1.74078512192,,,,moral_self_bias,19,20,59.9825528349,f,001,2018_Apr_02_1643,
,,,,,,,,,,,,,,,,,,,,,,material/18.png,1,敏锐,material/118.png,1,material/18.png,机敏,1,f,f,f,2,2,2,敏锐,,,,,,,,,0,133,133,97,0,0,0,0,,,,,,,f,1,0.842056035995,j,1,0.325638055801,moral_self_bias,19,20,59.9825528349,f,001,2018_Apr_02_1643,
,,,,,,,,,,,,,,,,,,,,,,material/18.png,1,敏锐,material/118.png,1,material/18.png,机敏,1,f,f,f,2,2,2,敏锐,,,,,,,,,0,133,133,97,,,,,,,,,,,,,,,,,moral_self_bias,19,20,59.9825528349,f,001,2018_Apr_02_1643,
,,,,,,,,,,,,,,,,,,,,,,material/65.png,1,勇敢,material/61.png,1,material/161.png,平等,1,j,j,j,1,1,1,谦虚,,,,,,,,,0,134,134,60,,,,,,,,,,,j,1,1.39154815674,,,,moral_self_bias,19,20,59.9825528349,f,001,2018_Apr_02_1643,
,,,,,,,,,,,,,,,,,,,,,,material/122.png,1,博学,material/22.png,1,material/122.png,才学,1,j,j,j,2,2,2,博学,,,,,,,,,0,135,135,21,0,0,0,0,,,,,,,f,0,1.14245295525,f,0,0.358535051346,moral_self_bias,19,20,59.9825528349,f,001,2018_Apr_02_1643,
,,,,,,,,,,,,,,,,,,,,,,material/122.png,1,博学,material/22.png,1,material/122.png,才学,1,j,j,j,2,2,2,博学,,,,,,,,,0,135,135,21,,,,,,,,,,,,,,,,,moral_self_bias,19,20,59.9825528349,f,001,2018_Apr_02_1643,
,,,,,,,,,,,,,,,,,,,,,,material/61.png,1,仗义,material/65.png,1,material/166.png,谦虚,1,j,j,j,1,1,1,平等,,,,,,,,,0,136,136,64,,,,,,,,,,,j,1,0.958998918533,,,,moral_self_bias,19,20,59.9825528349,f,001,2018_Apr_02_1643,
,,,,,,,,,,,,,,,,,,,,,,material/13.png,1,廉明,material/113.png,1,material/113.png,廉明,1,f,f,f,1,1,1,廉洁,,,,,,,,,0,137,137,92,0,0,0,0,,,,,,,f,1,3.55871295929,f,0,1.67468905449,moral_self_bias,19,20,59.9825528349,f,001,2018_Apr_02_1643,
,,,,,,,,,,,,,,,,,,,,,,material/13.png,1,廉明,material/113.png,1,material/113.png,廉明,1,f,f,f,1,1,1,廉洁,,,,,,,,,0,137,137,92,,,,,,,,,,,,,,,,,moral_self_bias,19,20,59.9825528349,f,001,2018_Apr_02_1643,
,,,,,,,,,,,,,,,,,,,,,,material/21.png,1,干练,material/121.png,1,material/21.png,精干,1,f,f,f,2,2,2,干练,,,,,,,,,0,138,138,100,0,0,0,0,,,,,,,f,1,1.80756902695,f,0,0.290598869324,moral_self_bias,19,20,59.9825528349,f,001,2018_Apr_02_1643,
,,,,,,,,,,,,,,,,,,,,,,material/21.png,1,干练,material/121.png,1,material/21.png,精干,1,f,f,f,2,2,2,干练,,,,,,,,,0,138,138,100,,,,,,,,,,,,,,,,,moral_self_bias,19,20,59.9825528349,f,001,2018_Apr_02_1643,
,,,,,,,,,,,,,,,,,,,,,,material/1.png,1,博爱,material/101.png,1,material/101.png,博爱,1,f,f,f,1,1,1,善良,,,,,,,,,0,139,139,80,0,0,0,0,,,,,,,f,1,1.29072594643,f,0,0.308695077896,moral_self_bias,19,20,59.9825528349,f,001,2018_Apr_02_1643,
,,,,,,,,,,,,,,,,,,,,,,material/1.png,1,博爱,material/101.png,1,material/101.png,博爱,1,f,f,f,1,1,1,善良,,,,,,,,,0,139,139,80,,,,,,,,,,,,,,,,,moral_self_bias,19,20,59.9825528349,f,001,2018_Apr_02_1643,
,,,,,,,,,,,,,,,,,,,,,,material/160.png,2,笨拙,material/60.png,2,material/160.png,粗拙,2,j,j,j,2,2,2,笨拙,,,,,,,,,0,140,140,59,,,,,,,,,,,j,1,1.75872683525,,,,moral_self_bias,19,20,59.9825528349,f,001,2018_Apr_02_1643,
,,,,,,,,,,,,,,,,,,,,,,material/26.png,1,刻苦,material/126.png,1,material/26.png,勤快,1,f,f,f,2,2,2,刻苦,,,,,,,,,0,141,141,105,0,0,0,0,,,,,,,f,1,0.949986934662,j,1,0.325049161911,moral_self_bias,19,20,59.9825528349,f,001,2018_Apr_02_1643,
,,,,,,,,,,,,,,,,,,,,,,material/26.png,1,刻苦,material/126.png,1,material/26.png,勤快,1,f,f,f,2,2,2,刻苦,,,,,,,,,0,141,141,105,,,,,,,,,,,,,,,,,moral_self_bias,19,20,59.9825528349,f,001,2018_Apr_02_1643,
,,,,,,,,,,,,,,,,,,,,,,material/148.png,2,笨蛋,material/48.png,2,material/148.png,愚蠢,2,j,j,j,2,2,2,笨蛋,,,,,,,,,0,142,142,47,,,,,,,,,,,j,1,1.39148902893,,,,moral_self_bias,19,20,59.9825528349,f,001,2018_Apr_02_1643,
,,,,,,,,,,,,,,,,,,,,,,material/101.png,1,善良,material/1.png,1,material/1.png,善良,1,j,j,j,1,1,1,博爱,,,,,,,,,0,143,143,0,0,0,0,0,,,,,,,f,0,0.857074975967,j,1,0.324983119965,moral_self_bias,19,20,59.9825528349,f,001,2018_Apr_02_1643,
,,,,,,,,,,,,,,,,,,,,,,material/101.png,1,善良,material/1.png,1,material/1.png,善良,1,j,j,j,1,1,1,博爱,,,,,,,,,0,143,143,0,,,,,,,,,,,,,,,,,moral_self_bias,19,20,59.9825528349,f,001,2018_Apr_02_1643,
,,,,,,,,,,,,,,,,,,,,,,material/119.png,1,机灵,material/19.png,1,material/119.png,灵活,1,j,j,j,2,2,2,机灵,,,,,,,,,0,144,144,18,,,,,,,,,,,j,1,4.82555007935,,,,moral_self_bias,19,20,59.9825528349,f,001,2018_Apr_02_1643,
,,,,,,,,,,,,,,,,,,,,,,material/177.png,2,谄媚,material/72.png,2,material/72.png,谄媚,2,j,j,j,1,1,1,恶心,,,,,,,,,0,145,145,69,,,,,,,,,,,j,1,0.601399898529,,,,moral_self_bias,19,20,59.9825528349,f,001,2018_Apr_02_1643,
,,,,,,,,,,,,,,,,,,,,,,material/170.png,1,坚忍,material/71.png,1,material/170.png,严谨,1,j,j,j,2,2,2,坚忍,,,,,,,,,0,146,146,68,,,,,,,,,,,j,1,1.0561439991,,,,moral_self_bias,19,20,59.9825528349,f,001,2018_Apr_02_1643,
,,,,,,,,,,,,,,,,,,,,,,material/71.png,1,严谨,material/68.png,1,material/71.png,广博,1,j,j,j,2,2,2,严谨,,,,,,,,,0,147,147,66,,,,,,,,,,,j,1,1.87540817261,,,,moral_self_bias,19,20,59.9825528349,f,001,2018_Apr_02_1643,
,,,,,,,,,,,,,,,,,,,,,,material/59.png,2,智障,material/159.png,2,material/59.png,弱智,2,f,f,f,2,2,2,智障,,,,,,,,,0,148,148,138,0,0,0,0,,,,,,,f,1,2.29157710075,j,1,0.359098911285,moral_self_bias,19,20,59.9825528349,f,001,2018_Apr_02_1643,
,,,,,,,,,,,,,,,,,,,,,,material/59.png,2,智障,material/159.png,2,material/59.png,弱智,2,f,f,f,2,2,2,智障,,,,,,,,,0,148,148,138,,,,,,,,,,,,,,,,,moral_self_bias,19,20,59.9825528349,f,001,2018_Apr_02_1643,
,,,,,,,,,,,,,,,,,,,,,,material/54.png,2,依赖,material/154.png,2,material/54.png,依靠,2,f,f,f,2,2,2,依赖,,,,,,,,,0,149,149,133,0,0,0,0,,,,,,,f,1,1.40818691254,f,0,0.333753108978,moral_self_bias,19,20,59.9825528349,f,001,2018_Apr_02_1643,
,,,,,,,,,,,,,,,,,,,,,,material/54.png,2,依赖,material/154.png,2,material/54.png,依靠,2,f,f,f,2,2,2,依赖,,,,,,,,,0,149,149,133,,,,,,,,,,,,,,,,,moral_self_bias,19,20,59.9825528349,f,001,2018_Apr_02_1643,
,,,,,,,,,,,,,,,,,,,,,,material/158.png,2,浅薄,material/58.png,2,material/158.png,肤浅,2,j,j,j,2,2,2,浅薄,,,,,,,,,0,150,150,57,,,,,,,,,,,j,1,0.79207110405,,,,moral_self_bias,19,20,59.9825528349,f,001,2018_Apr_02_1643,
,,,,,,,,,,,,,,,,,,,,,,material/171.png,1,高效,material/67.png,1,material/171.png,骁勇,1,j,j,j,2,2,2,高效,,,,,,,,,0,151,151,65,,,,,,,,,,,j,1,0.791415929794,,,,moral_self_bias,19,20,59.9825528349,f,001,2018_Apr_02_1643,
,,,,,,,,,,,,,,,,,,,,,,material/55.png,2,盲从,material/155.png,2,material/55.png,盲目,2,f,f,f,2,2,2,盲从,,,,,,,,,0,152,152,134,,,,,,,,,,,j,0,1.55836701393,,,,moral_self_bias,19,20,59.9825528349,f,001,2018_Apr_02_1643,
,,,,,,,,,,,,,,,,,,,,,,material/29.png,1,好学,material/129.png,1,material/29.png,好问,1,f,f,f,2,2,2,好学,,,,,,,,,0,153,153,108,0,0,0,0,,,,,,,f,1,0.957640886307,f,0,0.258274078369,moral_self_bias,19,20,59.9825528349,f,001,2018_Apr_02_1643,
,,,,,,,,,,,,,,,,,,,,,,material/29.png,1,好学,material/129.png,1,material/29.png,好问,1,f,f,f,2,2,2,好学,,,,,,,,,0,153,153,108,,,,,,,,,,,,,,,,,moral_self_bias,19,20,59.9825528349,f,001,2018_Apr_02_1643,
,,,,,,,,,,,,,,,,,,,,,,material/8.png,1,无私,material/108.png,1,material/108.png,无私,1,f,f,f,1,1,1,公道,,,,,,,,,0,154,154,87,0,0,0,0,,,,,,,f,1,1.14143109322,j,1,0.291323900223,moral_self_bias,19,20,59.9825528349,f,001,2018_Apr_02_1643,
,,,,,,,,,,,,,,,,,,,,,,material/8.png,1,无私,material/108.png,1,material/108.png,无私,1,f,f,f,1,1,1,公道,,,,,,,,,0,154,154,87,,,,,,,,,,,,,,,,,moral_self_bias,19,20,59.9825528349,f,001,2018_Apr_02_1643,
,,,,,,,,,,,,,,,,,,,,,,material/167.png,1,高手,material/169.png,1,material/167.png,颖悟,1,f,f,f,2,2,2,高手,,,,,,,,,0,155,155,148,0,0,0,0,,,,,,,f,1,1.00796294212,j,1,0.491178035736,moral_self_bias,19,20,59.9825528349,f,001,2018_Apr_02_1643,
,,,,,,,,,,,,,,,,,,,,,,material/167.png,1,高手,material/169.png,1,material/167.png,颖悟,1,f,f,f,2,2,2,高手,,,,,,,,,0,155,155,148,,,,,,,,,,,,,,,,,moral_self_bias,19,20,59.9825528349,f,001,2018_Apr_02_1643,
,,,,,,,,,,,,,,,,,,,,,,material/51.png,2,糊涂,material/151.png,2,material/51.png,迷糊,2,f,f,f,2,2,2,糊涂,,,,,,,,,0,156,156,130,,,,,,,,,,,j,0,1.52460503578,,,,moral_self_bias,19,20,59.9825528349,f,001,2018_Apr_02_1643,
,,,,,,,,,,,,,,,,,,,,,,material/145.png,2,下流,material/45.png,2,material/45.png,下流,2,j,j,j,1,1,1,小人,,,,,,,,,0,157,157,44,,,,,,,,,,,j,1,0.625182151794,,,,moral_self_bias,19,20,59.9825528349,f,001,2018_Apr_02_1643,
,,,,,,,,,,,,,,,,,,,,,,material/178.png,2,窝囊,material/82.png,2,material/82.png,窝囊,2,j,j,j,2,2,2,毛糙,,,,,,,,,0,158,158,78,,,,,,,,,,,j,1,1.0089738369,,,,moral_self_bias,19,20,59.9825528349,f,001,2018_Apr_02_1643,
,,,,,,,,,,,,,,,,,,,,,,material/143.png,2,拜金,material/43.png,2,material/43.png,拜金,2,j,j,j,1,1,1,虚荣,,,,,,,,,0,159,159,42,,,,,,,,,,,j,1,0.524024009705,,,,moral_self_bias,19,20,59.9825528349,f,001,2018_Apr_02_1643,
,,,,,,,,,,,,,,,,,,,,,,material/103.png,1,仁慈,material/3.png,1,material/3.png,仁慈,1,j,j,j,1,1,1,仁厚,,,,,,,,,0,160,160,2,,,,,,,,,,,j,1,2.4918448925,,,,moral_self_bias,19,20,59.9825528349,f,001,2018_Apr_02_1643,
,,,,,,,,,,,,,,,,,,,,,,material/20.png,1,厉害,material/120.png,1,material/20.png,能干,1,f,f,f,2,2,2,厉害,,,,,,,,,0,161,161,99,,,,,,,,,,,j,0,0.875262022018,,,,moral_self_bias,19,20,59.9825528349,f,001,2018_Apr_02_1643,
,,,,,,,,,,,,,,,,,,,,,,material/104.png,1,友爱,material/4.png,1,material/4.png,友爱,1,j,j,j,1,1,1,友善,,,,,,,,,0,162,162,3,,,,,,,,,,,j,1,1.20775008202,,,,moral_self_bias,19,20,59.9825528349,f,001,2018_Apr_02_1643,
,,,,,,,,,,,,,,,,,,,,,,material/132.png,2,不忠,material/32.png,2,material/32.png,不忠,2,j,j,j,1,1,1,背叛,,,,,,,,,0,163,163,31,,,,,,,,,,,j,1,0.659105062485,,,,moral_self_bias,19,20,59.9825528349,f,001,2018_Apr_02_1643,
,,,,,,,,,,,,,,,,,,,,,,material/33.png,2,贪污,material/133.png,2,material/133.png,贪污,2,f,f,f,1,1,1,腐败,,,,,,,,,0,164,164,112,,,,,,,,,,,j,0,0.45778298378,,,,moral_self_bias,19,20,59.9825528349,f,001,2018_Apr_02_1643,
,,,,,,,,,,,,,,,,,,,,,,material/19.png,1,灵活,material/119.png,1,material/19.png,机灵,1,f,f,f,2,2,2,灵活,,,,,,,,,0,165,165,98,0,0,0,0,,,,,,,f,1,0.791688919067,j,1,0.408196210861,moral_self_bias,19,20,59.9825528349,f,001,2018_Apr_02_1643,
,,,,,,,,,,,,,,,,,,,,,,material/19.png,1,灵活,material/119.png,1,material/19.png,机灵,1,f,f,f,2,2,2,灵活,,,,,,,,,0,165,165,98,,,,,,,,,,,,,,,,,moral_self_bias,19,20,59.9825528349,f,001,2018_Apr_02_1643,
,,,,,,,,,,,,,,,,,,,,,,material/82.png,2,毛糙,material/183.png,2,material/178.png,薄弱,2,f,f,f,2,2,2,窝囊,,,,,,,,,0,166,166,162,,,,,,,,,,,j,0,0.674885034561,,,,moral_self_bias,19,20,59.9825528349,f,001,2018_Apr_02_1643,
,,,,,,,,,,,,,,,,,,,,,,material/176.png,2,害人,material/75.png,2,material/75.png,害人,2,j,j,j,1,1,1,放纵,,,,,,,,,0,167,167,71,,,,,,,,,,,j,1,0.507841825485,,,,moral_self_bias,19,20,59.9825528349,f,001,2018_Apr_02_1643,
